Label,Left_Hip_q,Right_Hip_q,Left_Hip_qd,Right_Hip_qd,SampleTimeFine
fw,-66.9454956054687,-83.9437255859375,28.7717666625976,72.823486328125,1612208441
fw,-67.6289443969726,-82.6586456298828,38.44752161541909,76.00747694690416,1612225108
fw,-68.1392059326171,-81.4203643798828,31.96791809038123,74.52855485690013,1612241775
fw,-68.6697769165039,-80.2971267700195,26.548400499969663,72.50063633326805,1612258442
fw,-69.3144760131836,-79.2845458984375,23.012497096130243,69.29258943760092,1612275109
fw,-69.8169708251953,-78.3707504272461,21.905864417754323,64.07267774505169,1612291776
fw,-70.153450012207,-77.5868072509765,23.39231409103668,55.85157004047215,1612308443
fw,-70.422607421875,-76.8976364135742,27.18743037956474,43.65515028809501,1612325110
fw,-70.8333892822265,-76.2635040283203,32.566478530414024,26.79585390386992,1612341777
fw,-71.3972015380859,-75.7881927490234,38.48222965750045,5.16316736588479,1612358444
fw,-72.3760681152343,-75.7617950439453,43.79655874989093,-20.575798272322952,1612375111
fw,-73.6308364868164,-76.4746170043945,47.57578099306645,-48.964676116889365,1612391778
fw,-74.7269134521484,-77.9269714355468,49.35297621444507,-77.9759584880204,1612408445
fw,-75.6875762939453,-79.7997817993164,49.25311053713584,-105.41171178539689,1612425112
fw,-76.538589477539,-81.5710525512695,47.92125569410458,-129.36333312877366,1612441779
fw,-77.0158004760742,-82.5015792846679,46.27265101253211,-148.5814389729838,1612458446
fw,-77.4740295410156,-82.2891693115234,45.15807906166341,-162.64476778397173,1612475113
fw,-77.8935623168945,-81.573989868164,45.074179108878184,-171.8971854918092,1612491780
fw,-78.3090896606445,-80.7281188964843,46.02926970147388,-177.20550871670213,1612508447
fw,-78.9548263549804,-79.3729171752929,47.60827724853796,-179.64106432640827,1612525114
fw,-79.7423248291015,-77.4126510620117,49.19496012324596,-180.18769761630128,1612541781
fw,-80.3426818847656,-75.0117721557617,50.24539449795101,-179.5398385151013,1612558448
fw,-80.5234832763671,-72.3739547729492,50.49404364400527,-178.00645575821594,1612575115
fw,-80.3419342041015,-69.6831436157226,50.0167379174904,-175.50578027059862,1612591782
fw,-79.8875961303711,-67.0663375854492,49.14738676144714,-171.62762616673817,1612608449
fw,-79.2658386230468,-64.6604080200195,48.30732393445249,-165.74580511539338,1612625116
fw,-78.5543212890625,-62.379150390625,47.83036800285208,-157.16921907725555,1612641783
fw,-77.8355941772461,-60.1840209960937,47.851008359616344,-145.31742269861826,1612658450
fw,-77.149658203125,-58.1856117248535,48.284299203658776,-129.89507592656162,1612675117
fw,-76.4715042114257,-56.509220123291,48.88522804106162,-111.02994748419434,1612691784
fw,-75.8164978027343,-55.188060760498,49.34840680584069,-89.34158605303276,1612708451
fw,-75.1983642578125,-54.1754302978515,49.40291194106086,-65.9220693531468,1612725118
fw,-74.5685653686523,-53.4846572875976,48.870231205998394,-42.226149991133475,1612741785
fw,-73.8619689941406,-53.2596778869628,47.676969981015425,-19.87919834910998,1612758452
fw,-73.0729598999023,-53.4938583374023,45.83593475268408,-0.4230335152237018,1612775119
fw,-72.2295761108398,-54.0894775390625,43.41874889221567,14.960213169984993,1612791786
fw,-71.4054412841796,-54.715518951416,40.53745970052359,25.682826458401692,1612808453
fw,-70.6692504882812,-55.3360366821289,37.33844678724242,31.87321175779029,1612825120
fw,-70.0164947509765,-55.9280548095703,33.99949285613414,34.33427674308108,1612841787
fw,-69.3855743408203,-56.4513969421386,30.715592175265783,34.3358213381974,1612858454
fw,-68.8201446533203,-57.1042175292968,27.6605627768958,33.292851702213895,1612875121
fw,-68.367561340332,-57.745506286621,24.91875824814213,32.42064816161422,1612891788
fw,-68.0396118164062,-58.2738075256347,22.395284120019497,32.46743042269951,1612908455
fw,-67.8465805053711,-58.7777404785156,19.733138926238855,33.60638844058991,1612925122
fw,-67.7503280639648,-59.4810638427734,16.28266807457916,35.52591380000108,1612941789
fw,-67.6384582519531,-60.6391906738281,11.167481308366098,37.69388295705988,1612958456
fw,-67.4702835083007,-62.2977600097656,3.4615887197433763,39.699372846713125,1612975123
fw,-67.4165115356445,-63.823673248291,-7.557601793481312,41.52350300640545,1612991790
fw,-67.6098251342773,-64.7243118286132,-22.161182449639757,43.601497384895865,1613008457
fw,-68.3281326293945,-65.224853515625,-40.01812241033305,46.62783300624594,1613025124
fw,-69.7760696411132,-65.6560440063476,-60.20046620746619,51.188802174260175,1613041791
fw,-71.8789138793945,-66.4181747436523,-81.33721092123974,57.40466411495198,1613058458
fw,-74.2894439697265,-67.7965240478515,-101.84973744896466,64.76379059773288,1613075125
fw,-76.8091964721679,-69.5052719116211,-120.184205492086,72.23313129600493,1613091792
fw,-79.2935485839843,-71.3510208129882,-134.9902557760898,78.59297934409253,1613108459
fw,-81.637710571289,-73.208869934082,-145.2497880998545,82.84503001291266,1613125126
fw,-83.5252838134765,-74.8081817626953,-150.38779838175955,84.52473712281957,1613141793
fw,-84.4923477172851,-76.1623458862304,-150.37854735101848,83.8073757201328,1613158460
fw,-84.1422119140625,-77.439826965332,-145.8162216655125,81.39359281204744,1613175127
fw,-82.843879699707,-78.6853408813476,-137.88993276808108,78.24647362238254,1613191794
fw,-81.2654495239257,-79.9572525024414,-128.21409456454103,75.29262060489233,1613208461
fw,-79.6796112060546,-81.2207870483398,-118.51487207205297,73.18680792487424,1613225128
fw,-78.2722778320312,-82.4433212280273,-110.2379069179138,72.19344505565317,1613241795
fw,-76.9090576171875,-83.7037506103515,-104.19048533614676,72.18856602291817,1613258462
fw,-75.3620376586914,-85.0697784423828,-100.33755934970193,72.75401151885478,1613275129
fw,-73.5733566284179,-86.4643783569336,-97.82757749324493,73.32426582837877,1613291796
fw,-71.7131881713867,-87.8069763183593,-95.2460807179171,73.34792924521913,1613308463
fw,-69.9991226196289,-89.0639343261718,-91.01722537982991,72.43111138151637,1613325130
fw,-68.5269622802734,-89.3350067138671,-83.83171279256884,70.43552230289247,1613341797
fw,-67.3303833007812,-88.237190246582,-72.98733214992941,67.5110013029644,1613358464
fw,-66.3761444091796,-87.1670379638671,-58.56950667433892,64.05357708152306,1613375131
fw,-65.6307601928711,-86.2275772094726,-41.446068603256876,60.59702307665514,1613391798
fw,-65.1884689331054,-85.3470993041992,-23.086415492200956,57.66470801656945,1613408465
fw,-65.2416229248046,-84.4589309692382,-5.2427224193091275,55.62117401757069,1613425132
fw,-65.8739318847656,-83.539321899414,10.44006487226405,54.56158730370927,1613441799
fw,-66.6640167236328,-82.5770950317382,22.79008808344085,54.26148723206709,1613458466
fw,-67.1160812377929,-81.5614852905273,31.347248423340286,54.1873555087759,1613475133
fw,-67.6888351440429,-80.5709762573242,36.40492963852681,53.55215300356703,1613491800
fw,-68.5101165771484,-79.7698822021484,38.85046969792991,51.397413838270104,1613508467
fw,-69.2564010620117,-79.2110824584961,39.86251147038931,46.69498774953285,1613525134
fw,-69.7175979614257,-78.7375030517578,40.55712193825707,38.47705535479354,1613541801
fw,-70.0996704101562,-78.3039855957031,41.68272140020786,26.005603893142066,1613558468
fw,-70.7422332763671,-77.9702682495117,43.454607061155244,8.970628115101709,1613575135
fw,-71.6071472167968,-77.8318252563476,45.58518590377366,-12.332396947838047,1613591802
fw,-72.8497085571289,-78.0652618408203,47.49995261352978,-36.924300050866144,1613608469
fw,-74.0236358642578,-79.0204010009765,48.65352429470498,-63.23314599177707,1613625136
fw,-75.059814453125,-80.8135528564453,48.81531193588766,-89.36850578008388,1613641803
fw,-76.0461654663086,-82.9330902099609,48.207065283085704,-113.51103314617383,1613658470
fw,-76.9334487915039,-84.1384963989257,47.43739344342876,-134.28578020916004,1613675137
fw,-77.4742965698242,-83.6215744018554,47.260990306787946,-150.98602453263103,1613691804
fw,-77.8806228637695,-81.9812927246093,48.2609346700961,-163.58068911589817,1613708471
fw,-78.3155288696289,-80.3683471679687,50.58715195963155,-172.53264912129427,1613725138
fw,-78.8488693237304,-78.8535003662109,53.86617383511436,-178.52254542049798,1613741805
fw,-79.643928527832,-77.0293350219726,57.326018088934816,-182.18428060938027,1613758472
fw,-80.6911163330078,-74.8169021606445,60.08310490176625,-183.9239586226565,1613775139
fw,-81.5440902709961,-72.3337631225586,61.46404635061059,-183.84507177774054,1613791806
fw,-81.7996520996093,-69.6141281127929,61.22404451897588,-181.7662960456814,1613808473
fw,-81.5235137939453,-66.9196319580078,59.58057793601111,-177.30246373563992,1613825140
fw,-80.8936004638671,-64.3605422973632,57.07183699639026,-169.97845546522794,1613841807
fw,-80.0641174316406,-62.0632095336914,54.32315945130829,-159.35299819498422,1613858474
fw,-79.2419738769531,-60.0969772338867,51.82741979384484,-145.13974485686487,1613875141
fw,-78.5399093627929,-58.1824836730957,49.81704911334076,-127.31984140774057,1613891808
fw,-77.8821182250976,-56.4075088500976,48.251781020639314,-106.23703280051653,1613908475
fw,-77.2408447265625,-55.0544891357421,46.89762400015044,-82.65499155863311,1613925142
fw,-76.6547698974609,-54.1132736206054,45.447713222709325,-57.74887341231592,1613941809
fw,-76.0763931274414,-53.5531311035156,43.63686772441047,-33.01036609931829,1613958476
fw,-75.4528427124023,-53.4056587219238,41.31940197903788,-10.066427404992291,1613975143
fw,-74.7600402832031,-53.7116966247558,38.50159619298287,9.563695839504055,1613991810
fw,-74.0202713012695,-54.3591270446777,35.33693864004992,24.727585099831696,1614008477
fw,-73.3031234741211,-55.1373977661132,32.09903612331412,34.85437335598387,1614025144
fw,-72.6360778808593,-55.8267211914062,29.143411906811327,40.06245878490787,1614041811
fw,-72.0245895385742,-56.2896041870117,26.85910648373602,41.118424489118965,1614058478
fw,-71.414794921875,-56.7239532470703,25.601299015562336,39.24940545598173,1614075145
fw,-70.8066635131836,-57.3358726501464,25.59487461330726,35.86065249707332,1614091812
fw,-70.2861938476562,-57.9002876281738,26.810833836722786,32.23975870342923,1614108479
fw,-69.9279174804687,-58.4256706237793,28.84112127961563,29.327491217990072,1614125146
fw,-69.6473236083984,-58.9220886230468,30.822582048564886,27.611908951806672,1614141813
fw,-69.3019256591796,-59.4729843139648,31.470622261193444,27.170499969629418,1614158480
fw,-68.8953781127929,-60.4202651977539,29.26316707875689,27.84455776436679,1614175147
fw,-68.4682464599609,-61.8180198669433,22.764350345176595,29.478679499174433,1614191814
fw,-68.158576965332,-63.2388305664062,11.01284698032425,32.11453560457902,1614208481
fw,-68.1804656982421,-64.0670623779296,-6.1468111880499565,36.029896384857324,1614225148
fw,-68.6554183959961,-64.5162048339843,-27.911729384475024,41.58392794385581,1614241815
fw,-69.7970581054687,-65.0395584106445,-52.614487546347895,48.94012888258465,1614258482
fw,-71.6675491333007,-65.9051284790039,-78.04205758732145,57.819185077702066,1614275149
fw,-74.0428924560546,-67.3609008789062,-101.87499927191817,67.42766390496185,1614291816
fw,-76.6183929443359,-69.1953582763671,-122.10478814109864,76.61683350003182,1614308483
fw,-79.1498641967773,-71.1099166870117,-137.3153698662654,84.20657149032694,1614325150
fw,-81.6178894042968,-72.9662322998046,-146.79099340581354,89.33065288795967,1614341817
fw,-83.7043685913086,-74.572883605957,-150.48848993382632,91.65863223158202,1614358484
fw,-84.9872589111328,-75.9777603149414,-148.9445310879738,91.41766836816731,1614375151
fw,-84.8735580444336,-77.3444519042968,-143.1682882087885,89.2331827969596,1614391818
fw,-83.594612121582,-78.7446594238281,-134.52440911748147,85.88020509253967,1614408485
fw,-81.9415817260742,-80.1905364990234,-124.5781983734396,82.05566229273093,1614425152
fw,-80.2963180541992,-81.6414260864257,-114.87763625355306,78.24668502494453,1614441819
fw,-78.7615585327148,-83.0192260742187,-106.68306903764991,74.70993880813411,1614458486
fw,-77.4192886352539,-84.3200759887695,-100.70193196916706,71.52742641208408,1614475153
fw,-75.995979309082,-85.5762329101562,-96.91412443574886,68.68611874366016,1614491820
fw,-74.4021301269531,-86.7391967773437,-94.56443447575998,66.14080999241379,1614508487
fw,-72.6690673828125,-87.7736663818359,-92.35048877662129,63.84536572225973,1614525154
fw,-71.0130615234375,-88.6470870971679,-88.76744031500219,61.759671129984184,1614541821
fw,-69.5493850708007,-89.1184005737304,-82.51579543907503,59.8490552265878,1614558488
fw,-68.2865905761718,-88.6565170288086,-72.86056580507608,58.08959746542704,1614575155
fw,-67.2314224243164,-87.8194122314453,-59.84913858990164,56.48192336697889,1614591822
fw,-66.416763305664,-86.9412307739257,-44.33479182350496,55.06562282558196,1614608489
fw,-65.8866195678711,-86.043586730957,-27.79647755323248,53.92223096607945,1614625156
fw,-65.7891235351562,-85.1064758300781,-11.989111288886075,53.15712149489066,1614641823
fw,-66.3165512084961,-84.1117706298828,1.496237611572599,52.85564010655297,1614658490
fw,-67.0830307006836,-83.1405334472656,11.643406050264177,53.01388647165302,1614675157
fw,-67.4319763183593,-82.2717361450195,18.26385500434535,53.45204370571034,1614691824
fw,-67.6911849975586,-81.4805526733398,22.002605937918382,53.7308925127358,1614708491
fw,-68.1032943725586,-80.7374954223632,24.09522250864855,53.106599682891634,1614725158
fw,-68.5204696655273,-80.0422058105468,25.961830469024125,50.56445822787072,1614741825
fw,-68.9156265258789,-79.3621444702148,28.770645668266088,44.958895439496466,1614758492
fw,-69.2522506713867,-78.6994476318359,33.10015138521456,35.25348248539484,1614775159
fw,-69.6959152221679,-78.1302032470703,38.794305069789246,20.810641026337223,1614791826
fw,-70.4452209472656,-77.7967147827148,45.052688621894816,1.643760107535976,1614808493
fw,-71.7633056640625,-77.8189468383789,50.729866069737824,-21.466255619786093,1614825160
fw,-73.2456359863281,-78.4554367065429,54.74575973834118,-47.05923075255635,1614841827
fw,-74.3509521484375,-79.9380340576171,56.461364604330356,-73.29063456330746,1614858494
fw,-75.3721923828125,-82.046142578125,55.88352588635858,-98.34953862822205,1614875161
fw,-76.3939132690429,-83.6330871582031,53.63128101879515,-120.85158656895113,1614891828
fw,-76.9914474487304,-83.3641662597656,50.68995988649491,-140.05817996397863,1614908495
fw,-77.4402236938476,-81.6553192138671,48.05490666206803,-155.84998103233895,1614925162
fw,-77.9681091308593,-80.1025848388671,46.399727354303685,-168.49968047398988,1614941829
fw,-78.344367980957,-78.9209747314453,45.88777183310117,-178.3749550114909,1614958496
fw,-78.784797668457,-77.4879379272461,46.1861272294581,-185.70793538863202,1614975163
fw,-79.404914855957,-75.4991989135742,46.66079508688239,-190.50244680985753,1614991830
fw,-79.9387054443359,-73.0699768066406,46.66353899343173,-192.5692343998096,1615008497
fw,-80.0601577758789,-70.3245468139648,45.794003422607844,-191.63080533869862,1615025164
fw,-79.8906097412109,-67.4259033203125,44.04459570591443,-187.43189524586742,1615041831
fw,-79.5392379760742,-64.6719818115234,41.794219169542686,-179.81231096448593,1615058498
fw,-79.0833969116211,-62.2404556274414,39.677112770831215,-168.72910684432148,1615075165
fw,-78.5844955444336,-60.2479591369628,38.38704433186849,-154.24548874769985,1615091832
fw,-78.0911483764648,-58.4865760803222,38.47932898106071,-136.52441869835093,1615108499
fw,-77.5661163330078,-56.7627220153808,40.216495509101236,-115.86305044803831,1615125166
fw,-76.9701385498046,-55.2160949707031,43.484215474618026,-92.77606471620115,1615141833
fw,-76.3482360839843,-54.0154113769531,47.79045982747782,-68.09553709966487,1615158500
fw,-75.7104568481445,-53.2351570129394,52.350283993700394,-43.02684750296753,1615175167
fw,-75.046646118164,-52.9082450866699,56.24461654125697,-19.10200556695043,1615191834
fw,-74.3317489624023,-53.0711936950683,58.62272353624206,1.9967187712848626,1615208501
fw,-73.566535949707,-53.7115097045898,58.901617550069034,18.722456135461094,1615225168
fw,-72.7843551635742,-54.5494079589843,56.91078828403121,29.99208034246104,1615241835
fw,-72.014045715332,-55.2799339294433,52.941432339679984,35.46288953127961,1615258502
fw,-71.2634582519531,-55.8497505187988,47.68290379480444,35.66781815262017,1615275169
fw,-70.5280990600586,-56.3482818603515,42.057421527489794,31.957671341809068,1615291836
fw,-69.8448715209961,-56.9434127807617,36.9878829972268,26.254616770184015,1615308503
fw,-69.2854537963867,-57.4872169494628,33.14728164915465,20.67016115707235,1615325170
fw,-68.8584518432617,-57.8379936218261,30.74272658880553,17.069830086302787,1615341837
fw,-68.4928817749023,-58.0648307800293,29.386441614562678,16.679927649604778,1615358504
fw,-68.1311416625976,-58.253189086914,28.099508859954778,19.83580213061652,1615375171
fw,-67.7727432250976,-58.7129096984863,25.473910715922592,25.957353404926657,1615391838
fw,-67.4160766601562,-59.8440475463867,19.97895265103535,33.7866197980855,1615408505
fw,-67.1187362670898,-61.5138931274414,10.346799280213402,41.831413109722114,1615425172
fw,-67.0442657470703,-63.2452774047851,-4.0694262774508685,48.86386987516203,1615441839
fw,-67.3232116699218,-64.5772705078125,-23.077763453510457,54.28367917277362,1615458506
fw,-68.1947479248046,-65.4543075561523,-45.642084519072434,58.210364025813895,1615475173
fw,-69.9169311523437,-66.1593475341796,-70.08589718938069,61.29457489521216,1615491840
fw,-72.3652420043945,-66.956314086914,-94.42350200053744,64.36307526479293,1615508507
fw,-75.1751022338867,-68.1197891235351,-116.69692580632702,68.06749068069524,1615525174
fw,-77.9962997436523,-69.6650924682617,-135.22206734920076,72.67293090641826,1615541841
fw,-80.7095336914062,-71.34765625,-148.7236828896392,78.03186610678634,1615558508
fw,-83.1682739257812,-73.0554275512695,-156.41172784968563,83.6977412128928,1615575175
fw,-84.9857788085937,-74.6676177978515,-158.06482791594593,89.08738827596044,1615591842
fw,-85.2688217163086,-76.19091796875,-154.1315731265032,93.61380775446281,1615608509
fw,-83.8573303222656,-77.7156829833984,-145.7842862490886,96.75996917867715,1615625176
fw,-82.0386428833007,-79.2719497680664,-134.8257920179988,98.11304972033977,1615641843
fw,-80.3767395019531,-80.9100799560546,-123.3886781004804,97.39820879588844,1615658510
fw,-78.8824691772461,-82.608772277832,-113.46066871478577,94.53542954998322,1615675177
fw,-77.5785369873046,-84.2688598632812,-106.36729170689178,89.70795231101876,1615691844
fw,-76.1667175292968,-85.8294601440429,-102.3906920215652,83.40171733485704,1615708511
fw,-74.4866180419921,-87.2682723999023,-100.67441857618368,76.37144823384205,1615725178
fw,-72.5449905395507,-88.5027618408203,-99.46829529045374,69.51409667594224,1615741845
fw,-70.622200012207,-89.3896255493164,-96.64603983050546,63.67207398291419,1615758512
fw,-68.9071273803711,-89.4883346557617,-90.33454350791455,59.42697582957431,1615775179
fw,-67.464973449707,-88.792121887207,-79.46527090121512,56.96047662661389,1615791846
fw,-66.3212127685546,-87.8102798461914,-64.09603462295564,56.04147755947547,1615808513
fw,-65.4953994750976,-86.6501693725586,-45.42656121342146,56.1501140294504,1615825180
fw,-65.1353378295898,-85.4484786987304,-25.512359387355268,56.68997714525824,1615841847
fw,-65.3939590454101,-84.2909317016601,-6.753211012526062,57.199568449307755,1615858514
fw,-66.0074996948242,-83.2139816284179,8.709712464133771,57.473634726779906,1615875181
fw,-66.7874221801757,-82.2638092041015,19.521907631702454,57.5437587146402,1615891848
fw,-67.3246841430664,-81.4135437011718,25.416009409654034,57.52577342811813,1615908515
fw,-67.7251281738281,-80.5756072998046,27.20014075178952,57.39450429959698,1615925182
fw,-68.1894149780273,-79.7967147827148,26.451181760582834,56.77581425046899,1615941849
fw,-68.6546325683593,-79.0641021728515,25.020735439044138,54.84463352273555,1615958516
fw,-69.0299606323242,-78.3211975097656,24.50659897489482,50.38800769284657,1615975183
fw,-69.1609115600586,-77.6354293823242,25.8383540803385,42.04245839148323,1615991850
fw,-69.4295425415039,-76.993782043457,29.088618872544803,28.656603384048456,1616008517
fw,-70.0340728759765,-76.434211730957,33.56211565714553,9.677937400865067,1616025184
fw,-71.0971755981445,-76.2470932006836,38.134193461229465,-14.56467128659625,1616041851
fw,-72.6052703857421,-76.795669555664,41.721743359555454,-42.795998472832856,1616058518
fw,-73.6721801757812,-78.1772003173828,43.70967925655485,-72.99545076970534,1616075185
fw,-74.5126724243164,-80.0827407836914,44.16651442819663,-102.81518295629944,1616091852
fw,-75.1226196289062,-81.5671615600586,43.771018008099176,-130.07944106452456,1616108519
fw,-75.5153121948242,-81.8760757446289,43.49763993138733,-153.1987956945271,1616125186
fw,-76.0015335083007,-81.1648941040039,44.20738890664007,-171.37609496866182,1616141853
fw,-76.6064224243164,-80.5025177001953,46.318107216294464,-184.57161683840582,1616158520
fw,-77.3334808349609,-79.8692550659179,49.678421307111066,-193.2832023805911,1616175187
fw,-78.347785949707,-78.5425186157226,53.67203256617941,-198.24365024981952,1616191854
fw,-79.4146118164062,-76.4238052368164,57.47991455413579,-200.1348045051478,1616208521
fw,-80.169448852539,-73.8133697509765,60.37191516240675,-199.38575677288523,1616225188
fw,-80.4306945800781,-70.8517608642578,61.9091325723218,-196.0860934328207,1616241855
fw,-80.3086013793945,-67.8778381347656,62.00242043066014,-190.0147688905297,1616258522
fw,-79.9950408935546,-65.1171340942382,60.84899326494225,-180.76142706697024,1616275189
fw,-79.6350173950195,-62.6244010925293,58.81423506414971,-167.90236219967943,1616291856
fw,-79.2585296630859,-60.4200248718261,56.32254233074222,-151.19068140414603,1616308523
fw,-78.8149795532226,-58.4678955078125,53.78601986135754,-130.72512395285213,1616325190
fw,-78.2626647949218,-56.7043418884277,51.56416371161454,-107.06685481697176,1616341857
fw,-77.5990219116211,-55.2871475219726,49.93288854936072,-81.27705527033281,1616358524
fw,-76.8671493530273,-54.3084411621093,49.049107893081555,-54.855204491568884,1616375191
fw,-76.1115646362304,-53.7902793884277,48.91499385754726,-29.572943173189575,1616391858
fw,-75.2849655151367,-53.7065467834472,49.359565223946326,-7.220491959007863,1616408525
fw,-74.3628158569336,-54.0777320861816,50.056524649787214,10.693362519709158,1616425192
fw,-73.3688583374023,-54.7493667602539,50.586111371497,23.226465746123743,1616441859
fw,-72.3565063476562,-55.4870223999023,50.53033247639086,30.201934968429562,1616458526
fw,-71.3802032470703,-56.0951805114746,49.57348939901907,32.25611502715733,1616475193
fw,-70.4745254516601,-56.5783500671386,47.571416084241655,30.704610320206527,1616491860
fw,-69.6602783203125,-57.011131286621,44.55749303438246,27.248720414838196,1616508527
fw,-68.9156875610351,-57.5081596374511,40.67116884044066,23.598540482309193,1616525194
fw,-68.345458984375,-57.8669052124023,36.0227239938783,21.119127063037986,1616541861
fw,-67.9913177490234,-58.2247123718261,30.54034929051305,20.600973354942987,1616558528
fw,-67.7406005859375,-58.73823928833,23.869612035157754,22.21934289372657,1616575195
fw,-67.5027160644531,-59.5523300170898,15.393193179212606,25.687873722659084,1616591862
fw,-67.2695007324218,-60.9300079345703,4.398975962930587,30.541612188450934,1616608529
fw,-67.1120834350586,-62.4624366760253,-9.643100440824194,36.42560653142409,1616625196
fw,-67.2427825927734,-63.5318603515625,-26.797447554267674,43.25200828947017,1616641863
fw,-67.8890609741211,-64.1394348144531,-46.493300768834864,51.14609011132032,1616658530
fw,-69.306900024414,-64.7605590820312,-67.54815800849401,60.21307905336851,1616675197
fw,-71.5275421142578,-65.7166366577148,-88.37938405730537,70.26088601124252,1616691864
fw,-74.1048965454101,-67.2182388305664,-107.31964821409423,80.6417714269771,1616708531
fw,-76.6993789672851,-69.0688171386718,-122.92201264329812,90.31057319673882,1616725198
fw,-79.2222900390625,-71.1285934448242,-134.1739547526645,98.08186483742618,1616741865
fw,-81.4477157592773,-73.2186813354492,-140.6050583363202,102.9719072245104,1616758532
fw,-83.122314453125,-75.0757827758789,-142.3179004116215,104.48061186348245,1616775199
fw,-83.804702758789,-76.7163543701171,-139.96740159392482,102.70931142089577,1616791866
fw,-83.4206390380859,-78.2246170043945,-134.67920809480253,98.29225134022943,1616808533
fw,-82.4973449707031,-79.7126007080078,-127.87640547910534,92.19755500735508,1616825200
fw,-81.373291015625,-81.1799163818359,-121.00468119973023,85.48933690172608,1616841867
fw,-80.0438461303711,-82.555793762207,-115.20005455961272,79.12805369106455,1616858534
fw,-78.5668869018554,-83.7844848632812,-110.99372875190694,73.84308586123979,1616875201
fw,-76.9458236694336,-84.9470520019531,-108.16033255427855,70.07251208219462,1616891868
fw,-75.1177215576171,-86.1113357543945,-105.77836533240423,67.94972949536142,1616908535
fw,-73.1655197143554,-87.2021560668945,-102.5007640693802,67.3230366209774,1616925202
fw,-71.2755050659179,-88.1712646484375,-96.95908158575118,67.80738792776883,1616941869
fw,-69.6290206909179,-88.8048324584961,-88.17775750109689,68.87291610705134,1616958536
fw,-68.2549362182617,-88.4758224487304,-75.87413150723722,69.96693199753706,1616975203
fw,-67.1911239624023,-87.345832824707,-60.56157411903979,70.64823543109625,1616991870
fw,-66.42724609375,-86.0050277709961,-43.43505599082377,70.69420350560361,1617008537
fw,-66.0296325683593,-84.7482681274414,-26.076723765828966,70.13514833601172,1617025204
fw,-66.1072921752929,-83.6420211791992,-10.06206659057845,69.18704550390842,1617041871
fw,-66.6436920166015,-82.6282348632812,3.426315023307463,68.09119164192357,1617058538
fw,-67.2584381103515,-81.6096038818359,13.864681653935987,66.91085516912429,1617075205
fw,-67.4880065917968,-80.6072769165039,21.44875451664699,65.35891619793082,1617091872
fw,-67.7176361083984,-79.6587371826171,26.930114455998826,62.72584453290754,1617108539
fw,-68.296516418457,-78.7985534667968,31.29221098634787,57.948836812080714,1617125206
fw,-68.8924484252929,-77.9904556274414,35.385536470756655,49.82256709645839,1617141873
fw,-69.3947296142578,-77.2538909912109,39.644408888196004,37.30955705702197,1617158540
fw,-69.9517364501953,-76.6383743286132,43.97012884728544,19.870784353298152,1617175207
fw,-70.7575302124023,-76.3321151733398,47.812904580942416,-2.2850448398167833,1617191874
fw,-71.8214645385742,-76.5694885253906,50.42799169864345,-28.128163186558897,1617208541
fw,-73.3046798706054,-77.5323715209961,51.22206046327669,-55.959543566361305,1617225208
fw,-74.6170196533203,-79.1778564453125,50.060866433555006,-83.7605642203316,1617241875
fw,-75.4790954589843,-81.1769943237304,47.409006967231605,-109.63419039037635,1617258542
fw,-76.1323699951171,-82.6017761230468,44.233015766596516,-132.1885580012881,1617275209
fw,-76.5216674804687,-82.5454406738281,41.69919676419229,-150.7344461522291,1617291876
fw,-77.0071563720703,-81.3859634399414,40.78674185319006,-165.24711574837679,1617308543
fw,-77.4948425292968,-80.2829132080078,41.969493742593976,-176.1413658782801,1617325210
fw,-77.8956298828125,-79.2616500854492,45.08493023269176,-183.97505253114556,1617341877
fw,-78.6224288940429,-77.8154373168945,49.42822375398318,-189.20003566052105,1617358544
fw,-79.532844543457,-75.7441177368164,54.01848275512409,-192.0302079855429,1617375211
fw,-80.1844406127929,-73.1655807495117,57.91988950797956,-192.43210564088457,1617391878
fw,-80.4277572631836,-70.2655181884765,60.49076872233162,-190.19893059317516,1617408545
fw,-80.3394012451171,-67.3831939697265,61.48361227117474,-185.05437075332873,1617425212
fw,-80.0291442871093,-64.7126007080078,60.99872616403522,-176.74291732412365,1617441879
fw,-79.5879974365234,-62.4009284973144,59.35543697464776,-165.089428080617,1617458546
fw,-79.0466690063476,-60.3940696716308,56.95796525438048,-150.03964360223708,1617475213
fw,-78.4558181762695,-58.479881286621,54.20455543135171,-131.70771638681518,1617491880
fw,-77.7864685058593,-56.6902923583984,51.447055712940845,-110.44566903358161,1617508547
fw,-77.0178527832031,-55.2396965026855,48.98020279033514,-86.92052238059875,1617525214
fw,-76.2177505493164,-54.1777801513671,47.034695577786245,-62.158989615710276,1617541881
fw,-75.4380722045898,-53.4896354675293,45.75937211386413,-37.514785795702,1617558548
fw,-74.646499633789,-53.2158660888671,45.1937680599522,-14.531875032245193,1617575215
fw,-73.8386459350586,-53.518684387207,45.244388860954835,5.290138644983102,1617591882
fw,-73.0242309570312,-54.2487297058105,45.68172932564362,20.78383244234488,1617608549
fw,-72.1942596435546,-55.0413055419921,46.16883320451867,31.376716087759895,1617625216
fw,-71.3739242553711,-55.7945823669433,46.31853165261094,37.238458622785004,1617641883
fw,-70.558120727539,-56.4724960327148,45.7627902132419,39.246525429331506,1617658550
fw,-69.7030944824218,-57.0464439392089,44.21107273572549,38.76254859502328,1617675217
fw,-68.8385848999023,-57.7076339721679,41.47674347642272,37.2803470484249,1617691884
fw,-68.1905746459961,-58.4100914001464,37.4590873233291,36.05460991766801,1617708551
fw,-67.8709869384765,-58.9766082763671,32.0834762573051,35.82790175789591,1617725218
fw,-67.7252578735351,-59.522346496582,25.223390211680677,36.74337684641241,1617741885
fw,-67.5752716064453,-60.3850936889648,16.647136191577566,38.47285409581146,1617758552
fw,-67.3914566040039,-61.831298828125,6.03343278628377,40.51554291701329,1617775219
fw,-67.2576522827148,-63.5635910034179,-6.926434805255546,42.547525412648774,1617791886
fw,-67.3802261352539,-64.910659790039,-22.36753621823032,44.66059134493244,1617808553
fw,-67.9120941162109,-65.6188430786132,-40.09670606538797,47.36216593269937,1617825220
fw,-69.1314163208007,-66.0351181030273,-59.51325809835532,51.32140946404525,1617841887
fw,-71.1899871826171,-66.549072265625,-79.63717828542286,56.98482694259927,1617858554
fw,-73.6973190307617,-67.4991912841796,-99.22434409386607,64.26230920350227,1617875221
fw,-76.3133697509765,-69.0610580444336,-116.918913615977,72.44978468143502,1617891888
fw,-78.9357681274414,-70.8762969970703,-131.40832155469377,80.42865271797385,1617908555
fw,-81.4873352050781,-72.8243255615234,-141.58534516857344,87.0411414374187,1617925222
fw,-83.6330490112304,-74.6690521240234,-146.73678712233786,91.46292760601625,1617941889
fw,-84.8118591308593,-76.1962203979492,-146.74420756860502,93.41379885589785,1617958556
fw,-84.4874038696289,-77.5326614379882,-142.22504054057774,93.14178775286369,1617975223
fw,-83.3005447387695,-78.8506240844726,-134.51586650837473,91.22810962020105,1617991890
fw,-81.9606094360351,-80.2739334106445,-125.43665208838654,88.33006714364838,1618008557
fw,-80.5778198242187,-81.7454147338867,-116.86297031860333,84.97836051801093,1618025224
fw,-79.1097412109375,-83.1498031616211,-110.22542439072872,81.48938990640059,1618041891
fw,-77.6201705932617,-84.4810485839843,-106.1020534364841,77.98535624258047,1618058558
fw,-75.9809341430664,-85.820083618164,-104.04783215464509,74.47361085331407,1618075225
fw,-74.1382751464843,-87.1385803222656,-102.727108295454,70.93309888462163,1618091892
fw,-72.1626586914062,-88.2766036987304,-100.3126527254534,67.37636511241244,1618108559
fw,-70.2751922607421,-88.9359588623046,-95.02716312436954,63.87962941556501,1618125226
fw,-68.6642150878906,-88.6750030517578,-85.66152327530291,60.58773901735594,1618141893
fw,-67.429443359375,-87.8644866943359,-71.92191066356612,57.70303800535283,1618158560
fw,-66.5140304565429,-86.9076919555664,-54.52135356389473,55.4615231504379,1618175227
fw,-65.8783569335937,-86.0173950195312,-35.009058454401185,54.093069758117245,1618191894
fw,-65.682861328125,-85.2203750610351,-15.394983358851976,53.76249498862209,1618208561
fw,-66.0266876220703,-84.3821105957031,2.331247149937522,54.49746835132205,1618225228
fw,-66.7706222534179,-83.4544448852539,16.66518163003389,56.12108319726022,1618241895
fw,-67.4403762817382,-82.4174194335937,26.912418807214944,58.210326835246846,1618258562
fw,-67.9278717041015,-81.3086929321289,33.28177185346322,60.09331895459102,1618275229
fw,-68.5351181030273,-80.2882919311523,36.724094973389306,60.88623577849376,1618291896
fw,-69.2270355224609,-79.4343566894531,38.57618572511276,59.56635195697449,1618308563
fw,-69.8310394287109,-78.6549835205078,40.12664093531466,55.08252150354439,1618325230
fw,-70.3934097290039,-77.9422302246093,42.23471186955149,46.508235530798316,1618341897
fw,-70.9318618774414,-77.3392105102539,45.11151745527016,33.231819074528005,1618358564
fw,-71.7112121582031,-76.8615264892578,48.32794396260178,15.151304923812553,1618375231
fw,-72.7987899780273,-76.6286010742187,51.04940795771495,-7.187713343421399,1618391898
fw,-74.3900146484375,-76.9213027954101,52.421244100067845,-32.58206432372614,1618408565
fw,-75.8043670654296,-77.9418563842773,51.963825448083554,-59.33206258913571,1618425232
fw,-76.8180465698242,-79.6496505737304,49.81975607744504,-85.55447730197169,1618441899
fw,-77.6139297485351,-81.4020233154296,46.74848365435327,-109.55745484555712,1618458566
fw,-78.1439666748046,-82.2055282592773,43.869064367389676,-130.14981221576986,1618475233
fw,-78.4333114624023,-81.7881927490234,42.25842220826762,-146.78125212058916,1618491900
fw,-78.9494934082031,-80.8592681884765,42.56943175827817,-159.485813757567,1618508567
fw,-79.4497528076171,-80.1203231811523,44.81819284376371,-168.68315858074618,1618525234
fw,-80.0408706665039,-79.2976303100586,48.41370143793231,-174.9348752135061,1618541901
fw,-80.8384552001953,-77.9191665649414,52.40079528067766,-178.7414929773635,1618558568
fw,-81.5913925170898,-75.9627685546875,55.80336654468623,-180.42218304196078,1618575235
fw,-82.0008316040039,-73.5715637207031,57.924955271755564,-180.07748635878124,1618591902
fw,-81.8835754394531,-70.8759689331054,58.49891166664141,-177.6142510966556,1618608569
fw,-81.4036026000976,-68.1738662719726,57.659894185545134,-172.80759969494295,1618625236
fw,-80.725341796875,-65.7366943359375,55.78913773012498,-165.3779652434579,1618641903
fw,-79.9395675659179,-63.5304450988769,53.32692681946462,-155.0694475438617,1618658570
fw,-79.1600112915039,-61.5595321655273,50.63440783438541,-141.72660892484043,1618675237
fw,-78.4190826416015,-59.6834831237793,47.941645853115276,-125.37209206731417,1618691904
fw,-77.6406936645507,-57.9792213439941,45.37035195564939,-106.28113419524907,1618708571
fw,-76.8543014526367,-56.5749282836914,42.990739181504836,-85.03638037814761,1618725238
fw,-76.1633758544921,-55.5860481262207,40.86937767119768,-62.5390568549405,1618741905
fw,-75.5434112548828,-54.9477233886718,39.0825290068863,-39.95737737868625,1618758572
fw,-74.9048690795898,-54.6936454772949,37.694672789322304,-18.607498951862,1618775239
fw,-74.1993865966796,-54.9436683654785,36.72201406777121,0.22001415468870678,1618791906
fw,-73.4252243041992,-55.4214363098144,36.10731789879575,15.458469064030359,1618808573
fw,-72.6370849609375,-55.9981346130371,35.724300285724766,26.445611489117653,1618825240
fw,-71.896728515625,-56.580078125,35.412829732494735,33.04150495482746,1618841907
fw,-71.1707763671875,-57.1550254821777,35.029101592852356,35.6511221348363,1618858574
fw,-70.3901138305664,-57.8079414367675,34.48436329364858,35.14291337598944,1618875241
fw,-69.6517257690429,-58.5537109375,33.745002226224365,32.68031035357795,1618891908
fw,-69.0558776855468,-59.2002296447753,32.77802403591169,29.502792458249353,1618908575
fw,-68.6328048706054,-59.7302093505859,31.44963276045194,26.705140797902917,1618925242
fw,-68.3321151733398,-60.21142578125,29.414788686727604,25.068697238786026,1618941909
fw,-68.0753326416015,-60.7130661010742,26.057571018812066,24.992675928565106,1618958576
fw,-67.7929458618164,-61.5905609130859,20.53879312080348,26.547355042245314,1618975243
fw,-67.4900131225586,-62.9406929016113,11.971256490150655,29.62228993434049,1618991910
fw,-67.3287582397461,-64.2037200927734,-0.31415714603054024,34.09148583724507,1619008577
fw,-67.4459609985351,-65.0694732666015,-16.498758667554505,39.90109266621217,1619025244
fw,-68.0102920532226,-65.6439208984375,-36.104694254767274,47.0280546075633,1619041911
fw,-69.2368621826171,-66.2920989990234,-57.99203783671131,55.34097070048187,1619058578
fw,-71.1498870849609,-67.3336410522461,-80.53041254508662,64.46109922261665,1619075245
fw,-73.484992980957,-68.8371353149414,-101.88769238777044,73.72445755786974,1619091912
fw,-76.0273742675781,-70.6360244750976,-120.34705328510934,82.28511110873606,1619108579
fw,-78.5890655517578,-72.5784530639648,-134.57589161514204,89.31796693234021,1619125246
fw,-81.0448913574218,-74.4487075805664,-143.8085322304003,94.22712363825629,1619141913
fw,-83.0685424804687,-76.1445922851562,-147.9370620274652,96.76864955973426,1619158580
fw,-84.2502822875976,-77.7385330200195,-147.51192460551286,97.0460455652729,1619175247
fw,-84.2176895141601,-79.3372573852539,-143.6447477601864,95.40068400985645,1619191914
fw,-83.246109008789,-80.9008712768554,-137.80419921497676,92.26314085456846,1619208581
fw,-81.7923278808593,-82.4209671020507,-131.51686362221892,88.03598392999213,1619225248
fw,-80.153938293457,-83.8897094726562,-126.02352873173203,83.04949975381462,1619241915
fw,-78.4930267333984,-85.2903976440429,-121.97551474094978,77.58935758113282,1619258582
fw,-76.6700363159179,-86.6169052124023,-119.26378776799515,71.96055454185931,1619275249
fw,-74.6082000732421,-87.7978897094726,-117.04530535412867,66.53860491882762,1619291916
fw,-72.4618911743164,-88.6914978027343,-113.97262108041068,61.76975854170609,1619308583
fw,-70.4608917236328,-89.0228118896484,-108.56648177051224,58.110043087100536,1619325250
fw,-68.7042541503906,-88.6676406860351,-99.62653658468895,55.92452216576143,1619341917
fw,-67.2322540283203,-88.011116027832,-86.5707971886082,55.388702166158254,1619358584
fw,-66.0537796020507,-87.1642761230468,-69.62448108188855,56.4339982786663,1619375251
fw,-65.1329803466796,-86.1470565795898,-49.821636364886345,58.75870033329017,1619391918
fw,-64.5736846923828,-85.0015106201171,-28.821284904904886,61.89500762818304,1619408585
fw,-64.5095596313476,-83.7796859741211,-8.572142306997012,65.29679360076138,1619425252
fw,-64.9816207885742,-82.5435943603515,9.106837512532104,68.40488550536212,1619441919
fw,-65.8837203979492,-81.3746566772461,22.929758945716127,70.6609701833546,1619458586
fw,-66.6996154785156,-80.2825088500976,32.41538630834339,71.47120724634533,1619475253
fw,-67.21875,-79.2487487792968,37.93786944209636,70.15227426901932,1619491920
fw,-67.8574829101562,-78.3000259399414,40.53876455128492,65.91065102631833,1619508587
fw,-68.6522674560546,-77.4273910522461,41.56765500362949,57.90058268368925,1619525254
fw,-69.2808532714843,-76.6391677856445,42.273039975033576,45.377170834347375,1619541921
fw,-69.8618011474609,-75.9922790527343,43.46897252814858,27.918128230178564,1619558588
fw,-70.5235443115234,-75.6291580200195,45.36937650031909,5.647434159856795,1619575255
fw,-71.3042068481445,-75.7748870849609,47.63073233395876,-20.625082813589177,1619591922
fw,-72.3850631713867,-76.5707550048828,49.583369838888785,-49.41951741744622,1619608589
fw,-73.8308029174804,-77.7075271606445,50.569363920281376,-78.78119026035384,1619625256
fw,-75.1412963867187,-79.3614654541015,50.26027741736457,-106.61771347488975,1619641923
fw,-76.1215133666992,-81.0984954833984,48.82687070255263,-131.08743302327974,1619658590
fw,-76.7732696533203,-81.9482879638671,46.88872280680684,-150.92511789114644,1619675257
fw,-77.2718124389648,-81.6440353393554,45.266527538156616,-165.6076700053605,1619691924
fw,-77.7480163574218,-80.9300079345703,44.64782691164215,-175.3201917174798,1619708591
fw,-78.1236038208007,-80.1237106323242,45.31322996790744,-180.7589293428753,1619725258
fw,-78.5887908935546,-78.8079147338867,47.03898550123993,-182.86181959702895,1619741925
fw,-79.2936401367187,-76.8063659667968,49.21065224478321,-182.5598815506183,1619758592
fw,-80.1063461303711,-74.3853225708007,51.088797542906306,-180.60184179345896,1619775259
fw,-80.579719543457,-71.8357467651367,52.10321469559001,-177.45751049475476,1619791926
fw,-80.6170120239257,-69.3251876831054,52.04801678737302,-173.2830472399163,1619808593
fw,-80.3002471923828,-66.8749313354492,51.10735408339216,-167.9346603455765,1619825260
fw,-79.7829055786132,-64.560562133789,49.72662775893972,-161.02811472337896,1619841927
fw,-79.1917037963867,-62.3786277770996,48.40939876950408,-152.04346594934415,1619858594
fw,-78.6295852661132,-60.4223670959472,47.53589420828522,-140.46478189902473,1619875261
fw,-78.0920486450195,-58.5782852172851,47.26745084946446,-125.93156508216384,1619891928
fw,-77.4777603149414,-56.9710807800293,47.548554323651416,-108.37276008608225,1619908595
fw,-76.7432250976562,-55.6668739318847,48.175300730122274,-88.09929242701101,1619925262
fw,-75.979736328125,-54.6250953674316,48.88425011694459,-65.84130639686173,1619941929
fw,-75.2540588378906,-53.9310798645019,49.426329634135605,-42.72291243387667,1619958596
fw,-74.5306625366211,-53.6092872619628,49.61077116876722,-20.167840395644237,1619975263
fw,-73.7554244995117,-53.6877479553222,49.319868430371606,0.26881814698947903,1619991930
fw,-72.9635925292968,-54.1601066589355,48.50300725509119,17.13441100251557,1620008597
fw,-72.1924057006836,-54.8485984802246,47.161337238129256,29.34360820284521,1620025264
fw,-71.4121017456054,-55.6252784729003,45.33483810412535,36.412741437205746,1620041931
fw,-70.6029586791992,-56.3778953552246,43.09941274965508,38.591696934348725,1620058598
fw,-69.7849731445312,-57.0965232849121,40.57066431560066,36.83956923094862,1620075265
fw,-69.0135345458984,-57.7290802001953,37.89661069836866,32.633649528554635,1620091932
fw,-68.3732833862304,-58.3796691894531,35.21467045197797,27.65330303364225,1620108599
fw,-67.9580001831054,-58.884952545166,32.56048762523299,23.42034841743305,1620125266
fw,-67.7378234863281,-59.1775665283203,29.748480885842017,20.992977014213242,1620141933
fw,-67.5255432128906,-59.5420532226562,26.280255824500145,20.799386601438613,1620158600
fw,-67.192138671875,-60.0665893554687,21.350780105810827,22.66192906130288,1620175267
fw,-66.7934036254882,-61.1446456909179,13.995160879111674,26.004005842931658,1620191934
fw,-66.468521118164,-62.6003456115722,3.357569101470513,30.161524665106672,1620208601
fw,-66.4717559814453,-63.8651733398437,-11.000469889217184,34.66946298473186,1620225268
fw,-66.922607421875,-64.6553878784179,-28.86603216773996,39.399473339751175,1620241935
fw,-67.9034271240234,-65.1763153076171,-49.30750086199321,44.49774485161929,1620258602
fw,-69.5406265258789,-65.7772369384765,-70.80370278456276,50.17745306551005,1620275269
fw,-71.7024765014648,-66.682746887207,-91.52631659750537,56.49314389927518,1620291936
fw,-74.1555633544921,-67.9993591308593,-109.68468445008338,63.221577101066934,1620308603
fw,-76.7489547729492,-69.5812072753906,-123.8392645572239,69.90288432320075,1620325270
fw,-79.2751007080078,-71.2820663452148,-133.12440240024577,76.00544602878082,1620341937
fw,-81.5436019897461,-72.9367370605468,-137.363087474154,81.11883520435248,1620358604
fw,-83.3024520874023,-74.4486923217773,-137.0775712487584,85.07654538403843,1620375271
fw,-84.3120727539062,-75.8720169067382,-133.39703662285964,87.95643699677886,1620391938
fw,-84.4675674438476,-77.2769088745117,-127.85805367878301,89.97243681418767,1620408605
fw,-83.8804855346679,-78.7289428710937,-122.1069292259655,91.32182379121092,1620425272
fw,-82.7232513427734,-80.3071823120117,-117.54668479234334,92.06586689309123,1620441939
fw,-81.2467575073242,-81.9622421264648,-115.00663448169931,92.09619167589682,1620458606
fw,-79.5247650146484,-83.5933609008789,-114.52635992935521,91.19294252756727,1620475273
fw,-77.5904541015625,-85.1674652099609,-115.32618237231115,89.13924996308829,1620491940
fw,-75.490852355957,-86.6332015991211,-115.98698369431217,85.83855425072362,1620508607
fw,-73.3956604003906,-87.9248123168945,-114.80058565135492,81.39007619594565,1620525274
fw,-71.4466400146484,-88.8861846923828,-110.20128874616775,76.10236287343149,1620541941
fw,-69.7044982910156,-88.9189987182617,-101.16838596540342,70.4500265807729,1620558608
fw,-68.1940460205078,-88.1326065063476,-87.50212257469164,64.99363448706656,1620575275
fw,-66.9385147094726,-87.1534576416015,-69.91007929872923,60.28459585264472,1620591942
fw,-65.9703903198242,-86.1728515625,-49.882356386051384,56.77038734476946,1620608609
fw,-65.4702987670898,-85.2649688720703,-29.375718716555532,54.70825633077462,1620625276
fw,-65.6294326782226,-84.3935317993164,-10.370975324548489,54.09353745784263,1620641943
fw,-66.3405532836914,-83.4544677734375,5.5874720854533955,54.61200736350584,1620658610
fw,-66.9703826904296,-82.4707412719726,17.734004151777704,55.62900831390247,1620675277
fw,-67.2621002197265,-81.5217514038086,26.19021284752025,56.22655381143888,1620691944
fw,-67.6246795654296,-80.6464920043945,31.801450961638203,55.29375579339136,1620708611
fw,-68.2522659301757,-79.8678741455078,35.76705325294048,51.668906311828046,1620725278
fw,-68.8935775756836,-79.1703109741211,39.20215532940115,44.323459861938694,1620741945
fw,-69.4227066040039,-78.5484542846679,42.778766863061506,32.5656612278475,1620758612
fw,-69.9977493286132,-78.0901947021484,46.55391188622336,16.22420404563538,1620775279
fw,-70.8184509277343,-77.9253234863281,50.03102741392596,-4.242356654946879,1620791946
fw,-72.0373916625976,-78.1922454833984,52.4305010018298,-27.763410044262123,1620808613
fw,-73.5491561889648,-79.0731658935546,53.07322974139916,-52.82683279298726,1620825280
fw,-74.8414230346679,-80.6212692260742,51.729700677585214,-77.77634681910263,1620841947
fw,-75.8292083740234,-82.6355819702148,48.78907937028169,-101.15265570418069,1620858614
fw,-76.4774322509765,-84.1806182861328,45.171780520021265,-121.96224012983433,1620875281
fw,-76.8237991333007,-84.0257186889648,42.018832284525,-139.774966238798,1620891948
fw,-77.3058776855468,-82.4340286254882,40.288237635002595,-154.62178444888136,1620908615
fw,-77.7393035888671,-80.7894058227539,40.425238139622095,-166.7544531350145,1620925282
fw,-78.1797866821289,-79.319091796875,42.2359773360089,-176.38823941421876,1620941949
fw,-78.97509765625,-77.5532913208007,45.004208627391066,-183.54046495672554,1620958616
fw,-79.8582687377929,-75.3156051635742,47.789516628205796,-188.0120908530837,1620975283
fw,-80.4969253540039,-72.7060852050781,49.7757801956237,-189.48239784715918,1620991950
fw,-80.7565460205078,-69.8513717651367,50.530417970985475,-187.64277972828924,1621008617
fw,-80.6708145141601,-67.0245208740234,50.089967256590214,-182.29823026668123,1621025284
fw,-80.3860855102539,-64.452278137207,48.87256849433194,-173.40041391499096,1621041951
fw,-79.9825897216796,-62.1929855346679,47.485359647392386,-161.0224780411302,1621058618
fw,-79.5075759887695,-60.177879333496,46.51582958420692,-145.32188217494826,1621075285
fw,-79.0134124755859,-58.3127479553222,46.37478731148299,-126.54445909076816,1621091952
fw,-78.4871063232421,-56.5007820129394,47.21885619435484,-105.09344392659966,1621108619
fw,-77.9096755981445,-54.981689453125,48.94594720880892,-81.63681901666358,1621125286
fw,-77.3213577270507,-53.9147682189941,51.239559840932976,-57.18694244390771,1621141953
fw,-76.7317199707031,-53.3244285583496,53.636574746199855,-33.08365872180828,1621158620
fw,-76.0967636108398,-53.1737670898437,55.60192409002828,-10.847170212545668,1621175287
fw,-75.3760147094726,-53.5553741455078,56.604478107940054,8.08002453123068,1621191954
fw,-74.5743560791015,-54.2897605895996,56.194826390586165,22.63515960085878,1621208621
fw,-73.7457580566406,-55.0999717712402,54.08326260736308,32.387443996126265,1621225288
fw,-72.9519271850586,-55.8203392028808,50.20675499662754,37.65019897888734,1621241955
fw,-72.1695480346679,-56.4796180725097,44.76401680192754,39.400117748956525,1621258622
fw,-71.3960876464843,-57.0415458679199,38.19531536129599,39.01418005350371,1621275289
fw,-70.7345581054687,-57.6548233032226,31.091735012976116,37.90078548429325,1621291956
fw,-70.3458175659179,-58.3339958190918,24.037531232469853,37.14289622005256,1621308623
fw,-70.2433090209961,-58.9617538452148,17.417141609693463,37.2705451996537,1621325290
fw,-70.2859649658203,-59.641731262207,11.247414996827812,38.238995141118124,1621341957
fw,-70.2989273071289,-60.6888389587402,5.1088581287826935,39.620335701812245,1621358624
fw,-70.1936798095703,-62.2310104370117,-1.7709009189734701,40.9369769916937,1621375291
fw,-70.0798873901367,-64.0747680664062,-10.285575557051718,41.99770553543105,1621391958
fw,-70.1880722045898,-65.2698516845703,-21.145385679027903,43.07560641316568,1621408625
fw,-70.6673202514648,-65.7913513183593,-34.61645509413308,44.82473987846585,1621425292
fw,-71.7594604492187,-66.1065444946289,-50.40551066733878,47.96082633497287,1621441959
fw,-73.4895401000976,-66.6292190551757,-67.71961066861654,52.86350489349891,1621458626
fw,-75.651985168457,-67.733169555664,-85.44608075617525,59.30837732431513,1621475293
fw,-78.0432357788086,-69.3595199584961,-102.35326474163638,66.46991262515739,1621491960
fw,-80.4443893432617,-71.0970458984375,-117.23576009248872,73.19361716646003,1621508627
fw,-82.7964935302734,-72.8589096069336,-128.9976586233151,78.40378332336587,1621525294
fw,-84.9495697021484,-74.431655883789,-136.72751837283087,81.46125527643036,1621541961
fw,-86.3399200439453,-75.7528305053711,-139.82187939376928,82.32930329188628,1621558628
fw,-85.9147644042968,-77.0072479248046,-138.15933076109383,81.50819171601866,1621575295
fw,-84.0435256958007,-78.2923126220703,-132.25675592170202,79.80082253212282,1621591962
fw,-82.0274047851562,-79.629898071289,-123.30372128453199,78.02486113764655,1621608629
fw,-80.2969589233398,-80.9842834472656,-112.9967235404191,76.7777485750526,1621625296
fw,-78.8829727172851,-82.3046112060546,-103.17376665323722,76.3121451719158,1621641963
fw,-77.7388000488281,-83.6452331542968,-95.3436977500736,76.52636254697175,1621658630
fw,-76.5381774902343,-85.0790939331054,-90.26613689367944,77.0411421609119,1621675297
fw,-75.1060180664062,-86.5161437988281,-87.73417747292494,77.32411295067025,1621691964
fw,-73.4560089111328,-87.7512741088867,-86.64287984237284,76.82792634913267,1621708631
fw,-71.7972412109375,-88.5755004882812,-85.32380561195977,75.11834865363278,1621725298
fw,-70.2865524291992,-88.5480117797851,-82.03659996748094,71.97797973471107,1621741965
fw,-68.9336547851562,-87.6955642700195,-75.46810740299101,67.47462964759393,1621758632
fw,-67.7890243530273,-86.6191635131836,-65.10239268725084,61.97980399560414,1621775299
fw,-66.8873214721679,-85.6995315551757,-51.371469656417844,56.11999481157535,1621791966
fw,-66.2311096191406,-84.9715728759765,-35.5538303927147,50.6534527990047,1621808633
fw,-65.9433059692382,-84.3155899047851,-19.4452252420318,46.29025127103782,1621825300
fw,-66.2757415771484,-83.6272354125976,-4.882168738340416,43.50003558717539,1621841967
fw,-67.1108856201171,-82.9048309326171,6.751849373037471,42.3613886284171,1621858634
fw,-67.588150024414,-82.1762466430664,14.884588026378903,42.4933647586867,1621875301
fw,-67.7474822998046,-81.4083862304687,19.856210627502985,43.083757617169695,1621891968
fw,-68.0272064208984,-80.66015625,22.731689746545907,43.00475466387101,1621908635
fw,-68.5059432983398,-80.0228729248046,24.90052703880819,40.992383785599465,1621925302
fw,-68.9546661376953,-79.4671859741211,27.60798763759247,35.86051296859261,1621941969
fw,-69.2110748291015,-78.9715957641601,31.56741783466065,26.717647334671344,1621958636
fw,-69.5800552368164,-78.62646484375,36.76543634271683,13.150515853776051,1621975303
fw,-70.2817153930664,-78.527847290039,42.5146361231641,-4.666793203470392,1621991970
fw,-71.5817260742187,-78.7233810424804,47.736917122667805,-25.97755084550711,1622008637
fw,-73.0513381958007,-79.4733123779296,51.381176445187656,-49.58116884711249,1622025304
fw,-74.2012710571289,-80.9942474365234,52.821854557845406,-74.0858851447304,1622041971
fw,-75.2841186523437,-83.0463562011718,52.087330843764626,-98.20384550439333,1622058638
fw,-76.1733474731445,-84.5667877197265,49.83712516960052,-120.98138654414959,1622075305
fw,-76.5635910034179,-84.0982055664062,47.1106383303757,-141.86912852103202,1622091972
fw,-77.1207199096679,-82.2498245239257,44.9584231531312,-160.60593658091574,1622108639
fw,-77.6617965698242,-80.5489883422851,44.103820460539524,-176.9862283157023,1622125306
fw,-78.1705169677734,-78.9945755004882,44.75678210728117,-190.6423904177359,1622141973
fw,-78.9186325073242,-76.9514694213867,46.62792163913913,-200.96065667138166,1622158640
fw,-79.6717224121093,-74.2328567504882,49.10535418862759,-207.16831777943656,1622175307
fw,-80.1572570800781,-71.147476196289,51.49909290731697,-208.5354413926139,1622191974
fw,-80.3148727416992,-67.9770050048828,53.2509259778882,-204.58181970728324,1622208641
fw,-80.2292098999023,-64.9913253784179,54.04788068759599,-195.1929687001186,1622225308
fw,-79.9953002929687,-62.4710502624511,53.83553684160976,-180.61145613106288,1622241975
fw,-79.6650390625,-60.3258514404296,52.768573471351516,-161.3429679204797,1622258642
fw,-79.3105239868164,-58.4131164550781,51.14288327346433,-138.06031128084865,1622275309
fw,-78.9268188476562,-56.7201118469238,49.334095012869696,-111.57914321663463,1622291976
fw,-78.4437713623046,-55.1442031860351,47.74230986131785,-82.922034687663,1622308643
fw,-77.8507766723632,-53.9219245910644,46.73055103314133,-53.41691191487515,1622325310
fw,-77.207275390625,-53.281005859375,46.5506095021713,-24.735033987535832,1622341977
fw,-76.5331344604492,-53.2363319396972,47.26713848774076,1.2130233205475367,1622358644
fw,-75.8428192138671,-53.7255516052246,48.70590495032448,22.544732274919202,1622375311
fw,-75.1488647460937,-54.6963539123535,50.45529260445189,37.7812164645195,1622391978
fw,-74.4253387451171,-55.8074188232421,51.93800217538068,46.21707035151337,1622408645
fw,-73.6302337646484,-56.8094139099121,52.544645109358754,48.15215892954917,1622425312
fw,-72.7252197265625,-57.4804534912109,51.7914810653895,44.885025431227184,1622441979
fw,-71.7237243652343,-58.0422782897949,49.445276620033724,38.4427290164637,1622458646
fw,-70.7921752929687,-58.506736755371,45.56132863176198,31.113803143590275,1622475313
fw,-70.1437377929687,-58.8756866455078,40.40839274024505,24.92129934411719,1622491980
fw,-69.8627243041992,-59.1340827941894,34.29847553640865,21.19421334384311,1622508647
fw,-69.7809295654296,-59.3268814086914,27.384819959323064,20.365668356378958,1622525314
fw,-69.6511688232421,-59.9637832641601,19.517766006520613,22.057660325726193,1622541981
fw,-69.3957061767578,-61.2712249755859,10.23666237722047,25.417770396875138,1622558648
fw,-69.109748840332,-62.9373245239257,-1.0777847038160018,29.573555976359078,1622575315
fw,-69.0619659423828,-64.2209091186523,-14.941592595547911,34.009442118850465,1622591982
fw,-69.4169006347656,-64.9245834350586,-31.503464527559117,38.69939518207989,1622608649
fw,-70.4520187377929,-65.3772354125976,-50.38886612842929,43.95242868685582,1622625316
fw,-72.2927856445312,-65.8696746826171,-70.70696514417277,50.08177438315834,1622641983
fw,-74.6679382324218,-66.8017959594726,-91.19440716753934,57.09664680695136,1622658650
fw,-77.3011093139648,-68.3047332763671,-110.41544256014835,64.58522855356858,1622675317
fw,-79.9271926879882,-69.969856262207,-126.94443284004278,71.83553615313687,1622691984
fw,-82.4704818725586,-71.6950454711914,-139.51228261827333,78.10770764575003,1622708651
fw,-84.7103500366211,-73.3323822021484,-147.14994886620423,82.90311538034365,1622725318
fw,-86.0233001708984,-74.7790298461914,-149.3613636693683,86.09908374952728,1622741985
fw,-85.4495620727539,-76.1550369262695,-146.30465519759815,87.90462267420632,1622758652
fw,-83.5692825317382,-77.5535888671875,-138.90021897912612,88.6868969668235,1622775319
fw,-81.5689544677734,-79.022232055664,-128.7675918624496,88.77111918534713,1622791986
fw,-79.8106079101562,-80.5689544677734,-117.93956320119167,88.30878255689707,1622808653
fw,-78.3350601196289,-82.1066360473632,-108.39227538801833,87.25657092892897,1622825320
fw,-77.0998764038086,-83.6064987182617,-101.52071841669674,85.44805043472971,1622841987
fw,-75.7577896118164,-85.1096801757812,-97.73488290222394,82.70538058134365,1622858654
fw,-74.1500244140625,-86.5619659423828,-96.32706580858463,78.93896158568595,1622875321
fw,-72.263427734375,-87.7950439453125,-95.67107728936084,74.20651339541826,1622891988
fw,-70.3371353149414,-88.5958404541015,-93.69631352738377,68.72898615397558,1622908655
fw,-68.622200012207,-88.6235733032226,-88.48589305864553,62.87522382067689,1622925322
fw,-67.197395324707,-87.9993362426757,-78.81670250089856,57.127747712658866,1622941989
fw,-66.0768814086914,-87.1899337768554,-64.49326502874374,52.03331842964648,1622958656
fw,-65.2514190673828,-86.4291152954101,-46.39929805384029,48.13295934492958,1622975323
fw,-64.7998733520507,-85.7008972167968,-26.26838245845047,45.86586174986466,1622991990
fw,-65.0047302246093,-85.003547668457,-6.242042858870044,45.45303895412844,1623008657
fw,-65.9666519165039,-84.2877655029296,11.663107670751156,46.78341020356493,1623025324
fw,-66.7263031005859,-83.4814300537109,26.026205992586142,49.336223908006005,1623041991
fw,-67.2484283447265,-82.6220626831054,36.29095193589358,52.17247012428222,1623058658
fw,-67.9757308959961,-81.800064086914,42.7619666520387,54.01530131838902,1623075325
fw,-68.8084716796875,-80.9928359985351,46.35789701919669,53.42120742026828,1623091992
fw,-69.5307235717773,-80.1698532104492,48.22875342094897,49.023777223144,1623108659
fw,-70.0900268554687,-79.3952713012695,49.37258950286699,39.81059863045434,1623125326
fw,-70.7660293579101,-78.766357421875,50.37104757255357,25.37290640886435,1623141993
fw,-71.5945205688476,-78.3895721435546,51.31973323039521,6.055504826193966,1623158660
fw,-72.9766006469726,-78.4593353271484,51.96312812538633,-17.05602757966257,1623175327
fw,-74.3312911987304,-79.1961669921875,51.96627362028352,-42.335022491826116,1623191994
fw,-75.400634765625,-80.6457748413086,51.1979732401812,-67.96180154292595,1623208661
fw,-76.5121078491211,-82.571174621582,49.89607787695874,-92.31734152314576,1623225328
fw,-77.4616775512695,-84.1296463012695,48.63990402861744,-114.28730708485092,1623241995
fw,-77.9797134399414,-84.3012313842773,48.140574319405424,-133.36788224703372,1623258662
fw,-78.4307250976562,-83.0243072509765,48.93963458683048,-149.54823156584186,1623275329
fw,-78.9214706420898,-81.4349899291992,51.14933144030083,-163.04477321369117,1623291996
fw,-79.5334167480468,-79.8373641967773,54.35382163140783,-174.02355295791108,1623308663
fw,-80.4500274658203,-77.9479827880859,57.71875511394712,-182.4345342218818,1623325330
fw,-81.4515380859375,-75.65185546875,60.25945656094974,-188.00760181662426,1623341997
fw,-82.0430755615234,-73.0793533325195,61.14853688718634,-190.3727722093479,1623358664
fw,-82.0630874633789,-70.3109588623046,59.94090034434612,-189.21559497576317,1623375331
fw,-81.6668090820312,-67.5759506225586,56.65318920892441,-184.3826912219487,1623391998
fw,-81.0588455200195,-65.026123046875,51.71134720650282,-175.8980930938978,1623408665
fw,-80.3740844726562,-62.7177772521972,45.82557610945054,-163.90794438647197,1623425332
fw,-79.7371215820312,-60.6874351501464,39.84993803506329,-148.61016131375146,1623441999
fw,-79.2104110717773,-58.8677291870117,34.65368077191966,-130.23031123623497,1623458666
fw,-78.7131042480468,-57.087474822998,31.003718618137864,-109.0756098474505,1623475333
fw,-78.1766662597656,-55.5827522277832,29.45035446363345,-85.65144720639616,1623492000
fw,-77.6086273193359,-54.4980392456054,30.22011069044537,-60.783398209331196,1623508667
fw,-76.9989242553711,-53.8631477355957,33.137928973424536,-35.67305806867139,1623525334
fw,-76.322639465332,-53.684757232666,37.61213412582527,-11.834370839223595,1623542001
fw,-75.5501556396484,-53.9635734558105,42.71024570714831,9.101967003478991,1623558668
fw,-74.6865310668945,-54.6417808532714,47.329895989452474,25.681475409806573,1623575335
fw,-73.8075637817382,-55.5362930297851,50.43364612855067,36.941929288942205,1623592002
fw,-73.0031127929687,-56.4896392822265,51.285079360056145,42.65670142809527,1623608669
fw,-72.2561111450195,-57.2703399658203,49.613632330306,43.418057955831735,1623625336
fw,-71.5000381469726,-57.8509178161621,45.65414388261147,40.5169237212643,1623642003
fw,-70.7807922363281,-58.5382614135742,40.04507007749634,35.64332690019819,1623658670
fw,-70.2516021728515,-59.1353569030761,33.6104837170011,30.494326605175004,1623675337
fw,-69.9519805908203,-59.5165328979492,27.084347872898785,26.406281550947277,1623692004
fw,-69.8374862670898,-59.8335647583007,20.8567195069802,24.119366941998873,1623708671
fw,-69.762954711914,-60.3467712402343,14.82468844425508,23.743633003504158,1623725338
fw,-69.5987472534179,-61.3353309631347,8.406956285589093,24.93401786820305,1623742005
fw,-69.3803939819336,-62.7478828430175,0.7281036939423602,27.202969969264252,1623758672
fw,-69.3355560302734,-64.0447006225586,-9.086936759307402,30.231577355128685,1623775339
fw,-69.6366729736328,-64.849739074707,-21.614001981330468,34.03006060025874,1623792006
fw,-70.4576263427734,-65.3448715209961,-36.93065610502214,38.87116010406221,1623808673
fw,-71.955093383789,-65.7305068969726,-54.568815595487116,45.04300294615088,1623825340
fw,-73.9750213623046,-66.4174880981445,-73.5974314358261,52.56691738443253,1623842007
fw,-76.2872161865234,-67.6384506225586,-92.76521460649298,61.039341386763155,1623858674
fw,-78.6808319091796,-69.1672286987304,-110.64096890792219,69.68175470296593,1623875341
fw,-81.0869216918945,-70.907112121582,-125.74233269007401,77.569219072597,1623892008
fw,-83.449348449707,-72.7066574096679,-136.69369123679354,83.92230993626991,1623908675
fw,-85.4400939941406,-74.3527526855468,-142.4517998844503,88.32848904859243,1623925342
fw,-86.1695785522461,-75.8336791992187,-142.57825580337126,90.80583053424047,1623942009
fw,-85.0612869262695,-77.2632598876953,-137.46529230986357,91.70272510679102,1623958676
fw,-83.2928466796875,-78.7110595703125,-128.39118080386075,91.49927770481099,1623975343
fw,-81.6359481811523,-80.2101974487304,-117.32109976145226,90.60661211021667,1623992010
fw,-80.2206878662109,-81.7442245483398,-106.46412277703219,89.24193719249018,1624008677
fw,-79.0944900512695,-83.2657089233398,-97.70282008342278,87.40942291495888,1624025344
fw,-77.9727554321289,-84.7821044921875,-92.07901324870107,84.96930892475794,1624042011
fw,-76.5815200805664,-86.2750625610351,-89.51476005410026,81.75083114977237,1624058678
fw,-74.8334121704101,-87.6329650878906,-88.86959125519597,77.66232878700315,1624075345
fw,-72.9748229980468,-88.7015609741211,-88.31441809831173,72.76599740776086,1624092012
fw,-71.2638473510742,-89.0020141601562,-85.89231839914842,67.30376923902068,1624108679
fw,-69.7746505737304,-88.3655395507812,-80.08401969855173,61.6761253039207,1624125346
fw,-68.5127944946289,-87.4877548217773,-70.21480791098796,56.383262186209855,1624142013
fw,-67.5373764038086,-86.6189270019531,-56.606023396548,51.938844421649684,1624158680
fw,-66.8286743164062,-85.8214950561523,-40.45222320510704,48.765683292547955,1624175347
fw,-66.565559387207,-85.091323852539,-23.472539417137032,47.08570372454418,1624192014
fw,-66.985237121582,-84.3688735961914,-7.437731073028541,46.824048419216815,1624208681
fw,-67.6876831054687,-83.5692825317382,6.289453863776504,47.552988300340004,1624225348
fw,-68.0167922973632,-82.7100830078125,17.05932406666674,48.49812824301802,1624242015
fw,-68.2585372924804,-81.8772811889648,24.992512511726456,48.61621579965638,1624258682
fw,-68.8101654052734,-81.151138305664,30.78831427732656,46.73719906656005,1624275349
fw,-69.4004211425781,-80.4858474731445,35.37395232513917,41.75032872045956,1624292016
fw,-69.9858245849609,-79.9388427734375,39.52925489560442,32.80618859706085,1624308683
fw,-70.4356231689453,-79.5153427124023,43.61262514286851,19.499636723041753,1624325350
fw,-71.0613403320312,-79.2698898315429,47.47339189840272,1.9912743066918224,1624342017
fw,-72.1826934814453,-79.3108367919921,50.57674358408608,-18.976715760800044,1624358684
fw,-73.6833419799804,-79.8983917236328,52.29410074756985,-42.19962400804126,1624375351
fw,-74.9643173217773,-81.2553100585937,52.241909898647506,-66.2544361249638,1624392018
fw,-76.0145874023437,-83.2166137695312,50.52309012780678,-89.80392924338008,1624408685
fw,-76.9306106567382,-84.8138275146484,47.763943338562726,-111.85140887901014,1624425352
fw,-77.4684829711914,-84.6506729125976,44.93010435492708,-131.8410033667473,1624442019
fw,-77.9176483154296,-82.8448715209961,43.0011772726606,-149.56492069107233,1624458686
fw,-78.4239425659179,-80.9356384277343,42.640459376600504,-164.93741163799416,1624475353
fw,-78.8352127075195,-79.2805938720703,43.99226488673656,-177.76463509799075,1624492020
fw,-79.5178604125976,-77.4125213623046,46.679369762316846,-187.63429616340343,1624508687
fw,-80.4010162353515,-74.9904251098632,49.98402068750481,-193.97343290461993,1624525354
fw,-80.9821548461914,-72.2095794677734,53.11892427313405,-196.2269998727237,1624542021
fw,-81.1329116821289,-69.2655944824218,55.46799984892246,-194.05090772378927,1624558688
fw,-80.9652557373046,-66.3898162841796,56.71290747806577,-187.41821468818767,1624575355
fw,-80.5795440673828,-63.8407554626464,56.833601271189764,-176.59466267335782,1624592022
fw,-80.0742568969726,-61.6377525329589,56.03050616570492,-162.01446640542633,1624608689
fw,-79.543701171875,-59.6886138916015,54.629954985496774,-144.14069489740595,1624625356
fw,-79.0215682983398,-57.9759902954101,53.00854198998864,-123.40050493454584,1624642023
fw,-78.4711685180664,-56.3152122497558,51.5362920290479,-100.24112767013719,1624658690
fw,-77.8643493652343,-54.8775177001953,50.52108564829154,-75.28140238631612,1624675357
fw,-77.240493774414,-53.8836669921875,50.14528092252714,-49.473748519617686,1624692024
fw,-76.5981903076171,-53.3431587219238,50.40676599043479,-24.173582557352155,1624708691
fw,-75.8777923583984,-53.248550415039,51.09096497929858,-1.0444327533593065,1624725358
fw,-75.0713348388671,-53.7477760314941,51.796831685454585,18.209013846967917,1624742025
fw,-74.1767196655273,-54.7500610351562,52.02124772558791,32.216787884321164,1624758692
fw,-73.2397003173828,-55.6665077209472,51.28255975675934,40.31163052274199,1624775359
fw,-72.3488998413086,-56.4590110778808,49.24601181695941,42.7570995638442,1624792026
fw,-71.5360031127929,-57.0844955444335,45.809372219551264,40.73967404406803,1624808693
fw,-70.7659759521484,-57.6316604614257,41.11793260355425,36.10655150415291,1624825360
fw,-70.0668487548828,-58.0820579528808,35.499154541857614,30.91888514408723,1624842027
fw,-69.6067581176757,-58.4513664245605,29.331158163554043,26.95327860716818,1624858694
fw,-69.4201431274414,-58.7432899475097,22.881559877826632,25.302796005936663,1624875361
fw,-69.3880157470703,-59.0020637512207,16.17026195025303,26.201110511621835,1624892028
fw,-69.3542175292968,-59.7930259704589,8.913199414468888,29.12688286863841,1624908695
fw,-69.2318496704101,-61.2334785461425,0.5832859948540684,33.150729587324044,1624925362
fw,-69.1159591674804,-62.9267311096191,-9.420140725472233,37.388474260429795,1624942029
fw,-69.2472076416015,-64.1809844970703,-21.552499087464746,41.368593621879086,1624958696
fw,-69.816665649414,-64.9996795654296,-35.94114905339398,45.15510947919623,1624975363
fw,-71.0882720947265,-65.5141067504882,-52.305764407575744,49.18790761753578,1624992030
fw,-73.0291213989257,-66.0438919067382,-69.99329759906327,53.94523676504648,1625008697
fw,-75.3169403076171,-66.9467163085937,-88.08044017523984,59.61372741702069,1625025364
fw,-77.7260513305664,-68.3322830200195,-105.47713393324356,65.9282878604684,1625042031
fw,-80.0866241455078,-69.9676437377929,-121.00035813479359,72.24147265505621,1625058698
fw,-82.4583969116211,-71.7298202514648,-133.44825638429808,77.76376706885017,1625075365
fw,-84.6885833740234,-73.4273452758789,-141.7345396982005,81.84460798150864,1625092032
fw,-86.2166442871093,-74.9033966064453,-145.10901801590913,84.1661625334866,1625108699
fw,-85.8976898193359,-76.2447433471679,-143.41362875316102,84.7839326061351,1625125366
fw,-84.1842651367187,-77.5463180541992,-137.26133407973614,84.0295474684769,1625142033
fw,-82.3078308105468,-78.8748245239257,-128.02347280198785,82.34812977637016,1625158700
fw,-80.5867080688476,-80.2616729736328,-117.57503408910067,80.15177225564649,1625175367
fw,-79.086799621582,-81.6761016845703,-107.84531241087797,77.73875280623635,1625192034
fw,-77.8292465209961,-83.0773162841796,-100.30708389531704,75.28266899939136,1625208701
fw,-76.4627151489257,-84.4806137084961,-95.57299335345932,72.86381626849776,1625225368
fw,-74.8550643920898,-85.836799621582,-93.23786005509363,70.50844656918103,1625242035
fw,-73.0398025512695,-87.0574951171875,-92.02113031561781,68.21484685724661,1625258702
fw,-71.2585830688476,-88.0987548828125,-90.15963688796415,65.96495885890336,1625275369
fw,-69.6400909423828,-88.8957138061523,-85.9218579092757,63.73404514493784,1625292036
fw,-68.2361297607421,-89.0438690185546,-78.09020356393472,61.511923149666856,1625308703
fw,-67.0821838378906,-88.2710494995117,-66.28503331201469,59.33735002292119,1625325370
fw,-66.18408203125,-87.238410949707,-51.058601100349584,57.329033014360746,1625342037
fw,-65.5814895629882,-86.2479858398437,-33.74588859044363,55.684943998133136,1625358704
fw,-65.4800567626953,-85.3673553466796,-16.113934521229442,54.62745021575274,1625375371
fw,-66.1111221313476,-84.5335235595703,0.09795648243901792,54.29570025069958,1625392038
fw,-66.835464477539,-83.690185546875,13.615323783940891,54.6158068594786,1625408705
fw,-67.2249298095703,-82.7951354980468,23.90625416347563,55.19659445930153,1625425372
fw,-67.6563110351562,-81.8880920410156,31.213198087761885,55.29551376314194,1625442039
fw,-68.3310470581054,-81.0498123168945,36.34428274091062,53.87999563032505,1625458706
fw,-68.9968338012695,-80.2978973388671,40.31500037481436,49.78436318270765,1625475373
fw,-69.5822296142578,-79.6049041748046,43.9704065664342,41.938463273249134,1625492040
fw,-70.1484451293945,-78.9541854858398,47.709641370035676,29.622327595892813,1625508707
fw,-70.9052200317382,-78.4539337158203,51.397016337918146,12.682314033311672,1625525374
fw,-72.0484619140625,-78.3128356933593,54.48609387160047,-8.363466483214667,1625542041
fw,-73.6388549804687,-78.7481536865234,56.30951523149675,-32.385225865100495,1625558708
fw,-74.9592590332031,-79.8913116455078,56.419030002615294,-57.872389840352604,1625575375
fw,-76.0348663330078,-81.630012512207,54.83367216137799,-83.27163272240861,1625592042
fw,-77.0775070190429,-83.3707275390625,52.091296112711646,-107.31235770559192,1625608709
fw,-77.7844924926757,-83.8043899536132,49.08359305526283,-129.19324660738397,1625625376
fw,-78.2397918701171,-82.5590896606445,46.74484815314824,-148.56171834853205,1625642043
fw,-78.7612075805664,-81.0157852172851,45.72205652077705,-165.3178361421887,1625658710
fw,-79.1819458007812,-79.7483291625976,46.15918219139315,-179.35940274256174,1625675377
fw,-79.7507247924804,-78.2788619995117,47.67941627769036,-190.40315703802025,1625692044
fw,-80.556900024414,-76.218765258789,49.564098525536686,-197.9602295120748,1625708711
fw,-81.2818603515625,-73.6530456542968,51.042803951724906,-201.4550652129724,1625725378
fw,-81.5675354003906,-70.7339172363281,51.567436691762225,-200.41138649906475,1625742045
fw,-81.466682434082,-67.6647720336914,50.96493969945313,-194.61308269633142,1625758712
fw,-81.081787109375,-64.8188552856445,49.43236872668885,-184.17458586226604,1625775379
fw,-80.5469512939453,-62.4004249572753,47.41109650251894,-169.5042142652168,1625792046
fw,-79.9228210449218,-60.4302711486816,45.414996934037745,-151.1958838014821,1625808713
fw,-79.3097305297851,-58.7596206665039,43.88142635693234,-129.91864316791666,1625825380
fw,-78.7227020263671,-57.0778579711914,43.08123040611367,-106.37016786975354,1625842047
fw,-78.1176605224609,-55.5682716369628,43.08971643106685,-81.31713407616529,1625858714
fw,-77.4841537475586,-54.4717750549316,43.80089362573345,-55.68611728744892,1625875381
fw,-76.8412017822265,-53.8491325378418,44.965015165079855,-30.630056417290604,1625892048
fw,-76.1730041503906,-53.6491088867187,46.237185064701464,-7.499920656038347,1625908715
fw,-75.4642028808593,-53.9941177368164,47.233010646589804,12.306918568345708,1625925382
fw,-74.7388610839843,-54.7438507080078,47.590520362094125,27.594430293851786,1625942049
fw,-73.994514465332,-55.6133308410644,47.03502430211691,37.63798274174781,1625958716
fw,-73.2152557373046,-56.4698905944824,45.43705405349188,42.38209030531099,1625975383
fw,-72.389663696289,-57.1164627075195,42.8463788175805,42.487128600161626,1625992050
fw,-71.5415573120117,-57.6011848449707,39.4818575244682,39.19752258838419,1626008717
fw,-70.7905349731445,-58.2324638366699,35.66190606539117,34.06975054965801,1626025384
fw,-70.3152847290039,-58.8448677062988,31.676636455451806,28.64685387485745,1626042051
fw,-70.1377334594726,-59.2602043151855,27.62961965275107,24.176037967734455,1626058718
fw,-70.0761032104492,-59.6223602294921,23.306006455678943,21.442222149989757,1626075385
fw,-69.9697875976562,-60.1772575378418,18.136405790083757,20.750905346718977,1626092052
fw,-69.7578506469726,-61.1536140441894,11.304331094741315,22.047579488044146,1626108719
fw,-69.4778518676757,-62.4218292236328,1.9872728535231965,25.111833176544632,1626125386
fw,-69.3713607788086,-63.5806465148925,-10.348219205862987,29.730465999435463,1626142053
fw,-69.6944580078125,-64.3702392578125,-25.717049898456253,35.76440742265499,1626158720
fw,-70.7114868164062,-64.9902420043945,-43.549479844423395,43.08642843093586,1626175387
fw,-72.4180450439453,-65.6897659301757,-62.80738973635631,51.44671973334529,1626192054
fw,-74.5635604858398,-66.7617950439453,-82.2118250895085,60.36843587881088,1626208721
fw,-76.9049835205078,-68.2425765991211,-100.46795885277791,69.15592901196106,1626225388
fw,-79.1862869262695,-69.9062118530273,-116.40643302132759,77.03018186014167,1626242055
fw,-81.5568695068359,-71.6615295410156,-129.04162935882155,83.33364731348404,1626258722
fw,-83.8221893310546,-73.3835983276367,-137.61309143208584,87.7107919219779,1626275389
fw,-85.5080032348632,-74.9718933105468,-141.67499210943592,90.18461603786095,1626292056
fw,-85.6857986450195,-76.4771881103515,-141.23471655791022,91.09963477489065,1626308723
fw,-84.3602828979492,-77.9439163208007,-136.86836732211182,90.96075022871086,1626325390
fw,-82.62158203125,-79.3921966552734,-129.714024537461,90.23799842640463,1626342057
fw,-80.9424057006836,-80.8633346557617,-121.28228658857591,89.21374465196531,1626358724
fw,-79.4123306274414,-82.4004898071289,-113.1056411546825,87.92322396133554,1626375391
fw,-78.0324478149414,-83.9529266357421,-106.32944473224234,86.1972097729146,1626392058
fw,-76.572265625,-85.4945068359375,-101.3872810610405,83.77737033773315,1626408725
fw,-74.9039001464843,-86.9590835571289,-97.88299320835107,80.45521935970321,1626425392
fw,-73.0784530639648,-88.1768341064453,-94.72879905956175,76.18751348622315,1626442059
fw,-71.3238983154296,-88.7549514770507,-90.49552302584917,71.1572058094913,1626458726
fw,-69.7415313720703,-88.3869934082031,-83.85856169847813,65.76923928011132,1626475393
fw,-68.3602218627929,-87.6026535034179,-73.99982885996675,60.587201342684,1626492060
fw,-67.2727355957031,-86.7090148925781,-60.85156307199319,56.22694009084187,1626508727
fw,-66.4766845703125,-85.8258972167968,-45.12202499302124,53.22681056306781,1626525394
fw,-66.0611419677734,-84.9927368164062,-28.104605095181164,51.91453297374155,1626542061
fw,-66.1974487304687,-84.1565856933593,-11.32941825158398,52.29173150754346,1626558728
fw,-66.865364074707,-83.2815170288086,3.8368061781005447,53.959484488702266,1626575395
fw,-67.4661102294921,-82.3809585571289,16.514285746832275,56.10758329285985,1626592062
fw,-67.7178573608398,-81.430305480957,26.450360385024997,57.58262809156535,1626608729
fw,-68.185806274414,-80.4469985961914,33.9396065617651,57.035605112015595,1626625396
fw,-68.9466018676757,-79.5713195800781,39.57611912072534,53.13196264102746,1626642063
fw,-69.6238784790039,-78.8705825805664,43.949538667356485,44.791333332744784,1626658730
fw,-70.1421813964843,-78.2730102539062,47.402725085342,31.41302279392168,1626675397
fw,-70.7847595214843,-77.7760848999023,49.93589924904551,13.037308501856993,1626692064
fw,-71.8179473876953,-77.6788787841796,51.28923044244896,-9.607104540464562,1626708731
fw,-73.2307586669921,-78.2263793945312,51.16992670118275,-35.20432227743674,1626725398
fw,-74.5011367797851,-79.4098129272461,49.52410315119096,-62.097818144487015,1626742065
fw,-75.4502868652343,-81.1604461669921,46.7217545697221,-88.62345480460802,1626758732
fw,-76.2806625366211,-83.1067276000976,43.554037494150144,-113.42405623612139,1626775399
fw,-76.7731170654296,-84.1356201171875,41.02691903784812,-135.63513234377373,1626792066
fw,-77.1630096435546,-83.4029922485351,40.030236252219076,-154.8792170103439,1626808733
fw,-77.6277770996093,-81.8835754394531,41.019714634315854,-171.0900140081167,1626825400
fw,-77.9903564453125,-80.3337936401367,43.846774852367695,-184.26474266499707,1626842067
fw,-78.7603149414062,-78.5084991455078,47.80915071121856,-194.26932306634941,1626858734
fw,-79.7511901855468,-76.185073852539,51.90037959998024,-200.7807821460579,1626875401
fw,-80.5462646484375,-73.3821945190429,55.15088980612008,-203.37100221257904,1626892068
fw,-81.015022277832,-70.3365173339843,56.920624835092276,-201.66441178650985,1626908735
fw,-81.1228561401367,-67.3349533081054,57.03973700783453,-195.47644187833006,1626925402
fw,-80.9828872680664,-64.5380859375,55.77457458942972,-184.86652871457144,1626942069
fw,-80.6418914794921,-62.1829376220703,53.67090250224556,-170.09910808288066,1626958736
fw,-80.1406860351562,-60.061767578125,51.358330529287464,-151.56376167155912,1626975403
fw,-79.5740966796875,-58.2418785095214,49.38669358492897,-129.72848295997196,1626992070
fw,-79.0032577514648,-56.5394477844238,48.12824357140461,-105.1746103041782,1627008737
fw,-78.3957290649414,-54.9850578308105,47.7437838902831,-78.70351083850628,1627025404
fw,-77.7482604980468,-53.9065361022949,48.19137040002019,-51.44825091174712,1627042071
fw,-77.0953369140625,-53.3962478637695,49.25569645749863,-24.90151653319629,1627058738
fw,-76.4060974121093,-53.3933792114257,50.587885166323645,-0.7969361374379257,1627075405
fw,-75.6663360595703,-53.9555625915527,51.75747677189959,19.158587366692277,1627092072
fw,-74.8835296630859,-54.8668022155761,52.3211865279358,33.637958906585844,1627108739
fw,-74.1029968261718,-55.8457298278808,51.90453629055478,42.02457364020663,1627125406
fw,-73.3614501953125,-56.7470054626464,50.2793059991679,44.60619621206807,1627142073
fw,-72.6102752685546,-57.4621353149414,47.41163750860678,42.552363818207745,1627158740
fw,-71.7939453125,-58.1433029174804,43.45809429867974,37.66186138294245,1627175407
fw,-71.0005874633789,-58.7388954162597,38.699023276708935,31.941566973863008,1627192074
fw,-70.4327774047851,-59.0854873657226,33.41688261300159,27.134800944532323,1627208741
fw,-70.1944961547851,-59.3330688476562,27.749593554323216,24.339508515748424,1627225408
fw,-70.1775436401367,-59.6465415954589,21.570442605553772,23.83892846962494,1627242075
fw,-70.143928527832,-60.3771667480468,14.453923240870616,25.207973266502297,1627258742
fw,-69.9626083374023,-61.7608261108398,5.766374173541441,27.661393921021006,1627275409
fw,-69.7730636596679,-63.4832229614257,-5.1300822901462935,30.502562167535856,1627292076
fw,-69.8820724487304,-64.686279296875,-18.629694656436662,33.4706324991283,1627308743
fw,-70.4765090942382,-65.1859054565429,-34.68972092292267,36.82153979351153,1627325410
fw,-71.7643661499023,-65.3993148803711,-52.766276604974045,41.11272260458397,1627342077
fw,-73.6897201538086,-65.7689590454101,-71.88895091932675,46.81937810259646,1627358744
fw,-75.9534530639648,-66.6761169433593,-90.8194373508294,53.9939024763107,1627375411
fw,-78.3074111938476,-68.1414260864257,-108.21972629281571,62.14141163995346,1627392078
fw,-80.6849365234375,-69.7852020263671,-122.79070860091505,70.35615027684355,1627408745
fw,-83.0662765502929,-71.5550842285156,-133.39770954941406,77.62949869399174,1627425412
fw,-85.1566543579101,-73.2577667236328,-139.22310351462076,83.17229738134687,1627442079
fw,-86.2823257446289,-74.7519073486328,-139.95419614018118,86.61369303157025,1627458746
fw,-85.6219024658203,-76.1264572143554,-135.9528302974946,88.01854855984872,1627475413
fw,-83.9546737670898,-77.4791793823242,-128.31201181160245,87.75618198892626,1627492080
fw,-82.2708206176757,-78.8585891723632,-118.71879520965504,86.30983672886478,1627508747
fw,-80.7792510986328,-80.3010559082031,-109.11048434670685,84.11823252893578,1627525414
fw,-79.4756546020507,-81.7282104492187,-101.20097381787895,81.49901097847811,1627542081
fw,-78.1989974975586,-83.0984878540039,-96.02159483555097,78.65087892172774,1627558748
fw,-76.7529525756836,-84.4564514160156,-93.63184447730393,75.69716165254604,1627575415
fw,-75.0460357666015,-85.7823944091796,-93.10229901606746,72.73001138579338,1627592082
fw,-73.2636184692382,-86.9639739990234,-92.777920266521,69.8331555837202,1627608749
fw,-71.6200714111328,-87.9104385375976,-90.73749906348283,67.08421686233658,1627625416
fw,-70.1509780883789,-88.4555435180664,-85.3129365077674,64.55133129569231,1627642083
fw,-68.7936096191406,-88.3674621582031,-75.53239658505441,62.298103715479776,1627658750
fw,-67.68798828125,-87.6832885742187,-61.386835054976046,60.39874809048087,1627675417
fw,-66.8973922729492,-86.7779083251953,-43.86517327573906,58.9499747055492,1627692084
fw,-66.4387741088867,-85.8939208984375,-24.748483852840316,58.058848164444676,1627708751
fw,-66.4322280883789,-85.0345382690429,-6.201044768118473,57.79350993419924,1627725418
fw,-67.0947952270507,-84.1119079589843,9.75158825355639,58.1027141044128,1627742085
fw,-68.0986022949218,-83.1380767822265,21.720911478748807,58.72845070515241,1627758752
fw,-68.7497634887695,-82.1666946411132,29.278743953287254,59.143722173436494,1627775419
fw,-69.2660369873046,-81.2987060546875,32.996220756307444,58.544549486879376,1627792086
fw,-69.778091430664,-80.5132064819336,34.18529898235212,55.91645868017286,1627808753
fw,-70.2643127441406,-79.7105941772461,34.436376208973975,50.18217910585534,1627825420
fw,-70.6530380249023,-78.903335571289,35.11153422353468,40.41553653176461,1627842087
fw,-71.0633850097656,-78.2845993041992,36.95682839900075,26.0774453313327,1627858754
fw,-71.5450973510742,-77.9801559448242,39.9505067399604,7.205722947246352,1627875421
fw,-72.3514862060546,-78.0758743286132,43.426805117279685,-15.511681260974967,1627892088
fw,-73.829605102539,-78.6564788818359,46.423816003881576,-40.822407171384505,1627908755
fw,-75.1832504272461,-79.8866424560546,48.122139068921996,-67.14562003759029,1627925422
fw,-76.1094894409179,-81.6979217529296,48.203392539985195,-92.89284965273553,1627942089
fw,-77.0482025146484,-83.5199584960937,46.991030766196154,-116.76844993595994,1627958756
fw,-77.7066650390625,-84.0494232177734,45.32984086365336,-137.943268861233,1627975423
fw,-78.099380493164,-82.9027862548828,44.26780921135762,-156.0442421568237,1627992090
fw,-78.6520538330078,-81.4565200805664,44.675670602578684,-170.98642437540238,1628008757
fw,-79.1288223266601,-80.1634521484375,46.951315455406736,-182.74820749116665,1628025424
fw,-79.7725296020507,-78.5141220092773,50.909854200528535,-191.208736839378,1628042091
fw,-80.6608734130859,-76.1615447998046,55.87732173570771,-196.1171576629014,1628058758
fw,-81.3305053710937,-73.3820724487304,60.924117148989104,-197.18075700502158,1628075425
fw,-81.5721893310546,-70.4638366699218,65.13165957497753,-194.1968137120704,1628092092
fw,-81.4878845214843,-67.6132049560546,67.79951563164981,-187.14441416458726,1628108759
fw,-81.2051162719726,-65.0147476196289,68.55288104808693,-176.19329493835713,1628125426
fw,-80.747444152832,-62.7383079528808,67.36186251107964,-161.64561501922222,1628142093
fw,-80.1263046264648,-60.7196311950683,64.50470886365252,-143.86764253774916,1628158760
fw,-79.4473495483398,-58.8830490112304,60.498107459451084,-123.26998064358602,1628175427
fw,-78.7721099853515,-57.1173706054687,56.001012571807365,-100.35880960517012,1628192094
fw,-78.0462875366211,-55.67573928833,51.69344053522609,-75.82992782334982,1628208761
fw,-77.2674255371093,-54.7163314819335,48.14151016023557,-50.64340939434402,1628225428
fw,-76.4646835327148,-54.2117805480957,45.67525091521129,-26.018861410348272,1628242095
fw,-75.642707824707,-54.1143264770507,44.31419789477309,-3.3249531244327857,1628258762
fw,-74.8007202148437,-54.5162391662597,43.770148915974815,16.11927732702657,1628275429
fw,-73.8916397094726,-55.2422256469726,43.53602820594268,31.27926190898299,1628292096
fw,-72.9646759033203,-56.0558624267578,43.03973264121857,41.607025605537174,1628308763
fw,-72.099624633789,-56.8256378173828,41.81260567904803,47.14627140261198,1628325430
fw,-71.3361053466796,-57.473834991455,39.60834595564988,48.50419022617901,1628342097
fw,-70.6594924926757,-58.1379890441894,36.42146338664042,46.69921760925674,1628358764
fw,-70.085693359375,-58.9259948730468,32.39372342523897,42.9376901699251,1628375431
fw,-69.691177368164,-59.6594696044921,27.646107402625717,38.39263711298028,1628392098
fw,-69.453987121582,-60.2497634887695,22.110439710721035,34.04759687189776,1628408765
fw,-69.3216323852539,-60.7760009765625,15.442123992598354,30.638364525670138,1628425432
fw,-69.2171936035156,-61.6301231384277,7.0677464271466794,28.689557257836434,1628442099
fw,-69.0796432495117,-62.9557609558105,-3.6336176597666223,28.605267708386602,1628458766
fw,-69.0966339111328,-64.1892547607421,-17.07751120849975,30.74122406954611,1628475433
fw,-69.4628067016601,-64.8379287719726,-33.24988511003502,35.38463528566685,1628492100
fw,-70.3819961547851,-65.2446670532226,-51.604699771212196,42.62002732659268,1628508767
fw,-71.9715270996093,-65.8814086914062,-71.12352941956713,52.14594751103748,1628525434
fw,-74.1156768798828,-66.9512100219726,-90.50501171679288,63.16658974489426,1628542101
fw,-76.5280303955078,-68.5805130004882,-108.40065714753322,74.4622334753278,1628558768
fw,-78.916748046875,-70.48876953125,-123.61262691198166,84.64996956497778,1628575435
fw,-81.2943725585937,-72.4644775390625,-135.21502385614164,92.54076020888581,1628592102
fw,-83.4243087768554,-74.3498306274414,-142.61601327081092,97.44423654780213,1628608769
fw,-84.8765029907226,-76.0515518188476,-145.60142287624004,99.29647087305466,1628625436
fw,-84.9501495361328,-77.5822219848632,-144.37870974843125,98.57071513999267,1628642103
fw,-83.6893157958984,-79.0623321533203,-139.59768959102905,96.02983533785746,1628658770
fw,-81.956314086914,-80.6151351928711,-132.29851281652589,92.44131873395827,1628675437
fw,-80.2131881713867,-82.1896820068359,-123.75012683539386,88.37256978785595,1628692104
fw,-78.5616683959961,-83.6268005371093,-115.18908050587537,84.12463779095326,1628708771
fw,-77.1014556884765,-84.8689422607421,-107.52335036884806,79.78714473353766,1628725438
fw,-75.6370773315429,-85.9920578002929,-101.09880649205506,75.3499859713428,1628742105
fw,-74.0149459838867,-87.01220703125,-95.61806844136014,70.8060955339115,1628758772
fw,-72.2894973754882,-87.7890167236328,-90.25278227361328,66.20988815477315,1628775439
fw,-70.6761932373046,-88.0946426391601,-83.92056726771385,61.69024426964845,1628792106
fw,-69.2653350830078,-87.8084030151367,-75.63901982223992,57.43560819088427,1628808773
fw,-68.0605850219726,-87.1746444702148,-64.84674545704732,53.66860663588419,1628825440
fw,-67.0882873535156,-86.4539260864257,-51.59836755634106,50.61710922700529,1628842107
fw,-66.3930511474609,-85.7362594604492,-36.58109845658599,48.47941194696751,1628858774
fw,-66.0333938598632,-85.015640258789,-20.94831742405742,47.37984936209543,1628875441
fw,-66.1894760131836,-84.249641418457,-6.013771167762142,47.316250293054296,1628892108
fw,-66.9405364990234,-83.4182891845703,7.105403026998838,48.10642842519881,1628908775
fw,-67.4948196411132,-82.564468383789,17.78111510440354,49.34364085086939,1628925442
fw,-67.7780227661132,-81.7352066040039,25.998803697666727,50.37215337319106,1628942109
fw,-68.2862396240234,-81.0122451782226,32.271785529948744,50.29716258134279,1628958776
fw,-68.9861907958984,-80.3865356445312,37.38669609671935,48.047633160449536,1628975443
fw,-69.6373825073242,-79.7722244262695,42.08066748252469,42.50886038701588,1628992110
fw,-70.2090759277343,-79.1767044067382,46.763669252140694,32.72490200022044,1629008777
fw,-70.9042663574218,-78.6543960571289,51.377282672686185,18.138536696499077,1629025444
fw,-71.7984313964843,-78.338134765625,55.44011216768312,-1.19882970460971,1629042111
fw,-73.1611022949218,-78.4606628417968,58.27241683714981,-24.530400150435934,1629058778
fw,-74.8061370849609,-79.2710342407226,59.3240086350035,-50.471037655940535,1629075445
fw,-76.0540924072265,-80.7322769165039,58.47632915328206,-77.25863320345857,1629092112
fw,-77.2005996704101,-82.4990234375,56.18660486161625,-103.1064909194528,1629108779
fw,-78.1616287231445,-83.5305862426757,53.40124336492704,-126.53511486171908,1629125446
fw,-78.6739273071289,-83.0623397827148,51.261729267170985,-146.57008304688998,1629142113
fw,-79.2087249755859,-81.7881927490234,50.71381070341353,-162.7570063295594,1629158780
fw,-79.751594543457,-80.6260910034179,52.172039844552,-175.02853306104106,1629175447
fw,-80.2617721557617,-79.3740310668945,55.37004020740835,-183.5137014220738,1629192114
fw,-80.9920883178711,-77.5979690551757,59.45044139820167,-188.380763262698,1629208781
fw,-81.8386535644531,-75.2628784179687,63.250198879518535,-189.76242827579858,1629225448
fw,-82.2337036132812,-72.5474777221679,65.66255088604458,-187.76021876923238,1629242115
fw,-82.0632095336914,-69.6640625,65.94145724434388,-182.48939537312253,1629258782
fw,-81.5655517578125,-66.9060287475586,63.860986661779876,-174.11775690471939,1629275449
fw,-80.9521713256836,-64.4566955566406,59.71643905369574,-162.8687529755869,1629292116
fw,-80.2813339233398,-62.3429679870605,54.209299684627176,-148.99186298223205,1629308783
fw,-79.6203231811523,-60.5742492675781,48.272160988829256,-132.73253602929236,1629325450
fw,-79.0155792236328,-58.8779258728027,42.87542251232282,-114.34051667019025,1629342117
fw,-78.3870544433593,-57.2510147094726,38.84119525364817,-94.13295164086715,1629358784
fw,-77.674446105957,-55.9255332946777,36.6861211049845,-72.59097959257076,1629375451
fw,-76.9386978149414,-54.9814262390136,36.519945554125,-50.43992745939467,1629392118
fw,-76.1784362792968,-54.4239082336425,38.02690629143602,-28.66126956554249,1629408785
fw,-75.3982772827148,-54.2177543640136,40.542405352003755,-8.408272578664896,1629425452
fw,-74.6050491333007,-54.5157737731933,43.21050130995451,9.16737485947966,1629442119
fw,-73.792251586914,-55.1559410095214,45.180828843813735,23.136984157001965,1629458786
fw,-73.0199813842773,-55.89501953125,45.78963171661154,32.99944682981636,1629475453
fw,-72.295539855957,-56.6094627380371,44.67525872711403,38.79869142689405,1629492120
fw,-71.5563125610351,-57.2446708679199,41.80119056263063,41.105865113603336,1629508787
fw,-70.7640151977539,-57.8922119140625,37.388812893319916,40.86511041862109,1629525454
fw,-70.0285949707031,-58.6298446655273,31.78549031432692,39.15356945013688,1629542121
fw,-69.5469818115234,-59.3096542358398,25.306118652896973,36.93718886750945,1629558788
fw,-69.3751831054687,-59.8533859252929,18.091796559633174,34.90235261354944,1629575455
fw,-69.4307174682617,-60.3643455505371,10.030243531387365,33.41615631852222,1629592122
fw,-69.5197296142578,-61.1535873413085,0.7734397213846339,32.625883839704215,1629608789
fw,-69.5769424438476,-62.5666580200195,-10.139419714658414,32.654526897583196,1629625456
fw,-69.7410888671875,-64.2352676391601,-23.087677049187473,33.793231800255754,1629642123
fw,-70.3184661865234,-65.2741241455078,-38.173820636632904,36.56583547752567,1629658790
fw,-71.4424285888671,-65.6281585693359,-55.10178607920374,41.58537053946486,1629675457
fw,-73.2196044921875,-65.9477767944336,-73.16896835549876,49.237432715942035,1629692124
fw,-75.4975967407226,-66.5863647460937,-91.35816011027916,59.34520900163367,1629708791
fw,-77.9759368896484,-67.9099960327148,-108.4791334013358,71.00842828798781,1629725458
fw,-80.4246826171875,-69.723762512207,-123.31374004777564,82.73005730975738,1629742125
fw,-82.8723907470703,-71.7667007446289,-134.75264066025812,92.79902762191102,1629758792
fw,-84.9183197021484,-73.8853988647461,-141.9394262486447,99.77279800669905,1629775459
fw,-85.9596939086914,-75.794807434082,-144.429979382829,102.8643860408923,1629792126
fw,-85.3018112182617,-77.4102935791015,-142.3371624394878,102.09428710809145,1629808793
fw,-83.5729446411132,-78.8229675292968,-136.3962805946953,98.18051775376551,1629825460
fw,-81.6937408447265,-80.1945190429687,-127.88607536282998,92.24916994392795,1629842127
fw,-79.9567413330078,-81.605110168457,-118.38151395196444,85.50071846086098,1629858794
fw,-78.3630447387695,-82.966926574707,-109.38186325743182,78.94754731336982,1629875461
fw,-76.9740829467773,-84.1798400878906,-101.91891178953031,73.27310623663027,1629892128
fw,-75.5839614868164,-85.3131637573242,-96.27528071167264,68.80068645350399,1629908795
fw,-74.0322265625,-86.4387741088867,-91.91687193731141,65.53268936010676,1629925462
fw,-72.3525238037109,-87.4858093261718,-87.67370951037847,63.2288393726062,1629942129
fw,-70.7833099365234,-88.3855361938476,-82.11683313055373,61.51100334906291,1629958796
fw,-69.4342651367187,-88.9031829833984,-74.01251950380866,59.99072168146461,1629975463
fw,-68.3003997802734,-88.4853439331054,-62.715799098200215,58.405540451865136,1629992130
fw,-67.4306869506836,-87.4497909545898,-48.39323631185647,56.7293776607993,1630008797
fw,-66.8460922241211,-86.3657913208007,-32.01910705069452,55.20757663560446,1630025464
fw,-66.5888137817382,-85.4951553344726,-15.147995509285263,54.27677481995482,1630042131
fw,-66.8687362670898,-84.8188095092773,0.47835920410236277,54.369444970573646,1630058798
fw,-67.7253799438476,-84.1207656860351,13.3840148690259,55.658031289105615,1630075465
fw,-68.5145263671875,-83.3260879516601,22.73574846532489,57.833224065386396,1630092132
fw,-68.9149856567382,-82.3656997680664,28.519849447470577,60.00977993272394,1630108799
fw,-69.3356246948242,-81.3041687011718,31.46108176914313,60.810683240300165,1630125466
fw,-69.9128036499023,-80.2727432250976,32.72319471860857,58.61879889680419,1630142133
fw,-70.4333572387695,-79.330451965332,33.50700208349184,51.931917234419046,1630158800
fw,-70.8707962036132,-78.5030288696289,34.6844691066027,39.728295708344156,1630175467
fw,-71.2333297729492,-77.9527893066406,36.581676078895576,21.74728557546775,1630192134
fw,-71.8399658203125,-77.8077392578125,38.972031287350966,-1.3912466039130602,1630208801
fw,-72.9143371582031,-78.1753234863281,41.27466853516385,-28.26810462358903,1630225468
fw,-74.253059387207,-79.1768951416015,42.87934047489439,-56.935219823021484,1630242135
fw,-75.2818298339843,-80.7669067382812,43.46326745551803,-85.30867068387244,1630258802
fw,-76.1617355346679,-82.710693359375,43.16287666022374,-111.57402149341551,1630275469
fw,-76.8008728027343,-83.9130477905273,42.52727109785054,-134.4819524029361,1630292136
fw,-77.1448059082031,-83.3598480224609,42.281500954658405,-153.44626074582465,1630308803
fw,-77.6735382080078,-81.7812881469726,43.013447730754606,-168.43163030325576,1630325470
fw,-78.1317977905273,-80.2641906738281,44.92688441429974,-179.70399667590178,1630342137
fw,-78.7669372558593,-78.7167663574218,47.76497251278869,-187.5665091771405,1630358804
fw,-79.7337341308593,-76.6870880126953,50.92467746088548,-192.1901260018669,1630375471
fw,-80.5669326782226,-74.1411743164062,53.69502281896183,-193.58116314787816,1630392138
fw,-81.0574722290039,-71.3575592041015,55.50394397447192,-191.6523216311802,1630408805
fw,-81.1852111816406,-68.4996871948242,56.072368960632915,-186.32228603962182,1630425472
fw,-81.0047760009765,-65.7756881713867,55.43653145143871,-177.5781524428229,1630442139
fw,-80.6241378784179,-63.378131866455,53.868341605812105,-165.48003090891612,1630458806
fw,-80.127571105957,-61.2253723144531,51.759243268482614,-150.13640989338708,1630475473
fw,-79.6019134521484,-59.3784637451171,49.52440903220052,-131.70235779942405,1630492140
fw,-79.1014251708984,-57.7439079284668,47.548805808658926,-110.43815142683096,1630508807
fw,-78.5577316284179,-56.2064056396484,46.161863210039904,-86.82420222666231,1630525474
fw,-77.9121398925781,-54.9776153564453,45.61249645630283,-61.684027325648174,1630542141
fw,-77.2291030883789,-54.2386169433593,46.025074058688155,-36.24432912109975,1630558808
fw,-76.5477905273437,-54.0209236145019,47.34075908168841,-12.072288776840962,1630575475
fw,-75.8504180908203,-54.2509002685546,49.27253145872147,9.12848430699984,1630592142
fw,-75.1131515502929,-55.0118141174316,51.31149417177707,25.82716978630199,1630608809
fw,-74.2809906005859,-55.8725547790527,52.80853823435858,36.99749422290131,1630625476
fw,-73.353042602539,-56.7109184265136,53.122602784011534,42.36940702495768,1630642143
fw,-72.3833618164062,-57.3768768310546,51.790350883793984,42.51493202420683,1630658810
fw,-71.4028625488281,-58.0381317138671,48.651893958059865,38.73343869687596,1630675477
fw,-70.5278930664062,-58.7179412841796,43.875205746411524,32.766730822407666,1630692144
fw,-69.9667510986328,-59.2279586791992,37.856842816266365,26.425804737554994,1630708811
fw,-69.7377243041992,-59.591251373291,31.026991713832796,21.23207723123921,1630725478
fw,-69.6166000366211,-59.8424377441406,23.6340014767641,18.16786367519404,1630742145
fw,-69.4427261352539,-60.2597007751464,15.60406466800752,17.60085870732069,1630758812
fw,-69.206428527832,-61.1536293029785,6.547720051657132,19.395659960267615,1630775479
fw,-69.0130920410156,-62.4502563476562,-4.079734517512662,23.15591130018672,1630792146
fw,-69.1156921386718,-63.6535453796386,-16.730830364016985,28.480078101423945,1630808813
fw,-69.5932083129882,-64.4067916870117,-31.539654732470236,35.10526075528321,1630825480
fw,-70.5730819702148,-64.8422088623046,-48.20840729833796,42.87807536546881,1630842147
fw,-72.2102737426757,-65.4175949096679,-66.03504584196999,51.59767848267423,1630858814
fw,-74.3180160522461,-66.4078903198242,-84.0399192335514,60.85445809047445,1630875481
fw,-76.6605148315429,-67.9335708618164,-101.11555935742692,69.98585571629641,1630892148
fw,-79.0539474487304,-69.7129211425781,-116.14513392473891,78.19240131289413,1630908815
fw,-81.4772796630859,-71.5698089599609,-128.0901962618909,84.75707962680488,1630925482
fw,-83.6734619140625,-73.3183898925781,-136.08952301622784,89.2521863543291,1630942149
fw,-85.1495819091796,-74.8580551147461,-139.6017079640734,91.62985396169822,1630958816
fw,-85.1614685058593,-76.3413391113281,-138.5712597262075,92.16091406176328,1630975483
fw,-83.9307861328125,-77.8235473632812,-133.543818185245,91.2675096896936,1630992150
fw,-82.3382492065429,-79.3212280273437,-125.64366103117557,89.34182283166078,1631008817
fw,-80.7972564697265,-80.8147430419921,-116.36918732135155,86.63547343541693,1631025484
fw,-79.366584777832,-82.2646789550781,-107.23864832405539,83.255194877463,1631042151
fw,-78.075325012207,-83.6293869018554,-99.39010870892403,79.24385444964749,1631058818
fw,-76.770149230957,-84.9601287841796,-93.27178086133232,74.69120008495533,1631075485
fw,-75.2950897216796,-86.2242050170898,-88.53624288096006,69.81659157983489,1631092152
fw,-73.6485900878906,-87.3057174682617,-84.18259616776888,64.98851773737793,1631108819
fw,-72.0377197265625,-88.0725784301757,-78.90198664588573,60.67641415266695,1631125486
fw,-70.6166458129882,-88.4243087768554,-71.51141568583732,57.35533997064946,1631142153
fw,-69.4334564208984,-88.2810363769531,-61.33708212336425,55.39679646487345,1631158820
fw,-68.5181579589843,-87.7575531005859,-48.435182315884994,54.97818115626059,1631175487
fw,-67.9088821411132,-87.014175415039,-33.59526168670548,56.03175837556455,1631192154
fw,-67.6019058227539,-86.1351776123046,-18.134025157529805,58.23797761972346,1631208821
fw,-67.7934875488281,-85.1526947021484,-3.5417345946539958,61.054870671627924,1631225488
fw,-68.4877700805664,-84.0359268188476,8.915960513184029,63.76899117190992,1631242155
fw,-69.1074295043945,-82.8649063110351,18.518699341985933,65.55342286655241,1631258822
fw,-69.4259796142578,-81.7796096801757,25.23057980198976,65.5234510704143,1631275489
fw,-69.8804321289062,-80.835693359375,29.616008093071667,62.7903729498054,1631292156
fw,-70.4761810302734,-80.0367279052734,32.573977103400324,56.526039340830096,1631308823
fw,-70.9460906982421,-79.3714752197265,34.995425188501585,46.05670524126591,1631325490
fw,-71.3417053222656,-78.8429565429687,37.4656292877682,30.9948268873758,1631342157
fw,-71.8711318969726,-78.4365310668945,40.1106377497317,11.39010913238124,1631358824
fw,-72.6329727172851,-78.3081436157226,42.63731766170491,-12.151454910219849,1631375491
fw,-73.8060684204101,-78.7284851074218,44.54883598086481,-38.44809139906057,1631392158
fw,-75.1561813354492,-79.8299713134765,45.44642195828358,-65.87122558004012,1631408825
fw,-76.2102355957031,-81.5033645629882,45.28482655856758,-92.61731277413449,1631425492
fw,-77.0923080444336,-83.3367919921875,44.46248524506332,-117.04981379718475,1631442159
fw,-77.6985549926757,-84.056640625,43.69979595160699,-137.99646964983424,1631458826
fw,-78.0547637939453,-82.9670104980468,43.75669116668384,-154.89795557280598,1631475493
fw,-78.6537780761718,-81.1476364135742,45.1148774395804,-167.7664926589452,1631492160
fw,-79.1859893798828,-79.4745330810546,47.76526244941586,-176.9938378020739,1631508827
fw,-79.8140487670898,-77.820198059082,51.1922059927603,-183.10224906585907,1631525494
fw,-80.7237319946289,-75.845100402832,54.55810551030027,-186.5334109629497,1631542161
fw,-81.6179885864257,-73.5072021484375,57.00521353768323,-187.52893523756674,1631558828
fw,-82.1158676147461,-70.8730545043945,57.94559355495244,-186.10551449967153,1631575495
fw,-82.1127548217773,-68.022705078125,57.226109170805536,-182.0958783218944,1631592162
fw,-81.731201171875,-65.2577896118164,55.123236003070964,-175.21976980919234,1631608829
fw,-81.1237411499023,-62.7661743164062,52.202021007114844,-165.1599493407566,1631625496
fw,-80.437255859375,-60.5537605285644,49.12062981960374,-151.63707225638402,1631642163
fw,-79.7458724975586,-58.6607131958007,46.459574329035185,-134.49320399823952,1631658830
fw,-79.09326171875,-56.8802299499511,44.61866232427682,-113.79534232684135,1631675497
fw,-78.4609069824218,-55.3064994812011,43.784331681717816,-89.95383778940287,1631692164
fw,-77.8186416625976,-54.1041984558105,43.946077656059366,-63.82504408287364,1631708831
fw,-77.1852874755859,-53.3328895568847,44.936563417438265,-36.74915492272549,1631725498
fw,-76.4985122680664,-52.9671440124511,46.47755421474856,-10.47573245664567,1631742165
fw,-75.6863708496093,-53.2027778625488,48.22367243948586,13.046263636192664,1631758832
fw,-74.7597579956054,-54.0161399841308,49.80297369958238,31.99534852433959,1631775499
fw,-73.7984542846679,-55.1102752685546,50.855913462065075,45.05382968265848,1631792166
fw,-72.8860168457031,-56.296573638916,51.07253951795436,51.72789904986278,1631808833
fw,-72.0004196166992,-57.2488822937011,50.22319142131021,52.50116202561987,1631825500
fw,-71.1192626953125,-58.1503448486328,48.17344440509687,48.75272299654863,1631842167
fw,-70.3045806884765,-58.9472503662109,44.87304385073069,42.44583490681282,1631858834
fw,-69.656509399414,-59.5182571411132,40.314453694940426,35.669803521432115,1631875501
fw,-69.2338562011718,-59.9090919494628,34.47015663122104,30.16811880915416,1631892168
fw,-68.9758987426757,-60.2237854003906,27.233780414376607,26.99671780128003,1631908835
fw,-68.7969818115234,-60.7824401855468,18.397756426884673,26.42263362767995,1631925502
fw,-68.641242980957,-61.9781417846679,7.690577847803633,28.093030918775128,1631942169
fw,-68.5377731323242,-63.6467704772949,-5.128930013363211,31.39374511464837,1631958836
fw,-68.7083969116211,-65.0716018676757,-20.151451013094892,35.823489940250205,1631975503
fw,-69.3143692016601,-65.7480773925781,-37.21602696759486,41.19774308968061,1631992170
fw,-70.481819152832,-66.1087265014648,-55.86197222324099,47.590826215304226,1632008837
fw,-72.3566589355468,-66.6462707519531,-75.33938964308834,55.077570009913906,1632025504
fw,-74.7222290039062,-67.6574783325195,-94.65860659307704,63.450473198216564,1632042171
fw,-77.2186279296875,-69.179573059082,-112.65715650229657,72.09285911829042,1632058838
fw,-79.7420120239257,-71.0153884887695,-128.0865607104844,80.0884362737835,1632075505
fw,-82.2959213256836,-73.0096969604492,-139.74670144628215,86.5113182156429,1632092172
fw,-84.5337753295898,-74.8527526855468,-146.69000694811865,90.7461915748483,1632108839
fw,-85.6745071411132,-76.383071899414,-148.4703549844927,92.68032942441202,1632125506
fw,-85.0055847167968,-77.7256698608398,-145.35129730235485,92.68331698455329,1632142173
fw,-83.3872528076171,-79.0333251953125,-138.36238808504226,91.40100083768522,1632158840
fw,-81.6723480224609,-80.3919296264648,-129.12862655267892,89.47523889597986,1632175507
fw,-80.0785751342773,-81.8423614501953,-119.48417754991802,87.31867528669312,1632192174
fw,-78.6080169677734,-83.2953033447265,-110.97614267801197,85.02626568779279,1632208841
fw,-77.2346801757812,-84.6569137573242,-104.42210653680345,82.43081990184622,1632225508
fw,-75.7103195190429,-85.9943008422851,-99.67972229881819,79.25195956027338,1632242175
fw,-73.9355545043945,-87.2449417114257,-95.71790259526936,75.26834888459331,1632258842
fw,-72.0817108154296,-88.1636810302734,-90.97260888828706,70.45552593958129,1632275509
fw,-70.3970413208007,-88.281494140625,-83.86869379574092,65.05598955874858,1632292176
fw,-69.002456665039,-87.6852264404296,-73.33569716987539,59.56912196370344,1632308843
fw,-67.9182510375976,-86.8832855224609,-59.15871383565998,54.66292828046214,1632325510
fw,-67.1656036376953,-86.1189498901367,-42.06986309552247,51.02156723075835,1632342177
fw,-66.7712478637695,-85.4234161376953,-23.567844621633245,49.156072871157384,1632358844
fw,-66.8802719116211,-84.7780151367187,-5.526382450276722,49.219709488457845,1632375511
fw,-67.6798019409179,-84.0791473388671,10.292911558187189,50.877812741827604,1632392178
fw,-68.5576248168945,-83.2377777099609,22.677804954875054,53.276470628702846,1632408845
fw,-69.0354385375976,-82.2370452880859,31.217425636602666,55.13153619086052,1632425512
fw,-69.5239944458007,-81.2256469726562,36.295808861985904,54.92592305100142,1632442179
fw,-70.2520370483398,-80.3869323730468,38.85024188041137,51.17356748482312,1632458846
fw,-70.8500900268554,-79.7215423583984,40.00014891071518,42.695314660012095,1632475513
fw,-71.3158264160156,-79.1664733886718,40.68372530399071,28.855597108963646,1632492180
fw,-71.7761917114257,-78.845588684082,41.421069266625985,9.718786741863255,1632508847
fw,-72.447883605957,-78.9447784423828,42.27341198110673,-13.907202146844092,1632525514
fw,-73.5982894897461,-79.5468826293945,42.99933207157265,-40.561057063091916,1632542181
fw,-74.8865737915039,-80.6013793945312,43.331722715631834,-68.34997268580139,1632558848
fw,-75.9738693237304,-82.1495513916015,43.24282605394752,-95.26651696716614,1632575515
fw,-76.8559112548828,-83.7192153930664,43.064827563252535,-119.52868792265143,1632592182
fw,-77.3794708251953,-84.0887832641601,43.40075233784437,-139.85355119539122,1632608849
fw,-77.8270111083984,-82.9053268432617,44.8636348919617,-155.5890687372456,1632625516
fw,-78.3590011596679,-81.2565078735351,47.76712427703097,-166.67753832312238,1632642183
fw,-78.7212829589843,-79.7223968505859,51.91527134131137,-173.4883103167836,1632658850
fw,-79.3643112182617,-77.9810333251953,56.59386519226947,-176.6023872856972,1632675517
fw,-80.3459396362304,-75.7846755981445,60.77358943966943,-176.63123530117952,1632692184
fw,-81.1357421875,-73.2812347412109,63.43931081600643,-174.1107411809278,1632708851
fw,-81.4725341796875,-70.7136077880859,63.90662656327603,-169.45966369736684,1632725518
fw,-81.3650817871093,-68.2130279541015,62.004381985857904,-162.96407567389463,1632742185
fw,-80.9483947753906,-65.9066543579101,58.07697032695373,-154.75855444886082,1632758852
fw,-80.3565521240234,-63.8441085815429,52.84373461191048,-144.80750607949508,1632775519
fw,-79.6890487670898,-61.9902839660644,47.19773785659888,-132.9176854481907,1632792186
fw,-79.0565032958984,-60.3074836730957,42.01998100087093,-118.8139258735596,1632808853
fw,-78.5078582763671,-58.6837768554687,38.04774316849703,-102.2831382895207,1632825520
fw,-77.9529113769531,-57.2714881896972,35.796709194597426,-83.3541549599611,1632842187
fw,-77.3348159790039,-56.2188720703125,35.516475980812864,-62.455164905287276,1632858854
fw,-76.6842269897461,-55.4937744140625,37.162630244511334,-40.48908801604816,1632875521
fw,-76.0028991699218,-55.0894050598144,40.386350789139854,-18.78776947819455,1632892188
fw,-75.2902374267578,-55.0757789611816,44.55792913532916,1.063131210894594,1632908855
fw,-74.5223007202148,-55.6005134582519,48.841174432426044,17.503466163152208,1632925522
fw,-73.6657257080078,-56.3811836242675,52.320370116496704,29.323666719071053,1632942189
fw,-72.7663497924804,-57.162181854248,54.15949340661659,35.94992293901898,1632958856
fw,-71.8719787597656,-57.8418006896972,53.7567577265098,37.599489795489816,1632975523
fw,-70.9860382080078,-58.4697799682617,50.853728630263966,35.247943957906855,1632992190
fw,-70.1201934814453,-59.1564140319824,45.567438970493136,30.410111707807406,1633008857
fw,-69.4161300659179,-59.6862564086914,38.33161506787692,24.796830260624613,1633025524
fw,-69.0065002441406,-59.9493370056152,29.75564289014284,19.945865370329873,1633042191
fw,-68.8662948608398,-60.1595420837402,20.435091279101652,16.930806292815767,1633058858
fw,-68.86572265625,-60.4337615966796,10.769595781925625,16.230566367028544,1633075525
fw,-68.8872833251953,-61.1290321350097,0.8506741685144523,17.794221975147735,1633092192
fw,-68.8821105957031,-62.370807647705,-9.537239273023568,21.26347526189083,1633108859
fw,-68.9973068237304,-63.6661186218261,-20.80211883705215,26.242154119217144,1633125526
fw,-69.4293670654296,-64.5433578491211,-33.36195691961786,32.47464688154153,1633142193
fw,-70.340461730957,-65.0550537109375,-47.46374084013123,39.84573359104875,1633158860
fw,-71.9212951660156,-65.5247192382812,-63.059294200698524,48.22360170404588,1633175527
fw,-74.0629806518554,-66.3516311645507,-79.7546675552378,57.267174305241674,1633192194
fw,-76.4513854980468,-67.7615432739257,-96.81593215419194,66.3406956687849,1633208861
fw,-78.9353790283203,-69.4722213745117,-113.211779382134,74.60942634332558,1633225528
fw,-81.4925537109375,-71.3015823364257,-127.70011614442507,81.27877756500445,1633242195
fw,-83.923713684082,-73.0935440063476,-138.98800784478814,85.85596842834491,1633258862
fw,-85.6974334716796,-74.6608734130859,-145.97684580747799,88.30255580898508,1633275529
fw,-85.7570266723632,-76.0192565917968,-148.0485930139572,89.00544782200762,1633292196
fw,-84.1949844360351,-77.2984085083007,-145.2936903045514,88.58555288686654,1633308863
fw,-82.2070617675781,-78.6065139770507,-138.5702417169405,87.63815823698573,1633325530
fw,-80.3198852539062,-79.997085571289,-129.33249753150838,86.52146022044418,1633342197
fw,-78.6171188354492,-81.4553451538086,-119.25430127096583,85.27399824367971,1633358864
fw,-77.1359481811523,-82.9226608276367,-109.7596742846529,83.67417800142547,1633375531
fw,-75.7556915283203,-84.3708190917968,-101.61917825785733,81.39439175024103,1633392198
fw,-74.2582931518554,-85.7634506225586,-94.75625365195599,78.1756026072639,1633408865
fw,-72.6052093505859,-86.9799499511718,-88.33597186987639,73.95878301889898,1633425532
fw,-70.9507522583007,-87.8868713378906,-81.1065241465197,68.94126938484537,1633442199
fw,-69.4782257080078,-88.3146057128906,-71.87317272293268,63.55807868457379,1633458866
fw,-68.2992324829101,-88.1332397460937,-59.94293865331106,58.40686660516363,1633475533
fw,-67.4301681518554,-87.5169906616211,-45.39824656929787,54.1378873691955,1633492200
fw,-66.8818588256836,-86.7330169677734,-29.121794662827416,51.32348528275972,1633508867
fw,-66.6848831176757,-85.9976730346679,-12.573241242629745,50.31651481114857,1633525534
fw,-67.0456466674804,-85.3712005615234,2.611372163114136,51.11295303188396,1633542201
fw,-67.9195022583007,-84.7057266235351,15.074938136164564,53.24979085755455,1633558868
fw,-68.6091156005859,-83.86767578125,24.104637461248572,55.781094842506036,1633575535
fw,-69.0357284545898,-82.8626022338867,29.786081344389185,57.36660499024448,1633592202
fw,-69.5978012084961,-81.8878936767578,32.89836259785981,56.475947192055145,1633608869
fw,-70.1571884155273,-81.007942199707,34.59755546309063,51.67271571197903,1633625536
fw,-70.6438980102539,-80.2186203002929,36.007895555547606,41.91528451780654,1633642203
fw,-71.0232238769531,-79.6035842895507,37.86191013995462,26.802970234218655,1633658870
fw,-71.4562530517578,-79.3035278320312,40.30793651512961,6.7042173794391635,1633675537
fw,-72.265380859375,-79.473876953125,42.94848502890745,-17.274993841480786,1633692204
fw,-73.5881042480468,-80.1848678588867,45.09373676861302,-43.488576830064346,1633708871
fw,-74.9496002197265,-81.499526977539,46.12885598542105,-70.0727405130912,1633725538
fw,-75.9909439086914,-83.2114715576171,45.839420602620386,-95.30759480397285,1633742205
fw,-76.9717559814453,-84.3414077758789,44.552564616847285,-117.91013064099245,1633758872
fw,-77.514045715332,-83.7772674560546,43.03363769368078,-137.16949208903415,1633775539
fw,-77.8342208862304,-81.9757690429687,42.18911667761665,-152.8956255180458,1633792206
fw,-78.2945098876953,-80.1572799682617,42.71178797544412,-165.2283898817707,1633808873
fw,-78.7559356689453,-78.5744018554687,44.82512240446552,-174.4053096257167,1633825540
fw,-79.4874725341796,-76.8429107666015,48.23182448794976,-180.58534551540825,1633842207
fw,-80.5014190673828,-74.6786422729492,52.272022830293906,-183.78032913513283,1633858874
fw,-81.4079971313476,-72.1530303955078,56.19920847038765,-183.8871268329809,1633875541
fw,-81.7709503173828,-69.3515319824218,59.437123192377015,-180.7729873939756,1633892208
fw,-81.6234283447265,-66.5874099731445,61.71045558101214,-174.35679938576368,1633908875
fw,-81.1828079223632,-64.1955871582031,63.02395633119126,-164.6476397124523,1633925542
fw,-80.6113815307617,-62.1198539733886,63.54473329028623,-151.73849289834544,1633942209
fw,-80.0079193115234,-60.3010559082031,63.47477247890738,-135.78897760687204,1633958876
fw,-79.3888931274414,-58.6450424194335,62.97687882512932,-117.04295128017347,1633975543
fw,-78.7181091308593,-57.0135993957519,62.16456094946921,-95.90284513069831,1633992210
fw,-77.9154663085937,-55.6992149353027,61.12289386724568,-73.03633461990773,1634008877
fw,-77.038345336914,-54.8415641784668,59.91741696814342,-49.45431752794075,1634025544
fw,-76.1833267211914,-54.346263885498,58.57095151274987,-26.496670568135112,1634042211
fw,-75.3462371826171,-54.1846923828125,57.02276867694702,-5.693402254250352,1634058878
fw,-74.4903182983398,-54.5702972412109,55.10591404548855,11.485489078961546,1634075545
fw,-73.5864181518554,-55.2908020019531,52.57399065465434,23.935801972915996,1634092212
fw,-72.6633605957031,-56.0641899108886,49.182572202012466,31.19526261852258,1634108879
fw,-71.7482604980468,-56.7805137634277,44.798230005263605,33.597342948278886,1634125546
fw,-70.87451171875,-57.2533569335937,39.48729741866566,32.236304947807874,1634142213
fw,-70.0762481689453,-57.7082214355468,33.53735379956939,28.735197232293025,1634158880
fw,-69.4794082641601,-58.2012977600097,27.386420235672116,24.875640502523343,1634175547
fw,-69.1511001586914,-58.5479850769043,21.46958175963282,22.193746472250922,1634192214
fw,-69.0189971923828,-58.8217468261718,16.028757353280074,21.655835691001627,1634208881
fw,-68.9225845336914,-59.1544609069824,10.955578004835322,23.506660262839947,1634225548
fw,-68.8002319335937,-59.7700080871582,5.737127681526443,27.339734263432547,1634242215
fw,-68.7116775512695,-60.9097900390625,-0.45576517195270305,32.37382260131239,1634258882
fw,-68.6991500854492,-62.5049743652343,-8.55000576537776,37.83910157826599,1634275549
fw,-68.8703384399414,-64.0705947875976,-19.287567183203794,43.31471348411266,1634292216
fw,-69.3528060913086,-65.0845718383789,-32.975267223237815,48.863399856690535,1634308883
fw,-70.3829116821289,-65.6570358276367,-49.352594472091816,54.89805288932419,1634325550
fw,-72.1224594116211,-66.2412490844726,-67.61236297971443,61.851637181664174,1634342217
fw,-74.3808670043945,-67.2059097290039,-86.5448616951078,69.8269974121463,1634358884
fw,-76.8480453491211,-68.7638702392578,-104.73732029864985,78.41084367109913,1634375551
fw,-79.30029296875,-70.6446762084961,-120.76946808881117,86.74271764924148,1634392218
fw,-81.7862319946289,-72.6530456542968,-133.38745386605981,93.79426231438003,1634408885
fw,-83.9746856689453,-74.5891647338867,-141.6695399037394,98.71490868573855,1634425552
fw,-85.3050994873046,-76.3070068359375,-145.18735790492488,101.08420908019835,1634442219
fw,-85.1413040161132,-77.849365234375,-144.12758462610037,100.97442265139296,1634458886
fw,-83.794937133789,-79.2941360473632,-139.31006862075162,98.8269109206573,1634475553
fw,-82.1077575683593,-80.7257461547851,-132.04962427666544,95.22827387663258,1634492220
fw,-80.4478302001953,-82.1839218139648,-123.86010656398298,90.6992508212892,1634508887
fw,-78.8705444335937,-83.5759963989257,-116.06689574345175,85.57783606427122,1634525554
fw,-77.3535537719726,-84.8291473388671,-109.44453711352982,80.01635873504706,1634542221
fw,-75.8051834106445,-85.9817581176757,-104.00399412222316,74.05932824455222,1634558888
fw,-74.0860366821289,-87.03515625,-99.01169414515589,67.74852846551634,1634575555
fw,-72.2974014282226,-87.7800979614257,-93.24494558487501,61.212040531218435,1634592222
fw,-70.6175460815429,-88.0096359252929,-85.40587269536859,54.71560966484418,1634608889
fw,-69.1927947998046,-87.7449340820312,-74.56248364424384,48.67051361669853,1634625556
fw,-68.0742645263671,-87.2632598876953,-60.480998187020916,43.5971805629092,1634642223
fw,-67.2480087280273,-86.7099075317382,-43.75386708664053,40.04453259202214,1634658890
fw,-66.7373428344726,-86.168098449707,-25.69093441441553,38.46938965534613,1634675557
fw,-66.6982421875,-85.6606369018554,-8.00538630489248,39.09123435741102,1634692224
fw,-67.3816452026367,-85.1455459594726,7.6187584169004765,41.75234096408716,1634708891
fw,-68.221076965332,-84.5408096313476,19.951620131560553,45.82469046517018,1634725558
fw,-68.7248992919921,-83.7614669799804,28.50193698133324,50.204756548058015,1634742225
fw,-69.1645965576171,-82.8572692871093,33.57134927399523,53.42050277384655,1634758892
fw,-69.844985961914,-81.9640808105468,36.07322512377764,53.84589805903379,1634775559
fw,-70.4798812866211,-81.1382293701171,37.19390853383204,49.98801568309842,1634792226
fw,-70.9396743774414,-80.3785934448242,38.01679620675598,40.79002893732125,1634808893
fw,-71.3114929199218,-79.7289657592773,39.227611032573996,25.88291782236532,1634825560
fw,-71.8600463867187,-79.3778839111328,40.98883085460539,5.719313593574407,1634842227
fw,-72.7629241943359,-79.5604858398437,43.019174658485596,-18.46128275563846,1634858894
fw,-74.0754318237304,-80.3503189086914,44.84190414919065,-44.84951236040991,1634875561
