Label,Left_Hip_q,Right_Hip_q,Left_Hip_qd,Right_Hip_qd,SampleTimeFine
iw,-79.0024871826171,-84.5387649536132,64.3874816894531,-142.715362548828,2754464619
iw,-79.7951431274414,-83.1321334838867,62.650075539377426,-160.28265512915436,2754481286
iw,-80.4688339233398,-81.0824966430664,58.562520921215686,-173.40669822217802,2754497953
iw,-80.9174270629882,-78.4951858520507,54.693453943911955,-184.67325676044993,2754514620
iw,-80.9862899780273,-75.6594314575195,51.17413755182757,-192.62338147815547,2754531287
iw,-80.7926940917968,-72.7541275024414,48.05810041390823,-196.29823491983572,2754547954
iw,-80.4403381347656,-69.8002548217773,45.314915181207645,-195.29407211810081,2754564621
iw,-79.9882202148437,-66.93212890625,42.84919105531469,-189.6902575014346,2754581288
iw,-79.4899063110351,-64.1854248046875,40.544016643312176,-179.89992591646336,2754597955
iw,-79.023811340332,-61.7249183654785,38.318723535482434,-166.50940750300302,2754614622
iw,-78.604995727539,-59.3603210449218,36.182816272517094,-150.161197534514,2754631289
iw,-78.1526947021484,-57.2220115661621,34.264357026881896,-131.506231410497,2754647956
iw,-77.5939025878906,-55.3943252563476,32.79470398839115,-111.21814487971872,2754664623
iw,-76.9647369384765,-53.9043922424316,32.04415471589787,-90.03761588182722,2754681290
iw,-76.3152236938476,-52.7754554748535,32.222543858854124,-68.80665101011783,2754697957
iw,-75.6526260375976,-52.0101699829101,33.37725104034476,-48.46057161610318,2754714624
iw,-74.9717330932617,-51.5697746276855,35.328422907984354,-29.963043741428606,2754731291
iw,-74.2825775146484,-51.3916816711425,37.67201950315164,-14.189754221758289,2754747958
iw,-73.5926818847656,-51.4155387878418,39.85834096320016,-1.7842806089456658,2754764625
iw,-72.8839874267578,-51.5809364318847,41.32642851905021,6.978168977841077,2754781292
iw,-72.1461639404296,-51.8377609252929,41.6539082758696,12.279561243879236,2754797959
iw,-71.4074401855468,-52.095775604248,40.674319687903264,14.76663247230117,2754814626
iw,-70.6287078857421,-52.4072380065918,38.52103805992025,15.459799836894529,2754831293
iw,-69.8529434204101,-52.7697982788085,35.575879810663295,15.570798458028252,2754847960
iw,-69.1991348266601,-53.1046485900878,32.32696181617362,16.263725582295002,2754864627
iw,-68.7732849121093,-53.5093879699707,29.169342102937982,18.415211494679827,2754881294
iw,-68.50732421875,-53.9322814941406,26.207135235494576,22.437152898242253,2754897961
iw,-68.3420486450195,-54.4094543457031,23.128340292122726,28.21597677571805,2754914628
iw,-68.2189254760742,-55.1202545166015,19.213567767557176,35.194782252486085,2754931295
iw,-68.0466079711914,-56.2217178344726,13.50217059815829,42.581590068538965,2754947962
iw,-67.8426666259765,-57.808364868164,5.0811133210758275,49.6181869392286,2754964629
iw,-67.7923736572265,-59.4544067382812,-6.59492117813896,55.81036650372968,2754981296
iw,-68.1274795532226,-60.6432151794433,-21.469757295835603,61.02745079406821,2754997963
iw,-68.9743728637695,-61.5284347534179,-38.83103205468953,65.43715003480142,2755014630
iw,-70.3104476928711,-62.5364532470703,-57.45718577921558,69.32594008791378,2755031297
iw,-72.0509185791015,-63.8195190429687,-75.90568575682693,72.9126843601107,2755047964
iw,-74.0839614868164,-65.422134399414,-92.82818871842818,76.25447010246472,2755064631
iw,-76.308120727539,-67.1822052001953,-107.20148018876701,79.27638815742922,2755081298
iw,-78.5522155761718,-68.8705978393554,-118.41931308359162,81.8793220361959,2755097965
iw,-80.6812667846679,-70.4438095092773,-126.26442908251242,84.04084239180222,2755114632
iw,-82.4580917358398,-71.9257049560546,-130.8270137121397,85.84138058040894,2755131299
iw,-83.6436233520507,-73.3304061889648,-132.43232037277753,87.40193293342952,2755147966
iw,-83.9099884033203,-74.7775115966796,-131.59965374916126,88.77398001711744,2755164633
iw,-83.1872482299804,-76.327766418457,-129.01198379506667,89.84749609964479,2755181300
iw,-81.8509826660156,-77.8997650146484,-125.45782634423719,90.33082553546782,2755197967
iw,-80.1896133422851,-79.4639739990234,-121.7204878626592,89.81952006657099,2755214634
iw,-78.4488525390625,-81.0504455566406,-118.42199160910006,87.9317208671037,2755231301
iw,-76.7565155029296,-82.6365203857421,-115.86130723196305,84.46229173175593,2755247968
iw,-74.9487762451171,-84.1259078979492,-113.90363133254029,79.50218488864913,2755264635
iw,-73.0078125,-85.4639587402343,-111.97118144530192,73.48062166330298,2755281302
iw,-71.0232467651367,-86.6222381591796,-109.15657787080815,67.11025376891301,2755297969
iw,-69.1604385375976,-87.6521453857421,-104.43885615592164,61.24360480010352,2755314636
iw,-67.4961929321289,-88.5873641967773,-96.94862683001796,56.67563856642037,2755331303
iw,-66.0298614501953,-89.5752563476562,-86.21648016103748,53.9448779774079,2755347970
iw,-64.7678909301757,-90.0,-72.34561082715814,53.18900735133182,2755364637
iw,-63.6509895324707,-88.9593887329101,-56.06453742810429,54.09903818799127,2755381304
iw,-62.7991981506347,-88.008560180664,-38.632639914243015,55.99129835115161,2755397971
iw,-62.4645462036132,-86.9030151367187,-21.595856026686118,57.98410794031216,2755414638
iw,-62.727741241455,-85.7077865600586,-6.431030302138332,59.23362114939363,2755431305
iw,-63.3086013793945,-84.5542831420898,5.830801632504795,59.160150367913175,2755447972
iw,-63.7926139831543,-83.4369659423828,14.877960044082071,57.5919079245242,2755464639
iw,-64.0358276367187,-82.3992462158203,21.181648396234657,54.773067124758725,2755481306
iw,-64.3220596313476,-81.55517578125,25.816454837517384,51.22383442261378,2755497973
iw,-64.9108505249023,-80.9140319824218,30.09826802882837,47.489647647960254,2755514640
iw,-65.5714263916015,-80.4006118774414,35.162172315874585,43.858983271991484,2755531307
iw,-66.0577697753906,-79.9602127075195,41.611190183481845,40.14960878104644,2755547974
iw,-66.6629791259765,-79.5289993286132,49.33557596603873,35.650851128086465,2755564641
iw,-67.8049545288086,-79.05078125,57.552714453055756,29.263615591527977,2755581308
iw,-69.1473846435546,-78.5265655517578,65.05607527983851,19.81252940333212,2755597975
iw,-70.8430480957031,-78.1094589233398,70.59518440888344,6.438293716509584,2755614642
iw,-72.5076065063476,-77.9916839599609,73.26145076991615,-11.061154750867304,2755631309
iw,-73.8461608886718,-78.3042068481445,72.75363091349719,-32.06592008525549,2755647976
iw,-75.0426025390625,-79.1707458496093,69.44508373156471,-55.21678703180858,2755664643
iw,-76.2513580322265,-80.6778717041015,64.24842216956995,-78.73042172855656,2755681310
iw,-77.1290740966796,-82.6760864257812,58.338198298809935,-100.84568062042595,2755697977
iw,-77.8062515258789,-84.4740524291992,52.828180662813985,-120.24618316246348,2755714644
iw,-78.5475769042968,-84.9773864746093,48.503812085189466,-136.31036014914764,2755731311
iw,-79.1060485839843,-83.8899383544921,45.685996383485424,-149.10977988212704,2755747978
iw,-79.7089691162109,-82.4005889892578,44.25405991129225,-159.18169982330824,2755764645
iw,-80.4503555297851,-80.8769912719726,43.79738621764003,-167.19087615416902,2755781312
iw,-81.0706710815429,-79.0378875732421,43.820613983810766,-173.62334025875103,2755797979
iw,-81.5077972412109,-76.8563613891601,43.9170329488379,-178.61358351130394,2755814646
iw,-81.6482620239257,-74.3170852661132,43.85276899018956,-181.9309524560561,2755831313
iw,-81.5313720703125,-71.5488967895507,43.55382778154813,-183.0876779967211,2755847980
iw,-81.1931991577148,-68.6445083618164,43.031742910392836,-181.50382456127062,2755864647
iw,-80.7137985229492,-65.8433532714843,42.301645166582674,-176.6692146700585,2755881314
iw,-80.1821365356445,-63.2696495056152,41.33706324680914,-168.26441158656664,2755897981
iw,-79.6501235961914,-60.9610252380371,40.07984408561196,-156.22965352869167,2755914648
iw,-79.189468383789,-58.7367668151855,38.49506932587968,-140.79134569401967,2755931315
iw,-78.7918624877929,-56.6980323791503,36.63991980617411,-122.46174358601245,2755947982
iw,-78.3805999755859,-54.9973182678222,34.707777547731176,-102.0193497709955,2755964649
iw,-77.8708953857421,-53.6715393066406,33.016600091156214,-80.46636534266443,2755981316
iw,-77.2469863891601,-52.6751747131347,31.93207442372229,-58.956336305692076,2755997983
iw,-76.5519790649414,-52.0496025085449,31.744515545436755,-38.69073499603589,2756014650
iw,-75.8493728637695,-51.8143844604492,32.54270657550842,-20.79160654601944,2756031317
iw,-75.1861495971679,-51.8095397949218,34.136465826548694,-6.165105998006167,2756047984
iw,-74.5368499755859,-51.9157409667968,36.06717584675852,4.6226476924058835,2756064651
iw,-73.8565216064453,-52.1000671386718,37.71563789386518,11.432774006426817,2756081318
iw,-73.1352233886718,-52.2813682556152,38.480722991549094,14.582862956905348,2756097985
iw,-72.3455123901367,-52.4039649963378,37.97393846500814,14.807761888194396,2756114652
iw,-71.5259628295898,-52.5807800292968,36.16443325769761,13.155514820296075,2756131319
iw,-70.7756881713867,-52.8810310363769,33.419444719552764,10.834642732049858,2756147986
iw,-70.1415481567382,-53.2831802368164,30.413387243754666,9.0353998806876,2756164653
iw,-69.647964477539,-53.6773605346679,27.917439677350497,8.747646358694361,2756181320
iw,-69.2506637573242,-54.0260505676269,26.521223037653776,10.597937204448614,2756197987
iw,-68.9023056030273,-54.2786064147949,26.367572885551873,14.734975058380165,2756214654
iw,-68.5896682739257,-54.5433502197265,26.98891504918317,20.801973625329072,2756231321
iw,-68.2910995483398,-55.1545219421386,27.312845313860855,28.030935163839864,2756247988
iw,-67.9833755493164,-56.2437782287597,25.858403681441263,35.46192053387912,2756264655
iw,-67.6739273071289,-57.7271347045898,21.08575477570663,42.23351496899123,2756281322
iw,-67.4216537475586,-59.3771858215332,11.808603982807334,47.83895233730666,2756297989
iw,-67.3698501586914,-60.5882987976074,-2.450133346794096,52.23655141510871,2756314656
iw,-67.7328109741211,-61.3349647521972,-21.269284762235465,55.76249398926363,2756331323
iw,-68.6623840332031,-61.984561920166,-43.368055687256295,58.893604444605046,2756347990
iw,-70.1954879760742,-62.9523315429687,-66.86077082275384,61.98790496988331,2756364657
iw,-72.2819595336914,-64.3616409301757,-89.646445171282,65.13731111686594,2756381324
iw,-74.7302856445312,-66.0589065551757,-109.81313394941567,68.19395274830066,2756397991
iw,-77.2867813110351,-67.6934585571289,-125.94603096529542,70.92782253373767,2756414658
iw,-79.857551574707,-69.2152786254882,-137.27968019633028,73.20516892579762,2756431325
iw,-82.1683959960937,-70.5902938842773,-143.69968154582654,75.08077569472526,2756447992
iw,-83.8388214111328,-71.836311340332,-145.64288341240535,76.75973966122052,2756464659
iw,-84.5335235595703,-73.0930862426757,-143.95098991503068,78.46076444925541,2756481326
iw,-84.0356674194336,-74.4468536376953,-139.71173292100534,80.26094785029035,2756497993
iw,-82.6553039550781,-75.8834381103515,-134.0972547854285,82.00377901477917,2756514660
iw,-80.8456954956054,-77.3617935180664,-128.19731601706917,83.31633732556898,2756531327
iw,-78.9137954711914,-78.8848114013671,-122.84944041027406,83.73187815227936,2756547994
iw,-77.1800689697265,-80.4809112548828,-118.48492320009048,82.87233366117215,2756564661
iw,-75.4768447875976,-82.0921249389648,-115.02908847108803,80.62347870561304,2756581328
iw,-73.6148681640625,-83.6025161743164,-111.90177887834004,77.23608924383524,2756597995
iw,-71.6184158325195,-84.9286651611328,-108.14619717008036,73.30789340134645,2756614662
iw,-69.7132568359375,-86.0534973144531,-102.67174160156574,69.63913684735591,2756631329
iw,-68.0458755493164,-87.0620193481445,-94.55108835057551,66.9991825847065,2756647996
iw,-66.6167221069336,-88.050064086914,-83.29025996871826,65.87729036847446,2756664663
iw,-65.4005737304687,-89.1130905151367,-69.0008066948056,66.30271452022554,2756681330
iw,-64.3929672241211,-90.0,-52.43153285870469,67.80111187984281,2756697997
iw,-63.6724853515625,-88.7682189941406,-34.84691234108881,69.51143304367697,2756714664
iw,-63.4297409057617,-87.416015625,-17.767983120747655,70.43431540342564,2756731331
iw,-63.7492179870605,-85.9773712158203,-2.626009225503173,69.73655133678616,2756747998
iw,-64.3797454833984,-84.5783462524414,9.582449553720261,67.01138872335827,2756764665
iw,-64.9154052734375,-83.3359756469726,18.529259602841197,62.401360337315175,2756781332
iw,-65.2531509399414,-82.3612365722656,24.590163997358335,56.531165342556434,2756797999
iw,-65.5457077026367,-81.6856842041015,28.665184420420257,50.262884843316264,2756814666
iw,-66.0350646972656,-81.1910781860351,31.852169045981785,44.35238480846754,2756831333
iw,-66.6295776367187,-80.7976913452148,35.094452655108626,39.12759812320873,2756848000
iw,-67.1408157348632,-80.3762893676757,38.921080342117435,34.30776950153353,2756864667
iw,-67.8751983642578,-79.8770980834961,43.352930256216126,29.03608069412668,2756881334
iw,-68.858169555664,-79.3208618164062,47.98707483282663,22.12292601409446,2756898001
iw,-70.0964660644531,-78.8585052490234,52.21393070030932,12.421474555768105,2756914668
iw,-71.4971084594726,-78.6121215820312,55.48004264882583,-0.7904752390004499,2756931335
iw,-72.6947555541992,-78.7615890502929,57.49775033931416,-17.55023183373362,2756948002
iw,-73.6909484863281,-79.3541030883789,58.3295541225879,-37.15591781421802,2756964669
iw,-74.7534027099609,-80.393569946289,58.3296132098284,-58.33136300351091,2756981336
iw,-75.7242202758789,-81.920539855957,57.98153892120852,-79.55086815260564,2756998003
iw,-76.6460266113281,-83.8528594970703,57.70614740637737,-99.41431154057649,2757014670
iw,-77.5939331054687,-85.7193908691406,57.71599657753307,-116.949806092246,2757031337
iw,-78.549331665039,-86.3836135864257,57.968936208484415,-131.7495426333377,2757048004
iw,-79.543701171875,-85.0749130249023,58.2297301413752,-143.90806241605907,2757064671
iw,-80.4686965942382,-83.1695327758789,58.20265669032035,-153.80929801062413,2757081338
iw,-81.2365264892578,-81.2154846191406,57.67002193175392,-161.86490716747372,2757098005
iw,-81.7583847045898,-79.0688095092773,56.57626647728086,-168.31184535136242,2757114672
iw,-81.96923828125,-76.6321487426757,55.03049565373224,-173.1300431144274,2757131339
iw,-81.9451217651367,-74.0783081054687,53.241161406818144,-176.07398950885906,2757148006
iw,-81.6868667602539,-71.4012603759765,51.42336460393208,-176.76752633494573,2757164673
iw,-81.2532196044921,-68.6390609741211,49.722362510106485,-174.80795382495336,2757181340
iw,-80.6744766235351,-65.9488220214843,48.18145279853093,-169.84963912247352,2757198007
iw,-80.0551300048828,-63.4156990051269,46.76014915666242,-161.66323627984326,2757214674
iw,-79.489517211914,-60.9946632385253,45.38888904604129,-150.179985255509,2757231341
iw,-78.9878005981445,-58.7926902770996,44.0339196225097,-135.53057511849363,2757248008
iw,-78.4650344848632,-56.7862091064453,42.74261651734112,-118.0794961769396,2757264675
iw,-77.8335571289062,-55.0704269409179,41.64684830431161,-98.44528953770563,2757281342
iw,-77.0904769897461,-53.7713012695312,40.91911595602982,-77.49181872727513,2757298009
iw,-76.2941055297851,-52.8438911437988,40.6971939870505,-56.279184565471155,2757314676
iw,-75.4568176269531,-52.2110252380371,41.00863356443732,-35.972195799883195,2757331343
iw,-74.6045150756836,-51.9020957946777,41.7289706592646,-17.713353692004237,2757348010
iw,-73.7647018432617,-51.8962516784668,42.59505212393408,-2.4737852458138074,2757364677
iw,-72.9468536376953,-52.0945091247558,43.27306672751637,9.097630776884602,2757381344
iw,-72.11376953125,-52.4007186889648,43.458978037884016,16.79780100097284,2757398011
iw,-71.2394714355468,-52.8008651733398,42.97465675993387,20.93018039336431,2757414678
iw,-70.3701019287109,-53.1865653991699,41.81984894987402,22.271668868826282,2757431345
iw,-69.5666732788086,-53.551155090332,40.15014189246919,21.9340721438702,2757448012
iw,-68.8556747436523,-53.9399185180664,38.17438929582465,21.140268865042092,2757464679
iw,-68.2818527221679,-54.3629341125488,35.99659727705708,20.968119065008313,2757481346
iw,-67.8927307128906,-54.8265571594238,33.456665995188104,22.134276795198087,2757498013
iw,-67.6390228271484,-55.3475685119628,30.039804723332598,24.88493159585585,2757514680
iw,-67.4185028076171,-55.9893569946289,24.915728754770647,29.030618869428324,2757531347
iw,-67.1315231323242,-57.007568359375,17.13052502382745,34.11504493444657,2757548014
iw,-66.8439712524414,-58.539207458496,5.912851462606783,39.655377549402324,2757564681
iw,-66.8243026733398,-60.1990356445312,-9.004400152912813,45.352659466862804,2757581348
iw,-67.2384414672851,-61.2689132690429,-27.17278023650886,51.17236028849114,2757598015
iw,-68.118179321289,-61.9450569152832,-47.42497251898051,57.253555720708725,2757614682
iw,-69.475227355957,-62.7440109252929,-68.10093905278671,63.700461580992574,2757631349
iw,-71.282958984375,-63.9064483642578,-87.43368104734157,70.38285894150765,2757648016
iw,-73.4386749267578,-65.4586563110351,-103.95936075495203,76.86859583404136,2757664683
iw,-75.7636413574218,-67.286750793457,-116.80702049847729,82.53230408675863,2757681350
iw,-78.0728607177734,-69.1396408081054,-125.77682470011312,86.78329406516137,2757698017
iw,-80.3609619140625,-70.9303741455078,-131.21011525460835,89.2939617812731,2757714684
iw,-82.444465637207,-72.5590744018554,-133.74194979179975,90.11708122454375,2757731351
iw,-84.1186370849609,-73.97802734375,-134.06053233932437,89.64328675620794,2757748018
iw,-84.9577178955078,-75.3204040527343,-132.76499134536093,88.42961520409237,2757764685
iw,-84.5882568359375,-76.7422866821289,-130.34116550818285,86.98459938579784,2757781352
iw,-83.2598876953125,-78.201919555664,-127.20913327561304,85.60223629589977,2757798019
iw,-81.4794921875,-79.6444778442382,-123.76825939134365,84.30156101794938,2757814686
iw,-79.6409301757812,-81.0884857177734,-120.38216695649785,82.87662615404895,2757831353
iw,-77.9908294677734,-82.5649185180664,-117.29249939890846,81.02055884927881,2757848020
iw,-76.3096084594726,-84.0315246582031,-114.50105612818919,78.46975015154237,2757864687
iw,-74.4444808959961,-85.4079132080078,-111.68853606237222,75.11812803202535,2757881354
iw,-72.5057601928711,-86.6455535888671,-108.22853501319959,71.06896245002531,2757898021
iw,-70.6546249389648,-87.693862915039,-103.31325163631689,66.61503764666112,2757914688
iw,-68.9735565185546,-88.6074600219726,-96.15898142040894,62.16057141705475,2757931355
iw,-67.4871292114257,-89.1889190673828,-86.23150358009008,58.11395632100095,2757948022
iw,-66.2056503295898,-88.9153823852539,-73.43028667042135,54.78548858559923,2757964689
iw,-65.129768371582,-88.1796264648437,-58.18425688310371,52.319046994245845,2757981356
iw,-64.2786560058593,-87.3433990478515,-41.42863784982413,50.67471246678456,2757998023
iw,-63.8179016113281,-86.485595703125,-24.45174833153853,49.66444000607053,2758014690
iw,-63.9082984924316,-85.609878540039,-8.630145744613564,49.02805039685292,2758031357
iw,-64.4471130371093,-84.71435546875,4.88856099255343,48.52473695855053,2758048024
iw,-65.0446166992187,-83.7866897583007,15.459816821672298,48.00858978604192,2758064691
iw,-65.4591064453125,-82.8412170410156,23.07486888781181,47.457351231774325,2758081358
iw,-65.7648544311523,-81.9476547241211,28.299959511869854,46.933524035662806,2758098025
iw,-66.3063278198242,-81.1857070922851,32.04604202934669,46.477237178804195,2758114692
iw,-67.0059432983398,-80.5507583618164,35.25640290997785,45.958627868179995,2758131359
iw,-67.5537796020507,-80.0175552368164,38.61929044506029,44.94498588270642,2758148026
iw,-67.9977188110351,-79.522476196289,42.39267892384492,42.65026618753428,2758164693
iw,-68.8580093383789,-78.9847564697265,46.388990403224135,38.019414602705744,2758181360
iw,-70.031135559082,-78.3641586303711,50.11850846201503,29.955520405356552,2758198027
iw,-71.4188995361328,-77.7668151855468,53.03474169945816,17.63747672831223,2758214694
iw,-72.6258239746093,-77.4214935302734,54.782167614577865,0.8251072610805066,2758231361
iw,-73.5734100341796,-77.5451202392578,55.34563892805128,-19.965509324649464,2758248028
iw,-74.4633102416992,-78.2258377075195,55.04856167976583,-43.49822575182972,2758264695
iw,-75.4642562866211,-79.544448852539,54.41601201811786,-68.07111792486023,2758281362
iw,-76.3212814331054,-81.4043807983398,53.970483372406584,-91.91115385465007,2758298029
iw,-77.0952453613281,-83.5535659790039,54.04344711035652,-113.57390790348737,2758314696
iw,-77.8575820922851,-85.3992538452148,54.67083908157506,-132.20801817283413,2758331363
iw,-78.7223052978515,-85.7307052612304,55.60604609273417,-147.5974497694845,2758348030
iw,-79.6465530395507,-84.6360092163086,56.43826657413327,-159.98745996909034,2758364697
iw,-80.4912414550781,-83.0045623779296,56.76136099462454,-169.7917620382208,2758381364
iw,-81.1368560791015,-80.915054321289,56.3195944753261,-177.32139950049358,2758398031
iw,-81.56103515625,-78.3616104125976,55.073778210857945,-182.64480699033172,2758414698
iw,-81.6018829345703,-75.556770324707,53.17364811536267,-185.60361410887666,2758431365
iw,-81.3226242065429,-72.6830368041992,50.864904459004464,-185.9261895907399,2758448032
iw,-80.9296417236328,-69.8843460083007,48.38178655909285,-183.35033849050586,2758464699
iw,-80.4797134399414,-67.1870956420898,45.87279341302108,-177.69486903712993,2758481366
iw,-80.0049285888671,-64.6120910644531,43.38501208119311,-168.8744434997108,2758498033
iw,-79.501350402832,-62.1597023010253,40.90399392154896,-156.89292021230193,2758514700
iw,-78.9970779418945,-59.907413482666,38.423258836890135,-141.8566057371568,2758531367
iw,-78.4863510131836,-57.7755470275878,36.00753414790518,-124.02540166450625,2758548034
iw,-77.9265899658203,-55.9751243591308,33.818253968857874,-103.88654309005842,2758564701
iw,-77.3254013061523,-54.5527381896972,32.085910831595044,-82.21268925310926,2758581368
iw,-76.7284469604492,-53.5115318298339,31.03581443138108,-60.06431354539409,2758598035
iw,-76.1097717285156,-52.8849754333496,30.79402155027463,-38.71372999201461,2758614702
iw,-75.4715728759765,-52.6435203552246,31.311252845677117,-19.494135800757125,2758631369
iw,-74.837287902832,-52.6606101989746,32.33991746942873,-3.600960637896291,2758648036
iw,-74.1864013671875,-52.9185791015625,33.48275577689391,8.111613831900533,2758664703
iw,-73.503059387207,-53.216510772705,34.30565921311727,15.291604768622168,2758681370
iw,-72.7686080932617,-53.4984970092773,34.48046444845743,18.167798547692882,2758698037
iw,-72.0499420166015,-53.6813049316406,33.90623858868995,17.52428274725384,2758714704
iw,-71.4135513305664,-53.9066047668457,32.758036572258334,14.573699452444124,2758731371
iw,-70.8613662719726,-54.1888542175293,31.432223491957053,10.755208327992278,2758748038
iw,-70.3600234985351,-54.4533004760742,30.391062226734466,7.497860575037214,2758764705
iw,-69.9166107177734,-54.7165145874023,29.945541650709128,5.993993655469028,2758781372
iw,-69.5714416503906,-54.9636268615722,30.04385852095172,7.02386120374086,2758798039
iw,-69.3020629882812,-55.2276191711425,30.14455904856787,10.865443239976948,2758814706
iw,-69.0704193115234,-55.6700935363769,29.24006576702458,17.31029661457392,2758831373
iw,-68.7836761474609,-56.4917526245117,26.054905025772506,25.782595685749914,2758848040
iw,-68.4376068115234,-57.6445350646972,19.381490498884126,35.525324304852994,2758864707
iw,-68.1680679321289,-58.9873046875,8.4562125135731,45.788637080431165,2758881374
iw,-68.1834259033203,-60.2339782714843,-6.752384720326646,55.95196921284454,2758898041
iw,-68.6587600708007,-61.309642791748,-25.45334294680719,65.54501372392575,2758914708
iw,-69.7358703613281,-62.4260635375976,-46.18432275802723,74.18943381372314,2758931375
iw,-71.3484497070312,-63.859447479248,-67.15632609289904,81.52793556469673,2758948042
iw,-73.3161087036132,-65.6214981079101,-86.66754565892631,87.20823278515445,2758964709
iw,-75.5104141235351,-67.5542068481445,-103.4364184837628,90.94447851532871,2758981376
iw,-77.7612533569336,-69.3927612304687,-116.74806634242054,92.61959625310706,2758998043
iw,-80.0623931884765,-71.0850601196289,-126.40295276169967,92.35993939331827,2759014710
iw,-82.2002410888671,-72.6351928710937,-132.54870725979816,90.5285545769877,2759031377
iw,-83.8834228515625,-74.0935363769531,-135.51156409391285,87.63106643734106,2759048044
iw,-84.7178802490234,-75.5013809204101,-135.70805921285162,84.17569100921409,2759064711
iw,-84.3602142333984,-76.90966796875,-133.64361566886993,80.54904089416036,2759081378
iw,-83.0908432006836,-78.2942352294921,-129.94300796929602,76.95620350422851,2759098045
iw,-81.4421844482421,-79.6291198730468,-125.3407449010575,73.43990329002256,2759114712
iw,-79.6648788452148,-80.9154434204101,-120.58806597485933,69.95917242197461,2759131379
iw,-77.9913101196289,-82.1739654541015,-116.28565488481208,66.48787963760961,2759148046
iw,-76.3759841918945,-83.413345336914,-112.69920840054456,63.0921930752163,2759164713
iw,-74.6349563598632,-84.5699615478515,-109.63690066008029,59.958908213371565,2759181380
iw,-72.7366256713867,-85.6332321166992,-106.45350390155971,57.365618944153844,2759198047
iw,-70.8478469848632,-86.5653305053711,-102.20042048966305,55.60289838468313,2759214714
iw,-69.1088409423828,-87.4573974609375,-95.88517551152142,54.874431874939745,2759231381
iw,-67.5630264282226,-88.3737030029296,-86.76484595469799,55.20987764139907,2759248048
iw,-66.2504653930664,-89.3788223266601,-74.58973112986789,56.42316207223253,2759264715
iw,-65.1302108764648,-89.9657363891601,-59.730839686564245,58.134910181367275,2759281382
iw,-64.2975769042968,-88.6623611450195,-43.153816684933346,59.85640750725318,2759298049
iw,-63.9241638183593,-87.5841903686523,-26.23562385079283,61.11213313428722,2759314716
iw,-63.9733276367187,-86.4887161254882,-10.45910298405537,61.565306108590214,2759331383
iw,-64.3351135253906,-85.3572998046875,2.9388756353825123,61.10833698896958,2759348050
iw,-64.8689422607421,-84.2504501342773,13.263116615553123,59.88642597781127,2759364717
iw,-65.2386856079101,-83.1810836791992,20.50399642221675,58.23641006534559,2759381384
iw,-65.5728683471679,-82.1974182128906,25.28116432371247,56.543893862836214,2759398051
iw,-66.1062850952148,-81.3770751953125,28.608458153052858,55.047935995981575,2759414718
iw,-66.6740493774414,-80.6762313842773,31.5607688575548,53.648119925887556,2759431385
iw,-67.1706924438476,-79.9848022460937,34.94838015289097,51.783267037096266,2759448052
iw,-67.7013473510742,-79.272232055664,39.09405103348137,48.44334864852418,2759464719
iw,-68.4563903808593,-78.5774765014648,43.775235846785534,42.34220972419435,2759481386
iw,-69.3819961547851,-77.9295349121093,48.346893534441094,32.226885655647564,2759498053
iw,-70.5967407226562,-77.4200210571289,52.00520870200893,17.247781562123876,2759514720
iw,-72.0997695922851,-77.2217178344726,54.103069418356235,-2.7179148254978833,2759531387
iw,-73.2884902954101,-77.4499588012695,54.40538196422894,-26.896507347140428,2759548054
iw,-74.1813354492187,-78.2380828857421,53.19198340153954,-53.67221618768712,2759564721
iw,-75.0503005981445,-79.6897888183593,51.17446333880286,-80.87215908111709,2759581388
iw,-75.8521728515625,-81.6716842651367,49.26393675197446,-106.21511132713574,2759598055
iw,-76.5542602539062,-84.0644226074218,48.276603848927564,-127.79930400348258,2759614722
iw,-77.2544021606445,-85.9663848876953,48.6772423078559,-144.48462496319078,2759631389
iw,-77.9287719726562,-85.8116149902343,50.44239470535434,-156.05515754944884,2759648056
iw,-78.6584777832031,-83.9052581787109,53.08457115220325,-163.12263123699864,2759664723
iw,-79.5552062988281,-81.7064895629882,55.82501709987176,-166.82207859159075,2759681390
iw,-80.4628982543945,-79.4815597534179,57.85052732784742,-168.41783320152874,2759698057
iw,-81.2708511352539,-77.0831527709961,58.56087275890995,-168.95101779735555,2759714724
iw,-81.8414001464843,-74.5525207519531,57.72252556254222,-169.01884959198068,2759731391
iw,-82.071548461914,-72.0551147460937,55.48730003464907,-168.71127466592748,2759748058
iw,-81.928955078125,-69.5014953613281,52.289438274345066,-167.67902733173156,2759764725
iw,-81.5050277709961,-66.8758773803711,48.676309390563304,-165.2872983378062,2759781392
iw,-80.9274673461914,-64.2537155151367,45.141445628451116,-160.81161022990614,2759798059
iw,-80.2843856811523,-61.8399124145507,42.01421053154386,-153.63795255090088,2759814726
iw,-79.6651153564453,-59.6031684875488,39.42924750826299,-143.43015211200643,2759831393
iw,-79.1264877319336,-57.5531005859375,37.36590361332134,-130.23066501003723,2759848060
iw,-78.6148376464843,-55.7963790893554,35.724823717710315,-114.4743532660007,2759864727
iw,-78.0730590820312,-54.3996772766113,34.4019553918522,-96.91791347554945,2759881394
iw,-77.5234909057617,-53.2736091613769,33.33004406840076,-78.51242835737644,2759898061
iw,-76.9893341064453,-52.4077682495117,32.47915651249526,-60.2615361022147,2759914728
iw,-76.4645309448242,-51.8239669799804,31.829935946525215,-43.10420089716694,2759931395
iw,-75.9570693969726,-51.4167289733886,31.344680241639125,-27.84035983881014,2759948062
iw,-75.4513854980468,-51.1845588684082,30.957415162292637,-15.091980909751879,2759964729
iw,-74.9291839599609,-51.1662635803222,30.58981577439076,-5.276033994729581,2759981396
iw,-74.387222290039,-51.2272872924804,30.184762825299305,1.4320618743429205,2759998063
iw,-73.8052368164062,-51.4596443176269,29.74099452814329,5.14737685845055,2760014730
iw,-73.1940307617187,-51.7466697692871,29.332569667328755,6.315218857599229,2760031397
iw,-72.5834732055664,-51.8469161987304,29.10318412149901,5.705317582712549,2760048064
iw,-71.9645385742187,-51.8570365905761,29.2338964301436,4.3312857901658495,2760064731
iw,-71.3330535888671,-51.8691940307617,29.88980884351389,3.29473815126963,2760081398
iw,-70.7300262451171,-51.9866600036621,31.15420456160595,3.5865918913943466,2760098065
iw,-70.1394424438476,-52.2086524963378,32.958306210757115,5.895629287708844,2760114732
iw,-69.5695495605468,-52.4531631469726,35.015656411496145,10.470629734113736,2760131399
iw,-69.0728759765625,-52.7189712524414,36.776271023609965,17.06805406111063,2760148066
iw,-68.6592483520507,-53.1318664550781,37.425300794064405,25.003735908955832,2760164733
iw,-68.3130645751953,-53.7834548950195,35.954853220091124,33.312684953487405,2760181400
iw,-67.9947204589843,-54.8514900207519,31.32553951580127,40.99599355281239,2760198067
iw,-67.6775588989257,-56.1357688903808,22.70358867202164,47.29659493765949,2760214734
iw,-67.4357299804687,-57.6453018188476,9.719652052003758,51.913794215827,2760231401
iw,-67.4152145385742,-59.0862464904785,-7.334242556891002,55.06767871355809,2760248068
iw,-67.8355407714843,-60.0706481933593,-27.45307654523221,57.37373436822062,2760264735
iw,-68.8017807006836,-60.8267822265625,-49.057611285599066,59.570331002947654,2760281402
iw,-70.2651138305664,-61.7367095947265,-70.30209240812401,62.21515996277264,2760298069
iw,-72.2176361083984,-62.9861183166503,-89.46176991464722,65.48564128125633,2760314736
iw,-74.4571990966796,-64.5940628051757,-105.27377047116678,69.1655923593304,2760331403
iw,-76.7728805541992,-66.3026123046875,-117.11968889849608,72.80432046282418,2760348070
iw,-79.0478363037109,-67.8671264648437,-125.00486342809083,75.9517242365792,2760364737
iw,-81.2536926269531,-69.3462295532226,-129.3778386284843,78.34948682225962,2760381404
iw,-83.1763076782226,-70.7560882568359,-130.8953629923636,79.99845987887574,2760398071
iw,-84.5206680297851,-72.0912094116211,-130.23839563731585,81.09314542949731,2760414738
iw,-84.8917083740234,-73.4427719116211,-128.02976087880398,81.87451269669305,2760431405
iw,-84.2270812988281,-74.8265686035156,-124.83561855846062,82.47790587226137,2760448072
iw,-82.9416427612304,-76.225227355957,-121.1921355868844,82.84198985980227,2760464739
iw,-81.3034439086914,-77.6758728027343,-117.60062036912743,82.71102136089341,2760481406
iw,-79.61669921875,-79.1760940551757,-114.46723523120467,81.72413975292726,2760498073
iw,-77.9850006103515,-80.7160873413086,-112.0043181366212,79.5558010165163,2760514740
iw,-76.2481384277343,-82.1790084838867,-110.13907767500505,76.05751249347433,2760531407
iw,-74.3669204711914,-83.5199203491211,-108.47985955628896,71.35354273043482,2760548074
iw,-72.4550704956054,-84.6930847167968,-106.36877754403282,65.85959968129958,2760564741
iw,-70.6028289794921,-85.7238235473632,-103.01406492339393,60.217589349312625,2760581408
iw,-68.9039077758789,-86.6608276367187,-97.66632381553902,55.16341384210915,2760598075
iw,-67.4074935913086,-87.5187225341796,-89.79396202745431,51.36190109245959,2760614742
iw,-66.111213684082,-88.3136749267578,-79.22219603450142,49.25099939379554,2760631409
iw,-65.0111923217773,-89.1896438598632,-66.21385070346648,48.93627786650266,2760648076
iw,-64.0499801635742,-90.0,-51.4781120617486,50.166019144911814,2760664743
iw,-63.3399429321289,-89.2234344482421,-36.095620265257814,52.396783491821125,2760681410
iw,-62.9776649475097,-88.1215286254882,-21.354398190641124,54.93361985670464,2760698077
iw,-62.9182891845703,-87.0549011230468,-8.51060311891232,57.107018516304684,2760714744
iw,-63.1928100585937,-86.0399780273437,1.4804456664180234,58.438568356751205,2760731411
iw,-63.5884132385253,-85.005859375,8.189767829335658,58.75158992228649,2760748078
iw,-63.8147239685058,-83.9329528808593,11.820783350128544,58.19777064848944,2760764745
iw,-63.93115234375,-82.9163208007812,13.152934871047053,57.18972900036682,2760781412
iw,-64.1257934570312,-81.9869537353515,13.336848053778503,56.24902453597525,2760798079
iw,-64.3871994018554,-81.073616027832,13.606050631145058,55.799029225296124,2760814746
iw,-64.7676925659179,-80.2041015625,14.989377121783177,55.950334714018396,2760831413
iw,-65.1757583618164,-79.4158401489257,18.09353377455272,56.337572198698844,2760848080
iw,-65.5694580078125,-78.6632385253906,22.995977148075394,56.06503394391362,2760864747
iw,-65.9510040283203,-77.8697128295898,29.263017374356632,53.80098349697037,2760881414
iw,-66.5295639038086,-77.0444641113281,36.089527790323764,48.02641339749275,2760898081
iw,-67.6437377929687,-76.2907562255859,42.53422250919276,37.39800229882056,2760914748
iw,-68.9470138549804,-75.7084503173828,47.79220316089384,21.140147168875135,2760931415
iw,-70.0784912109375,-75.4088516235351,51.41947770996765,-0.6449938313704906,2760948082
iw,-70.8527145385742,-75.6349258422851,53.431046574734275,-26.853551594446127,2760964749
iw,-71.6383666992187,-76.5108566284179,54.24476061729652,-55.5028586258524,2760981416
iw,-72.6361770629882,-77.9984512329101,54.5086791867849,-84.09173393689449,2760998083
iw,-73.5827713012695,-79.9708557128906,54.88711762317715,-110.11299394720487,2761014750
iw,-74.7054138183593,-82.2485809326171,55.87490529915732,-131.57922194593667,2761031417
iw,-75.7185821533203,-84.0258483886718,57.680525108898834,-147.41245615621065,2761048084
iw,-76.6830291748046,-84.3507003784179,60.19181129093515,-157.58838628024094,2761064751
iw,-77.6734085083007,-83.2261886596679,63.02019268455373,-163.00465831863735,2761081418
iw,-78.6474227905273,-81.6655578613281,65.60632305706014,-165.13262989242745,2761098085
iw,-79.5619735717773,-79.9440460205078,67.3585367494181,-165.57534544651077,2761114752
iw,-80.4858474731445,-77.9566955566406,67.78908482509682,-165.6649035244737,2761131419
iw,-81.2224197387695,-75.7879104614257,66.61562093080852,-166.19202435791829,2761148086
iw,-81.6315841674804,-73.4820404052734,63.80723203869277,-167.2998337372918,2761164753
iw,-81.7100448608398,-71.0127029418945,59.57187591206584,-168.52691126642884,2761181420
iw,-81.4264831542968,-68.3616256713867,54.29928698449707,-168.96400611667556,2761198087
iw,-80.8511047363281,-65.7732162475586,48.48349231625381,-167.48373648085263,2761214754
iw,-80.0867843627929,-63.3063201904296,42.64849742050535,-162.9993973171806,2761231421
iw,-79.3154067993164,-60.9661178588867,37.29140591278388,-154.7062642394766,2761248088
iw,-78.6890258789062,-58.7845649719238,32.84450339565837,-142.2626588210163,2761264755
iw,-78.1801528930664,-56.8621597290039,29.647481545382785,-125.88139868607009,2761281422
iw,-77.697509765625,-55.2540702819824,27.91827179329183,-106.32214900975954,2761298089
iw,-77.1996154785156,-53.9575576782226,27.718147355007588,-84.79559995382019,2761314756
iw,-76.6334152221679,-52.9342308044433,28.91955628582486,-62.80423531426336,2761331423
iw,-76.0525741577148,-52.2768478393554,31.19447035303046,-41.947262663346045,2761348090
iw,-75.4999771118164,-51.9676933288574,34.040519962959316,-23.71214414189776,2761364757
iw,-74.9169387817382,-51.9522705078125,36.85258088869398,-9.271326852015546,2761381424
iw,-74.2834548950195,-52.1398887634277,39.03324030291001,0.6936022182299671,2761398091
iw,-73.6170425415039,-52.3717002868652,40.12062299004224,6.110487518889639,2761414758
iw,-72.8914794921875,-52.5617408752441,39.90029202012154,7.546169697743493,2761431425
iw,-72.139419555664,-52.6391830444335,38.46465936024763,6.126699031871196,2761448092
iw,-71.4452514648437,-52.6973457336425,36.19279878963588,3.351915067774814,2761464759
iw,-70.8451461791992,-52.8447494506835,33.64427178990434,0.835598091327868,2761481426
iw,-70.3329467773437,-53.06396484375,31.384775858627023,0.02114218337533479,2761498093
iw,-69.9527053833007,-53.2848320007324,29.78113548598916,1.9270767620656992,2761514760
iw,-69.6519470214843,-53.4960060119628,28.816174578073433,6.9714505877527015,2761531427
iw,-69.3634643554687,-53.7224235534668,27.980930914146125,14.915764481391454,2761548094
iw,-69.119873046875,-54.2055549621582,26.297860519050744,24.955362510044477,2761564761
iw,-68.892463684082,-55.0721740722656,22.504183929944503,35.95375789607651,2761581428
iw,-68.6406555175781,-56.6258277893066,15.375176091528544,46.76975893548744,2761598095
iw,-68.4540939331054,-58.6514358520507,4.105779232554785,56.574675578143044,2761614762
iw,-68.5494003295898,-60.2960243225097,-11.375437134089301,65.03644504570909,2761631429
iw,-69.188003540039,-61.4004287719726,-30.282728373914072,72.28922558808651,2761648096
iw,-70.4703140258789,-62.2892761230468,-51.10140923992694,78.70657523966204,2761664763
iw,-72.263313293457,-63.448257446289,-71.931502619947,84.59997922840536,2761681430
iw,-74.3928604125976,-65.0568313598632,-90.9232260462465,90.00188932529254,2761698097
iw,-76.6838760375976,-67.055191040039,-106.65056474517803,94.63585522656062,2761714764
iw,-78.9714126586914,-69.0483627319336,-118.3125477612233,98.06532437519053,2761731431
iw,-81.1972579956054,-71.0211868286132,-125.74130675137425,99.91977458803929,2761748098
iw,-83.1443634033203,-72.8315887451171,-129.27665965126263,100.07221016529016,2761764765
iw,-84.6012344360351,-74.4257888793945,-129.59583010574332,98.68643293544831,2761781432
iw,-85.2423934936523,-75.9150085449218,-127.56209887873217,96.12953956919227,2761798099
iw,-84.8017501831054,-77.4047622680664,-124.10945734111459,92.81051828215557,2761814766
iw,-83.5357666015625,-78.8480224609375,-120.14579269949529,89.03056725476992,2761831433
iw,-81.8553390502929,-80.2548675537109,-116.44968199057988,84.9112095450261,2761848100
iw,-80.0688705444336,-81.6710510253906,-113.55175839350927,80.42073799341065,2761864767
iw,-78.4535598754882,-83.0801544189453,-111.61845023737047,75.47388630273565,2761881434
iw,-76.7827072143554,-84.4111709594726,-110.37933686533904,70.05293861507278,2761898101
iw,-74.94482421875,-85.6071090698242,-109.14516808033353,64.29703341058615,2761914768
iw,-73.012825012207,-86.6197433471679,-106.94236465526802,58.52522666766347,2761931435
iw,-71.1260147094726,-87.4534759521484,-102.74700077123566,53.18692014356722,2761948102
iw,-69.4380416870117,-88.1832885742187,-95.75914451485356,48.759366697555194,2761964769
iw,-67.9755859375,-88.8544845581054,-85.64018507831877,45.6283241426046,2761981436
iw,-66.7043304443359,-89.5407257080078,-72.6468539915139,43.990651998390994,2761998103
iw,-65.6232681274414,-89.4376831054687,-57.62371325657393,43.807204589891285,2762014770
iw,-64.8313598632812,-88.7397918701171,-41.84715532989497,44.81622000965985,2762031437
iw,-64.5063705444336,-87.9500579833984,-26.745708227419474,46.5995116719721,2762048104
iw,-64.6857223510742,-87.0550308227539,-13.557252949720905,48.68104825858326,2762064771
iw,-65.063980102539,-86.0651779174804,-3.0178708907204093,50.62949052766954,2762081438
iw,-65.2868957519531,-85.0669631958007,4.8125136966153015,52.13203041080808,2762098105
iw,-65.3051452636718,-84.0720596313476,10.517952698989822,53.01013666330238,2762114772
iw,-65.4026565551757,-83.1475753784179,15.094397488639384,53.16356917661201,2762131439
iw,-65.7865753173828,-82.3663253784179,19.602883406099217,52.4562126659944,2762148106
iw,-66.3004684448242,-81.6975479125976,24.83025504079697,50.58661297773112,2762164773
iw,-66.6739273071289,-81.0785064697265,31.06396410704219,47.00427691997976,2762181440
iw,-67.1386108398437,-80.5569152832031,38.0410086114256,40.928647046370386,2762198107
iw,-68.1739120483398,-80.1007537841796,45.07777026330878,31.497549178579536,2762214774
iw,-69.4720230102539,-79.5925369262695,51.33398787225734,18.022356684822824,2762231441
iw,-70.7933349609375,-79.1769790649414,56.116801189948816,0.2739538873364894,2762248108
iw,-72.02734375,-79.1530990600586,59.112380145436305,-21.310463028394878,2762264775
iw,-73.0093688964843,-79.7910919189453,60.46300958066678,-45.60125389412754,2762281442
iw,-74.0607986450195,-81.1613540649414,60.67530982505797,-70.97208071615849,2762298109
iw,-75.0668334960937,-83.0519180297851,60.41301090781027,-95.6661106922477,2762314776
iw,-76.0267486572265,-84.9128875732421,60.26307780022482,-118.201038585498,2762331443
iw,-76.9666290283203,-85.5347671508789,60.55967323648995,-137.65792091450106,2762348110
iw,-77.8965606689453,-84.2587814331054,61.31781872738156,-153.74827377592413,2762364777
iw,-78.8277740478515,-82.4481048583984,62.28343770684894,-166.65364347074257,2762381444
iw,-79.7724990844726,-80.6244735717773,63.063931660652166,-176.73224640476874,2762398111
iw,-80.5430679321289,-78.4758377075195,63.27858203267829,-184.23643637606068,2762414778
iw,-81.0030975341796,-75.8569717407226,62.67090893042916,-189.15807413681782,2762431445
iw,-81.0668640136718,-72.9837799072265,61.15294545049216,-191.23709080328246,2762448112
iw,-80.8337478637695,-70.0518646240234,58.78805644020234,-190.08544040997157,2762464779
iw,-80.4620742797851,-67.1769714355468,55.744268624102524,-185.34194030503997,2762481446
iw,-80.0027694702148,-64.4872741699218,52.2526136275769,-176.79212714328153,2762498113
iw,-79.4755783081054,-61.9498977661132,48.58800232043725,-164.43302887810344,2762514780
iw,-78.8911056518554,-59.6946640014648,45.06719765095359,-148.49919331120154,2762531447
iw,-78.3104400634765,-57.6724090576171,42.04330922569899,-129.47501287893377,2762548114
iw,-77.7378692626953,-55.8391342163085,39.87547693614803,-108.10398961416892,2762564781
iw,-77.1301116943359,-54.300178527832,38.8646224973894,-85.38439731095487,2762581448
iw,-76.4434432983398,-53.1761589050293,39.165157622572174,-62.52817992625026,2762598115
iw,-75.6850433349609,-52.4687614440918,40.70034238996533,-40.863640264635414,2762614782
iw,-74.892578125,-52.1637954711914,43.11764048672312,-21.680482782360478,2762631449
iw,-74.0696640014648,-52.112075805664,45.814471138788576,-6.038520032836643,2762648116
iw,-73.2380294799804,-52.300064086914,48.04404734724268,5.4211699472228485,2762664783
iw,-72.4012603759765,-52.6681251525878,49.08196349301408,12.616291156835542,2762681450
iw,-71.5454788208007,-53.0065116882324,48.40799109360966,16.071250779853514,2762698117
iw,-70.6752700805664,-53.2943725585937,45.84482298290165,16.84439981072587,2762714784
iw,-69.8290863037109,-53.6213188171386,41.60165720217345,16.333475189987887,2762731451
iw,-69.144905090332,-53.9745407104492,36.194929227523325,15.993011408611956,2762748118
iw,-68.723388671875,-54.394718170166,30.256481915813865,17.027734473338686,2762764785
iw,-68.5301361083984,-54.8810195922851,24.28230037352892,20.140037883868374,2762781452
iw,-68.4649124145507,-55.3730812072753,18.408049099614896,25.403019138954548,2762798119
iw,-68.4435882568359,-55.9859085083007,12.302805515353842,32.30416627776608,2762814786
iw,-68.4108581542968,-57.0070152282714,5.238448568152447,39.96051780551683,2762831453
iw,-68.3989028930664,-58.6058044433593,-3.673018689635866,47.448192189658,2762848120
iw,-68.5416259765625,-60.572093963623,-15.151434226536063,54.133161480517344,2762864787
iw,-68.9706115722656,-62.2186126708984,-29.4483753596299,59.86757304956803,2762881454
iw,-69.8577194213867,-63.1890983581543,-46.18612093354211,64.95810997110846,2762898121
iw,-71.3110656738281,-63.9916458129882,-64.39192592682338,69.91764109599106,2762914788
iw,-73.2901000976562,-64.9787063598632,-82.70629420048287,75.12602022883348,2762931455
iw,-75.5834350585937,-66.3559417724609,-99.6806171105494,80.5766407810525,2762948122
iw,-77.983528137207,-68.2118301391601,-114.06027346670382,85.83584915584665,2762964789
iw,-80.3567199707031,-70.1832733154296,-124.97868485235892,90.22395201857368,2762981456
iw,-82.5792083740234,-72.1629943847656,-132.0416318183093,93.1124684395904,2762998123
iw,-84.2541046142578,-73.9633178710937,-135.32356330099765,94.18451964019825,2763014790
iw,-85.025161743164,-75.4732055664062,-135.30849806412007,93.54007206162629,2763031457
iw,-84.6785888671875,-76.8218002319336,-132.7948071246602,91.61575910473262,2763048124
iw,-83.4639663696289,-78.1871566772461,-128.7670167866398,88.97882311479597,2763064791
iw,-81.8342514038086,-79.588882446289,-124.23376504790718,86.10221750563323,2763081458
iw,-80.0059509277343,-80.9853744506836,-120.04117188502232,83.21772358510484,2763098125
iw,-78.180435180664,-82.3683242797851,-116.6889502613128,80.29309044955797,2763114792
iw,-76.4715881347656,-83.7655868530273,-114.19347742025472,77.12077826143236,2763131459
iw,-74.6911926269531,-85.1698608398437,-112.04799833413144,73.46645892775035,2763148126
iw,-72.7815246582031,-86.4897155761718,-109.31623538121478,69.2141225442446,2763164793
iw,-70.8202209472656,-87.6494827270507,-104.85909341977697,64.45680029733467,2763181460
iw,-68.9627609252929,-88.6492614746093,-97.64588848056621,59.50749135024871,2763198127
iw,-67.3549270629882,-89.5386047363281,-87.06481769698944,54.83345007591647,2763214794
iw,-66.0209350585937,-89.4482192993164,-73.14151875554863,50.93964090551067,2763231461
iw,-64.9604110717773,-88.6630859375,-56.600143887987066,48.23840848044778,2763248128
iw,-64.2340621948242,-87.9364547729492,-38.74372673777564,46.94204717110294,2763264795
iw,-63.951732635498,-87.2029876708984,-21.175569880080015,47.00668073544712,2763281462
iw,-64.2171859741211,-86.3722076416015,-5.425614923797112,48.142514430697865,2763298129
iw,-64.8143081665039,-85.4568328857421,7.418851073466881,49.887159065792915,2763314796
iw,-65.365249633789,-84.4396896362304,16.964463406464745,51.71697981204289,2763331463
iw,-65.6790695190429,-83.3334732055664,23.557643721952257,53.15376972154485,2763348130
iw,-65.9961471557617,-82.3095092773437,28.10720402975259,53.82125622258035,2763364797
iw,-66.5658569335937,-81.4780349731445,31.74919420026981,53.42478170037762,2763381464
iw,-67.1997985839843,-80.7724380493164,35.47305657004736,51.66427095972288,2763398131
iw,-67.7040023803711,-80.1585159301757,39.830270155629336,48.12954227389711,2763414798
iw,-68.3717803955078,-79.6642532348632,44.8095773918367,42.246956426514565,2763431465
iw,-69.3865432739257,-79.1977005004882,49.90879201507384,33.33343409332805,2763448132
iw,-70.6636657714843,-78.6951599121093,54.373269053440616,20.76994500484182,2763464799
iw,-72.2286529541015,-78.3341751098632,57.51425640031214,4.248572011921195,2763481466
iw,-73.6889724731445,-78.338134765625,58.987083494989825,-15.999186605074403,2763498133
iw,-74.6469573974609,-78.8039855957031,58.922316165301694,-39.09554581475401,2763514800
iw,-75.5190505981445,-79.8135604858398,57.86487270755519,-63.59783891091304,2763531467
iw,-76.4667739868164,-81.3928756713867,56.55837179052744,-87.7654345728207,2763548134
iw,-77.2202987670898,-83.3691864013671,55.67211773176425,-109.93477000341377,2763564801
iw,-78.0307312011718,-84.9706726074218,55.57981180523839,-128.87690681342724,2763581468
iw,-78.9003372192382,-84.9577560424804,56.265981328847666,-144.0129381372045,2763598135
iw,-79.7302093505859,-83.3785705566406,57.379006304891156,-155.4173017432756,2763614802
iw,-80.5908432006836,-81.5532455444336,58.39162708479598,-163.62671346765617,2763631469
iw,-81.2933349609375,-79.6893539428711,58.79281929786539,-169.34991263847562,2763648136
iw,-81.6643142700195,-77.5581130981445,58.23401887262314,-173.19835522665372,2763664803
iw,-81.706916809082,-75.1807785034179,56.58625282980038,-175.5208535035135,2763681470
iw,-81.4796066284179,-72.7631607055664,53.912843088291325,-176.3591051227154,2763698137
iw,-81.1209106445312,-70.1663513183593,50.398308448999046,-175.49260196377205,2763714804
iw,-80.6518936157226,-67.4620361328125,46.28145623737855,-172.5303871592403,2763731471
iw,-80.0718002319336,-64.8615493774414,41.822404241670846,-167.01950377114608,2763748138
iw,-79.4161224365234,-62.4539184570312,37.30570088611024,-158.55419230467797,2763764805
iw,-78.7526245117187,-60.3514137268066,33.06057807698486,-146.87814052004214,2763781472
iw,-78.1448211669921,-58.3267822265625,29.47153868086089,-131.97585392822612,2763798139
iw,-77.5902633666992,-56.4202499389648,26.957000463471985,-114.14758982466778,2763814806
iw,-77.0558624267578,-54.8214530944824,25.9066186206732,-94.05391256523109,2763831473
iw,-76.51953125,-53.6394615173339,26.5849995411084,-72.70746752400365,2763848140
iw,-75.9640655517578,-52.8494987487793,29.026547873731502,-51.39263142578277,2763864807
iw,-75.3437728881836,-52.4194984436035,32.95807942721958,-31.511627833342814,2763881474
iw,-74.649787902832,-52.2945022583007,37.7868394154722,-14.379251606318654,2763898141
iw,-73.8932495117187,-52.3622894287109,42.67770107024241,-1.0055842756401971,2763914808
iw,-73.0336380004882,-52.5954284667968,46.71580120998857,8.088015976308258,2763931475
iw,-72.0937805175781,-52.8937721252441,49.11755651778122,12.978315566846664,2763948142
iw,-71.1416854858398,-53.176830291748,49.42668619791528,14.344869466654645,2763964809
iw,-70.2525558471679,-53.4550056457519,47.62573949186857,13.357764348337074,2763981476
iw,-69.4901809692382,-53.7477264404296,44.11448521852164,11.46099615113715,2763998143
iw,-68.9418411254882,-54.0443153381347,39.549420629825406,10.091892181717947,2764014810
iw,-68.582405090332,-54.3755455017089,34.58836228414906,10.399188163979613,2764031477
iw,-68.3021697998046,-54.7275390625,29.62231740094036,13.029602627198404,2764048144
iw,-68.0536956787109,-55.0775756835937,24.589181343857913,18.04073906404896,2764064811
iw,-67.8362274169921,-55.641544342041,18.94367983577063,24.968201169409188,2764081478
iw,-67.6545715332031,-56.6039237976074,11.80890781839995,33.03106047851721,2764098145
iw,-67.5506362915039,-58.0297241210937,2.2709355270377185,41.41049789414037,2764114812
iw,-67.6258926391601,-59.589126586914,-10.278547490315567,49.499561412994034,2764131479
iw,-68.0063781738281,-60.879295349121,-25.871804913580892,57.02335727179966,2764148146
iw,-68.8845748901367,-61.7769393920898,-43.8658359163084,63.98363249971749,2764164813
iw,-70.2845611572265,-62.658836364746,-63.0496806246198,70.47121722052023,2764181480
iw,-72.1288223266601,-63.8367385864257,-81.91365187821623,76.46274967270382,2764198147
iw,-74.3304748535156,-65.4989776611328,-98.97744496447353,81.72404764737543,2764214814
iw,-76.7771301269531,-67.4057540893554,-113.06547166477921,85.87396714968256,2764231481
iw,-79.2572479248046,-69.2709426879882,-123.4599419681016,88.5645911936231,2764248148
iw,-81.6135864257812,-71.0535125732421,-129.92713071955708,89.66904147848626,2764264815
iw,-83.5931777954101,-72.654296875,-132.66103063565612,89.37152176989271,2764281482
iw,-84.9356231689453,-74.0386886596679,-132.19753373540254,88.11343987892185,2764298149
iw,-85.2912292480468,-75.3525924682617,-129.32728234024333,86.42446071133918,2764314816
iw,-84.5212097167968,-76.7030868530273,-125.0027351338295,84.71899074467592,2764331483
iw,-83.0858535766601,-78.0905075073242,-120.21923249389415,83.14705841880577,2764348150
iw,-81.4049987792968,-79.4655456542968,-115.8590354548642,81.55766262551627,2764364817
iw,-79.6845474243164,-80.8639373779296,-112.51401359239593,79.58311480159956,2764381484
iw,-78.0754089355468,-82.2891464233398,-110.33139638205712,76.80807202780493,2764398151
iw,-76.3936767578125,-83.6826705932617,-108.94137102782321,72.96113979425559,2764414818
iw,-74.511734008789,-84.9732131958007,-107.51363924862756,68.06359261084782,2764431485
iw,-72.5537643432617,-86.1051940917968,-104.95132339283666,62.48599529387126,2764448152
iw,-70.6911544799804,-87.0728378295898,-100.17945731199217,56.893079124313644,2764464819
iw,-69.0591430664062,-87.9330368041992,-92.44741234164341,52.091355570682325,2764481486
iw,-67.6857528686523,-88.6986923217773,-81.55923828240769,48.82278975239441,2764498153
iw,-66.5230102539062,-89.5322875976562,-67.97091138025888,47.563451169592426,2764514820
iw,-65.5351486206054,-90.0,-52.730324715956606,48.384775514258706,2764531487
iw,-64.8276214599609,-89.1329498291015,-37.26867790003538,50.91820537157216,2764548154
iw,-64.5795516967773,-88.1975631713867,-23.079758637617413,54.43667110058241,2764564821
iw,-64.7130279541015,-87.1224822998046,-11.353633250509176,58.03506869552255,2764581488
iw,-65.14208984375,-85.9059524536132,-2.661152147695558,60.86223800859349,2764598155
iw,-65.430908203125,-84.6009063720703,3.204612880823416,62.33498318790886,2764614822
iw,-65.4002609252929,-83.281135559082,7.1579917205361365,62.259152775135746,2764631489
iw,-65.3444442749023,-82.1305694580078,10.527752232132555,60.80294534826366,2764648156
iw,-65.5938415527343,-81.3410415649414,14.635501753061561,58.31589945332341,2764664823
iw,-65.9875183105468,-80.7964553833007,20.387802096091022,55.05179542176094,2764681490
iw,-66.3340454101562,-80.2881927490234,28.011463640261407,50.90779824152857,2764698157
iw,-66.8806991577148,-79.73193359375,37.00528656319504,45.30384071950537,2764714824
iw,-67.793342590332,-79.0869827270507,46.31339776478095,37.280010049213054,2764731491
iw,-69.0042190551757,-78.3779830932617,54.662742449256946,25.800714180136346,2764748158
iw,-70.5574417114257,-77.7909317016601,60.95822661860988,10.16195354365366,2764764825
iw,-72.0339584350586,-77.5811920166015,64.60758233050991,-9.655523593977389,2764781492
iw,-73.1712570190429,-77.9820556640625,65.67012685338194,-32.83336429205911,2764798159
iw,-74.1966018676757,-79.0669937133789,64.7881276164466,-57.835591719539515,2764814826
iw,-75.2527465820312,-80.716323852539,62.94005363674366,-82.76765180060613,2764831493
iw,-76.152114868164,-82.7390670776367,61.11427500652965,-105.8471081604425,2764848160
iw,-77.0707550048828,-84.6948165893554,60.0171375859012,-125.81695666254298,2764864827
iw,-77.9345169067382,-85.4552841186523,59.90361262449222,-142.15878990283915,2764881494
iw,-78.7198944091796,-84.4081268310546,60.568908565139566,-155.0452377443672,2764898161
iw,-79.5909118652343,-82.7806625366211,61.48368279051776,-165.07565113347005,2764914828
iw,-80.4223022460937,-80.9971923828125,62.01052215020929,-172.92086265755162,2764931495
iw,-81.0192031860351,-78.8445053100586,61.619721996800166,-179.02329038157833,2764948162
iw,-81.2867889404296,-76.3311233520507,60.03499814838063,-183.450115561643,2764964829
iw,-81.1842803955078,-73.6354675292968,57.27777014793136,-185.91352590645786,2764981496
iw,-80.8776473999023,-70.8027954101562,53.62221931374227,-185.90391615437775,2764998163
iw,-80.4479522705078,-67.913703918457,49.5009272594715,-182.85919729078148,2765014830
iw,-79.9087600708007,-65.2550201416015,45.40336626527804,-176.31088214780772,2765031497
iw,-79.2792129516601,-62.7445831298828,41.793764924472455,-165.982015641207,2765048164
iw,-78.612808227539,-60.5167999267578,39.0552357734019,-151.8422161840612,2765064831
iw,-77.996955871582,-58.4646186828613,37.45408611862217,-134.1395329515569,2765081498
iw,-77.4117355346679,-56.5727844238281,37.11449634942372,-113.42477709321577,2765098165
iw,-76.7707901000976,-54.9628753662109,37.996904829706544,-90.56691970949842,2765114832
iw,-76.0612182617187,-53.7834777832031,39.880651836037565,-66.739969032782,2765131499
iw,-75.3185043334961,-53.0141143798828,42.36021314811931,-43.354916001153995,2765148166
iw,-74.5537643432617,-52.6640167236328,44.870760324938175,-21.920353893584085,2765164833
iw,-73.7650451660156,-52.6510543823242,46.75752076996095,-3.8380338449694453,2765181500
iw,-72.9551620483398,-52.9018440246582,47.39138309136599,9.834343528880957,2765198167
iw,-72.1022186279296,-53.453815460205,46.312950383925,18.599846677117256,2765214834
iw,-71.2047653198242,-53.9700851440429,43.366690300403164,22.656157565897114,2765231501
iw,-70.3293075561523,-54.4085083007812,38.775977279254775,22.893389795390572,2765248168
iw,-69.5469360351562,-54.8262710571289,33.11663366100045,20.733962545332798,2765264835
iw,-68.9600677490234,-55.1452598571777,27.17281303916309,17.83981917506302,2765281502
iw,-68.6451187133789,-55.4476432800293,21.698415297974545,15.75831575593885,2765298169
iw,-68.5718765258789,-55.8149719238281,17.147491086123246,15.603591793608512,2765314836
iw,-68.5692596435546,-56.0975875854492,13.46347817873743,17.86457113303716,2765331503
iw,-68.5203628540039,-56.5359001159668,10.014750895387046,22.395363930461325,2765348170
iw,-68.4238510131836,-57.445499420166,5.724317993884323,28.587665143099226,2765364837
iw,-68.3386077880859,-58.8862037658691,-0.6276226759965327,35.660730967393235,2765381504
iw,-68.3783874511718,-60.4093894958496,-10.021097230274021,42.95402406106451,2765398171
iw,-68.7255096435546,-61.4872817993164,-22.865745670752496,50.101170607943516,2765414838
iw,-69.5145416259765,-62.2340126037597,-38.83847446807147,57.02057106326253,2765431505
iw,-70.8716888427734,-63.0994606018066,-56.939314221491166,63.75641396952905,2765448172
iw,-72.7545852661132,-64.2524185180664,-75.72920390011478,70.28408904920657,2765464839
iw,-74.9972534179687,-65.7906417846679,-93.64919177007165,76.402424967659,2765481506
iw,-77.3694763183593,-67.5651626586914,-109.30915695731335,81.76923729584682,2765498173
iw,-79.7851638793945,-69.3567276000976,-121.6765917625751,86.04449523253605,2765514840
iw,-82.1020584106445,-71.1116180419921,-130.1599818318377,89.04551866456578,2765531507
iw,-83.9491653442382,-72.712776184082,-134.623164620564,90.8206507157327,2765548174
iw,-84.9707565307617,-74.1351547241211,-135.36584463401766,91.60165595654765,2765564841
iw,-84.8015975952148,-75.5211944580078,-133.07671369842453,91.66497300418482,2765581508
iw,-83.6627502441406,-77.0172119140625,-128.74126574669032,91.17930528279615,2765598175
iw,-82.1043014526367,-78.5701828002929,-123.48663418780812,90.11941404535597,2765614842
iw,-80.3569641113281,-80.117935180664,-118.36960127894748,88.28715040854807,2765631509
iw,-78.6559600830078,-81.635269165039,-114.14642180821717,85.42638868528717,2765648176
iw,-76.9893569946289,-83.1238784790039,-111.086500368641,81.37801853649303,2765664843
iw,-75.2191848754882,-84.5506896972656,-108.89340354839479,76.2097281082481,2765681510
iw,-73.3122634887695,-85.8161468505859,-106.77177384462566,70.27030032006161,2765698177
iw,-71.4016342163086,-86.897705078125,-103.63386130127597,64.14774286145996,2765714844
iw,-69.6352386474609,-87.7877807617187,-98.39263537781898,58.542884351959096,2765731511
iw,-68.0811386108398,-88.5201110839843,-90.26137919953571,54.09624452084766,2765748178
iw,-66.7229461669921,-89.0793151855468,-78.98212543833166,51.220166086626236,2765764845
iw,-65.5645980834961,-89.2062301635742,-64.92885411706752,49.987619709484974,2765781512
iw,-64.6094055175781,-88.7085037231445,-49.06032599165054,50.11413946365391,2765798179
iw,-63.9845848083496,-87.9520568847656,-32.724641746899884,51.04297396508747,2765814846
iw,-63.9079895019531,-86.9887084960937,-17.3480174056367,52.11114571831537,2765831513
iw,-64.3306503295898,-85.8859634399414,-4.07847442094509,52.74397153160411,2765848180
iw,-64.8554153442382,-84.7549591064453,6.510291236587672,52.608343936472885,2765864847
iw,-65.1955642700195,-83.7378158569336,14.546536131685162,51.66098102046799,2765881514
iw,-65.3858108520507,-82.9249572753906,20.76071409031669,50.06152409893177,2765898181
iw,-65.6497726440429,-82.3281097412109,26.187977853171404,47.974524934397486,2765914848
iw,-66.1329345703125,-81.8814620971679,31.783872304907312,45.338340204497214,2765931515
iw,-66.6585540771484,-81.444091796875,38.0945013694476,41.70642819789734,2765948182
iw,-67.3361434936523,-80.8928909301757,45.092998177664235,36.24947739242073,2765964849
iw,-68.3555908203125,-80.2848129272461,52.22765923510202,27.946914436151296,2765981516
iw,-69.5994644165039,-79.7534866333007,58.65275627863808,15.916993423536846,2765998183
iw,-71.1500244140625,-79.4433517456054,63.552598994723546,-0.22934809021582803,2766014850
iw,-72.6717071533203,-79.518928527832,66.43981456078093,-20.14550137915944,2766031517
iw,-73.8882141113281,-80.1342849731445,67.32159701212956,-42.71807209046754,2766048184
iw,-75.0498962402343,-81.3438415527343,66.68020882291972,-66.27429195448676,2766064851
iw,-76.1695175170898,-83.0384063720703,65.28519463341686,-88.96736435291412,2766081518
iw,-77.0895614624023,-85.017837524414,63.91493157269843,-109.21173739865812,2766098185
iw,-77.8750610351562,-86.2658767700195,63.09289355330545,-126.01973176228715,2766114852
iw,-78.7323837280273,-85.4600753784179,62.93327595990667,-139.12874408510265,2766131519
iw,-79.6355361938476,-83.5441513061523,63.146120517211294,-148.89292310223746,2766148186
iw,-80.5876235961914,-81.585464477539,63.18807786858342,-156.00872213915525,2766164853
iw,-81.4403991699218,-79.6129302978515,62.48756868652232,-161.2021149603042,2766181520
iw,-82.0320358276367,-77.4108657836914,60.650283938000335,-164.99598870156214,2766198187
iw,-82.1921920776367,-74.9971466064453,57.572806014959866,-167.6114868363734,2766214854
iw,-81.979507446289,-72.5578155517578,53.442802521149645,-168.98410687399877,2766231521
iw,-81.5681381225586,-70.0239105224609,48.653760338425315,-168.8382667370139,2766248188
iw,-81.0472946166992,-67.4862289428711,43.68674752100457,-166.77209516230118,2766264855
iw,-80.4464263916015,-64.9845886230468,39.00668864530474,-162.33431362647462,2766281522
iw,-79.8269119262695,-62.5609321594238,34.99856569660935,-155.09859972298932,2766298189
iw,-79.2563247680664,-60.3468589782714,31.945672149487258,-144.7452678191575,2766314856
iw,-78.7438659667968,-58.2952613830566,30.036025069614332,-131.1506568480463,2766331523
iw,-78.2366333007812,-56.4110031127929,29.375928676983293,-114.47250712663661,2766348190
iw,-77.7158432006836,-54.8191795349121,29.99189963936447,-95.21200555357953,2766364857
iw,-77.1530227661132,-53.5427856445312,31.81342612172469,-74.23158143744425,2766381524
iw,-76.5290298461914,-52.6039199829101,34.64474228246057,-52.71130679189354,2766398191
iw,-75.8400421142578,-52.0766487121582,38.14530944148723,-32.03563162056689,2766414858
iw,-75.1209487915039,-51.927879333496,41.83925765585277,-13.616175211631045,2766431525
iw,-74.3906173706054,-51.9799118041992,45.16402758787597,1.3260073751268235,2766448192
iw,-73.636962890625,-52.2417068481445,47.55420981082646,11.978511435976833,2766464859
iw,-72.838996887207,-52.6165122985839,48.54462441586005,18.106678756450577,2766481526
iw,-72.0209884643554,-52.9331817626953,47.869506870552904,20.12751900036358,2766498193
iw,-71.1616973876953,-53.2225646972656,45.531613038344744,19.05900715404917,2766514860
iw,-70.3347854614257,-53.5456390380859,41.815905447920585,16.343266311674107,2766531527
iw,-69.5995864868164,-53.8679161071777,37.229309628121534,13.574062526776578,2766548194
iw,-69.0036087036132,-54.1862564086914,32.36373055039828,12.18484619945849,2766564861
iw,-68.5614318847656,-54.4786262512207,27.70434246490377,13.166765005169944,2766581528
iw,-68.2983932495117,-54.760757446289,23.433292399972018,16.885453126587976,2766598195
iw,-68.1840133666992,-55.1473388671875,19.297749916486104,23.049953332667823,2766614862
iw,-68.1368637084961,-55.8745727539062,14.606133104644215,30.853421355424885,2766631529
iw,-68.0858154296875,-57.0663414001464,8.380570015048752,39.25364823429525,2766648196
iw,-68.05810546875,-58.6110153198242,-0.36391734107014906,47.305582152880895,2766664863
iw,-68.1745910644531,-60.13525390625,-12.298598583924536,54.425860446029226,2766681530
iw,-68.61572265625,-61.3324851989746,-27.529197545286056,60.48819994933169,2766698197
iw,-69.5696182250976,-62.2301216125488,-45.502671448993716,65.72162872834157,2766714864
iw,-71.1068115234375,-63.2046775817871,-65.10136820738163,70.47782990238437,2766731531
iw,-73.1462478637695,-64.4996643066406,-84.88041581067836,74.9948028090981,2766748198
iw,-75.5091171264648,-66.1780242919921,-103.35482088344521,79.27312706320234,2766764865
iw,-77.9976119995117,-68.0284423828125,-119.2414278448608,83.10626430548677,2766781532
iw,-80.5640869140625,-69.7763214111328,-131.60474336731772,86.21736582681572,2766798199
iw,-82.9403381347656,-71.439094543457,-139.9128122327876,88.40672866855107,2766814866
iw,-84.61962890625,-73.0104217529296,-144.0415640975804,89.62791173967516,2766831533
iw,-85.1521301269531,-74.4784088134765,-144.25935110107102,89.96612152753423,2766848200
iw,-84.3266372680664,-75.9449996948242,-141.19506868857053,89.55008528393094,2766864867
iw,-82.7356948852539,-77.4614868164062,-135.77050808652626,88.45816925770248,2766881534
iw,-80.9076995849609,-78.9774398803711,-129.0759350396634,86.67296133833578,2766898201
iw,-79.0128402709961,-80.4556045532226,-122.18719083780206,84.10654941072616,2766914868
iw,-77.2802658081054,-81.9273986816406,-115.9526628957366,80.68107702892476,2766931535
iw,-75.6145629882812,-83.3647842407226,-110.80449261526854,76.4239636910262,2766948202
iw,-73.8223419189453,-84.6989593505859,-106.65582794301739,71.53284714937396,2766964869
iw,-71.941535949707,-85.8767852783203,-102.92633345075225,66.37969482419273,2766981536
iw,-70.1306991577148,-86.8726959228515,-98.69670139620193,61.4484545724944,2766998203
iw,-68.5223083496093,-87.7337570190429,-92.9501688091336,57.226200320633104,2767014870
iw,-67.1152191162109,-88.5411605834961,-84.83753532108413,54.084871564673065,2767031537
iw,-65.8988037109375,-89.3048019409179,-73.90700460233256,52.19349924737663,2767048204
iw,-64.8531417846679,-89.4408264160156,-60.25691692809424,51.48914226365322,2767064871
iw,-63.9693336486816,-88.6604614257812,-44.58195862985866,51.714381557366245,2767081538
iw,-63.344554901123,-87.7346267700195,-28.0905320596753,52.5081249775807,2767098205
iw,-63.1614456176757,-86.7515869140625,-12.285622253045483,53.520737765367585,2767114872
iw,-63.4754753112793,-85.7449035644531,1.3642949991187963,54.51704271639995,2767131539
iw,-64.1040420532226,-84.7111663818359,11.789255342473439,55.432390442484,2767148206
iw,-64.6954574584961,-83.6686553955078,18.605194635381462,56.357610063647954,2767164873
iw,-65.0469360351562,-82.6837768554687,22.219879813744836,57.44716290239476,2767181540
iw,-65.3741378784179,-81.7574768066406,23.71081835503712,58.76874624989564,2767198207
iw,-65.8747406005859,-80.8839797973632,24.51123170432203,60.136741568240076,2767214874
iw,-66.3915557861328,-79.9998779296875,26.00391565868998,60.98789467516569,2767231541
iw,-66.744514465332,-79.1026382446289,29.143493623644364,60.35664148480043,2767248208
iw,-67.0864944458007,-78.2345962524414,34.211797405944736,56.9856288906591,2767264875
iw,-67.763069152832,-77.3945922851562,40.77433226931007,49.568447375545134,2767281542
iw,-68.8037796020507,-76.6082305908203,47.85237554476207,37.07705301923666,2767298209
iw,-70.1880264282226,-76.0428771972656,54.25848006591452,19.089110029260556,2767314876
iw,-71.6364288330078,-75.8358840942382,58.98372213951813,-3.9859816777461208,2767331543
iw,-72.8008880615234,-76.1855850219726,61.50456161728957,-30.868531127769597,2767348210
iw,-73.89306640625,-77.1859588623046,61.91092619403749,-59.5948721700638,2767364877
iw,-74.9890365600586,-78.8018035888671,60.828147381709876,-87.89525333018288,2767381544
iw,-75.8913497924804,-80.8788146972656,59.17776933140982,-113.66157418772977,2767398211
iw,-76.6804046630859,-82.973762512207,57.86840524395114,-135.3648442790665,2767414878
iw,-77.5029678344726,-84.1348266601562,57.52002924699903,-152.29331893705373,2767431545
iw,-78.2309799194336,-83.7519836425781,58.30600980400598,-164.544098623332,2767448212
iw,-79.0471496582031,-82.5326843261718,59.95221190845048,-172.79220612244671,2767464879
iw,-79.9779739379882,-81.0569076538086,61.87468148373619,-177.94257486477068,2767481546
iw,-80.7952499389648,-79.1619186401367,63.389304378726656,-180.8026531589836,2767498213
iw,-81.3518295288086,-76.7939453125,63.90990186345537,-181.8816324114834,2767514880
iw,-81.5187454223632,-74.1666641235351,63.07206939913274,-181.3488921227634,2767531547
iw,-81.3680343627929,-71.4807510375976,60.7646091317994,-179.113903462074,2767548214
iw,-81.0151062011718,-68.7782745361328,57.09223736734784,-174.95784827633295,2767564881
iw,-80.4974517822265,-66.2193832397461,52.31144821978725,-168.6576830967454,2767581548
iw,-79.8816146850586,-63.8487586975097,46.77331902434485,-160.07451340080752,2767598215
iw,-79.218765258789,-61.6758232116699,40.8858572537909,-149.20465830796127,2767614882
iw,-78.5961303710937,-59.5691757202148,35.09022640335046,-136.2020157493639,2767631549
iw,-78.0302047729492,-57.6621437072753,29.83769618200769,-121.37763913030288,2767648216
iw,-77.4876556396484,-56.087963104248,25.556267159599862,-105.1775312165393,2767664883
iw,-76.9207916259765,-54.8853034973144,22.603295988762607,-88.14192143744764,2767681550
iw,-76.3173370361328,-53.9339637756347,21.209729607354344,-70.85890173420363,2767698217
iw,-75.7009963989257,-53.1545143127441,21.429818964648817,-53.93143934300296,2767714884
iw,-75.0835494995117,-52.5450744628906,23.113737303521646,-37.9678481316044,2767731551
iw,-74.5017776489257,-52.0105514526367,25.91663133828317,-23.583370416653263,2767748218
iw,-73.9474411010742,-51.726879119873,29.347403866850545,-11.380940578545701,2767764885
iw,-73.3759231567382,-51.7394218444824,32.848859989850226,-1.8805770430756563,2767781552
iw,-72.7554321289062,-51.9489479064941,35.892574085745714,4.605710325977166,2767798219
iw,-72.0613937377929,-52.2590293884277,38.06836207342915,8.116537965724758,2767814886
iw,-71.3181686401367,-52.5378761291503,39.14849330447997,9.136451238886476,2767831553
iw,-70.5647048950195,-52.7684936523437,39.11007948458377,8.583197378083868,2767848220
iw,-69.8058166503906,-52.9516792297363,38.10563196953499,7.663131273421767,2767864887
iw,-69.1304626464843,-53.1962013244628,36.38152243727154,7.621982871660394,2767881554
iw,-68.622329711914,-53.4813117980957,34.15692826336695,9.458938396616475,2767898221
iw,-68.2519073486328,-53.7792320251464,31.491354012235917,13.687388068574256,2767914888
iw,-67.9585266113281,-54.1311798095703,28.183100302102627,20.215416474516932,2767931555
iw,-67.7199783325195,-54.6556243896484,23.745185440446747,28.389599163483513,2767948222
iw,-67.494155883789,-55.5766525268554,17.490112436186436,37.20125244871509,2767964889
iw,-67.2818603515625,-56.9460716247558,8.719362142336603,45.59989870991248,2767981556
iw,-67.1766586303711,-58.6397895812988,-3.031409995459141,52.810036417851585,2767998223
iw,-67.3268280029296,-60.1492500305175,-17.77460808384177,58.53149254001773,2768014890
iw,-67.9242477416992,-61.2231254577636,-34.96656157413595,62.94250932000943,2768031557
iw,-69.1027374267578,-62.0773162841796,-53.56676027794829,66.51168126405459,2768048224
iw,-70.8082427978515,-63.0796661376953,-72.24592786580018,69.7174682848092,2768064891
iw,-72.8959197998046,-64.4133148193359,-89.66639359076487,72.8165531892549,2768081558
iw,-75.2402572631836,-66.1066970825195,-104.73208439308311,75.76655582600492,2768098225
iw,-77.6596298217773,-67.8610610961914,-116.73074712823588,78.31760897043081,2768114892
iw,-80.0392074584961,-69.5265121459961,-125.35184351027775,80.19857010333583,2768131559
iw,-82.2045745849609,-71.0962982177734,-130.6213974466174,81.28697383780572,2768148226
iw,-83.9180145263671,-72.505744934082,-132.81634487214788,81.67833264215454,2768164893
iw,-84.9008102416992,-73.8019561767578,-132.4007494330326,81.63397502491779,2768181560
iw,-84.8050689697265,-75.1139373779296,-129.98726259192642,81.44824223480177,2768198227
iw,-83.7413558959961,-76.4830703735351,-126.29797173834075,81.30707564149375,2768214894
iw,-82.1648864746093,-77.8567352294921,-122.09440054111253,81.20308241023146,2768231561
iw,-80.4022674560546,-79.2250137329101,-118.06488523196904,80.93847678185563,2768248228
iw,-78.6972351074218,-80.6309738159179,-114.68646798879078,80.20766176695221,2768264895
iw,-76.953498840332,-82.0889739990234,-112.10273971862524,78.72284394297903,2768281562
iw,-75.0658721923828,-83.5343170166015,-110.06590716275927,76.33537715514927,2768298229
iw,-73.1204833984375,-84.8496932983398,-107.97478039119493,73.11085071169023,2768314896
iw,-71.2310104370117,-86.0462646484375,-105.00679846502055,69.33331101144384,2768331563
iw,-69.5016937255859,-87.1700134277343,-100.30976314930297,65.43830011184524,2768348230
iw,-67.9596862792968,-88.2210617065429,-93.20466580305037,61.897882964070014,2768364897
iw,-66.599983215332,-89.3147201538086,-83.35676681476839,59.09534278884698,2768381564
iw,-65.370620727539,-90.0,-70.88550996891466,57.22872524003404,2768398231
iw,-64.3305587768554,-89.0202178955078,-56.39262690887336,56.27239427164907,2768414898
iw,-63.5373840332031,-88.0371627807617,-40.89189292588936,56.008629611227306,2768431565
iw,-63.1156959533691,-87.0463333129882,-25.634443319102594,56.12130934429505,2768448232
iw,-63.1116523742675,-86.0186691284179,-11.84994383504503,56.324162433038836,2768464899
iw,-63.4234352111816,-84.9269180297851,-0.46173666710392014,56.480786166154985,2768481566
iw,-63.7936477661132,-83.8123626708984,8.137313093332336,56.66806236186555,2768498233
iw,-64.0305480957031,-82.7100296020507,14.16649838706944,57.14403511705662,2768514900
iw,-64.2346954345703,-81.695442199707,18.3607873538695,58.207673741938784,2768531567
iw,-64.6152191162109,-80.8330764770507,21.727208020847108,59.977440209624206,2768548234
iw,-65.1774368286132,-80.0715789794921,25.23656629780547,62.157142125973934,2768564901
iw,-65.703384399414,-79.2668685913086,29.546453026532102,63.88377937597471,2768581568
iw,-66.0732116699218,-78.390625,34.83271221280753,63.74558633756304,2768598235
iw,-66.6931610107421,-77.4110107421875,40.77382588928574,60.012393116497506,2768614902
iw,-67.7471084594726,-76.3058242797851,46.69321344847307,51.04584791235673,2768631569
iw,-69.0313720703125,-75.2886657714843,51.81639578775023,35.78070198647984,2768648236
iw,-70.3547286987304,-74.6693115234375,55.55456535236056,14.12260999203392,2768664903
iw,-71.5311203002929,-74.7230148315429,57.71042522881581,-12.882485608513058,2768681570
iw,-72.6117553710937,-75.5328292846679,58.53242062602941,-43.18361546941343,2768698237
iw,-73.5995407104492,-77.0394592285156,58.60518464166821,-74.1373419511566,2768714904
iw,-74.5926437377929,-78.979507446289,58.62490432281525,-103.07489156033533,2768731571
iw,-75.6057586669921,-81.2454376220703,59.1442339268699,-127.85312244895073,2768748238
iw,-76.5369262695312,-83.4120330810546,60.375933740378166,-147.2330917261167,2768764905
iw,-77.5172958374023,-84.5075302124023,62.121628639728414,-160.99521954582698,2768781572
iw,-78.6052703857421,-84.0676651000976,63.848962526238445,-169.78878633124293,2768798239
iw,-79.7039794921875,-82.7356414794921,64.88787851435565,-174.79474736323309,2768814906
iw,-80.7535247802734,-81.0091400146484,64.67263347597405,-177.32669875209416,2768831573
iw,-81.6795883178711,-78.8536300659179,62.939849590025574,-178.49000128118354,2768848240
iw,-82.2388153076171,-76.3826370239257,59.81276565017057,-178.9717124055943,2768864907
iw,-82.3434219360351,-73.7868576049804,55.74876260823189,-178.97370321371238,2768881574
iw,-82.1158447265625,-71.0844268798828,51.38017985100992,-178.25991565865854,2768898241
iw,-81.6759567260742,-68.3534774780273,47.31503225434802,-176.27820130918383,2768914908
iw,-81.0835037231445,-65.6392593383789,43.97069851418955,-172.32522808444796,2768931575
iw,-80.4086837768554,-63.043643951416,41.49135695232053,-165.72938006014016,2768948242
iw,-79.7485198974609,-60.6155929565429,39.76314696184384,-156.02343702047676,2768964909
iw,-79.1384048461914,-58.349021911621,38.506548181826325,-143.07380973027475,2768981576
iw,-78.5310440063476,-56.3829727172851,37.404346852092345,-127.1377442192371,2768998243
iw,-77.8850173950195,-54.7975463867187,36.21957486993778,-108.8381802960816,2769014910
iw,-77.2341918945312,-53.4962921142578,34.868597941401354,-89.07145329398396,2769031577
iw,-76.6131362915039,-52.4273490905761,33.43329544710175,-68.88235610837845,2769048244
iw,-76.03564453125,-51.6380157470703,32.11562937769543,-49.34236819713677,2769064911
iw,-75.4800491333007,-51.1353569030761,31.153642966138786,-31.45024694496948,2769081578
iw,-74.9124221801757,-50.8580245971679,30.728520742781527,-16.05311383785887,2769098245
iw,-74.2980194091796,-50.853775024414,30.895585050414912,-3.775856010439686,2769114912
iw,-73.6176986694336,-51.0256996154785,31.56477306533621,5.047763087336623,2769131579
iw,-72.871353149414,-51.240135192871,32.53785760871695,10.433805419929,2769148246
iw,-72.0886077880859,-51.4543113708496,33.586318387300736,12.775462577769174,2769164913
iw,-71.297866821289,-51.6469001770019,34.53576038370951,12.816984188799838,2769181580
iw,-70.5385284423828,-51.8696746826171,35.31865959195755,11.564615879717719,2769198247
iw,-69.8749237060546,-52.1578330993652,35.96817764437517,10.14297679714112,2769214914
iw,-69.3209686279296,-52.4846420288085,36.54652216275022,9.619845699224147,2769231581
iw,-68.8539657592773,-52.8583679199218,37.02521098068476,10.829749457101842,2769248248
iw,-68.4274978637695,-53.2544021606445,37.15638579110324,14.229455532284796,2769264915
iw,-68.0237503051757,-53.6167984008789,36.3885098539438,19.819004506909607,2769281582
iw,-67.6469421386718,-54.0670700073242,33.87892603475399,27.157809305927145,2769298249
iw,-67.2886581420898,-54.8678512573242,28.633184540895837,35.48961360756743,2769314916
iw,-66.9517364501953,-56.0578346252441,19.75757256913285,43.95772340461813,2769331583
iw,-66.7290496826171,-57.7684364318847,6.760017300618945,51.84949111634446,2769348250
iw,-66.7213897705078,-59.4707717895507,-10.201841164337361,58.77919529119844,2769364917
iw,-67.1324081420898,-60.7467384338378,-30.22643750613869,64.7291960096192,2769381584
iw,-68.1698608398437,-61.7115440368652,-51.784147342671936,69.929920207162,2769398251
iw,-69.7776794433593,-62.7142257690429,-73.02300134951878,74.64267373215465,2769414918
iw,-71.7837600708007,-64.0706481933593,-92.16790095431678,78.96274225013597,2769431585
iw,-74.0385131835937,-65.7798995971679,-107.87879211439216,82.74502207615053,2769448252
iw,-76.3544769287109,-67.5858993530273,-119.45518875306308,85.67979216468082,2769464919
iw,-78.6916732788086,-69.3252182006836,-126.84650265588687,87.46274088383909,2769481586
iw,-80.9216079711914,-71.0284881591796,-130.50974764057926,87.96165787836712,2769498253
iw,-82.8620529174804,-72.592041015625,-131.20336184111696,87.29773890662351,2769514920
iw,-84.3724517822265,-73.9962005615234,-129.7996239008047,85.81160327775203,2769531587
iw,-85.1330490112304,-75.354377746582,-127.15594903418214,83.93987852102723,2769548254
iw,-84.7906036376953,-76.7384719848632,-124.04056161214106,82.06254813382886,2769564921
iw,-83.5692825317382,-78.1257858276367,-121.08381706180911,80.38402056447296,2769581588
iw,-81.9818801879882,-79.4863128662109,-118.72774476050088,78.88720334489103,2769598255
iw,-80.2617111206054,-80.835220336914,-117.16599014661735,77.36619768660272,2769614922
iw,-78.4524383544921,-82.1970443725586,-116.29088187580037,75.51668614335908,2769631589
iw,-76.4777526855468,-83.5250091552734,-115.67868029027262,73.05127565724601,2769648256
iw,-74.4686813354492,-84.7769699096679,-114.6387534829936,69.80742425245661,2769664923
iw,-72.5324325561523,-85.9318161010742,-112.33101430502633,65.82219259763532,2769681590
iw,-70.6741027832031,-86.9668807983398,-107.93243490768296,61.357145518557765,2769698257
iw,-68.9655685424804,-87.9141845703125,-100.82000260358983,56.86720450264752,2769714924
iw,-67.4502258300781,-88.7211456298828,-90.73533678790275,52.91869911153526,2769731591
iw,-66.0951614379882,-89.2712707519531,-77.8988735265483,50.07300843738078,2769748258
iw,-64.9167327880859,-89.0020141601562,-63.04412639828145,48.76097638271411,2769764925
iw,-64.04150390625,-88.2895965576171,-47.347010689994825,49.177758968897976,2769781592
iw,-63.487564086914,-87.4645690917968,-32.23881741512134,51.22623122258399,2769798259
iw,-63.2242736816406,-86.5608901977539,-19.119563710331168,54.52790428103525,2769814926
iw,-63.2879943847656,-85.5334091186523,-9.026904651814323,58.503072987874305,2769831593
iw,-63.6322021484375,-84.3909454345703,-2.34938807718213,62.49969383282031,2769848260
iw,-63.8586273193359,-83.0865097045898,1.3181253804488802,65.93018365412554,2769864927
iw,-63.878116607666,-81.7247161865234,3.108646374670977,68.36568866824379,2769881594
iw,-63.8924179077148,-80.4882278442382,4.603735184879845,69.5462586340342,2769898261
iw,-63.9932785034179,-79.3840408325195,7.412419991602884,69.29555324734461,2769914928
iw,-64.1681213378906,-78.4397888183593,12.729583901473653,67.37267326608116,2769931595
iw,-64.3973846435546,-77.6852340698242,21.00015677510258,63.33296161944404,2769948262
iw,-64.8114624023437,-77.0141296386718,31.782671484955497,56.48264574633982,2769964929
iw,-65.549934387207,-76.2607727050781,43.85191816064622,45.9858815157835,2769981596
iw,-66.8180160522461,-75.4555435180664,55.51744501651728,31.120577069672066,2769998263
iw,-68.3377304077148,-74.8539276123046,65.07249848657642,11.604418997175417,2770014930
iw,-70.0602416992187,-74.7550888061523,71.2441524397097,-12.138321764754878,2770031597
iw,-71.5802993774414,-75.2942733764648,73.51088576868383,-38.89371031977175,2770048264
iw,-72.8147964477539,-76.5077972412109,72.19683058631503,-66.81851822357261,2770064931
iw,-74.0347290039062,-78.3332138061523,68.32676026084346,-93.8079568414445,2770081598
iw,-75.0055160522461,-80.5314178466796,63.30125699128442,-117.95223751013326,2770098265
iw,-75.7813186645507,-82.6921768188476,58.50017272670568,-137.92980770572015,2770114932
iw,-76.618423461914,-83.9310455322265,54.9339721622712,-153.21226961101732,2770131599
iw,-77.3787078857421,-83.6044769287109,53.03898892019866,-164.03041903600013,2770148266
iw,-78.1147537231445,-82.3077316284179,52.661675798316246,-171.14011755682557,2770164933
iw,-79.0059051513671,-80.8482284545898,53.213210471231555,-175.49259763282214,2770181600
iw,-79.8152999877929,-79.1587753295898,53.92167929588013,-177.92981625219147,2770198267
iw,-80.4520492553711,-77.0445861816406,54.08588418729153,-178.990707193101,2770214934
iw,-80.8659362792968,-74.5852813720703,53.251291457594554,-178.85338469376242,2770231601
iw,-80.9948654174804,-72.0138244628906,51.27428291564077,-177.3859009346574,2770248268
iw,-80.9924392700195,-69.3261795043945,48.29033526677853,-174.2560430179368,2770264935
iw,-80.9237670898437,-66.5833587646484,44.63036739820321,-169.05703429964,2770281602
iw,-80.7105636596679,-64.0663375854492,40.72873085229629,-161.42316144024727,2770298269
iw,-80.3133468627929,-61.8825531005859,37.04646381898473,-151.12228451602058,2770314936
iw,-79.7948684692382,-59.8374557495117,34.012657433090574,-138.1187175127346,2770331603
iw,-79.2714767456054,-58.0083198547363,31.97695855080921,-122.60462447219302,2770348270
iw,-78.7596969604492,-56.4826393127441,31.167508086225492,-105.00292883089763,2770364937
iw,-78.2281646728515,-55.2204666137695,31.65493831398727,-85.94871402866019,2770381604
iw,-77.6427993774414,-54.207950592041,33.32923159959176,-66.2571951467646,2770398271
iw,-77.0058212280273,-53.4260559082031,35.89941658081117,-46.88187841948326,2770414938
iw,-76.3232345581054,-52.8983688354492,38.924412159633484,-28.856582103783882,2770431605
iw,-75.6348800659179,-52.6709976196289,41.87652939504775,-13.207011246707038,2770448272
iw,-74.9763565063476,-52.8185081481933,44.22976230120367,-0.8225087835604871,2770464939
iw,-74.3386993408203,-53.1006660461425,45.55717038018967,7.70049658193161,2770481606
iw,-73.7209396362304,-53.312328338623,45.61785813341481,12.206297907523641,2770498273
iw,-73.0986633300781,-53.5039596557617,44.41402126845256,13.070043276754557,2770514940
iw,-72.3958358764648,-53.6584968566894,42.20124671260444,11.192295183287085,2770531607
iw,-71.5838623046875,-53.8674812316894,39.44078143386259,7.886602715385559,2770548274
iw,-70.7511520385742,-54.1210403442382,36.691697500483116,4.675358950496672,2770564941
iw,-70.0097351074218,-54.3283309936523,34.454380168162466,3.027296379901929,2770581608
iw,-69.4757537841796,-54.5189895629882,32.993673857751695,4.081355958839292,2770598275
iw,-69.16064453125,-54.682144165039,32.18652689907772,8.411397336087449,2770614942
iw,-68.9495162963867,-54.8729133605957,31.44776120314194,15.892609293183412,2770631609
iw,-68.718521118164,-55.2772560119628,29.77991873404281,25.72316004659735,2770648276
iw,-68.4299774169921,-56.0813255310058,25.963932925385862,36.6227833425756,2770664943
iw,-68.13427734375,-57.4564132690429,18.86089898123759,47.17393349780025,2770681610
iw,-67.9039154052734,-59.2464332580566,7.7469680029225865,56.2087634667439,2770698277
iw,-67.9152297973632,-61.0015258789062,-7.424660224943151,63.10845657243664,2770714944
iw,-68.3490295410156,-62.3266983032226,-25.930373283251313,67.90069942436982,2770731611
iw,-69.3709259033203,-63.2994880676269,-46.39508948618537,71.1212837170941,2770748278
iw,-70.9466018676757,-64.2674865722656,-67.09019491916824,73.51194023490656,2770764945
iw,-72.9575881958007,-65.4719161987304,-86.30827452852897,75.69848651054667,2770781612
iw,-75.220474243164,-67.0634460449218,-102.68671192171102,77.98767172399057,2770798279
iw,-77.5699844360351,-68.7177581787109,-115.38592030770434,80.34470015823413,2770814946
iw,-79.8999938964843,-70.3167190551757,-124.10334006377896,82.51799956512599,2770831613
iw,-82.0896377563476,-71.9572525024414,-128.97653085254424,84.21903522589513,2770848280
iw,-83.9336929321289,-73.5527267456054,-130.45636506317808,85.26420369244808,2770864947
iw,-85.1586380004882,-75.0160903930664,-129.2070815435625,85.6263507733368,2770881614
iw,-85.3799285888671,-76.3902816772461,-126.04152339308807,85.39508457535183,2770898281
iw,-84.5626068115234,-77.7430191040039,-121.86319858496535,84.68518255588945,2770914948
iw,-83.1789016723632,-79.1180191040039,-117.5803593692804,83.54907257470391,2770931615
iw,-81.5472030639648,-80.5136947631836,-113.97784544116172,81.9394443716806,2770948282
iw,-79.9326477050781,-81.9398574829101,-111.56487788633505,79.7387766678324,2770964949
iw,-78.2807083129882,-83.3899002075195,-110.44416821066056,76.83965601041173,2770981616
iw,-76.4678802490234,-84.7974166870117,-110.2557728253942,73.23834834234678,2770998283
iw,-74.4849700927734,-86.1152191162109,-110.23157619287778,69.10048821012093,2771014950
iw,-72.5155715942382,-87.2662658691406,-109.358836953056,64.76927056787567,2771031617
iw,-70.6157760620117,-88.2593154907226,-106.6121701511553,60.70682950203765,2771048284
iw,-68.8824996948242,-89.1095733642578,-101.19261127803611,57.3823776150222,2771064951
iw,-67.3398513793945,-89.457160949707,-92.71661963984519,55.14002954428517,2771081618
iw,-65.966323852539,-88.8615112304687,-81.31725915124856,54.08893400017993,2771098285
iw,-64.7524032592773,-88.0312881469726,-67.63969714316423,54.054507950011995,2771114952
iw,-63.7512245178222,-87.120849609375,-52.727189211058125,54.612531330186734,2771131619
iw,-63.0828781127929,-86.1803283691406,-37.807258365542225,55.202128236156724,2771148286
iw,-62.9000854492187,-85.1012344360351,-24.010425784219564,55.28654938971045,2771164953
iw,-63.108543395996,-84.0034790039062,-12.086284680912195,54.51035862454422,2771181620
iw,-63.3748397827148,-82.9483489990234,-2.2074001557117784,52.7955179128187,2771198287
iw,-63.4983978271484,-81.9901885986328,6.055799217442601,50.33218165687472,2771214954
iw,-63.5818710327148,-81.2098770141601,13.55912855501998,47.452867519574454,2771231621
iw,-63.9145698547363,-80.6436080932617,21.25721826904177,44.422888670484966,2771248288
iw,-64.3597564697265,-80.1825637817382,29.837627901111347,41.2196758315822,2771264955
iw,-64.8439865112304,-79.7418975830078,39.44552147858686,37.39092931962836,2771281622
iw,-65.6418075561523,-79.2956390380859,49.595050557516736,32.06469703395315,2771298289
iw,-66.8255386352539,-78.8799438476562,59.300402676227606,24.13543498463591,2771314956
iw,-68.3106307983398,-78.4860916137695,67.38609009291604,12.58536165728891,2771331623
iw,-70.1406478881836,-78.2142562866211,72.87254249361317,-3.156355920143661,2771348290
iw,-71.9775466918945,-78.2161026000976,75.30206217259118,-22.94108423817082,2771364957
iw,-73.2784194946289,-78.8156585693359,74.88837662262785,-45.82252194304131,2771381624
iw,-74.4745254516601,-80.1524810791015,72.43835771385595,-70.21833387904914,2771398291
iw,-75.5918045043945,-81.9709930419921,69.08129596642307,-94.26776889342273,2771414958
iw,-76.460090637207,-83.7649917602539,65.91060054359869,-116.26219838536711,2771431625
iw,-77.3574523925781,-84.6690292358398,63.66637810841969,-134.99662589516936,2771448292
iw,-78.2822036743164,-83.8777542114257,62.56148192345385,-149.92866143503917,2771464959
iw,-79.1328582763671,-82.2743988037109,62.29379640267762,-161.11808409197488,2771481626
iw,-80.0802993774414,-80.6629180908203,62.21765088556265,-169.01062182803875,2771498293
iw,-80.9059066772461,-78.8735733032226,61.59409276210527,-174.17907873575368,2771514960
iw,-81.373062133789,-76.6679153442382,59.82403573412017,-177.12247614649314,2771531627
iw,-81.3937606811523,-74.2004776000976,56.5938610848465,-178.16601436151,2771548294
iw,-81.1360092163086,-71.6633377075195,51.913472095734825,-177.44477041091878,2771564961
iw,-80.7878265380859,-69.0188598632812,46.073380174059835,-174.92861369681668,2771581628
iw,-80.4023513793945,-66.3493499755859,39.56643429914948,-170.45767912724753,2771598295
iw,-79.9964981079101,-63.8439903259277,33.00832563714854,-163.7827247303811,2771614962
iw,-79.51416015625,-61.6179046630859,27.066041181380818,-154.61983696848182,2771631629
iw,-78.9651260375976,-59.5445251464843,22.385691239167656,-142.7286995132103,2771648296
iw,-78.4125671386718,-57.597183227539,19.509997856042336,-128.01345187315383,2771664963
iw,-77.8928451538086,-55.895751953125,18.787302422894047,-110.630927250303,2771681630
iw,-77.4100646972656,-54.4559478759765,20.28829423193674,-91.07827624527694,2771698297
iw,-76.930061340332,-53.3480834960937,23.75531103034831,-70.2270774405703,2771714964
iw,-76.4068984985351,-52.6230888366699,28.607934301859007,-49.277850795909124,2771731631
iw,-75.8484420776367,-52.2585220336914,34.01743198001331,-29.625953800135044,2771748298
iw,-75.2693328857421,-52.1014213562011,39.0444356028941,-12.6521717135461,2771764965
iw,-74.65576171875,-52.2162475585937,42.81532875415757,0.5266754843960202,2771781632
iw,-73.978759765625,-52.5855102539062,44.7000629178612,9.29465026475947,2771798299
iw,-73.2400894165039,-52.9205093383789,44.45070144451098,13.700516605196158,2771814966
iw,-72.4718246459961,-53.1745796203613,42.264469895197976,14.494364252485543,2771831633
iw,-71.6991500854492,-53.4971923828125,38.745303046459156,13.008893472104003,2771848300
iw,-71.0022735595703,-53.7646255493164,34.754628014107034,10.89849194792832,2771864967
iw,-70.5008010864257,-53.9703941345214,31.167850745256423,9.791666155095209,2771881634
iw,-70.2318420410156,-54.2142524719238,28.586403595902524,10.941094283750717,2771898301
iw,-70.0774612426757,-54.483829498291,27.086287509152367,14.962439689214943,2771914968
iw,-69.8870162963867,-54.7871589660644,26.09508894140097,21.736027597342648,2771931635
iw,-69.6192474365234,-55.4146575927734,24.464675890235505,30.50580326069716,2771948302
iw,-69.3053665161132,-56.6573219299316,20.745860906467104,40.15216617014367,2771964969
iw,-69.0093002319336,-58.4284591674804,13.595310370094502,49.55139219215404,2771981636
iw,-68.8815002441406,-60.2538604736328,2.1875723166763734,57.89045347814321,2771998303
iw,-69.1077194213867,-61.4736099243164,-13.505358841234854,64.81597486999662,2772014970
iw,-69.8388671875,-62.4127616882324,-32.66034561339065,70.37316152044966,2772031637
iw,-71.1287994384765,-63.4587020874023,-53.786864289602974,74.80003504572294,2772048304
iw,-72.9478073120117,-64.9347381591796,-75.07397040658451,78.31391288201257,2772064971
iw,-75.1935729980468,-66.7998809814453,-94.7727466243638,81.00976040713446,2772081638
iw,-77.7261047363281,-68.6751174926757,-111.48998148302623,82.89836127639651,2772098305
iw,-80.3276901245117,-70.3176956176757,-124.32802887381605,84.01556211497638,2772114972
iw,-82.8131866455078,-71.7629699707031,-132.88718659633957,84.4988625813946,2772131639
iw,-84.8181381225586,-73.1236190795898,-137.20087209711085,84.56807238356063,2772148306
iw,-85.7784042358398,-74.4789810180664,-137.67058684655487,84.42216986977164,2772164973
iw,-85.2134170532226,-75.8737640380859,-135.0203977971305,84.12045997960762,2772181640
iw,-83.7226867675781,-77.3640213012695,-130.24137700305127,83.52348084610391,2772198307
iw,-81.9751815795898,-78.8513793945312,-124.4805243751582,82.33334375619138,2772214974
iw,-80.1272964477539,-80.3437042236328,-118.85288203747464,80.22063613930143,2772231641
iw,-78.3397369384765,-81.7951126098632,-114.20135608354882,76.98417630408584,2772248308
iw,-76.7155075073242,-83.1749877929687,-110.8700059977851,72.67769999112481,2772264975
iw,-75.0559692382812,-84.4286346435546,-108.57375624174153,67.65408033862629,2772281642
iw,-73.2386169433593,-85.5321807861328,-106.43144713205437,62.510482106879806,2772298309
iw,-71.2983627319336,-86.4939041137695,-103.1810704449292,57.95153452272723,2772314976
iw,-69.4076461791992,-87.3441390991211,-97.53130979049912,54.611643559341566,2772331643
iw,-67.7562026977539,-88.1417465209961,-88.55017614605627,52.88806626883271,2772348310
iw,-66.3622131347656,-88.9799041748046,-75.97441497888168,52.833262028180116,2772364977
iw,-65.2231750488281,-90.0,-60.34671457636844,54.13934669980002,2772381644
iw,-64.3727188110351,-89.2310256958007,-42.936211982965304,56.221696798558014,2772398311
iw,-63.9930534362793,-88.1008148193359,-25.453713367646188,58.37857735156107,2772414978
iw,-64.2278518676757,-86.9212646484375,-9.62834655092623,59.97773144924433,2772431645
iw,-64.7796783447265,-85.6887054443359,3.238799376827062,60.60805603094313,2772448312
iw,-65.330322265625,-84.5211715698242,12.603818455109323,60.141073347530025,2772464979
iw,-65.5734024047851,-83.5410842895507,18.776345418830875,58.674347873047765,2772481646
iw,-65.7436065673828,-82.7454223632812,22.747535281826696,56.37152191894777,2772498313
iw,-66.0870132446289,-82.0312423706054,25.81699764774389,53.25703796207678,2772514980
iw,-66.5725021362304,-81.3860778808593,29.158664525991913,49.04928433138214,2772531647
iw,-67.05224609375,-80.8072891235351,33.47503388277171,43.11053916913181,2772548314
iw,-67.6998443603515,-80.2691802978515,38.84324039050474,34.555581153334195,2772564981
iw,-68.652114868164,-79.7779769897461,44.78443866502625,22.50541628077534,2772581648
iw,-69.9463119506836,-79.438491821289,50.51436854890368,6.416340147048133,2772598315
iw,-71.5154571533203,-79.3678512573242,55.2740353603055,-13.62367958686381,2772614982
iw,-72.8450164794921,-79.6738128662109,58.61369187056509,-36.74383471833936,2772631649
iw,-73.8377380371093,-80.5704956054687,60.52691029063197,-61.36051758884112,2772648316
iw,-74.8604202270507,-82.1350326538086,61.39933483528073,-85.47320250165853,2772664983
iw,-75.8844375610351,-84.0692520141601,61.815433823067664,-107.10652460827158,2772681650
iw,-76.9095458984375,-85.3002700805664,62.31609991581796,-124.7560665290549,2772698317
iw,-78.0170593261718,-84.574478149414,63.202688667241716,-137.68760243396508,2772714984
iw,-79.1182174682617,-82.5391464233398,64.44955808967774,-145.99794382348463,2772731651
iw,-80.1589736938476,-80.4923629760742,65.73907428212085,-150.4439402944806,2772748318
iw,-81.1789779663086,-78.710464477539,66.58945407650735,-152.13230989859156,2772764985
iw,-82.0629119873046,-76.9169616699218,66.52006309983963,-152.19247058211917,2772781652
iw,-82.6999206542968,-74.99560546875,65.19694227831455,-151.52259684903342,2772798319
iw,-82.9714431762695,-73.0300598144531,62.52029381406032,-150.64150584082566,2772814986
iw,-82.9207763671875,-70.9503402709961,58.64415289842743,-149.63895184785122,2772831653
iw,-82.5940017700195,-68.6568374633789,53.94190174056121,-148.20840749952305,2772848320
iw,-82.0617980957031,-66.2500610351562,48.93983766237615,-145.75051801304656,2772864987
iw,-81.4006118774414,-64.098892211914,44.236088419505215,-141.53040934449822,2772881654
iw,-80.6345672607421,-62.1177177429199,40.41383020998375,-134.85837515921986,2772898321
iw,-79.8862533569336,-60.2064704895019,37.954768843196646,-125.25618849997286,2772914988
iw,-79.1999816894531,-58.4440460205078,37.161710844319806,-112.5778379658162,2772931655
iw,-78.512336730957,-56.9437713623046,38.102357087100515,-97.06861098261219,2772948322
iw,-77.8056335449218,-55.7108726501464,40.585970100525756,-79.36238605329726,2772964989
iw,-77.0625305175781,-54.7834854125976,44.18044092579391,-60.42840763865146,2772981656
iw,-76.2499771118164,-54.0990943908691,48.27096343571592,-41.48110595913657,2772998323
iw,-75.3748245239257,-53.6331405639648,52.153235611356145,-23.858740292017877,2773014990
iw,-74.4602279663086,-53.4813537597656,55.14522624523928,-8.866662342798035,2773031657
iw,-73.5205917358398,-53.6474113464355,56.696279398381186,2.4173386086132487,2773048324
iw,-72.5554733276367,-54.1126747131347,56.47379344735429,9.356990204488547,2773064991
iw,-71.5683059692382,-54.5065956115722,54.41383330706577,11.940477612652192,2773081658
iw,-70.5973281860351,-54.8084182739257,50.72767356374101,10.862862571686376,2773098325
iw,-69.6697845458984,-54.972484588623,45.85877030641152,7.4517319757420815,2773114992
iw,-68.8639144897461,-55.0773811340332,40.38646462395382,3.4258044102552594,2773131659
iw,-68.2518768310546,-55.0525474548339,34.87944835506183,0.5352034995442896,2773148326
iw,-67.8380432128906,-55.0435256958007,29.717885366753165,0.17841874312562522,2773164993
iw,-67.6156158447265,-55.1347885131835,24.925895427255327,3.1064010670047035,2773181660
iw,-67.5029983520507,-55.3431015014648,20.07497392283466,9.302840436465297,2773198327
iw,-67.4162216186523,-55.9108848571777,14.317776328037844,18.077035836067523,2773214994
iw,-67.3202209472656,-56.9617385864257,6.579113802900148,28.336397297374976,2773231661
iw,-67.2740783691406,-58.5162544250488,-4.1282238830132885,38.940752382904854,2773248328
iw,-67.4362411499023,-59.9831390380859,-18.35606116440811,49.00695127889679,2773264995
iw,-68.031982421875,-61.0241889953613,-35.96376622232585,58.05392379839525,2773281662
iw,-69.2097549438476,-61.8970947265625,-56.04923575404869,65.956439259269,2773298329
iw,-70.9747543334961,-62.9898147583007,-77.09629517553313,72.77250619769781,2773314996
iw,-73.1914749145507,-64.4337310791015,-97.28544925541208,78.5650051448943,2773331663
iw,-75.6090774536132,-66.2130050659179,-114.86177990449997,83.31748740055976,2773348330
iw,-78.0588226318359,-68.0473022460937,-128.45335400071033,86.96649948915883,2773364997
iw,-80.540657043457,-69.8033447265625,-137.27742078322458,89.49514161293924,2773381664
iw,-82.6734619140625,-71.3797912597656,-141.2238205645008,91.00354946110745,2773398331
iw,-84.1593704223632,-72.8246612548828,-140.83184975533797,91.70066765968944,2773414998
iw,-84.7422332763671,-74.2348175048828,-137.17551200563605,91.82004990296622,2773431665
iw,-84.3655700683593,-75.7477111816406,-131.66540925383123,91.51071409094378,2773448332
iw,-83.3392105102539,-77.3518371582031,-125.78329871678326,90.76634311982872,2773464999
iw,-81.9105148315429,-78.9274063110351,-120.78719584225466,89.43176711521707,2773481666
iw,-80.1823272705078,-80.4310455322265,-117.44601995487352,87.28451349258054,2773498333
iw,-78.4012832641601,-81.906867980957,-115.8683635358318,84.15548848275606,2773515000
iw,-76.5061416625976,-83.362060546875,-115.47471063512982,80.04000786830319,2773531667
iw,-74.4814071655273,-84.7188034057617,-115.13046276413392,75.15774846212693,2773548334
iw,-72.4086456298828,-85.8784942626953,-113.41690306269363,69.94020970128014,2773565001
iw,-70.4196472167968,-86.8673706054687,-108.97944819261501,64.94926918618785,2773581668
iw,-68.6032180786132,-87.7504959106445,-100.86968409626179,60.752924550945316,2773598335
iw,-67.0174560546875,-88.4869079589843,-88.79811706440731,57.79670366903228,2773615002
iw,-65.6593246459961,-88.886360168457,-73.23597242978073,56.30744058212413,2773631669
iw,-64.5811004638671,-88.5906982421875,-55.33706578814395,56.252918771954505,2773648336
iw,-63.9653778076171,-87.8316497802734,-36.688052296284596,57.36304582101629,2773665003
iw,-63.9462127685546,-86.9080734252929,-18.93711391006703,59.20103628044517,2773681670
iw,-64.4192886352539,-85.7704772949218,-3.3946505094046717,61.25882284074305,2773698337
iw,-64.9380645751953,-84.5695343017578,9.272123256942804,63.04178574204227,2773715004
iw,-65.2596740722656,-83.4014739990234,19.142396188270574,64.10880517124339,2773731671
iw,-65.4685668945312,-82.362548828125,26.901920769851973,64.05026725288907,2773748338
iw,-65.9184036254882,-81.5201110839843,33.515196126295145,62.4181708814582,2773765005
iw,-66.5717849731445,-80.8163986206054,39.83802231696489,58.655980123469064,2773781672
iw,-67.2830734252929,-80.0869216918945,46.312100697242826,52.09056638911426,2773798339
iw,-68.1620407104492,-79.2759704589843,52.84001731465861,42.029186195016834,2773815006
iw,-69.2440109252929,-78.5823059082031,58.86912455405515,27.954473549649908,2773831673
iw,-70.5918884277343,-78.2332229614257,63.6439333285773,9.754623446464418,2773848340
iw,-72.2935791015625,-78.2638244628906,66.53337694898813,-12.104089090739356,2773865007
iw,-73.7742233276367,-78.7042236328125,67.31293275470588,-36.54291307791531,2773881674
iw,-75.0086059570312,-79.6890335083007,66.29423910953666,-62.00744887294038,2773898341
iw,-76.1062316894531,-81.1791076660156,64.24961005841993,-86.74794677320189,2773915008
iw,-76.9932785034179,-82.900161743164,62.15829942774984,-109.16283009696559,2773931675
iw,-77.7693786621093,-84.1932601928711,60.872269181118256,-128.09918566220628,2773948342
iw,-78.4861297607421,-84.198501586914,60.83122853889524,-143.01707983152437,2773965009
iw,-79.2382583618164,-83.0008163452148,61.936363854763464,-153.97597475877575,2773981676
iw,-80.2171936035156,-81.5003128051757,63.62609833838102,-161.47045765901956,2773998343
iw,-81.293960571289,-79.878677368164,65.11172306832567,-166.19515924173913,2774015010
iw,-82.1812133789062,-77.950325012207,65.66552656165382,-168.82827287248213,2774031677
iw,-82.6031723022461,-75.7013320922851,64.84287502264002,-169.8890347505123,2774048344
iw,-82.5413360595703,-73.3670120239257,62.56679996616494,-169.67449530840287,2774065011
iw,-82.1869125366211,-70.9539566040039,59.077789789029005,-168.24940910209114,2774081678
iw,-81.6746139526367,-68.4126052856445,54.80761055515319,-165.46430037276232,2774098345
iw,-81.0560073852539,-65.9088363647461,50.24759178974425,-160.99639363306247,2774115012
iw,-80.3804779052734,-63.5548782348632,45.85575488375945,-154.421276400927,2774131679
iw,-79.6959075927734,-61.3689079284668,42.01074074510278,-145.31852941556383,2774148346
iw,-79.0265731811523,-59.2433967590332,38.996820942912386,-133.3990934443393,2774165013
iw,-78.3564071655273,-57.3386001586914,36.99896131612646,-118.62812729711769,2774181680
iw,-77.6790618896484,-55.7001266479492,36.093230574961964,-101.31198787843547,2774198347
iw,-76.9926376342773,-54.3811988830566,36.22838563712287,-82.1237506998333,2774215014
iw,-76.2837982177734,-53.3751411437988,37.20548283332896,-62.0557935205407,2774231681
iw,-75.5333099365234,-52.6845512390136,38.6708361254966,-42.30422153840728,2774248348
iw,-74.7760238647461,-52.3797149658203,40.139429963057054,-24.103206095101456,2774265015
iw,-74.0044174194336,-52.3028450012207,41.05846453434847,-8.536758082804644,2774281682
iw,-73.2162475585937,-52.3906097412109,40.906197435916894,3.638550862246357,2774298349
iw,-72.4237060546875,-52.6091499328613,39.305759239108674,12.125411285159442,2774315016
iw,-71.6167068481445,-52.9073905944824,36.12351150364632,17.142967945283846,2774331683
iw,-70.8018951416015,-53.2820663452148,31.519923955655994,19.39081488299624,2774348350
iw,-70.0563812255859,-53.7409934997558,25.92757232417828,19.91641656173673,2774365017
iw,-69.4925308227539,-54.0796089172363,19.944964408092204,19.903780126153947,2774381684
iw,-69.155532836914,-54.4624214172363,14.157263483928045,20.427095681912483,2774398351
iw,-69.0657958984375,-54.897834777832,8.924490954693532,22.233944575275448,2774415018
iw,-69.1344528198242,-55.3037414550781,4.205459095518662,25.624151148824165,2774431685
iw,-69.2348175048828,-55.8439445495605,-0.5055514258847177,30.464902288385662,2774448352
iw,-69.3026275634765,-57.0529632568359,-6.07771901885363,36.33552761934597,2774465019
iw,-69.3666305541992,-58.8011474609375,-13.485743258363856,42.74065767678944,2774481686
iw,-69.5698852539062,-60.2430686950683,-23.473556995250327,49.29212334126526,2774498353
iw,-70.0892105102539,-61.0258140563964,-36.26511980321191,55.76985466429291,2774515020
iw,-71.0888290405273,-61.7217712402343,-51.44005903742554,62.043672509079066,2774531687
iw,-72.6860961914062,-62.7128105163574,-68.02487034091502,67.9330320252183,2774548354
iw,-74.7341690063476,-64.198257446289,-84.75327779080983,73.12779037164815,2774565021
iw,-76.9424972534179,-66.1149673461914,-100.37421605206026,77.24919846663624,2774581688
iw,-79.2262573242187,-68.0433273315429,-113.87810317528084,80.02794416966681,2774598355
iw,-81.5221939086914,-69.8049240112304,-124.57741206260188,81.48948102579332,2774615022
iw,-83.5985641479492,-71.3260650634765,-132.071799787644,82.02307432276747,2774631689
iw,-84.9550399780273,-72.6114959716796,-136.18670045570656,82.27425525399634,2774648356
iw,-84.9777755737304,-73.81591796875,-136.9622321440101,82.89827589352592,2774665023
iw,-83.6884460449218,-75.1454162597656,-134.7046177575907,84.28714326041995,2774681690
iw,-81.8280258178711,-76.6453018188476,-130.04532562397227,86.39585288157339,2774698357
iw,-79.9084854125976,-78.1905899047851,-123.92706261577935,88.74335700290281,2774715024
iw,-78.0650024414062,-79.8209686279296,-117.46324706181208,90.58346253229595,2774731691
iw,-76.4380569458007,-81.542121887207,-111.6809292647021,91.17272293164237,2774748358
iw,-74.9782791137695,-83.2645111083984,-107.22286753218651,90.03256129527452,2774765025
iw,-73.3923797607421,-84.8323287963867,-104.12036284461433,87.1138059665236,2774781692
iw,-71.6160736083984,-86.1139984130859,-101.73560593541205,82.81181755119667,2774798359
iw,-69.7242660522461,-87.0650863647461,-98.91320038962552,77.83328391870525,2774815026
iw,-67.9274444580078,-87.678466796875,-94.30152818264519,72.96469310605289,2774831693
iw,-66.3359985351562,-87.9155044555664,-86.74366038747597,68.82270979440351,2774848360
iw,-64.9560775756836,-87.7526626586914,-75.61973741113724,65.66984148941262,2774865027
iw,-63.7991981506347,-87.2366485595703,-61.04597835175707,63.355537372066024,2774881694
iw,-62.9259529113769,-86.4297714233398,-43.880017874266066,61.40142104490053,2774898361
iw,-62.5061302185058,-85.4423370361328,-25.531564628215754,59.201813536144115,2774915028
iw,-62.6262664794921,-84.3445968627929,-7.62618031473694,56.270264056067845,2774931695
iw,-63.1461601257324,-83.2605590820312,8.385651844272298,52.442115339628465,2774948362
iw,-63.7762641906738,-82.3223876953125,21.556559685266798,47.951524756982174,2774965029
iw,-64.2880554199218,-81.6109619140625,31.603658775244124,43.34059860772721,2774981696
iw,-64.7833786010742,-81.1235885620117,38.85841667007488,39.21888304613138,2774998363
iw,-65.4680404663086,-80.8154754638671,44.040756738776075,35.95288226042327,2775015030
iw,-66.2707748413086,-80.5618667602539,47.9549288039947,33.40253789351239,2775031697
iw,-67.0459518432617,-80.1875686645507,51.220207704776875,30.81617087390526,2775048364
iw,-67.9082107543945,-79.6916427612304,54.12143210456618,26.94491227845035,2775065031
iw,-69.0451583862304,-79.1896286010742,56.613302168352874,20.359253954680856,2775081698
iw,-70.2740859985351,-78.7737579345703,58.45698213870796,9.874522723722986,2775098365
iw,-71.8109741210937,-78.5415725708007,59.421872728134076,-5.051509464901775,2775115032
iw,-73.1284561157226,-78.7150039672851,59.464130440057396,-24.081704239724175,2775131699
iw,-74.1086349487304,-79.3925247192382,58.80762712248539,-46.007334211643546,2775148366
iw,-75.2225265502929,-80.5975723266601,57.89810209593449,-69.00711811001356,2775165033
iw,-76.2289123535156,-82.2975769042968,57.254991151476624,-91.08224900521077,2775181700
iw,-77.1574554443359,-84.1991348266601,57.282771819316885,-110.5327317223851,2775198367
iw,-78.0582962036132,-85.5448226928711,58.11424467130491,-126.32494929094186,2775215034
iw,-78.962776184082,-85.1042709350586,59.544987249707404,-138.23764637183697,2775231701
iw,-79.9427108764648,-83.3691329956054,61.0858986030851,-146.7537837640178,2775248368
iw,-80.9577331542968,-81.4820098876953,62.116154825451005,-152.7596020694091,2775265035
iw,-81.8710479736328,-79.6109466552734,62.07861031305865,-157.178128017536,2775281702
iw,-82.5827560424804,-77.5896911621093,60.644252690400016,-160.6698146285827,2775298369
iw,-82.9936447143554,-75.4331665039062,57.790170459495684,-163.47970661058923,2775315036
iw,-83.029541015625,-73.1690673828125,53.775455319223816,-165.4365468250177,2775331703
iw,-82.7566528320312,-70.75390625,49.03960622161474,-166.0586664928001,2775348370
iw,-82.2842559814453,-68.1754608154296,44.0708033738468,-164.7102202180294,2775365037
iw,-81.7193756103515,-65.5999069213867,39.291845373908934,-160.7641219681642,2775381704
iw,-81.1296691894531,-63.1872978210449,34.995214216692275,-153.74338688039379,2775398371
iw,-80.5645599365234,-60.9583129882812,31.335755345193938,-143.42244326919823,2775415038
iw,-80.0755996704101,-58.8452644348144,28.368855605738222,-129.87756249814007,2775431705
iw,-79.578857421875,-57.0297584533691,26.109072659179276,-113.48454567882204,2775448372
iw,-79.0402374267578,-55.5663375854492,24.580984656690916,-94.87273963470801,2775465039
iw,-78.4832534790039,-54.4292602539062,23.840574683770317,-74.8552768134723,2775481706
iw,-77.911506652832,-53.6024703979492,23.959361657732625,-54.3602573444435,2775498373
iw,-77.3460083007812,-53.0315170288085,24.979705704337743,-34.37934925814505,2775515040
iw,-76.8106002807617,-52.6679153442382,26.862209665042922,-15.929653720957948,2775531707
iw,-76.3328399658203,-52.602725982666,29.450339361505577,-0.004403886762414294,2775548374
iw,-75.867446899414,-52.8610687255859,32.471755248901275,12.515003759119772,2775565041
iw,-75.3012924194336,-53.3305282592773,35.58242097471187,20.99192240849749,2775581708
iw,-74.5799179077148,-53.8038101196289,38.443270649941475,25.183775181075493,2775598375
iw,-73.7408294677734,-54.1543388366699,40.80576606515218,25.353613923636104,2775615042
iw,-72.864013671875,-54.4327354431152,42.57609314513585,22.291317522804125,2775631709
iw,-72.0478210449218,-54.7449111938476,43.82941912911182,17.220050396397326,2775648376
iw,-71.3138198852539,-55.0504646301269,44.755303546776595,11.601569928113454,2775665043
iw,-70.6717071533203,-55.2121849060058,45.53315291430354,6.883961733417382,2775681710
iw,-70.1731338500976,-55.3243446350097,46.162845603268835,4.250746493973089,2775698377
iw,-69.7730484008789,-55.4586372375488,46.30595506474457,4.432024981953964,2775715044
iw,-69.366470336914,-55.6984405517578,45.21304704203093,7.625326755352638,2775731711
iw,-68.8675537109375,-56.1460266113281,41.80228591049389,13.543644833365828,2775748378
iw,-68.3401107788086,-56.9646224975585,34.904705014094155,21.566613388862258,2775765045
iw,-67.8985290527343,-57.9729995727539,23.618124193311203,30.93499412285051,2775781712
iw,-67.6532211303711,-59.0737876892089,7.651734926437948,40.91758324267588,2775798379
iw,-67.7625961303711,-60.0917129516601,-12.469205973147549,50.901541667854445,2775815046
iw,-68.4683151245117,-61.0813255310058,-35.42496964771118,60.402324229773996,2775831713
iw,-69.8288879394531,-62.3101234436035,-59.352943427664144,69.03286346438476,2775848380
iw,-71.7396774291992,-63.8665466308593,-82.24592506484872,76.4863066166418,2775865047
iw,-73.976806640625,-65.6767654418945,-102.35928474552587,82.56199093261425,2775881714
iw,-76.3742523193359,-67.4886093139648,-118.49371559804017,87.2178692441865,2775898381
iw,-78.7487030029296,-69.1489639282226,-130.08544403346858,90.59943924399792,2775915048
iw,-81.1385345458984,-70.7127838134765,-137.1283189968084,93.00110288730956,2775931715
iw,-83.2863006591796,-72.2943496704101,-140.0182428160407,94.75603091055576,2775948382
iw,-84.8828201293945,-73.9022750854492,-139.41302774226017,96.0952272840273,2775965049
iw,-85.3883666992187,-75.5507049560546,-136.14907950856414,97.03659267464869,2775981716
iw,-84.6991729736328,-77.2387771606445,-131.19473074565184,97.35251502859347,2775998383
iw,-83.3178634643554,-78.9176635742187,-125.5897872736656,96.63188265709051,2776015050
iw,-81.6197891235351,-80.550796508789,-120.33291013221056,94.41732880249701,2776031717
iw,-79.9047470092773,-82.1667938232421,-116.21638299884819,90.37408440994552,2776048384
iw,-78.2087097167968,-83.7481842041015,-113.64688302008885,84.43837625784671,2776065051
iw,-76.4229202270507,-85.1844406127929,-112.51287393832328,76.8999492009361,2776081718
iw,-74.4960632324218,-86.3714065551757,-112.15575795543415,68.39125706343793,2776098385
iw,-72.5248413085937,-87.2896423339843,-111.4739771260534,59.781007772982065,2776115052
iw,-70.6091003417968,-87.9909439086914,-109.14840516364535,51.99685728185706,2776131719
iw,-68.8171310424804,-88.5330047607421,-103.9413795418904,45.82366349904269,2776148386
iw,-67.1682586669921,-88.9051437377929,-95.0028266493013,41.732355703214566,2776165053
iw,-65.7003707885742,-88.9595794677734,-82.11493301417177,39.78688793314812,2776181720
iw,-64.4361572265625,-88.6106872558593,-65.81512356538919,39.65545365187756,2776198387
iw,-63.4689865112304,-88.0144577026367,-47.35340368166158,40.72346221359261,2776215054
iw,-62.9987411499023,-87.2735137939453,-28.46927799606628,42.277287885478266,2776231721
iw,-63.0858764648437,-86.4242324829101,-11.01980548257644,43.70686644126235,2776248388
iw,-63.5364227294921,-85.5623931884765,3.4541988801717776,44.6677623903051,2776265055
iw,-64.0853424072265,-84.7343063354492,14.097162290106265,45.15231994743474,2776281722
iw,-64.4588088989257,-83.9288558959961,20.921617720863026,45.44351150218792,2776298389
iw,-64.7322463989257,-83.147720336914,24.742901089570108,45.95791361420826,2776315056
iw,-65.2103729248046,-82.410285949707,26.891783971306772,47.016940363278145,2776331723
iw,-65.814453125,-81.7331161499023,28.80362591158749,48.61002023653451,2776348390
iw,-66.3612365722656,-81.0736846923828,31.60974648863977,50.224360288101245,2776365057
iw,-66.7510833740234,-80.4140930175781,35.84237344967286,50.809194698420285,2776381724
iw,-67.2189712524414,-79.7142257690429,41.3293244979278,48.914941284513844,2776398391
iw,-68.2681045532226,-78.9240646362304,47.30738055307654,43.00061646061655,2776415058
iw,-69.5467758178711,-78.1190872192382,52.720992535991925,31.845373447088747,2776431725
iw,-71.0535812377929,-77.4951095581054,56.60623847037506,14.95036362048978,2776448392
iw,-72.4364624023437,-77.3119430541992,58.4223173399142,-7.2020270685799535,2776465059
iw,-73.4436340332031,-77.6890487670898,58.21332406963731,-33.1367303335924,2776481726
iw,-74.3544845581054,-78.7353134155273,56.555317544196946,-60.654405519019676,2776498393
iw,-75.3093185424804,-80.4541244506836,54.328712433185345,-87.31642304205128,2776515060
iw,-76.0667419433593,-82.4853744506836,52.41292053816093,-111.00164403849415,2776531727
iw,-76.8399124145507,-84.0787734985351,51.41290397564513,-130.3573748217692,2776548394
iw,-77.7122573852539,-84.3730163574218,51.50369640838084,-145.00133305288645,2776565061
iw,-78.6074676513671,-83.3491973876953,52.432524592430326,-155.4238870216508,2776581728
iw,-79.566780090332,-81.9425888061523,53.66137644022705,-162.65182520462812,2776598395
iw,-80.4777603149414,-80.3882064819336,54.58372221359293,-167.81565414856755,2776615062
iw,-81.2311935424804,-78.4858856201171,54.72858422525164,-171.77650332490484,2776631729
iw,-81.7080307006836,-76.2060165405273,53.88231298726235,-174.9172235092243,2776648396
iw,-81.8667297363281,-73.7565383911132,52.1020539544317,-177.1208570828405,2776665063
iw,-81.7926406860351,-71.1135101318359,49.641046359838555,-177.8930292256264,2776681730
iw,-81.5258560180664,-68.3560638427734,46.833441368790204,-176.55730561788496,2776698397
iw,-81.1083068847656,-65.6284027099609,43.98811522654525,-172.4589857831399,2776715064
iw,-80.5982818603515,-63.06494140625,41.32384353437305,-165.13324708957725,2776731731
iw,-80.0453491210937,-60.6870651245117,38.954626031487614,-154.41320308222353,2776748398
iw,-79.5298080444336,-58.4782104492187,36.91401500423113,-140.46878928326163,2776765065
iw,-79.0410232543945,-56.52681350708,35.19656576342844,-123.78038722294917,2776781732
iw,-78.5009536743164,-54.9273529052734,33.7945766933159,-105.06319786882555,2776798399
iw,-77.8831100463867,-53.6876487731933,32.71677313474458,-85.16850695356133,2776815066
iw,-77.2147598266601,-52.7560653686523,31.987127256952462,-64.99193373799882,2776831733
iw,-76.536018371582,-52.0908279418945,31.63084849637963,-45.41126473838488,2776848400
iw,-75.8878631591796,-51.6467399597168,31.657317243517817,-27.257305555716787,2776865067
iw,-75.284309387207,-51.4290351867675,32.04682547533727,-11.299098773479656,2776881734
iw,-74.7005538940429,-51.4094810485839,32.743362563430374,1.7866847385412938,2776898401
iw,-74.1168594360351,-51.6427688598632,33.65360264104519,11.484443604823594,2776915068
iw,-73.5001754760742,-52.0661468505859,34.6535309514684,17.54314386780962,2776931735
iw,-72.8104019165039,-52.4645195007324,35.605751301786896,20.081073801381464,2776948402
iw,-72.0563278198242,-52.7347984313964,36.388542936839066,19.641896298383156,2776965069
iw,-71.2412948608398,-52.9615249633789,36.93030411181259,17.162098426558256,2776981736
iw,-70.4051971435546,-53.2768173217773,37.232069292029145,13.841769679125246,2776998403
iw,-69.6480865478515,-53.6752128601074,37.353500186601245,10.944510911817918,2777015070
iw,-69.0743789672851,-53.9872932434082,37.34432587793869,9.571371076760887,2777031737
iw,-68.6634521484375,-54.2218780517578,37.128214046587026,10.457884564450177,2777048404
iw,-68.3035354614257,-54.461441040039,36.380245918398444,13.841564687588896,2777065071
iw,-67.9638061523437,-54.8406600952148,34.462133673417725,19.440532952511717,2777081738
iw,-67.6473693847656,-55.5365447998046,30.472703208157146,26.562801299197265,2777098405
iw,-67.3270416259765,-56.5018234252929,23.431624863369944,34.32561571214219,2777115072
iw,-67.0667953491211,-57.778392791748,12.557074871412771,41.9184435773255,2777131739
