Label,Left_Hip_q,Right_Hip_q,Left_Hip_qd,Right_Hip_qd,SampleTimeFine
iw,-66.3190155029296,-55.5508384704589,25.7847518920898,57.1245346069335,2661162753
iw,-66.1616134643554,-57.0258598327636,18.868537812541476,66.57073226072285,2661179420
iw,-66.3054656982421,-58.3064842224121,-11.262242883252203,65.15796319159482,2661196087
iw,-66.9813690185546,-59.2174072265625,-40.056858331928446,64.88412416457584,2661212754
iw,-68.2861709594726,-60.1110191345214,-66.28414670355814,66.57254439180726,2661229421
iw,-70.1180801391601,-61.4040908813476,-88.98964582510735,70.40435408784772,2661246088
iw,-72.3273773193359,-63.2287979125976,-107.59212009373411,75.91529581821136,2661262755
iw,-74.7141418457031,-65.2525405883789,-121.9058561538014,82.21832548834018,2661279422
iw,-77.1324234008789,-67.1344757080078,-132.07017188500737,88.33502645640615,2661296089
iw,-79.5591201782226,-68.8737411499023,-138.41543310490547,93.48571943458445,2661312756
iw,-81.7777709960937,-70.5360260009765,-141.33596313071894,97.23212609817179,2661329423
iw,-83.512939453125,-72.154426574707,-141.23720442045115,99.4535530644279,2661346090
iw,-84.3690109252929,-73.799934387207,-138.57381341540332,100.21471339895227,2661362757
iw,-84.1317825317382,-75.5170516967773,-133.93241210045187,99.61538772695566,2661379424
iw,-83.0860519409179,-77.2316207885742,-128.0806796695335,97.6963558591025,2661396091
iw,-81.6144714355468,-78.8760070800781,-121.9209863934124,94.43280874483,2661412758
iw,-80.009162902832,-80.457290649414,-116.33762317046578,89.80212833782403,2661429425
iw,-78.5242080688476,-81.9950408935546,-111.98273805608923,83.88539978591969,2661446092
iw,-76.9463272094726,-83.4564132690429,-109.08184810449714,76.95519012212779,2661462759
iw,-75.1107101440429,-84.7571640014648,-107.34050957855034,69.51059516847076,2661479426
iw,-73.0885848999023,-85.8665390014648,-105.99728748254284,62.23809263086405,2661496093
iw,-71.1082305908203,-86.828369140625,-104.00983893157773,55.899603421504466,2661512760
iw,-69.2990341186523,-87.6743469238281,-100.31122189871998,51.17340068951818,2661529427
iw,-67.7245635986328,-88.436897277832,-94.05862466914368,48.49259011733014,2661546094
iw,-66.3662490844726,-89.2829055786132,-84.81741573052398,47.93230293214032,2661562761
iw,-65.1767807006836,-89.8208694458007,-72.65704475480356,49.185547882160016,2661579428
iw,-64.1529312133789,-88.8697891235351,-58.15771732451928,51.64019903254888,2661596095
iw,-63.3718948364257,-87.902114868164,-42.3312246557267,54.53567766968204,2661612762
iw,-62.8824043273925,-86.8681259155273,-26.4575805377011,57.15220310625025,2661629429
iw,-62.7781600952148,-85.8257980346679,-11.847985042703028,58.978288561810444,2661646096
iw,-63.173225402832,-84.7904510498046,0.4295563672251424,59.812924733319996,2661662763
iw,-63.6697998046875,-83.7039108276367,9.794481507639617,59.77900843512859,2661679430
iw,-64.0253372192382,-82.6444396972656,16.28809290241307,59.245062894427825,2661696097
iw,-64.3156509399414,-81.6400375366211,20.543757057086918,58.66954638432246,2661712764
iw,-64.7828903198242,-80.6996765136718,23.594311651371353,58.39771058240706,2661729431
iw,-65.3768539428711,-79.848518371582,26.573586562204667,58.45667414565221,2661746098
iw,-65.9136276245117,-79.0607528686523,30.397222375433437,58.40652968713552,2661762765
iw,-66.2728500366211,-78.2610168457031,35.50815055043136,57.305506108325915,2661779432
iw,-66.7568664550781,-77.4615936279296,41.75742263641854,53.82787533656779,2661796099
iw,-67.6913833618164,-76.668830871582,48.463569613439724,46.533855574325685,2661812766
iw,-68.9768753051757,-75.9198455810546,54.64455231085615,34.24036323404906,2661829433
iw,-70.5405044555664,-75.3523941040039,59.35158448231421,16.396643422243596,2661846100
iw,-71.8861007690429,-75.1603546142578,61.98577457972897,-6.652073880717319,2661862767
iw,-72.8857116699218,-75.501106262207,62.481298118286404,-33.61304048493494,2661879434
iw,-73.9421081542968,-76.5496978759765,61.296416369731666,-62.45013568477355,2661896101
iw,-74.9940948486328,-78.3436889648437,59.23299470412398,-90.80446921151264,2661912768
iw,-75.7549667358398,-80.5432510375976,57.16462285981958,-116.51193251939107,2661929435
iw,-76.5538253784179,-82.6619262695312,55.77370200167679,-138.05500957420657,2661946102
iw,-77.3687896728515,-83.8591766357421,55.38283539537707,-154.8045311422168,2661962769
iw,-78.1410369873046,-83.617431640625,55.925079238398375,-166.98525429794404,2661979436
iw,-79.0164947509765,-82.696418762207,57.04279028552438,-175.40514029006385,2661996103
iw,-79.8574752807617,-81.4051971435546,58.25658795627703,-181.0728465224775,2662012770
iw,-80.5324554443359,-79.4732513427734,59.1268309582328,-184.85055543928672,2662029437
iw,-80.8955001831054,-77.0406112670898,59.347930505531224,-187.24358975877772,2662046104
iw,-80.9202194213867,-74.437873840332,58.758440758129616,-188.34924666691313,2662062771
iw,-80.6594161987304,-71.6897506713867,57.29338494040637,-187.92520538968625,2662079438
iw,-80.2456512451171,-68.7998657226562,54.928606068830845,-185.51907058321214,2662096105
iw,-79.7404251098632,-65.9584655761718,51.66172159825862,-180.61389578500632,2662112772
iw,-79.1516036987304,-63.3466033935546,47.54652663687038,-172.76363019528617,2662129439
iw,-78.5563507080078,-60.9478569030761,42.76277162161636,-161.70359586858973,2662146106
iw,-78.0368576049804,-58.6683464050293,37.67792574497205,-147.42651012018348,2662162773
iw,-77.5777435302734,-56.6598434448242,32.853166511465446,-130.2192374267357,2662179440
iw,-77.118782043457,-54.9889526367187,28.964925741479554,-110.66047179621941,2662196107
iw,-76.633544921875,-53.6852951049804,26.649053527052622,-89.58439480567776,2662212774
iw,-76.1189727783203,-52.6780128479003,26.312403851268883,-68.01868959929787,2662229441
iw,-75.5028533935546,-51.9312591552734,27.979136036434618,-47.10428276243361,2662246108
iw,-74.7732543945312,-51.4427299499511,31.234704225872058,-27.998302634731658,2662262775
iw,-73.9828033447265,-51.2892417907714,35.29967779020517,-11.756810413407738,2662279442
iw,-73.1322631835937,-51.3817634582519,39.21985678498378,0.8017963038097006,2662296109
iw,-72.2605819702148,-51.6060104370117,42.116159486256464,9.236568981134504,2662312776
iw,-71.4315643310546,-51.8999252319335,43.41454149522867,13.593494411088498,2662329443
iw,-70.6973114013671,-52.1723403930664,42.982655104820104,14.444501267024602,2662346110
iw,-70.0307083129882,-52.4414291381835,41.13267067807057,12.826818878715713,2662362777
iw,-69.3931045532226,-52.7250442504882,38.492773768579276,10.079167298234537,2662379444
iw,-68.7976379394531,-53.0146179199218,35.78559200780516,7.601157147345775,2662396111
iw,-68.2600631713867,-53.2553443908691,33.571880364553884,6.5858097369719975,2662412778
iw,-67.8104095458984,-53.4003143310546,32.02416544992525,7.7873065775242045,2662429445
iw,-67.4579467773437,-53.5073013305664,30.79178560200506,11.386381578586949,2662446112
iw,-67.1632766723632,-53.790054321289,29.0051911194156,17.00128355398338,2662462779
iw,-66.8406448364257,-54.4896621704101,25.439187917875625,23.856646916041207,2662479446
iw,-66.5118179321289,-55.612133026123,18.811464741756847,31.06699022596122,2662496113
iw,-66.3100204467773,-57.0096626281738,8.144396978755449,37.93614285464702,2662512780
iw,-66.348648071289,-58.2579002380371,-6.915070452134349,44.15304924986247,2662529447
iw,-66.7886810302734,-59.1260032653808,-25.921107320996313,49.80264198714092,2662546114
iw,-67.8081283569336,-59.7489433288574,-47.66179981226691,55.19820158487275,2662562781
iw,-69.4270706176757,-60.5623474121093,-70.39130396550772,60.632697864540056,2662579448
iw,-71.5825653076171,-61.8642539978027,-92.1845497868257,66.18480018383661,2662596115
iw,-74.0462951660156,-63.5826683044433,-111.29956968010836,71.67427995072322,2662612782
iw,-76.6096420288086,-65.3670272827148,-126.44438245528625,76.76792561895523,2662629449
iw,-79.1828994750976,-67.0012817382812,-136.90071452524757,81.1527737339725,2662646116
iw,-81.5834274291992,-68.5715789794921,-142.52258067563326,84.66922144461749,2662662783
iw,-83.5628204345703,-70.0465011596679,-143.66493493877604,87.33690692806276,2662679450
iw,-84.8199462890625,-71.4684600830078,-141.09073233115143,89.27506526428483,2662696117
iw,-84.9614562988281,-72.9704055786132,-135.87119504118692,90.57353321082432,2662712784
iw,-84.0470809936523,-74.5474548339843,-129.26502610461893,91.18747705055459,2662729451
iw,-82.5607223510742,-76.1490936279296,-122.55764775702787,90.90912753932385,2662746118
iw,-80.8514022827148,-77.7159576416015,-116.86117654846625,89.43020666530596,2662762785
iw,-79.2421646118164,-79.2798461914062,-112.90637774975569,86.4704075950905,2662779452
iw,-77.5852508544921,-80.8313598632812,-110.88212779970598,81.92418828449979,2662796119
iw,-75.7303085327148,-82.2857131958007,-110.38102058092952,75.97318306361022,2662812786
iw,-73.6835784912109,-83.5696792602539,-110.48410779384518,69.12181211961727,2662829453
iw,-71.6203536987304,-84.6585235595703,-109.97076804310026,62.135880946860475,2662846120
iw,-69.7124481201171,-85.5464477539062,-107.59517212472839,55.89367585704264,2662862787
iw,-68.0260238647461,-86.3333969116211,-102.35392773454977,51.188039867119684,2662879454
iw,-66.5446014404296,-87.0556335449218,-93.68597587089272,48.53585519839662,2662896121
iw,-65.2334289550781,-87.7551956176757,-81.57831841563066,48.05121677472739,2662912788
iw,-64.1098022460937,-88.4209518432617,-66.57668437655278,49.420339857168194,2662929455
iw,-63.2784233093261,-88.7782745361328,-49.70955403799944,51.9864724467501,2662946122
iw,-62.7882575988769,-88.4326477050781,-32.3349927033933,54.92153350643096,2662962789
iw,-62.6084327697753,-87.5965347290039,-15.92537201480341,57.43721558429865,2662979456
iw,-62.6884536743164,-86.6966018676757,-1.8194023672974555,58.97864335308353,2662996123
iw,-63.0377960205078,-85.7631225585937,9.013391690563076,59.35091765371709,2663012790
iw,-63.4684829711914,-84.7904205322265,16.1448316373268,58.749190754841614,2663029457
iw,-63.8285369873046,-83.813850402832,19.75679770524268,57.687038048794044,2663046124
iw,-64.2068481445312,-82.8258666992187,20.591693694191203,56.83783735739938,2663062791
iw,-64.7289581298828,-81.87646484375,19.79843634944184,56.81869825333794,2663079458
iw,-65.2609252929687,-80.9896926879882,18.706394184050602,57.95928506737605,2663096125
iw,-65.6868209838867,-80.1253051757812,18.56540783955526,60.108527671797034,2663112792
iw,-65.9093246459961,-79.2071075439453,20.29293532935184,62.53508663553087,2663129459
iw,-66.0916595458984,-78.2488403320312,24.278170018125447,63.96571450803725,2663146126
iw,-66.4608459472656,-77.2768020629882,30.2994815569622,62.777445946589125,2663162793
iw,-67.247573852539,-76.2640380859375,37.596020369310196,57.32025463392835,2663179460
iw,-68.4862289428711,-75.3366012573242,45.0881210674631,46.30654771032812,2663196127
iw,-69.6774597167968,-74.6524887084961,51.68226342436394,29.17413960758637,2663212794
iw,-70.6983261108398,-74.3256301879882,56.56022714903938,6.32110639816414,2663229461
iw,-71.7954559326171,-74.4630355834961,59.36229367864053,-20.86862434380049,2663246128
iw,-72.9648284912109,-75.2668838500976,60.22139049829319,-50.24145202688177,2663262795
iw,-74.0783767700195,-76.8033599853515,59.65794465669039,-79.29713631027343,2663279462
iw,-74.9626693725586,-78.9218826293945,58.38215330675488,-105.71512652887927,2663296129
iw,-75.8453598022461,-81.3110198974609,57.06951001682253,-127.83498128471143,2663312796
iw,-76.7576675415039,-83.3321456909179,56.17858799455721,-144.94318395631268,2663329463
iw,-77.6270370483398,-83.9350891113281,55.86292511431585,-157.27779573630403,2663346130
iw,-78.4907989501953,-83.4376525878906,55.992185429078425,-165.7635005206371,2663362797
iw,-79.3320007324218,-82.5937423706054,56.25669474992018,-171.59019897797694,2663379464
iw,-80.1067810058593,-81.2346725463867,56.30352323811599,-175.79742760493804,2663396131
iw,-80.7200698852539,-79.2163772583007,55.850876696035606,-178.99910377409194,2663412798
iw,-80.9993591308593,-76.8317413330078,54.746818029758764,-181.30154364697705,2663429465
iw,-80.9924774169921,-74.2887878417968,52.96711056053019,-182.38637825418462,2663446132
iw,-80.793228149414,-71.4827041625976,50.572560071481654,-181.68857409615467,2663462799
iw,-80.4740829467773,-68.5673675537109,47.65852825759156,-178.59856066529326,2663479466
iw,-80.0784149169921,-65.8684768676757,44.32484294951504,-172.6344729307901,2663496133
iw,-79.6343154907226,-63.5117797851562,40.677869904398875,-163.5514229297161,2663512800
iw,-79.1914520263671,-61.3499679565429,36.85730873359289,-151.37889572643198,2663529467
iw,-78.7275085449218,-59.3336029052734,33.06669129134961,-136.4023354927423,2663546134
iw,-78.2002410888671,-57.4712944030761,29.583388983387582,-119.11956875735355,2663562801
iw,-77.5897674560546,-55.9205436706543,26.732039435386802,-100.1986921147602,2663579468
iw,-76.9375,-54.6825447082519,24.821419009514788,-80.4464217051528,2663596135
iw,-76.2947387695312,-53.7354698181152,24.062140877435542,-60.777734063049046,2663612802
iw,-75.6868133544921,-53.0281677246093,24.493462397933087,-42.16878651002095,2663629469
iw,-75.1318664550781,-52.6641159057617,25.946981307424757,-25.578189109242054,2663646136
iw,-74.598518371582,-52.6702117919921,28.063379783224864,-11.835130067477339,2663662803
iw,-74.0172119140625,-52.7723121643066,30.36105270550009,-1.512266424811219,2663679470
iw,-73.3440704345703,-52.8940658569335,32.340055327375,5.182336255000039,2663696137
iw,-72.587532043457,-53.0127029418945,33.59678042408934,8.457304933362522,2663712804
iw,-71.8057632446289,-53.0949020385742,33.924207945109046,8.911866076040177,2663729471
iw,-71.0844039916992,-53.1750297546386,33.375149237658405,7.433924170305677,2663746138
iw,-70.442138671875,-53.35884475708,32.268261476922085,5.046893843434445,2663762805
iw,-69.865493774414,-53.568790435791,31.12104749016761,2.74070439693935,2663779472
iw,-69.3349075317382,-53.732795715332,30.50685544006975,1.32083206612696,2663796139
iw,-68.8463134765625,-53.8394203186035,30.856675383727666,1.3017901132728888,2663812806
iw,-68.4004821777343,-53.927001953125,32.25431768958402,2.865155532148457,2663829473
iw,-68.0108566284179,-54.1511344909668,34.29118618530976,5.895560026957454,2663846140
iw,-67.6425247192382,-54.6677818298339,36.042137075203854,10.092404283108326,2663862807
iw,-67.197265625,-55.4276504516601,36.194337589703494,15.12655856606114,2663879474
iw,-66.7295837402343,-56.2579460144043,33.31487888573752,20.782141753239667,2663896141
iw,-66.3102416992187,-57.0551223754882,26.19570785875652,27.01745421854785,2663912808
iw,-66.0570449829101,-57.7628288269043,14.183566397188049,33.91148744503965,2663929475
iw,-66.0996398925781,-58.4636459350585,-2.599914962135382,41.52151970974037,2663946142
iw,-66.5253067016601,-59.3466453552246,-23.215653691103462,49.72888790293787,2663962809
iw,-67.3823471069336,-60.4965782165527,-46.06113584617635,58.16167474173707,2663979476
iw,-68.8364791870117,-62.0323791503906,-69.1828405365231,66.24619634211723,2663996143
iw,-70.9366073608398,-63.8627967834472,-90.65833848800699,73.37272821495836,2664012810
iw,-73.4259262084961,-65.6405487060546,-108.93443728996581,79.09978646532765,2664029477
iw,-76.0037994384765,-67.2369613647461,-123.02672114908982,83.29892837942829,2664046144
iw,-78.5099868774414,-68.7268295288086,-132.549349382825,86.17169857975298,2664062811
iw,-80.8471527099609,-70.1720886230468,-137.62065771355248,88.1344063459525,2664079478
iw,-82.8940048217773,-71.6523361206054,-138.731327372157,89.6269979988593,2664096145
iw,-84.4097747802734,-73.2280578613281,-136.64243137024985,90.92825678067604,2664112812
iw,-84.9857330322265,-74.8192977905273,-132.32224666703047,92.04544791107736,2664129479
iw,-84.4952697753906,-76.4366149902343,-126.88108724754561,92.70903937506701,2664146146
iw,-83.2927627563476,-78.0655288696289,-121.4559224756637,92.464467127612,2664162813
iw,-81.8035583496093,-79.6799163818359,-117.03020369738377,90.8267686034415,2664179480
iw,-80.2815780639648,-81.2924041748046,-114.22352533163595,87.4523405046814,2664196147
iw,-78.6444702148437,-82.8540267944336,-113.1211088047197,82.28135775223056,2664212814
iw,-76.754653930664,-84.246337890625,-113.21550661670118,75.611897341922,2664229481
iw,-74.6651229858398,-85.4456405639648,-113.49918388689359,68.08267609620273,2664246148
iw,-72.6013870239257,-86.5204696655273,-112.69176601312691,60.56469371525739,2664262815
iw,-70.6505050659179,-87.4664916992187,-109.53788909201425,53.98736147871158,2664279482
iw,-68.9324951171875,-88.3097381591796,-103.09466723759054,49.14328665723355,2664296149
iw,-67.4390869140625,-89.1253128051757,-92.94426977646354,46.52182855221903,2664312816
iw,-66.1372451782226,-90.0,-79.29891701769603,46.214108016259736,2664329483
iw,-65.0346145629882,-89.6315002441406,-62.9915320310646,47.913955216113365,2664346150
iw,-64.2166595458984,-88.5998916625976,-45.35718499066651,51.01462309002031,2664362817
iw,-63.7073669433593,-87.551040649414,-28.015962443169382,54.775821753093204,2664379484
iw,-63.5699119567871,-86.4479675292968,-12.580238645002515,58.51630287977776,2664396151
iw,-63.8860855102539,-85.3121185302734,-0.33374153091026704,61.77918485407177,2664412818
iw,-64.3450622558593,-84.1388702392578,8.043702335790535,64.42274182758003,2664429485
iw,-64.6247024536132,-82.9323425292968,12.624291825413142,66.60696894897865,2664446152
iw,-64.8021087646484,-81.736328125,14.199553481335018,68.67172361314788,2664462819
iw,-65.0722274780273,-80.5785293579101,14.06995853222425,70.9309893663526,2664479486
iw,-65.4441528320312,-79.4843444824218,13.716585189247745,73.4351600504763,2664496153
iw,-65.7502517700195,-78.4221420288086,14.443459661489353,75.77279093566337,2664512820
iw,-65.8386077880859,-77.2995986938476,17.078044348757317,76.98637097558759,2664529487
iw,-66.0051727294921,-76.1317672729492,21.80091553993185,75.65619782510387,2664546154
iw,-66.4649810791015,-74.9749145507812,28.15042446333139,70.162794081953,2664562821
iw,-67.2553939819336,-73.8671722412109,35.20686357342924,59.08217052865491,2664579488
iw,-68.4688186645507,-72.8743057250976,41.903438472777225,41.61689022780452,2664596155
iw,-69.6826477050781,-72.1980285644531,47.36051633299887,17.936930772882423,2664612822
iw,-70.6818466186523,-72.1554336547851,51.126821082249954,-10.688332616640244,2664629489
iw,-71.6316223144531,-72.8519897460937,53.249997124074135,-42.03621993640267,2664646156
iw,-72.5057678222656,-74.2176055908203,54.170526540410435,-73.34183267394181,2664662823
iw,-73.3442230224609,-76.2125015258789,54.49965706985623,-101.87302311501398,2664679490
iw,-74.3376922607421,-78.7199020385742,54.775029705730326,-125.50828173851497,2664696157
iw,-75.2884368896484,-81.3175964355468,55.28173457612997,-143.14881209007774,2664712824
iw,-76.2502136230468,-83.4622650146484,55.99227955153748,-154.8454914385194,2664729491
iw,-77.2978286743164,-84.2604522705078,56.63155183209672,-161.61420528409457,2664746158
iw,-78.2900924682617,-83.8600082397461,56.82788304782725,-165.0178869201544,2664762825
iw,-79.1550521850586,-82.8903045654296,56.28385764356282,-166.66819917474817,2664779492
iw,-79.8969955444336,-81.3139190673828,54.900469195513494,-167.80996235615376,2664796159
iw,-80.4013061523437,-79.1988830566406,52.81396002127049,-169.09476614924566,2664812826
iw,-80.5980072021484,-76.8834991455078,50.34271515280141,-170.5620171000074,2664829493
iw,-80.6227340698242,-74.4146423339843,47.875069249549256,-171.77497728113542,2664846160
iw,-80.4642791748046,-71.7620849609375,45.74604493421362,-172.03327321268458,2664862827
iw,-80.2140808105468,-69.0574951171875,44.14803256161459,-170.59373873699175,2664879494
iw,-79.898452758789,-66.5009155273437,43.101066068886546,-166.8539145602335,2664896161
iw,-79.5744171142578,-64.1392059326171,42.482112733387254,-160.4722943265249,2664912828
iw,-79.2490234375,-61.9160003662109,42.09073108492531,-151.41629711306666,2664929495
iw,-78.8277435302734,-59.8009414672851,41.71895077037342,-139.94522938535457,2664946162
iw,-78.2734298706054,-57.8439445495605,41.19897391633292,-126.54827942755878,2664962829
iw,-77.6048431396484,-56.1578178405761,40.41897743191708,-111.86248634119703,2664979496
iw,-76.9042510986328,-54.7366523742675,39.31546181876574,-96.59213548819471,2664996163
iw,-76.2291717529296,-53.5653533935546,37.860635849382035,-81.44241019303138,2665012830
iw,-75.5864486694336,-52.5340995788574,36.06083474063267,-67.06992033991017,2665029497
iw,-74.9884414672851,-51.6448631286621,33.97021500892526,-54.04328736611208,2665046164
iw,-74.4075927734375,-51.092430114746,31.71139577526472,-42.801629995546065,2665062831
iw,-73.8211669921875,-50.6763381958007,29.488526355967988,-33.60258303068748,2665079498
iw,-73.2334518432617,-50.4050064086914,27.579879195791076,-26.46563329147691,2665096165
iw,-72.6771926879882,-50.1747589111328,26.3038423626424,-21.13308084204569,2665112832
iw,-72.1929168701171,-49.8829345703125,25.961552552532194,-17.076937972096665,2665129499
iw,-71.7561340332031,-49.6296730041503,26.769359070739377,-13.568928000455088,2665146166
iw,-71.2822723388671,-49.4504013061523,28.80104877034008,-9.808061815267555,2665162833
iw,-70.6738739013671,-49.3960609436035,31.95802457043696,-5.079336008445256,2665179500
iw,-69.9234161376953,-49.52734375,35.973048838905065,1.091818433054798,2665196167
iw,-69.1248474121093,-49.7698516845703,40.434807697202174,8.821729630617366,2665212834
iw,-68.4031600952148,-50.0963973999023,44.808782436298145,17.812760291339192,2665229501
iw,-67.8347015380859,-50.5398406982421,48.43701002916168,27.380224204473333,2665246168
iw,-67.3358917236328,-51.1803398132324,50.52599036401309,36.57663479183524,2665262835
iw,-66.7918624877929,-52.0374031066894,50.161794303880576,44.41129205218803,2665279502
iw,-66.1706924438476,-53.1845321655273,46.3995942927356,50.12993190028496,2665296169
iw,-65.5075302124023,-54.6915740966796,38.447305584248404,53.477640597762054,2665312836
iw,-64.9703140258789,-56.5130805969238,25.909635674839404,54.84146009267716,2665329503
iw,-64.7215423583984,-57.7817878723144,9.008982365625053,55.18444521632058,2665346170
iw,-64.910774230957,-58.4014091491699,-11.316345112437542,55.753914329074334,2665362837
iw,-65.6677932739257,-58.8607864379882,-33.505173557236404,57.65263685488059,2665379504
iw,-66.9537734985351,-59.6946601867675,-55.65895392367065,61.44506992719596,2665396171
iw,-68.644058227539,-61.0299415588378,-75.94421966504262,66.97132588139235,2665412838
iw,-70.6552963256836,-62.8571586608886,-92.9830925467995,73.44789372294358,2665429505
iw,-72.7994232177734,-64.781005859375,-106.09874884848658,79.79856038437697,2665446172
iw,-74.9834060668945,-66.6070556640625,-115.33649872468197,85.05881681966027,2665462839
iw,-77.1869812011718,-68.2787628173828,-121.27415237915115,88.68128867585374,2665479506
iw,-79.3574142456054,-69.7968978881836,-124.722839886694,90.63454881235938,2665496173
iw,-81.4751358032226,-71.2219467163086,-126.45331319705733,91.28930995113924,2665512840
iw,-83.4342803955078,-72.6514816284179,-127.04612261467807,91.17232642145369,2665529507
iw,-84.929084777832,-74.1221847534179,-126.88484137486944,90.7056870856983,2665546174
iw,-85.4108963012695,-75.6453628540039,-126.2392560009633,90.03311249169455,2665562841
iw,-84.5999984741211,-77.2159805297851,-125.35530535505804,88.98485987757623,2665579508
iw,-83.0490951538086,-78.7894515991211,-124.48477909295745,87.17665960741398,2665596175
iw,-81.3404769897461,-80.3630981445312,-123.83239138942673,84.19620803271148,2665612842
iw,-79.5387344360351,-81.8691864013671,-123.44701325888535,79.8103679164724,2665629509
iw,-77.5642929077148,-83.2502365112304,-123.11681074783333,74.12548077306658,2665646176
iw,-75.4341888427734,-84.4716110229492,-122.33079593141431,67.6477507744246,2665662843
iw,-73.2899398803711,-85.5172576904296,-120.34111926487917,61.217056976717906,2665679510
iw,-71.2074584960937,-86.4235763549804,-116.31743769820743,55.82216449664211,2665696177
iw,-69.3034973144531,-87.2233581542968,-109.55010459201989,52.34181689928127,2665712844
iw,-67.6341400146484,-87.9919204711914,-99.64648470297298,51.28489225991802,2665729511
iw,-66.1504135131836,-88.7995986938476,-86.67185049800452,52.61286799191352,2665746178
iw,-64.8471984863281,-90.0,-71.20153104790494,55.711532436141965,2665762845
iw,-63.8231239318847,-89.4055480957031,-54.26597369371695,59.53628453226256,2665779512
iw,-63.2153625488281,-87.9836502075195,-37.18670855421299,62.89763745901086,2665796179
iw,-63.0473937988281,-86.5879745483398,-21.32555251643324,64.80146170891356,2665812846
iw,-63.1660079956054,-85.306770324707,-7.801045893637128,64.7344299053962,2665829513
iw,-63.4399948120117,-84.2039718627929,2.7497408862155224,62.80141831069096,2665846180
iw,-63.647891998291,-83.2504348754882,10.289155160595348,59.672419738731904,2665862847
iw,-63.8170547485351,-82.4238662719726,15.339319410386777,56.35980544962211,2665879514
iw,-64.1119766235351,-81.6739273071289,18.803305907290554,53.8968587437472,2665896181
iw,-64.6057434082031,-80.830337524414,21.709689048095832,53.00949611664955,2665912848
iw,-65.217300415039,-79.8807907104492,24.954524733480177,53.86386471234163,2665929515
iw,-65.8081741333007,-78.9797058105468,29.0976898881182,55.94378859782631,2665946182
iw,-66.3151092529296,-78.1306686401367,34.24708816151176,58.079577015542576,2665962849
iw,-66.8025360107421,-77.2381896972656,40.05075130351164,58.624410747978445,2665979516
iw,-67.66796875,-76.3423538208007,45.807573916324145,55.75537927773483,2665996183
iw,-68.9255142211914,-75.4983901977539,50.684420651146006,47.8551738754867,2666012850
iw,-70.2813644409179,-74.7302780151367,53.98657726298972,33.90491962215292,2666029517
iw,-71.6581268310546,-74.2101287841796,55.392662110805894,13.797378218267417,2666046184
iw,-72.6903457641601,-74.1362991333007,55.06558089390397,-11.522513817067285,2666062851
iw,-73.5133972167968,-74.7047882080078,53.596879707562636,-40.1543503038936,2666079518
iw,-74.3395080566406,-75.9323196411132,51.809388061979135,-69.58104353657929,2666096185
iw,-75.1715393066406,-77.7527389526367,50.495755767596435,-97.1791102733483,2666112852
iw,-76.0289459228515,-79.9727325439453,50.18573531684321,-120.76690138583528,2666129519
iw,-76.8772506713867,-82.1517257690429,51.01457322051819,-139.034726762675,2666146186
iw,-77.7537155151367,-83.505989074707,52.7244190769764,-151.73293711112134,2666162853
iw,-78.7176895141601,-83.6064682006836,54.78557896429263,-159.57311365608288,2666179520
iw,-79.6058273315429,-82.8518905639648,56.586690848251,-163.8941850934176,2666196187
iw,-80.3643035888671,-81.7220153808593,57.6242548164985,-166.2185780094084,2666212854
iw,-81.0401382446289,-80.1045532226562,57.63001571523835,-167.84160438363705,2666229521
iw,-81.4682083129882,-78.094497680664,56.604862841481086,-169.55779972135332,2666246188
iw,-81.5852966308593,-75.8402481079101,54.76475359851787,-171.56016295992006,2666262855
iw,-81.4684600830078,-73.3807220458984,52.432231384521224,-173.49141069343187,2666279522
iw,-81.1147384643554,-70.681655883789,49.91847538474757,-174.600412995516,2666296189
iw,-80.5460968017578,-67.8991165161132,47.43534133271292,-173.95426468846378,2666312856
iw,-79.8754119873046,-65.3423767089843,45.060031669339494,-170.66056216630315,2666329523
iw,-79.2407150268554,-62.9708671569824,42.75472049469436,-164.060180835809,2666346190
iw,-78.6932983398437,-60.6523742675781,40.42595627107163,-153.8616973641076,2666362857
iw,-78.1634750366211,-58.4235877990722,37.997957992999716,-140.20367808473398,2666379524
iw,-77.5990829467773,-56.4839172363281,35.47266621117946,-123.64443474729228,2666396191
iw,-76.9574203491211,-54.8927421569824,32.95754287262262,-105.08845056449897,2666412858
iw,-76.2805938720703,-53.6117897033691,30.655404410677576,-85.66669155038743,2666429525
iw,-75.6246871948242,-52.6267433166503,28.823062631591462,-66.59367589453578,2666446192
iw,-75.0152053833007,-51.8597106933593,27.713282356260418,-49.02329893091175,2666462859
iw,-74.4204330444336,-51.3181838989257,27.516547039139834,-33.91762916129936,2666479526
iw,-73.7919311523437,-51.076602935791,28.316335480152404,-21.934892811696198,2666496193
iw,-73.1186065673828,-51.033935546875,30.066327849481667,-13.342674124420089,2666512860
iw,-72.3985748291015,-50.9942169189453,32.59271552289847,-7.970515117624465,2666529527
iw,-71.6660766601562,-50.9159545898437,35.6205553744259,-5.22316736766247,2666546194
iw,-70.9169082641601,-50.8440742492675,38.818851365458066,-4.170540475755549,2666562861
iw,-70.1422729492187,-50.737075805664,41.85376239513107,-3.71109039132062,2666579528
iw,-69.3179626464843,-50.7275619506835,44.434179847522536,-2.7811005875003834,2666596195
iw,-68.4933700561523,-50.8826599121093,46.33204655185792,-0.5648427325464086,2666612862
iw,-67.6971282958984,-51.1170196533203,47.36440437637154,3.3435248942749913,2666629529
iw,-66.9722595214843,-51.3896522521972,47.336692682230996,8.867342854838268,2666646196
iw,-66.3428497314453,-51.7037277221679,45.965623455520465,15.489820451236294,2666662863
iw,-65.7699584960937,-52.1990509033203,42.81872937968582,22.416404513096452,2666679530
iw,-65.2518463134765,-52.9435272216796,37.31562178848407,28.832462172293727,2666696197
iw,-64.7933197021484,-54.0564041137695,28.822947643024605,34.19229716924307,2666712864
iw,-64.4264602661132,-55.590965270996,16.83964791461201,38.440116144284005,2666729531
iw,-64.2703170776367,-56.8677330017089,1.2234218099167251,42.059080044288635,2666746198
iw,-64.4300460815429,-57.5206832885742,-17.62497103513734,45.89481126901891,2666762865
iw,-65.0552749633789,-57.8202285766601,-38.70517866250415,50.799463368209494,2666779532
iw,-66.2796554565429,-58.4088897705078,-60.53659979124679,57.24350105390033,2666796199
iw,-68.0511474609375,-59.6169662475585,-81.43546310791227,65.07687225317795,2666812866
iw,-70.2651290893554,-61.4146308898925,-99.86375698681158,73.55572072386961,2666829533
iw,-72.6780700683593,-63.4619255065918,-114.72838577786045,81.61937276204678,2666846200
iw,-75.1724472045898,-65.4171447753906,-125.52862033457819,88.28287209399522,2666862867
iw,-77.6437759399414,-67.2426071166992,-132.32061056154333,92.96721944680083,2666879534
iw,-80.0022201538086,-68.8563842773437,-135.55194998212605,95.63568052929973,2666896201
iw,-82.116584777832,-70.3120651245117,-135.86720194182558,96.7047183311353,2666912868
iw,-83.8634033203125,-71.7977523803711,-133.97142642968868,96.79716896609305,2666929535
iw,-84.9461517333984,-73.3951339721679,-130.58041459102785,96.45865960371201,2666946202
iw,-84.9003448486328,-75.0540618896484,-126.4255281270676,95.95100976793961,2666962869
iw,-83.8542709350586,-76.729133605957,-122.25175494359883,95.18530650257631,2666979536
iw,-82.4366302490234,-78.3858184814453,-118.75942508758612,93.7957292430799,2666996203
iw,-80.9034194946289,-80.0348663330078,-116.4811876480057,91.31015916707005,2667012870
iw,-79.2027511596679,-81.6525115966796,-115.63228701828943,87.35398621349755,2667029537
iw,-77.2438201904296,-83.1718826293945,-115.99808122332576,81.82438837374778,2667046204
iw,-75.1627426147461,-84.4861221313476,-116.91413671007119,74.98636743763709,2667062871
iw,-73.0872344970703,-85.6608581542968,-117.35883617670791,67.4646736157714,2667079538
iw,-71.0728378295898,-86.7577438354492,-116.13964673513496,60.13334516084089,2667096205
iw,-69.1846771240234,-87.706802368164,-112.13151350157383,53.93040181071323,2667112872
iw,-67.4425888061523,-88.499755859375,-104.52125681596002,49.64343963072678,2667129539
iw,-65.8552627563476,-89.2823638916015,-93.0147857010431,47.720298230037386,2667146206
iw,-64.4605484008789,-90.0,-77.96569059634962,48.15621203229439,2667162873
iw,-63.3349380493164,-89.3135757446289,-60.38584552675472,50.49223312411547,2667179540
iw,-62.5713920593261,-88.266860961914,-41.81017812566669,53.93006760796813,2667196207
iw,-62.1853332519531,-87.2034072875976,-24.016670149654598,57.534558795589675,2667212874
iw,-62.2553634643554,-86.101577758789,-8.647177932198911,60.469289279134166,2667229541
iw,-62.6903266906738,-84.9186630249023,3.179452918639228,62.20088122853904,2667246208
iw,-63.1410408020019,-83.701416015625,11.145866537418145,62.61367195082222,2667262875
iw,-63.4319953918457,-82.491340637207,15.807127350248582,61.995230700957194,2667279542
iw,-63.6863098144531,-81.419563293457,18.416639285028662,60.88277040521499,2667296209
iw,-64.0381317138671,-80.5143585205078,20.552769143938598,59.799567929550925,2667312876
iw,-64.4618911743164,-79.7690277099609,23.65862099160423,58.95262273672954,2667329543
iw,-64.7925720214843,-79.1093368530273,28.631834642952676,57.99325874158677,2667346210
iw,-65.1639022827148,-78.4209213256836,35.58322843330157,55.943166143641946,2667362877
iw,-65.9168472290039,-77.6438674926757,43.83525647872177,51.34892195521525,2667379544
iw,-67.0054550170898,-76.7616729736328,52.16320167492848,42.65418622366085,2667396211
iw,-68.5031051635742,-75.9090270996093,59.20466245239428,28.693901298619657,2667412878
iw,-70.2007293701171,-75.2748184204101,63.90036998714618,9.152189710663086,2667429545
iw,-71.55126953125,-75.1592559814453,65.81328626307904,-15.184606664927449,2667446212
iw,-72.5632858276367,-75.839859008789,65.21955089087017,-42.49291852063219,2667462879
iw,-73.5674743652343,-77.3300704956054,62.95713878652638,-70.30025269086627,2667479546
iw,-74.4945755004882,-79.3614654541015,60.110949369733675,-96.08125883998862,2667496213
iw,-75.3634490966796,-81.5730514526367,57.66274860163301,-117.86422249037803,2667512880
iw,-76.3715286254882,-83.3778381347656,56.22700983796717,-134.64656768454518,2667529547
iw,-77.3926544189453,-84.0037078857421,55.94478431739372,-146.49453424231345,2667546214
iw,-78.3451232910156,-83.4260101318359,56.54281867751827,-154.32448468716254,2667562881
iw,-79.3279953002929,-82.5199737548828,57.50799069594313,-159.47697393426247,2667579548
iw,-80.1910171508789,-81.3236389160156,58.29634640835376,-163.25195281905232,2667596215
iw,-80.892349243164,-79.6227264404296,58.499513025489094,-166.55535783630563,2667612882
iw,-81.3108825683593,-77.4857330322265,57.922708338590645,-169.73413714198313,2667629549
iw,-81.4261398315429,-75.1376037597656,56.57120386850087,-172.5945660703894,2667646216
iw,-81.3656234741211,-72.5523376464843,54.57688223795416,-174.54675467296752,2667662883
iw,-81.0789031982421,-69.7657089233398,52.11071551456724,-174.80555901733197,2667679550
iw,-80.6275787353515,-67.0258331298828,49.31957203908972,-172.5897449727931,2667696217
iw,-80.0462188720703,-64.5995407104492,46.30589716511401,-167.28087943816058,2667712884
iw,-79.4346389770507,-62.3210716247558,43.14810589108945,-158.52481501799838,2667729551
iw,-78.8863372802734,-60.1255836486816,39.944821616463685,-146.2789787909223,2667746218
iw,-78.3718719482421,-58.0527153015136,36.858622343080555,-130.82121771582962,2667762885
iw,-77.8173751831054,-56.255615234375,34.13434052193974,-112.73535821755765,2667779552
iw,-77.1852569580078,-54.7793579101562,32.074075286942886,-92.87861502813368,2667796219
iw,-76.5155029296875,-53.6196136474609,30.96628574714546,-72.32585757587904,2667812886
iw,-75.8368148803711,-52.8129577636718,30.986074084921917,-52.282029250438605,2667829553
iw,-75.1537017822265,-52.3464126586914,32.10042114282127,-33.95825633866581,2667846220
iw,-74.4364929199218,-52.1436347961425,34.01775326414573,-18.418238149785576,2667862887
iw,-73.6723937988281,-52.1513404846191,36.211642606017755,-6.416023515816387,2667879554
iw,-72.8535842895507,-52.2653541564941,38.0254991965605,1.7414407210431482,2667896221
iw,-72.0079498291015,-52.4161491394043,38.836316709959576,6.269352967807154,2667912888
iw,-71.1833190917968,-52.5454750061035,38.23137945380595,7.887351603892697,2667929555
iw,-70.4093246459961,-52.6683082580566,36.141473143037146,7.697972405665956,2667946222
iw,-69.6865005493164,-52.8234672546386,32.881507129514674,6.977512222736078,2667962889
iw,-69.0589294433593,-53.0535659790039,29.072516997043557,6.92209320457883,2667979556
iw,-68.6058273315429,-53.3512916564941,25.452255418719776,8.407279260089833,2667996223
iw,-68.3302688598632,-53.6631240844726,22.61814898015211,11.819252163686011,2668012890
iw,-68.1440734863281,-53.9838829040527,20.7771379204076,17.001884501280458,2668029557
iw,-67.957778930664,-54.4515686035156,19.589134463745488,23.34141313564723,2668046224
iw,-67.7451934814453,-55.2742614746093,18.172893882866635,29.97889673500558,2668062891
iw,-67.5022048950195,-56.3772964477539,15.294430198256615,36.09981003032529,2668079558
iw,-67.2900314331054,-57.7578964233398,9.694653778327927,41.21022548132415,2668096225
iw,-67.2050476074218,-59.2820739746093,0.46016527668364293,45.29363624383041,2668112892
iw,-67.378547668457,-60.2876014709472,-12.679344663631614,48.77398614343356,2668129559
iw,-67.9187698364257,-60.8562774658203,-29.223494177636752,52.289224587469654,2668146226
iw,-68.8705444335937,-61.4845695495605,-47.98547141334153,56.37325792351954,2668162893
iw,-70.3456954956054,-62.5642051696777,-67.36002039128343,61.19813277989597,2668179560
iw,-72.2881851196289,-64.1740646362304,-85.68576969279066,66.50136114942043,2668196227
iw,-74.5453872680664,-66.0247421264648,-101.58414875594714,71.72454176464505,2668212894
iw,-76.84716796875,-67.76416015625,-114.1754598898803,76.27866285735716,2668229561
iw,-79.1651153564453,-69.3674392700195,-123.13144362175224,79.79528357976234,2668246228
iw,-81.3435363769531,-70.8729248046875,-128.5934250150451,82.24659209421421,2668262895
iw,-83.2321014404296,-72.2369155883789,-131.02807852860008,83.89521103614226,2668279562
iw,-84.6078414916992,-73.5768966674804,-131.0897161852081,85.11732913901695,2668296229
iw,-85.0595397949218,-75.0008773803711,-129.5209690349457,86.19159022271326,2668312896
iw,-84.3353881835937,-76.5127258300781,-127.08289088846605,87.14786524617205,2668329563
iw,-82.8214874267578,-78.0703201293945,-124.48542694594167,87.73392967718256,2668346230
iw,-81.0714340209961,-79.6665649414062,-122.29654671946693,87.50623514205007,2668362897
iw,-79.2887268066406,-81.2841567993164,-120.83414770940217,86.0057610848199,2668379564
iw,-77.3998260498046,-82.8916015625,-120.07231056813855,82.95434944501416,2668396231
iw,-75.3276290893554,-84.3800888061523,-119.60541625060735,78.40355642544844,2668412898
iw,-73.1904373168945,-85.6795425415039,-118.70065768472875,72.78426857520599,2668429565
iw,-71.1258926391601,-86.8116226196289,-116.4378555447777,66.8364355531948,2668446232
iw,-69.1791229248046,-87.8147506713867,-111.90437825086379,61.43619373554536,2668462899
iw,-67.4369888305664,-88.7585678100586,-104.39901712184835,57.37058816061992,2668479566
iw,-65.9080047607421,-90.0,-93.60322792714656,55.12697106103679,2668496233
iw,-64.5682525634765,-89.9515533447265,-79.69006975603905,54.76002950382065,2668512900
iw,-63.3997077941894,-88.7216033935546,-63.34952018079768,55.87675145577979,2668529567
iw,-62.4652442932128,-87.6680374145507,-45.71271488566754,57.74586997715941,2668546234
iw,-61.9917755126953,-86.5432205200195,-28.166861049919383,59.50263619141,2668562901
iw,-62.0308151245117,-85.3657913208007,-12.078653456840547,60.39126514695981,2668579568
iw,-62.4862670898437,-84.2079010009765,1.5141931968397269,59.97390115353078,2668596235
iw,-63.0353050231933,-83.1196060180664,12.147879115566392,58.24108313925042,2668612902
iw,-63.4010276794433,-82.0775146484375,20.019528688726542,55.583630277925515,2668629569
iw,-63.6992607116699,-81.160774230957,25.873181540215658,52.62352630208884,2668646236
iw,-64.2008819580078,-80.4319915771484,30.721307739286924,49.94323835994752,2668662903
iw,-64.9264755249023,-79.8351211547851,35.50182962725139,47.78976194220891,2668679570
iw,-65.5659790039062,-79.3178939819336,40.78663197393298,45.85084611605695,2668696237
iw,-66.1758651733398,-78.8223419189453,46.62980284445058,43.195018593586596,2668712904
iw,-67.1561203002929,-78.2870330810546,52.5952585241932,38.4279819364557,2668729571
iw,-68.4737243652343,-77.6445388793945,57.94885005433304,30.05099190400272,2668746238
iw,-69.942512512207,-76.9823455810546,61.9463117676539,16.930402298326516,2668762905
iw,-71.4221115112304,-76.5190505981445,64.11178539271268,-1.270524476921039,2668779572
iw,-72.6117858886718,-76.5416717529296,64.40495346096463,-23.857531060648597,2668796239
iw,-73.5812301635742,-77.3373718261718,63.222999523251175,-49.176879984301685,2668812906
iw,-74.6817779541015,-78.9576263427734,61.25254559859282,-74.9946905346643,2668829573
iw,-75.6910018920898,-81.0984344482421,59.2404065774295,-99.0661067675722,2668846240
iw,-76.5709152221679,-83.3955078125,57.76938944918321,-119.6957848333713,2668862907
iw,-77.5695571899414,-85.1127624511718,57.10982949085985,-136.09179249413526,2668879574
iw,-78.5363311767578,-85.1742401123046,57.183611132852384,-148.40009384513397,2668896241
iw,-79.4271926879882,-83.9182739257812,57.63712827648876,-157.43760602498455,2668912908
iw,-80.2939224243164,-82.3568954467773,57.98426581276663,-164.2573412875805,2668929575
iw,-81.0232315063476,-80.4858322143554,57.76285019234113,-169.72674449305606,2668946242
iw,-81.5583572387695,-78.222541809082,56.65444979811051,-174.26300792163008,2668962909
iw,-81.7765121459961,-75.7225112915039,54.54173511051078,-177.77602552500966,2668979576
iw,-81.7562408447265,-73.1483612060546,51.50574230847545,-179.77781400165406,2668996243
iw,-81.5293045043945,-70.4397811889648,47.784189383519966,-179.57250005977704,2669012910
iw,-81.1012191772461,-67.6624603271484,43.71598282435397,-176.44955420528697,2669029577
iw,-80.5773010253906,-64.9986572265625,39.68968477030193,-169.83820702841257,2669046244
iw,-80.0341796875,-62.5937538146972,36.10253143065547,-159.41342983280296,2669062911
iw,-79.5051803588867,-60.4170417785644,33.32725706580005,-145.16132453865785,2669079578
iw,-79.028579711914,-58.3457565307617,31.67896633148989,-127.41558082074619,2669096245
iw,-78.532485961914,-56.5410461425781,31.374835451818022,-106.8705236701992,2669112912
iw,-77.953140258789,-55.0718727111816,32.48574346809958,-84.56489367058634,2669129579
iw,-77.2845001220703,-53.9818954467773,34.888835779170726,-61.82208552022003,2669146246
iw,-76.547607421875,-53.2757568359375,38.238757902087606,-40.13436227051864,2669162913
iw,-75.7748870849609,-52.9392585754394,41.97776540842818,-20.99085179936429,2669179580
iw,-74.9977035522461,-52.923542022705,45.39854995728774,-5.666757129406848,2669196247
iw,-74.2245101928711,-53.1112899780273,47.75978891412081,4.9916247472044715,2669212914
iw,-73.4464721679687,-53.3305511474609,48.437429436004074,10.740089339625529,2669229581
iw,-72.6388244628906,-53.5357284545898,47.079571762560214,12.021371056337992,2669246248
iw,-71.7905731201171,-53.69771194458,43.7236582637269,9.928108267582335,2669262915
iw,-70.9683609008789,-53.8365058898925,38.83465878285153,6.035220358328673,2669279582
iw,-70.2735900878906,-53.966251373291,33.23476276787462,2.1237808006508523,2669296249
iw,-69.7608184814453,-54.0708427429199,27.9200023060492,-0.15280200358718665,2669312916
iw,-69.3962860107421,-54.1824684143066,23.793868303406555,0.40978024629459897,2669329583
iw,-69.099250793457,-54.2799530029296,21.382271931956407,4.333126357435182,2669346250
iw,-68.8833389282226,-54.4153709411621,20.614402109271925,11.375327417247757,2669362917
iw,-68.7249984741211,-54.8207511901855,20.74910138892057,20.639614219628395,2669379584
iw,-68.535415649414,-55.8320808410644,20.49256399115113,30.860899535020565,2669396251
iw,-68.2780685424804,-57.3932876586914,18.296217375983677,40.796210619072134,2669412918
iw,-68.0167465209961,-59.0193099975585,12.760503250921003,49.59082120181482,2669429585
iw,-67.9084167480468,-60.4517631530761,3.0259953753130704,56.98166845551107,2669446252
iw,-68.0994338989257,-61.4728355407714,-10.970439519506582,63.25670358683241,2669462919
iw,-68.7396163940429,-62.3146362304687,-28.454874499636027,68.9960952459047,2669479586
iw,-69.8566589355468,-63.3406944274902,-47.99917076745362,74.7225585512853,2669496253
iw,-71.4630050659179,-64.8277740478515,-67.86088928183634,80.62432168824921,2669512920
iw,-73.4680938720703,-66.7374954223632,-86.36501089966642,86.46478806531643,2669529587
iw,-75.7215576171875,-68.6932296752929,-102.20870613408145,91.69026822298333,2669546254
iw,-78.0034942626953,-70.614501953125,-114.61356345187835,95.6534130238725,2669562921
iw,-80.2242889404296,-72.4268264770507,-123.31948111507073,97.83418340884752,2669579588
iw,-82.2347946166992,-74.0860519409179,-128.4759044376678,97.96935665273443,2669596255
iw,-83.9132461547851,-75.6979446411132,-130.50879581434714,96.06550995669926,2669612922
iw,-84.9336471557617,-77.2774429321289,-130.019710075088,92.32862497207604,2669629589
iw,-84.8710021972656,-78.8024063110351,-127.72749181053148,87.0695163765272,2669646256
iw,-83.782241821289,-80.2332458496093,-124.42409305666092,80.63524285851997,2669662923
iw,-82.1805877685546,-81.5424652099609,-120.90457831167964,73.387526408622,2669679590
iw,-80.4823303222656,-82.7747726440429,-117.84994241173898,65.71933715078838,2669696257
iw,-78.8556213378906,-83.9222335815429,-115.67738345975803,58.08261014745728,2669712924
iw,-77.1518402099609,-84.9099197387695,-114.40664546511914,50.99686682168469,2669729591
iw,-75.2328491210937,-85.7101974487304,-113.60372581836265,45.01831323011045,2669746258
iw,-73.1598434448242,-86.3903884887695,-112.4439644891558,40.66717657364916,2669762925
iw,-71.1326751708984,-87.0157470703125,-109.89247809666571,38.33060571251501,2669779592
iw,-69.2631149291992,-87.6728286743164,-104.9552091853195,38.171397465688955,2669796259
iw,-67.6114883422851,-88.391731262207,-96.93227050640431,40.07394065364418,2669812926
iw,-66.164321899414,-89.2134170532226,-85.61166942282658,43.64834378518411,2669829593
iw,-64.8983001708984,-90.0,-71.3621999574384,48.2964579843872,2669846260
iw,-63.8197708129882,-89.2082061767578,-55.103980763631746,53.32574749146218,2669862927
iw,-63.0983009338378,-88.0747146606445,-38.15147132955465,58.08395344561357,2669879594
iw,-62.9215545654296,-86.9361877441406,-21.946303964694433,62.0817981088094,2669896261
iw,-63.1615600585937,-85.7577667236328,-7.732446564705665,65.07245277742715,2669912928
iw,-63.6517715454101,-84.5606613159179,3.7371065737546685,67.06399467658,2669929595
iw,-63.9936943054199,-83.3421783447265,12.36197545386949,68.25383547058615,2669946262
iw,-64.1438751220703,-82.1428756713867,18.660277996410112,68.89150114350731,2669962929
iw,-64.4792098999023,-81.0449447631836,23.548396953508668,69.09693444097495,2669979596
iw,-65.0806732177734,-80.0685119628906,28.016001205571428,68.68263767320619,2669996263
iw,-65.6494445800781,-79.1627349853515,32.80886402170201,67.04264772545469,2670012930
iw,-66.0803146362304,-78.2883224487304,38.21680554525258,63.169070518771804,2670029597
iw,-66.8189392089843,-77.4298248291015,44.02391329885424,55.82921125251796,2670046264
iw,-67.9129943847656,-76.5418853759765,49.63038389786151,43.88476401639988,2670062931
iw,-69.1699905395507,-75.7601470947265,54.30337209579137,26.674210222289858,2670079598
iw,-70.654052734375,-75.3068695068359,57.46745026475951,4.335334862903581,2670096265
iw,-71.8918762207031,-75.4183502197265,58.92657925564789,-22.058801122186015,2670112932
iw,-72.9367218017578,-76.2258911132812,58.935190774521146,-50.62851648668488,2670129599
iw,-73.9343566894531,-77.7799530029296,58.09732671334922,-79.06951629516497,2670146266
iw,-74.816665649414,-79.9344406127929,57.14085872712355,-105.17974413652175,2670162933
iw,-75.6072998046875,-82.3606719970703,56.65898773726904,-127.35863805471529,2670179600
iw,-76.4637832641601,-84.21826171875,56.91821046638191,-144.90714779612765,2670196267
iw,-77.4212951660156,-84.3671340942382,57.80118228568375,-158.02915798372686,2670212934
iw,-78.4205474853515,-83.1434249877929,58.896268160513884,-167.55322839530612,2670229601
iw,-79.4655456542968,-81.6710510253906,59.685267447854585,-174.50519883453924,2670246268
iw,-80.3748779296875,-79.9173812866211,59.74403891463083,-179.71076953712773,2670262935
iw,-80.9910202026367,-77.6884689331054,58.87476676411954,-183.5675815448294,2670279602
iw,-81.2561950683593,-75.1654815673828,57.12877547166573,-186.02659137403407,2670296269
iw,-81.2121963500976,-72.5209197998046,54.731955123611144,-186.72632074236353,2670312936
iw,-80.9655609130859,-69.7403335571289,51.964072348387774,-185.18234798023963,2670329603
iw,-80.5962295532226,-66.9608383178711,49.05278865450233,-180.95282408643473,2670346270
iw,-80.1509475708007,-64.3021621704101,46.124652664465174,-173.7457853727377,2670362937
iw,-79.6826171875,-61.8767318725585,43.22261245505781,-163.4707259894856,2670379604
iw,-79.2442855834961,-59.6271896362304,40.368881635286066,-150.25200146890194,2670396271
iw,-78.8260116577148,-57.5335540771484,37.6344227575261,-134.420293499256,2670412938
iw,-78.3376235961914,-55.7096366882324,35.176379264829926,-116.49087087452047,2670429605
iw,-77.7540435791015,-54.2287864685058,33.22110341186782,-97.13166736988761,2670446272
iw,-77.0952911376953,-53.0973434448242,31.996057385263768,-77.12343770977778,2670462939
iw,-76.3974227905273,-52.2416648864746,31.638044959566898,-57.31574322411442,2670479606
iw,-75.700454711914,-51.6192169189453,32.11779844387443,-38.58059993522532,2670496273
iw,-75.0320205688476,-51.2552986145019,33.21665414878428,-21.759030018309325,2670512940
iw,-74.3722381591796,-51.2175827026367,34.57136307408745,-7.591253690203577,2670529607
iw,-73.6987075805664,-51.3947067260742,35.775800644989765,3.372787258897756,2670546274
iw,-72.9914245605468,-51.6089515686035,36.504842717465856,10.86980260354811,2670562941
iw,-72.2331848144531,-51.8679389953613,36.61563708608363,14.998229292116534,2670579608
iw,-71.4832000732421,-52.141616821289,36.18812192250029,16.24069561185341,2670596275
iw,-70.8088150024414,-52.4849853515625,35.48598826001438,15.414330757591767,2670612942
iw,-70.1757202148437,-52.8771820068359,34.84348298507126,13.549519357980754,2670629609
iw,-69.5624160766601,-53.2634925842285,34.505163910492186,11.717775790379775,2670646276
iw,-69.0423431396484,-53.595588684082,34.461219616751606,10.84466090743843,2670662943
iw,-68.6625823974609,-53.840087890625,34.32930052885309,11.552667859109992,2670679610
iw,-68.3405303955078,-54.1227493286132,33.33254917114485,14.079155465134711,2670696277
iw,-67.9992065429687,-54.6656227111816,30.40696555786869,18.299322586588918,2670712944
iw,-67.6298599243164,-55.5645484924316,24.435743917901373,23.849556835266302,2670729611
iw,-67.2823257446289,-56.6683082580566,14.560329415327422,30.301616390219362,2670746278
iw,-67.0885467529296,-57.7749061584472,0.47639575223879177,37.30889506213179,2670762945
iw,-67.3006134033203,-58.7437057495117,-17.38938603560763,44.657984983462384,2670779612
iw,-68.0518722534179,-59.5811195373535,-37.895683091170575,52.21251030957024,2670796279
iw,-69.3045501708984,-60.4869384765625,-59.403837028491004,59.80101528851264,2670812946
iw,-71.0197601318359,-61.7715415954589,-80.12885682595054,67.13455538182592,2670829613
iw,-73.2140655517578,-63.4320831298828,-98.50610552899319,73.81904799106263,2670846280
iw,-75.6958923339843,-65.2168350219726,-113.45432069301339,79.46457643611198,2670862947
iw,-78.1944961547851,-66.9161605834961,-124.46636747324975,83.82983444816126,2670879614
iw,-80.6403350830078,-68.499641418457,-131.53858721264095,86.91657512367794,2670896281
iw,-82.8571090698242,-70.0100631713867,-135.01550746348627,88.95853616872635,2670912948
iw,-84.5959396362304,-71.4904708862304,-135.44230118225363,90.30815514717895,2670929615
iw,-85.3896865844726,-73.0045700073242,-133.47903690277002,91.27483559561934,2670946282
iw,-84.9191665649414,-74.5798645019531,-129.870496458027,91.98611204184297,2670962949
iw,-83.6055831909179,-76.1946563720703,-125.42400788274232,92.32656497787617,2670979616
iw,-81.9494857788086,-77.8211135864257,-120.94616479811359,91.9736534211064,2670996283
iw,-80.1586151123046,-79.4207611083984,-117.12089588166384,90.51328017287966,2671012950
iw,-78.4654464721679,-81.060073852539,-114.35371296153374,87.59380105841315,2671029617
iw,-76.7414627075195,-82.6732711791992,-112.63765931660069,83.06950364860249,2671046284
iw,-74.8742752075195,-84.111946105957,-111.5018356800919,77.09108903969181,2671062951
iw,-72.9005126953125,-85.3859939575195,-110.08041354410928,70.11719156311283,2671079618
iw,-70.9713592529296,-86.4903335571289,-107.2979327920352,62.84310535397919,2671096285
iw,-69.2024765014648,-87.4384536743164,-102.12548889755043,56.06516443319777,2671112952
iw,-67.6416397094726,-88.281494140625,-93.84152828356603,50.515626021518514,2671129619
iw,-66.2486724853515,-89.0691680908203,-82.23477725554945,46.70963252883924,2671146286
iw,-65.0444641113281,-90.0,-67.7043564688559,44.84238298432875,2671162953
iw,-64.0881805419921,-89.7195434570312,-51.23120715531848,44.762685324888416,2671179620
iw,-63.48433303833,-88.8298110961914,-34.21422268928137,46.03118684059704,2671196287
iw,-63.3099670410156,-87.9229278564453,-18.19090842453441,48.05065830192162,2671212954
iw,-63.535171508789,-86.9468765258789,-4.498363832817992,50.235012155415404,2671229621
iw,-63.9758338928222,-85.9176940917968,6.036120348542614,52.16812182298815,2671246288
iw,-64.2912445068359,-84.8394241333007,13.277342420533238,53.699300746895915,2671262955
iw,-64.4639129638671,-83.7798767089843,17.773401034354453,54.93435137427158,2671279622
iw,-64.7211837768554,-82.8153991699218,20.55879725002707,56.10975745981755,2671296289
iw,-65.2035446166992,-81.9744873046875,22.838719116814925,57.377698866853805,2671312956
iw,-65.7935180664062,-81.2515182495117,25.655213016729743,58.57007751524837,2671329623
iw,-66.2452850341796,-80.5315170288086,29.6260373928977,59.034545883859984,2671346290
iw,-66.5946197509765,-79.7174606323242,34.81635322016006,57.628775149333855,2671362957
iw,-67.3696899414062,-78.8336105346679,40.77070742750252,52.91491045624214,2671379624
iw,-68.3741607666015,-77.9372100830078,46.696756005846844,43.52542970028521,2671396291
iw,-69.6553115844726,-77.1269989013671,51.747572391175005,28.600226084599587,2671412958
iw,-71.0607147216796,-76.5861282348632,55.30964603473265,8.15181671253078,2671429625
iw,-72.2110977172851,-76.6177978515625,57.195113441687944,-16.778476212641255,2671446292
iw,-73.1072311401367,-77.3937835693359,57.672343772908505,-44.251640384666175,2671462959
iw,-74.1559829711914,-78.849365234375,57.33401114354017,-71.83192473701502,2671479626
iw,-75.0867614746093,-80.7870635986328,56.86359747120983,-97.14229756151866,2671496293
iw,-75.9120178222656,-82.9398727416992,56.79248604725515,-118.3997096115438,2671512960
iw,-76.8838729858398,-84.6129684448242,57.33368879711642,-134.76086956173955,2671529627
iw,-77.8684158325195,-84.7042465209961,58.343497659625996,-146.37809274794975,2671546294
iw,-78.8963851928711,-83.4447326660156,59.412080902369425,-154.16996372956737,2671562961
iw,-79.8852233886718,-81.9572448730468,60.035596066165944,-159.41106412387578,2671579628
iw,-80.7051239013671,-80.3364562988281,59.79629360305863,-163.2968873198529,2671596295
iw,-81.3196792602539,-78.3698196411132,58.48476685591427,-166.6227245783575,2671612962
iw,-81.5791397094726,-76.1041946411132,56.13290156936167,-169.64428041012357,2671629629
iw,-81.5729141235351,-73.7502975463867,52.9670697603027,-172.1080592127685,2671646296
iw,-81.4263687133789,-71.193000793457,49.31887831488173,-173.39263097565674,2671662963
iw,-81.1449737548828,-68.5048141479492,45.535968979599424,-172.69712011877763,2671679630
iw,-80.7418899536132,-65.8368911743164,41.92156116761438,-169.23098451584335,2671696297
iw,-80.2240295410156,-63.3959922790527,38.71039644065107,-162.3771996348794,2671712964
iw,-79.7016525268554,-61.2056808471679,36.07193009156431,-151.813115090468,2671729631
iw,-79.2201309204101,-59.0865402221679,34.12415059306792,-137.5832308364293,2671746298
iw,-78.7035598754882,-57.1709938049316,32.942531594361874,-120.12590391865268,2671762965
iw,-78.1041717529296,-55.5759811401367,32.55548587122385,-100.25767031891269,2671779632
iw,-77.4398880004882,-54.3311767578125,32.92723923359413,-79.11544360217316,2671796299
iw,-76.7563552856445,-53.4074478149414,33.93765070035496,-58.0544979789466,2671812966
iw,-76.0856628417968,-52.8078346252441,35.37266375296565,-38.50285694290699,2671829633
iw,-75.4407882690429,-52.5041313171386,36.937350671957645,-21.780187247784145,2671846300
iw,-74.8113250732421,-52.4878959655761,38.29684878799397,-8.900383254388723,2671862967
iw,-74.1746444702148,-52.6070022583007,39.14071430475242,-0.38993222555232815,2671879634
iw,-73.46728515625,-52.7824668884277,39.25559941325927,3.8361631494568034,2671896301
iw,-72.6564254760742,-52.917495727539,38.583150294148645,4.499863467545588,2671912968
iw,-71.8036956787109,-52.959732055664,37.23874504121445,2.8617677725365436,2671929635
iw,-70.9963455200195,-52.9610023498535,35.474326887048235,0.503291474570296,2671946302
iw,-70.2862014770507,-53.0010337829589,33.5833825246015,-0.9715547621744007,2671962969
iw,-69.7419052124023,-53.0851516723632,31.76397484713972,-0.24850004836052703,2671979636
iw,-69.409194946289,-53.2437515258789,29.97371129212616,3.4455680790244623,2671996303
iw,-69.1823501586914,-53.5032272338867,27.82616498139511,10.214758105774694,2672012970
iw,-68.9591598510742,-53.8439407348632,24.58431627807637,19.52388575427483,2672029637
iw,-68.7317199707031,-54.5312576293945,19.290311783256378,30.38141768786099,2672046304
iw,-68.4798431396484,-55.9181060791015,11.024963582708677,41.6287665165076,2672062971
iw,-68.2914962768554,-57.7326545715332,-0.7726197325339631,52.249988152238956,2672079638
iw,-68.4106521606445,-59.4455490112304,-16.04222579601623,61.59729125021079,2672096305
iw,-69.0559158325195,-60.7116546630859,-34.0111218128526,69.45211398911655,2672112972
iw,-70.2540969848632,-61.7446861267089,-53.32701527192745,75.91382465942515,2672129639
iw,-71.8768844604492,-63.0020332336425,-72.37396147989283,81.19427377768427,2672146306
iw,-73.8875274658203,-64.688720703125,-89.65130887514233,85.43918729749346,2672162973
iw,-76.1675186157226,-66.6155700683593,-104.07533247024966,88.66490818173139,2672179640
iw,-78.5004119873046,-68.4848175048828,-115.11061403636467,90.81615892758661,2672196307
iw,-80.8111953735351,-70.2483291625976,-122.72464586725624,91.87770589404843,2672212974
iw,-82.8704147338867,-71.8973770141601,-127.23440593215811,91.95470859938062,2672229641
iw,-84.4205093383789,-73.4378128051757,-129.1384568840473,91.27221969402785,2672246308
iw,-85.1126403808593,-74.9578094482421,-128.99929584118183,90.10006498548051,2672262975
iw,-84.7126541137695,-76.4926528930664,-127.38827467265564,88.64995626104064,2672279642
iw,-83.462287902832,-77.9768905639648,-124.86509833922631,87.00027986719954,2672296309
iw,-81.7472610473632,-79.4120864868164,-121.95276182511425,85.08425481495051,2672312976
iw,-79.8513259887695,-80.8507385253906,-119.0829016633814,82.74501870657188,2672329643
iw,-78.0409622192382,-82.3345108032226,-116.51283036339564,79.83315958165541,2672346310
iw,-76.2601318359375,-83.8039398193359,-114.2413192945915,76.30758251537496,2672362977
iw,-74.4034805297851,-85.2041702270507,-111.96463762154134,72.30128259265517,2672379644
iw,-72.4916839599609,-86.445816040039,-109.10867044924133,68.12710909763035,2672396311
iw,-70.6040496826171,-87.5464859008789,-104.94671430718373,64.21975402186999,2672412978
iw,-68.8547210693359,-88.6094284057617,-98.77866932689152,61.03175780630613,2672429645
iw,-67.316780090332,-89.8356781005859,-90.12423263629756,58.91597733467851,2672446312
iw,-65.9919815063476,-89.8733367919921,-78.87958760381635,58.030450468263425,2672462979
iw,-64.85400390625,-88.6489639282226,-65.39886158100835,58.294383788663126,2672479646
iw,-63.9273262023925,-87.6069030761718,-50.47754129395194,59.4094372617266,2672496313
iw,-63.2733154296875,-86.5208129882812,-35.230405737123405,60.942057757498816,2672512980
iw,-62.9758415222168,-85.3739471435546,-20.875523805820173,62.44384680981678,2672529647
iw,-63.1000823974609,-84.1913681030273,-8.463426963087725,63.57261821417382,2672546314
iw,-63.5186424255371,-82.9979248046875,1.3785019795439253,64.1721019823193,2672562981
iw,-63.8940849304199,-81.8198852539062,8.600575771950922,64.276394052916,2672579648
iw,-64.0871429443359,-80.7103500366211,13.718408091243324,64.025919482721,2672596315
iw,-64.2753677368164,-79.6897888183593,17.62585155453274,63.51080773988731,2672612982
iw,-64.665901184082,-78.7693710327148,21.29558046634449,62.587754450317156,2672629649
iw,-65.1158828735351,-77.9551467895507,25.473092416176716,60.73790588407344,2672646316
iw,-65.4926071166992,-77.2292938232421,30.46703471155786,57.03615044441101,2672662983
iw,-66.0753021240234,-76.5352401733398,36.09934135207854,50.27963132552368,2672679650
iw,-66.9601135253906,-75.7936096191406,41.82367857630536,39.27520807810978,2672696317
iw,-68.1485366821289,-75.0497589111328,46.96500145620071,23.222233896578135,2672712984
iw,-69.4749526977539,-74.5603790283203,50.98970971670172,2.070748402220657,2672729651
iw,-70.5420761108398,-74.6219787597656,53.703274994792714,-23.284636207456526,2672746318
iw,-71.4437789916992,-75.455078125,55.30241631952589,-51.07705240868937,2672762985
iw,-72.4175109863281,-77.0323028564453,56.270845705752365,-79.01696536710878,2672779652
iw,-73.3210067749023,-79.1729278564453,57.1700413674599,-104.82145234949996,2672796319
iw,-74.309097290039,-81.6484222412109,58.41126026452329,-126.74861150788962,2672812986
iw,-75.2716445922851,-83.8834228515625,60.09404870172445,-143.95419924212126,2672829653
iw,-76.2866668701171,-84.7297286987304,61.96722751247171,-156.55393243189528,2672846320
iw,-77.3744125366211,-83.9350204467773,63.522263866073494,-165.3892689824741,2672862987
iw,-78.4775390625,-82.6023254394531,64.1803385707014,-171.60788729703876,2672879654
iw,-79.4641571044921,-80.9622344970703,63.50120782055076,-176.23032397907951,2672896321
iw,-80.2628402709961,-78.8319320678711,61.33844334430459,-179.85361554567842,2672912988
iw,-80.7558670043945,-76.3247451782226,57.892303710164924,-182.5590457021487,2672929655
iw,-80.920654296875,-73.651138305664,53.65374438296363,-183.9970679192542,2672946322
iw,-80.8861999511718,-70.8522338867187,49.27083877883968,-183.56747458085147,2672962989
iw,-80.6908264160156,-68.0568084716796,45.38821248459327,-180.61133778149295,2672979656
iw,-80.3497619628906,-65.3689193725586,42.50834788717083,-174.56417924136966,2672996323
iw,-79.9189071655273,-62.8938980102539,40.90717223305964,-165.05813058762345,2673012990
iw,-79.4707336425781,-60.6074333190918,40.61450800054237,-151.98476778659418,2673029657
iw,-79.0579757690429,-58.4410247802734,41.45004746284614,-135.53455254729985,2673046324
iw,-78.577163696289,-56.5170440673828,43.092010421078356,-116.21884870729369,2673062991
iw,-77.9721145629882,-54.9428405761718,45.15139566175731,-94.86713801710614,2673079658
iw,-77.284683227539,-53.7239303588867,47.23040354511853,-72.58565685503869,2673096325
iw,-76.5734710693359,-52.8619537353515,48.95632090584131,-50.66805744890151,2673112992
iw,-75.8637237548828,-52.4255218505859,49.996380013371265,-30.46010395587913,2673129659
iw,-75.1721038818359,-52.2972755432128,50.06913849649635,-13.192911620248397,2673146326
iw,-74.4860000610351,-52.3765983581543,48.96942876396095,0.1906229678216854,2673162993
iw,-73.7722625732421,-52.6279182434082,46.61474515308554,9.185585588860791,2673179660
iw,-73.0242614746093,-52.8938484191894,43.10330539854265,13.820258758410024,2673196327
iw,-72.252197265625,-53.1124763488769,38.75610520723806,14.672468980297342,2673212994
iw,-71.5110855102539,-53.3780822753906,34.10799935860961,12.795108735757356,2673229661
iw,-70.8736572265625,-53.6686744689941,29.822831799952006,9.555369859224836,2673246328
iw,-70.3596267700195,-53.9392280578613,26.532651769178962,6.409943917309429,2673262995
iw,-69.9657211303711,-54.1429481506347,24.631791301665615,4.654658502010371,2673279662
iw,-69.6937866210937,-54.2909393310546,24.082315992666736,5.199575017668436,2673296329
iw,-69.4925384521484,-54.442886352539,24.299759993909948,8.425244168828819,2673312996
iw,-69.2833557128906,-54.7217559814453,24.180829426204905,14.165134998800067,2673329663
iw,-68.9915542602539,-55.3491134643554,22.302935854007657,21.827505353105956,2673346330
iw,-68.6221313476562,-56.5832977294921,17.270037282634167,30.621330555991015,2673362997
iw,-68.3124008178711,-58.0630493164062,8.11547545268554,39.80390093710101,2673379664
iw,-68.27685546875,-59.3158073425293,-5.370354756969051,48.85071851676442,2673396331
iw,-68.6863098144531,-60.2439346313476,-22.5128561053357,57.482632487965894,2673412998
iw,-69.6069183349609,-61.0888710021972,-41.88772860033407,65.56187260492713,2673429665
iw,-70.9572601318359,-62.2556381225585,-61.6792985787473,72.94291145637904,2673446332
iw,-72.751838684082,-63.8596038818359,-80.13520565118128,79.38422209915434,2673462999
iw,-74.9097747802734,-65.7314376831054,-95.95290497001344,84.57803578731894,2673479666
iw,-77.2368087768554,-67.5632858276367,-108.46893436926644,88.27323312755186,2673496333
iw,-79.5381317138671,-69.3006134033203,-117.61466471525166,90.40844770151818,2673513000
iw,-81.7650070190429,-70.9487075805664,-123.70625586674173,91.17150482588573,2673529667
iw,-83.7172775268554,-72.4706192016601,-127.19764015645927,90.94830518494024,2673546334
iw,-85.1020355224609,-73.9718475341796,-128.51417444214036,90.18424182450586,2673563001
iw,-85.3613891601562,-75.4846801757812,-128.0158653680834,89.22132260712233,2673579668
iw,-84.3578491210937,-76.9968490600586,-126.05843869610347,88.17960209597977,2673596335
iw,-82.7267074584961,-78.4850463867187,-123.0717967106345,86.92719531948386,2673613002
iw,-80.8962936401367,-79.9634399414062,-119.57727926654374,85.14612368302072,2673629669
iw,-79.1802902221679,-81.4399642944336,-116.1087031350381,82.46889397356007,2673646336
iw,-77.5683364868164,-82.8995513916015,-113.06129674077788,78.64173607788099,2673663003
iw,-75.850959777832,-84.2993087768554,-110.53742593724054,73.66491171492223,2673679670
iw,-73.9545593261718,-85.5590515136718,-108.26643065401264,67.86596039537936,2673696337
iw,-72.0387725830078,-86.6500549316406,-105.64423641958471,61.87722989438836,2673713004
iw,-70.218276977539,-87.56201171875,-101.88566238995332,56.513824865539284,2673729671
iw,-68.5712509155273,-88.3658981323242,-96.23904036338934,52.57798795714307,2673746338
iw,-67.094612121582,-89.1383819580078,-88.19832405480096,50.64218453723405,2673763005
iw,-65.7769927978515,-89.7833023071289,-77.65870655753835,50.875704067773526,2673779672
iw,-64.6234512329101,-89.1282272338867,-64.98138788758943,52.97182274756877,2673796339
iw,-63.7135696411132,-88.1186218261718,-50.95041228365552,56.204987283776326,2673813006
iw,-63.0798568725585,-87.0700302124023,-36.620978747967506,59.60824421556737,2673829673
iw,-62.7651214599609,-85.8817749023437,-23.08148605429137,62.223120869855805,2673846340
iw,-62.8831672668457,-84.6253585815429,-11.18204725174759,63.34944412866928,2673863007
iw,-63.2693748474121,-83.4015350341796,-1.3095653538733234,62.71810301616996,2673879674
iw,-63.5203018188476,-82.2348403930664,6.706134924257691,60.527122789713516,2673896341
iw,-63.5987663269043,-81.2145233154296,13.505506334755246,57.31827137192161,2673913008
iw,-63.7894592285156,-80.4214553833007,19.950701214551348,53.720819536000214,2673929675
iw,-64.3019104003906,-79.8325119018554,26.802427264386168,50.13844562276608,2673946342
iw,-64.9436950683593,-79.3639755249023,34.438666302494035,46.48776738162079,2673963009
iw,-65.3971710205078,-78.9052581787109,42.71100249379084,42.09599753109492,2673979676
iw,-66.3193054199218,-78.3415832519531,50.98379298332106,35.82224908271095,2673996343
iw,-67.5597839355468,-77.6625213623046,58.34373085364128,26.389820905293327,2674013010
iw,-68.9914169311523,-77.0330581665039,63.91267545345752,12.831359292278059,2674029677
iw,-70.6364288330078,-76.6952819824218,67.15658163897743,-5.108822480613461,2674046344
iw,-71.9290924072265,-76.9268493652343,68.07826736249875,-26.77076996704637,2674063011
iw,-73.00244140625,-77.8436889648437,67.22255458970474,-50.66353945081879,2674079678
iw,-74.1529464721679,-79.3682708740234,65.49402365877125,-74.82156184274024,2674096345
iw,-75.1225280761718,-81.3390274047851,63.85696982963845,-97.31119372875015,2674113012
iw,-76.0706481933593,-83.5152969360351,63.02542926260732,-116.70851118084668,2674129679
iw,-76.9424133300781,-85.2451095581054,63.24913513982736,-132.38264030091324,2674146346
iw,-77.8797607421875,-85.243293762207,64.26487725031457,-144.4967679888467,2674163013
iw,-78.9151763916015,-83.7816772460937,65.42358527696048,-153.75073140937008,2674179680
iw,-79.9639587402343,-82.0452499389648,65.93971821033102,-160.98939953315437,2674196347
iw,-80.8809432983398,-80.173713684082,65.16663868039063,-166.84433792917585,2674213014
iw,-81.533950805664,-77.9841384887695,62.79969788619099,-171.54010564670583,2674229681
iw,-81.8274688720703,-75.5314102172851,58.94711968354962,-174.90238862730382,2674246348
iw,-81.7718963623046,-72.9506378173828,54.065416393888675,-176.50964448194455,2674263015
iw,-81.4520645141601,-70.2911224365234,48.80302870918133,-175.88492101170434,2674279682
iw,-80.9443206787109,-67.6468887329101,43.81640559618188,-172.64173713145038,2674296349
iw,-80.2849578857421,-65.1071090698242,39.6169106137981,-166.54998267176558,2674313016
iw,-79.5785903930664,-62.7601280212402,36.48528941841284,-157.53731854955322,2674329683
iw,-78.9636306762695,-60.6694564819335,34.464102608887096,-145.6664272822907,2674346350
iw,-78.4647598266601,-58.650951385498,33.414273649662526,-131.12611744093712,2674363017
iw,-77.9859924316406,-56.7449645996093,33.10401853196054,-114.2532489040721,2674379684
iw,-77.4621124267578,-55.1731262207031,33.292025922204644,-95.57557024191978,2674396351
iw,-76.8974533081054,-53.9916915893554,33.77552743137468,-75.84677882858772,2674413018
iw,-76.3207168579101,-53.1131439208984,34.394456880610946,-56.0430634190271,2674429685
iw,-75.7387084960937,-52.472843170166,35.00466612169352,-37.30211344558735,2674446352
iw,-75.1758651733398,-52.1440734863281,35.44553652052651,-20.80138076754819,2674463019
iw,-74.6244354248046,-52.1886177062988,35.526315980183384,-7.587678183692268,2674479686
iw,-74.0445327758789,-52.356704711914,35.044240358535404,1.613248963902612,2674496353
iw,-73.4145050048828,-52.5253829956054,33.832556206936935,6.563162922446765,2674513020
iw,-72.723648071289,-52.6568374633789,31.824100476130265,7.605537046687096,2674529687
iw,-71.993537902832,-52.6849288940429,29.109159402448594,5.653200665351401,2674546354
iw,-71.2866821289062,-52.7397575378418,25.964408690192197,2.062440032293148,2674563021
iw,-70.6334762573242,-52.8578643798828,22.83133474010107,-1.5852602642020075,2674579688
iw,-70.0928802490234,-53.0000953674316,20.228943375079815,-3.7539204647183584,2674596355
iw,-69.7476501464843,-53.0834350585937,18.601237295033354,-3.228374148019108,2674613022
iw,-69.5783462524414,-53.1527557373046,18.126990974435234,0.6565067669514033,2674629689
iw,-69.4710617065429,-53.2672691345214,18.550187927813006,7.884392388651847,2674646356
iw,-69.3620147705078,-53.5228767395019,19.1063594839049,17.7684252840756,2674663023
iw,-69.2187423706054,-54.1096839904785,18.605415543057994,29.123037313747805,2674679690
iw,-69.0267028808593,-55.2500877380371,15.681831242706293,40.56830440940454,2674696357
iw,-68.8049926757812,-56.8227882385253,9.154611820758447,50.88447286164004,2674713024
iw,-68.7239685058593,-58.4575424194335,-1.617014301239486,59.2999319634033,2674729691
iw,-68.9944992065429,-59.7254638671875,-16.509790554701002,65.60898375385766,2674746358
iw,-69.7654724121093,-60.6934661865234,-34.629223151972695,70.08402804765832,2674763025
iw,-71.0577621459961,-61.727123260498,-54.519663553501964,73.24094168918118,2674779692
iw,-72.8615188598632,-63.0693740844726,-74.5067021527956,75.58106001782424,2674796359
iw,-75.0728225708007,-64.7593994140625,-93.04240812910018,77.42715394436259,2674813026
iw,-77.4764938354492,-66.5382461547851,-108.94258757741243,78.90154636095617,2674829693
iw,-79.8971099853515,-68.2213058471679,-121.47381989519204,80.01133817180684,2674846360
iw,-82.1712570190429,-69.8344192504882,-130.32421065938988,80.75967880944712,2674863027
iw,-83.9806060791015,-71.3393173217773,-135.53067201467485,81.21063071291982,2674879694
iw,-84.9252624511718,-72.754409790039,-137.42058719647483,81.47953408228844,2674896361
iw,-84.5997085571289,-74.170913696289,-136.57794853147976,81.66831661529265,2674913028
iw,-83.2939071655273,-75.6223220825195,-133.80170317452817,81.79204321580303,2674929695
iw,-81.6053466796875,-77.1043624877929,-130.01402301924057,81.74174499100886,2674946362
iw,-79.7444152832031,-78.58349609375,-126.10098415741815,81.30586832849309,2674963029
iw,-77.9233474731445,-80.0778427124023,-122.71049646256294,80.24304966970374,2674979696
iw,-76.1439514160156,-81.5392837524414,-120.06838117756496,78.3766952023681,2674996363
iw,-74.235725402832,-82.9242401123046,-117.8844674870443,75.67492126410701,2675013030
iw,-72.186408996582,-84.2059020996093,-115.39902998412728,72.28763007793873,2675029697
iw,-70.1475753784179,-85.3631210327148,-111.57269570616998,68.52979347601412,2675046364
iw,-68.2771911621093,-86.4312515258789,-105.37111501245958,64.81825224792604,2675063031
iw,-66.6380462646484,-87.4573211669921,-96.06411515834377,61.5820763056229,2675079698
iw,-65.2209396362304,-88.4687728881836,-83.45908668459032,59.17103923027594,2675096365
iw,-64.0128860473632,-89.4803619384765,-68.01122223452705,57.783869215037356,2675113032
iw,-63.0768508911132,-89.737564086914,-50.782638800888506,57.43068943848192,2675129699
iw,-62.534194946289,-88.7012557983398,-33.25090160997857,57.935704723777086,2675146366
iw,-62.3604278564453,-87.7206726074218,-16.99816331568174,58.978370817743716,2675163033
iw,-62.5064353942871,-86.6728057861328,-3.3467935265824797,60.16373100039672,2675179700
iw,-62.957836151123,-85.5867843627929,6.9634553187193555,61.104639092962465,2675196367
iw,-63.3956985473632,-84.4746170043945,13.95575750035661,61.4913451210713,2675213034
iw,-63.6649055480957,-83.2841720581054,18.384279373385777,61.12126927941246,2675229701
iw,-63.8957366943359,-82.1673965454101,21.486371648689158,59.86866925244167,2675246368
iw,-64.2265014648437,-81.2710266113281,24.592083448995467,57.59339076086407,2675263035
iw,-64.6327896118164,-80.5622482299804,28.716700375045882,54.017783054682546,2675279702
iw,-65.0841369628906,-80.0109558105468,34.267479376757976,48.63011344501512,2675296369
iw,-65.6757583618164,-79.5420989990234,40.95664122247092,40.68305184943942,2675313036
iw,-66.7111663818359,-79.0791702270507,47.94634653164957,29.33217833801034,2675329703
iw,-68.0776138305664,-78.5891036987304,54.1758030217138,13.903561600351303,2675346370
iw,-69.629035949707,-78.3497619628906,58.75549738783432,-5.787271501087106,2675363037
iw,-71.1629486083984,-78.4700088500976,61.284530416773144,-29.187614417605623,2675379704
iw,-72.2697601318359,-79.1505661010742,61.97410338034386,-54.94977011069599,2675396371
iw,-73.1719436645507,-80.4809951782226,61.53790200248004,-81.12286700182393,2675413038
iw,-74.1651992797851,-82.4013900756836,60.903889910527255,-105.56015971950175,2675429705
iw,-75.0513916015625,-84.3922729492187,60.867742128558206,-126.41707244930846,2675446372
iw,-76.0431976318359,-85.216438293457,61.8194460604411,-142.56909629526953,2675463039
iw,-77.2062835693359,-84.0274200439453,63.634529176856695,-153.803236046678,2675479706
iw,-78.4159317016601,-82.0195770263671,65.75241827072811,-160.72658251569374,2675496373
iw,-79.5895462036132,-80.0471115112304,67.39447905919039,-164.44929218695995,2675513040
iw,-80.6607208251953,-78.0653305053711,67.82938989949896,-166.17873645319028,2675529707
iw,-81.5334548950195,-75.8977584838867,66.58955762525379,-166.869179405866,2675546374
iw,-82.0025024414062,-73.603042602539,63.57630132102422,-167.0160778270911,2675563041
iw,-82.0949096679687,-71.2361297607421,59.043819904684526,-166.6112227724322,2675579708
iw,-81.9243392944336,-68.7466506958007,53.49762144937348,-165.2267421910948,2675596375
iw,-81.6180114746093,-66.2172470092773,47.56339912957691,-162.18194554267157,2675613042
iw,-81.2121963500976,-63.6926498413085,41.87285323239126,-156.7495557949584,2675629709
iw,-80.6877059936523,-61.4074668884277,36.98557024088058,-148.359960755816,2675646376
iw,-80.0709838867187,-59.302146911621,33.34065777348665,-136.7631215275555,2675663043
iw,-79.4665985107421,-57.3750228881835,31.22229797788717,-122.11579243397486,2675679710
iw,-78.8764877319336,-55.7491836547851,30.72997685265932,-104.97952927815352,2675696377
iw,-78.2809524536132,-54.4453697204589,31.757273528142633,-86.23759022429917,2675713044
iw,-77.6934738159179,-53.4179344177246,33.99233201531217,-66.95868570236242,2675729711
iw,-77.0800552368164,-52.7030639648437,36.952862120639146,-48.24557823922169,2675746378
iw,-76.4417953491211,-52.3181114196777,40.058513272382015,-31.10278496471199,2675763045
iw,-75.8094863891601,-52.1423225402832,42.72846837793252,-16.3427012770728,2675779712
iw,-75.1867065429687,-52.1581306457519,44.480595080650154,-4.5314235780252075,2675796379
iw,-74.5389022827148,-52.2323837280273,45.007701931114276,4.037480272851317,2675813046
iw,-73.8543090820312,-52.5044364929199,44.21629259221146,9.355689328622654,2675829713
iw,-73.1338424682617,-52.869571685791,42.22642239776608,11.704513740296154,2675846380
iw,-72.3771286010742,-53.1686096191406,39.33998389076247,11.640542613159344,2675863047
iw,-71.6541519165039,-53.335205078125,35.986065049794796,9.943640432635014,2675879714
iw,-71.0177230834961,-53.4231262207031,32.64809162840692,7.517988723592698,2675896381
iw,-70.4527130126953,-53.52294921875,29.772966714113085,5.260686004442239,2675913048
iw,-69.9504318237304,-53.7343406677246,27.662523925716222,3.9330027941163594,2675929715
iw,-69.5873031616211,-53.99462890625,26.356260951405318,4.07166730373058,2675946382
iw,-69.3606872558593,-54.2944641113281,25.53143096250561,5.961320426912023,2675963049
iw,-69.1996078491211,-54.7111129760742,24.464497897430682,9.665986488440195,2675979716
iw,-69.0277404785156,-55.3647956848144,22.101639379404904,15.097819401192279,2675996383
iw,-68.7981567382812,-56.2606544494628,17.2614493957389,22.08931535993997,2676013050
iw,-68.5540771484375,-57.0359077453613,8.94077622356769,30.432998141721065,2676029717
iw,-68.4087524414062,-57.8737983703613,-3.363805105795046,39.86656851357343,2676046384
iw,-68.6013107299804,-58.7026710510253,-19.43730842808223,50.013803754617605,2676063051
iw,-69.3573455810546,-59.6429595947265,-38.32655041431873,60.327511841854076,2676079718
iw,-70.6736145019531,-60.8611183166503,-58.54129348125693,70.09422719064136,2676096385
iw,-72.4593200683593,-62.5045661926269,-78.40543577339776,78.53526040254808,2676113052
iw,-74.6212768554687,-64.377571105957,-96.42391840142994,84.985491381875,2676129719
iw,-76.9762496948242,-66.2141799926757,-111.53269488691218,89.08085180687763,2676146386
iw,-79.3235702514648,-67.9070281982421,-123.16635328361272,90.86931383938581,2676163053
iw,-81.6381759643554,-69.4450378417968,-131.17282231029884,90.78980407440415,2676179720
iw,-83.6870803833007,-70.8898696899414,-135.67124474574211,89.52237280889555,2676196387
iw,-85.1592025756836,-72.2874755859375,-136.95019913287413,87.76857316912799,2676213054
iw,-85.4660263061523,-73.7049942016601,-135.44644375977197,86.04605441015559,2676229721
iw,-84.4742965698242,-75.1966476440429,-131.7732745313673,84.56822441055641,2676246388
iw,-82.8863906860351,-76.7247238159179,-126.72809812325039,83.24027521419265,2676263055
iw,-81.1085510253906,-78.2236633300781,-121.21936879658952,81.75798154102242,2676279722
iw,-79.3468170166015,-79.6722335815429,-116.100765180392,79.76405069375623,2676296389
iw,-77.7242202758789,-81.0777740478515,-111.95591593000115,77.00667832775186,2676313056
iw,-76.0349731445312,-82.4071044921875,-108.91242665846183,73.45344981687376,2676329723
iw,-74.1931533813476,-83.6267166137695,-106.56415041146677,69.33229222976303,2676346390
iw,-72.2874450683593,-84.711799621582,-104.0455949745402,65.09247534648337,2676363057
iw,-70.4462814331054,-85.6696701049804,-100.24774930604107,61.29896480186938,2676379724
iw,-68.7852401733398,-86.6007995605468,-94.11607670038515,58.49027319735573,2676396391
iw,-67.330940246582,-87.5240097045898,-84.94916868742443,57.03967662844439,2676413058
iw,-66.0869903564453,-88.4622650146484,-72.62253788377592,57.058789355403135,2676429725
iw,-65.0147247314453,-89.3713073730468,-57.683588705078854,58.370672904001964,2676446392
iw,-64.173355102539,-89.1757583618164,-41.28882868188431,60.5600197976571,2676463059
iw,-63.7417297363281,-88.0992660522461,-24.981783777614073,63.085584554169124,2676479726
iw,-63.7762107849121,-86.9671401977539,-10.346135541061713,65.42121103540943,2676496393
iw,-64.1907653808593,-85.7554550170898,1.387089033055251,67.18246230386588,2676513060
iw,-64.7014389038086,-84.5040283203125,9.664334192849175,68.1984876228174,2676529727
iw,-64.9769592285156,-83.2138977050781,14.753893661622614,68.50168450271903,2676546394
iw,-65.1699905395507,-81.992317199707,17.6495231563728,68.22838690232587,2676563061
iw,-65.5010833740234,-80.9457092285156,19.757678560162223,67.45095264127933,2676579728
iw,-65.905403137207,-80.0560073852539,22.468676142119925,65.99192258545678,2676596395
iw,-66.1877365112304,-79.2684478759765,26.746133341299807,63.29421406030217,2676613062
iw,-66.4809951782226,-78.5167388916015,32.857513648021964,58.42200021251578,2676629729
iw,-67.1731796264648,-77.7044982910156,40.32531224760191,50.23360693410727,2676646396
iw,-68.193603515625,-76.7963485717773,48.114191062142886,37.70404486453524,2676663063
iw,-69.5924835205078,-76.0133590698242,54.993902226583955,20.30296718562579,2676679730
iw,-71.2978820800781,-75.6717987060546,59.9533519406127,-1.7120006720502743,2676696397
iw,-72.6973037719726,-75.9711227416992,62.518407266040526,-27.21690077361255,2676713064
iw,-73.6886367797851,-76.9684753417968,62.86312253086936,-54.4173009553684,2676729731
iw,-74.7136840820312,-78.6731414794921,61.68903339173593,-81.2713652555812,2676746398
iw,-75.6123962402343,-80.8090362548828,59.93965744364015,-105.99814462047975,2676763065
iw,-76.4077835083007,-83.0376739501953,58.472850918987284,-127.48823535739314,2676779732
iw,-77.4814758300781,-84.4719314575195,57.81239573474004,-145.46695577782464,2676796399
iw,-78.5075912475586,-84.1979217529296,58.052377406426174,-160.3562336259499,2676813066
iw,-79.4681625366211,-82.9802703857421,58.91941117817242,-172.90256049353212,2676829733
iw,-80.4727554321289,-81.5527572631836,59.9378730018444,-183.73220140871766,2676846400
iw,-81.2835998535156,-79.6551437377929,60.61547700761824,-193.01634829278305,2676863067
iw,-81.7814254760742,-77.1474914550781,60.578131988035075,-200.3668596278377,2676879734
iw,-81.8914794921875,-74.206184387207,59.6226894706775,-204.97207174130457,2676896401
iw,-81.7491683959961,-71.0015335083007,57.70129607688242,-205.88211947736488,2676913068
iw,-81.4769134521484,-67.785171508789,54.87865413783155,-202.3108728672685,2676929735
iw,-81.0872955322265,-64.7701339721679,51.30225087650702,-193.84498303694033,2676946402
iw,-80.6031799316406,-62.0871925354003,47.20187564803318,-180.51459234947228,2676963069
iw,-80.0322647094726,-59.7539520263671,42.90630563257113,-162.74848583613456,2676979736
iw,-79.4807510375976,-57.6735038757324,38.8482089940497,-141.27862105475003,2676996403
iw,-78.9795303344726,-55.6934089660644,35.529607653345806,-117.06006540335889,2677013070
iw,-78.4595870971679,-53.9505882263183,33.43675492566981,-91.23665820560775,2677029737
iw,-77.8385848999023,-52.6407775878906,32.91717464376748,-65.13305746760707,2677046404
iw,-77.1174774169921,-51.8837585449218,34.05359214248766,-40.22120877661781,2677063071
iw,-76.3400802612304,-51.6320762634277,36.5808073221305,-18.013662195407214,2677079738
iw,-75.5247802734375,-51.7509613037109,39.8863128801668,0.1268286357508614,2677096405
iw,-74.6728210449218,-52.1463279724121,43.11339933283279,13.225492299792256,2677113072
iw,-73.7601623535156,-52.6259040832519,45.35307913243809,20.913393079785646,2677129739
iw,-72.7881393432617,-53.058349609375,45.87895461864199,23.551063889054486,2677146406
iw,-71.8218383789062,-53.4224395751953,44.357138587236825,22.204884645251436,2677163073
iw,-70.911392211914,-53.7442321777343,40.95875118880945,18.46322860085318,2677179740
iw,-70.1749267578125,-54.0033912658691,36.32055998675401,14.126293266537928,2677196407
iw,-69.6813735961914,-54.2671546936035,31.34150317782955,10.842762144459586,2677213074
iw,-69.392333984375,-54.5341835021972,26.861217215381387,9.78586738335243,2677229741
iw,-69.2256927490234,-54.7558898925781,23.320903214025105,11.45530137795663,2677246408
iw,-69.1027221679687,-55.0702896118164,20.53067701646057,15.661037616572088,2677263075
iw,-68.9512557983398,-55.7254905700683,17.64323032734176,21.69579985806025,2677279742
iw,-68.7187881469726,-56.8380241394043,13.364423220844943,28.642944495343432,2677296409
iw,-68.472785949707,-58.3225479125976,6.342802872317757,35.7123119292153,2677313076
iw,-68.3691253662109,-59.6498718261718,-4.39135203060597,42.47532134155545,2677329743
iw,-68.6616439819336,-60.6062583923339,-19.089753617616076,48.906302690101754,2677346410
iw,-69.5021514892578,-61.2947044372558,-37.16743272739026,55.22582787383759,2677363077
iw,-70.8582458496093,-62.0962486267089,-57.33285385280534,61.641204871731496,2677379744
iw,-72.6857833862304,-63.2594451904296,-77.90410645764585,68.13045053340463,2677396411
iw,-74.8948135375976,-64.9213485717773,-97.18648774325818,74.38520731578447,2677413078
iw,-77.3108596801757,-66.8195724487304,-113.78383115414964,79.93311578113699,2677429745
iw,-79.7622299194336,-68.6509552001953,-126.76879404608245,84.35917741466531,2677446412
iw,-82.1953582763671,-70.3646621704101,-135.713007719924,87.4972965489842,2677463079
iw,-84.2827224731445,-71.9131546020507,-140.63255131882184,89.4895545353713,2677479746
iw,-85.575698852539,-73.3284301757812,-141.911155296472,90.6882779601789,2677496413
iw,-85.4304809570312,-74.7450866699218,-140.230666525219,91.45689362725902,2677513080
iw,-84.0804672241211,-76.2588424682617,-136.4973496649866,91.96947597612662,2677529747
iw,-82.2347412109375,-77.8553848266601,-131.7331064910255,92.10154490897676,2677546414
iw,-80.2406921386718,-79.4535369873046,-126.91252000578547,91.4583354904864,2677563081
iw,-78.3486785888671,-81.0992050170898,-122.76017398870349,89.5279689676372,2677579748
iw,-76.5616378784179,-82.7728195190429,-119.5588829154986,85.90048279385007,2677596415
iw,-74.7077178955078,-84.392837524414,-117.03897815496988,80.47240377224001,2677613082
iw,-72.7015151977539,-85.7961196899414,-114.40790455935786,73.56220819277883,2677629749
iw,-70.6860656738281,-86.8765716552734,-110.5368524369482,65.89103769705213,2677646416
iw,-68.7779006958007,-87.6786422729492,-104.2640897670719,58.428121267971676,2677663083
iw,-67.0847625732421,-88.3177490234375,-94.73125151407031,52.14790730378402,2677679750
iw,-65.6527557373046,-88.8814544677734,-81.65833006570763,47.77788808783252,2677696417
iw,-64.4728622436523,-89.2955703735351,-65.48325975015598,45.619036094561615,2677713084
iw,-63.5309791564941,-89.0757064819336,-47.32702748655174,45.494129278334135,2677729751
iw,-63.0068016052246,-88.3276672363281,-28.783120833054756,46.83493456153735,2677746418
iw,-63.0729598999023,-87.3706512451171,-11.569960222497341,48.87393546642239,2677763085
iw,-63.6043052673339,-86.3474655151367,2.872341153127236,50.8741305762393,2677779752
iw,-64.1692733764648,-85.3005142211914,13.726513057983707,52.31983040724054,2677796419
iw,-64.5571060180664,-84.2824554443359,20.971878484500095,53.00473316442731,2677813086
iw,-64.8408813476562,-83.3484954833984,25.327794066021944,52.987184067074516,2677829753
iw,-65.3208236694336,-82.5294036865234,27.990679964536287,52.427201283753064,2677846420
iw,-65.9415588378906,-81.8337936401367,30.258513840349732,51.36280710177893,2677863087
iw,-66.4874572753906,-81.2419967651367,33.1615707706487,49.5109913308153,2677879754
iw,-66.8752822875976,-80.6798324584961,37.20177143684503,46.18027467656361,2677896421
iw,-67.4860763549804,-80.0982818603515,42.26680593319554,40.35229801895927,2677913088
iw,-68.5274200439453,-79.4556045532226,47.73916647576679,30.933599940211757,2677929755
iw,-69.8550186157226,-78.8591156005859,52.76279165529835,17.111702979553588,2677946422
iw,-71.3643569946289,-78.5033645629882,56.572264193489424,-1.303096767999635,2677963089
iw,-72.6497116088867,-78.6237106323242,58.761495234254475,-23.681678549846595,2677979756
iw,-73.6664810180664,-79.3865585327148,59.394215608175834,-48.61708974140806,2677996423
iw,-74.6758346557617,-80.8591156005859,58.92855791754637,-74.21029235123638,2678013090
iw,-75.5824127197265,-82.8252029418945,58.00528274594589,-98.51304806696798,2678029757
iw,-76.3929061889648,-84.8127288818359,57.19642827148191,-119.97467600203147,2678046424
iw,-77.3388442993164,-85.5746383666992,56.81362505914452,-137.7353982907291,2678063091
iw,-78.3139495849609,-84.2958755493164,56.84015033805547,-151.67255475900018,2678079758
iw,-79.2781906127929,-82.3638076782226,56.995435411976224,-162.21093898855864,2678096425
iw,-80.2666549682617,-80.4716262817382,56.88735141573593,-170.0048540648276,2678113092
iw,-81.085334777832,-78.3976135253906,56.178400182676285,-175.6371246087347,2678129759
iw,-81.6040802001953,-76.0101318359375,54.69852512050398,-179.44151987186868,2678146426
iw,-81.8283386230468,-73.4469375610351,52.47292567968794,-181.47123328981493,2678163093
iw,-81.7763671875,-70.7630157470703,49.67683925227323,-181.56506935123485,2678179760
iw,-81.5945663452148,-68.0048904418945,46.557932829875185,-179.4425561847425,2678196427
iw,-81.2952346801757,-65.3093566894531,43.369578417752365,-174.7831856946739,2678213094
iw,-80.9211349487304,-62.7280769348144,40.33979695676494,-167.2816393225212,2678229761
iw,-80.4961013793945,-60.4497718811035,37.67517963329325,-156.69450329874684,2678246428
iw,-80.0738372802734,-58.3240852355957,35.57969531081924,-142.89760513542907,2678263095
iw,-79.6474227905273,-56.3446578979492,34.26166129971833,-125.96172434054881,2678279762
iw,-79.1601409912109,-54.6290245056152,33.909005236316666,-106.23650674452055,2678296429
iw,-78.5733337402343,-53.2480239868164,34.629840527561335,-84.4169497231031,2678313096
iw,-77.8975524902343,-52.2161560058593,36.37562793384942,-61.561123971914476,2678329763
iw,-77.1488723754882,-51.5622444152832,38.87923218539364,-39.03374674363309,2678346430
iw,-76.3482894897461,-51.2801780700683,41.64274534497343,-18.36473740413622,2678363097
iw,-75.5265960693359,-51.3138694763183,43.99754982931062,-1.031722930264502,2678379764
iw,-74.705207824707,-51.6175727844238,45.23524488331499,11.801415045803083,2678396431
iw,-73.8933486938476,-52.0632820129394,44.780906266029056,19.535882916537567,2678413098
iw,-73.1170349121093,-52.5042266845703,42.35971355537744,22.312744199446406,2678429765
iw,-72.3723602294921,-52.9053764343261,38.10251152736594,21.050510056739085,2678446432
iw,-71.6409301757812,-53.2607841491699,32.54820184624546,17.312342845018247,2678463099
iw,-71.0047912597656,-53.5135917663574,26.52735926339767,13.013447339258303,2678479766
iw,-70.4996337890625,-53.6406631469726,20.944543731261067,10.02714378580893,2678496433
iw,-70.1287689208984,-53.7756042480468,16.50826039732834,9.785075308359707,2678513100
iw,-69.9222259521484,-53.9398536682128,13.480248826726564,12.979520320209753,2678529767
iw,-69.8574600219726,-54.246482849121,11.523281267898739,19.455993276085955,2678546434
iw,-69.8410720825195,-54.9577178955078,9.712376506767209,28.333227172153045,2678563101
iw,-69.7597732543945,-56.1339607238769,6.733967670968254,38.31651163772678,2678579768
iw,-69.6527709960937,-57.7784957885742,1.2360435372145622,48.10085897018639,2678596435
iw,-69.6305999755859,-59.4263076782226,-7.770369173162071,56.722201562730625,2678613102
iw,-69.868423461914,-60.6545600891113,-20.5917819996431,63.73409882636735,2678629769
iw,-70.5646057128906,-61.5880088806152,-36.72975591407862,69.16637716786018,2678646436
iw,-71.8263702392578,-62.6563034057617,-54.999448877914624,73.32459712264459,2678663103
iw,-73.6044311523437,-64.0588455200195,-73.83832575102194,76.5560358207875,2678679770
iw,-75.7566604614257,-65.7991180419921,-91.67979824425177,79.09913628235759,2678696437
iw,-78.127082824707,-67.6443099975586,-107.25190713877265,81.06102743818043,2678713104
iw,-80.5022277832031,-69.3583908081054,-119.71524392489866,82.48478949884152,2678729771
iw,-82.7558670043945,-70.9460067749023,-128.6453975346793,83.42647691390596,2678746438
iw,-84.5631484985351,-72.4396667480468,-133.93785660415583,83.97777748649412,2678763105
iw,-85.4002304077148,-73.8352737426757,-135.7265297447673,84.22168095601062,2678779772
iw,-84.7840576171875,-75.2725601196289,-134.3625529155353,84.15802576749176,2678796439
iw,-83.2370834350586,-76.7723999023437,-130.43562620811852,83.65526770154841,2678813106
iw,-81.4313201904296,-78.287857055664,-124.77834450426063,82.46842207524799,2678829773
iw,-79.5712661743164,-79.7848663330078,-118.39561879029547,80.32531136439201,2678846440
iw,-77.822021484375,-81.241714477539,-112.29958422475683,77.04724801936986,2678863107
iw,-76.2719497680664,-82.6456680297851,-107.28213008344211,72.65395282898486,2678879774
iw,-74.7134475708007,-83.9023056030273,-103.69725590714525,67.4101047950216,2678896441
iw,-72.9944992065429,-84.9875335693359,-101.3355830980254,61.79494918697258,2678913108
iw,-71.1781921386718,-85.9274444580078,-99.4471945193463,56.40475297519386,2678929775
iw,-69.4146118164062,-86.7515258789062,-96.91752612763021,51.819749149252736,2678946442
iw,-67.7884826660156,-87.5539932250976,-92.54971925512285,48.47609603620401,2678963109
iw,-66.3250427246093,-88.3511123657226,-85.37834938551829,46.57845530042723,2678979776
iw,-65.010025024414,-89.1893997192382,-74.93773502572627,46.07403974588499,2678996443
iw,-63.8571815490722,-90.0,-61.42156936929328,46.69055631736101,2679013110
iw,-62.9299354553222,-89.2720794677734,-45.689294428154696,48.02373842829849,2679029777
iw,-62.3818473815918,-88.2986602783203,-29.100231705920315,49.648241445858666,2679046444
iw,-62.4071540832519,-87.3624038696289,-13.196870780969409,51.2200860248325,2679063111
iw,-62.9318122863769,-86.393325805664,0.6875242913012415,52.54048582228893,2679079778
iw,-63.5295181274414,-85.4058990478515,11.775970949317392,53.55978507951563,2679096445
iw,-63.9390258789062,-84.4527053833007,20.02396930078178,54.31507786117184,2679113112
iw,-64.214614868164,-83.5233764648437,26.05484370403889,54.813810704141936,2679129779
iw,-64.7047653198242,-82.6586456298828,30.879293993093853,54.89524379573608,2679146446
iw,-65.318115234375,-81.9040603637695,35.50818362911221,54.11717690100174,2679163113
iw,-65.8895187377929,-81.2479476928711,40.599400361854386,51.72036552767353,2679179780
iw,-66.4303283691406,-80.6002120971679,46.256039759213195,46.71111000557284,2679196447
iw,-67.4523162841796,-79.9272994995117,52.03602164140562,38.07008604466673,2679213114
iw,-68.7417068481445,-79.2678451538086,57.16213221374628,25.047103273689583,2679229781
iw,-70.3632278442382,-78.7707214355468,60.85114447631217,7.453660236557014,2679246448
iw,-71.8272247314453,-78.7027511596679,62.63457928721497,-14.15730993703833,2679263115
iw,-72.8909225463867,-79.3173446655273,62.548057553832194,-38.51231157434106,2679279782
iw,-73.9864883422851,-80.5602951049804,61.124401530653955,-63.85853123054224,2679296449
iw,-75.0198516845703,-82.3248901367187,59.20758834150293,-88.35770386730707,2679313116
iw,-75.8280868530273,-84.2185668945312,57.66898759119691,-110.49874442853452,2679329783
iw,-76.6980743408203,-85.4317779541015,57.13170604543526,-129.3839455775384,2679346450
iw,-77.6130142211914,-84.8450927734375,57.795021702970104,-144.79432141228085,2679363117
iw,-78.5121459960937,-83.192886352539,59.40935321563469,-157.03089263252008,2679379784
iw,-79.5647048950195,-81.4280166625976,61.39602533517272,-166.6194747686902,2679396451
iw,-80.5752334594726,-79.5087966918945,63.054756741763995,-174.01368765151068,2679413118
iw,-81.3353576660156,-77.2306289672851,63.77681155610847,-179.41135472476103,2679429785
iw,-81.7683181762695,-74.6387252807617,63.19354082475723,-182.72770304821515,2679446452
iw,-81.8565292358398,-71.8781814575195,61.22964124563896,-183.6898135774668,2679463119
iw,-81.7175827026367,-69.0458831787109,58.074126227291536,-181.97399092066306,2679479786
iw,-81.4240798950195,-66.3662033081054,54.10700911077064,-177.31485518155898,2679496453
iw,-81.0236206054687,-63.8043365478515,49.818784963908044,-169.55520207380005,2679513120
iw,-80.5427932739257,-61.4554557800293,45.741982460814135,-158.6499876447006,2679529787
iw,-80.0045013427734,-59.3597526550293,42.39427371111521,-144.66290126432742,2679546454
iw,-79.4497528076171,-57.3173828125,40.22162653197122,-127.79103081113811,2679563121
iw,-78.8701248168945,-55.4535942077636,39.53095855069197,-108.4274620344833,2679579788
iw,-78.2346954345703,-53.8988456726074,40.41232203389028,-87.23831846744656,2679596455
iw,-77.5075302124023,-52.7183227539062,42.6656875386531,-65.20800765218584,2679613122
iw,-76.6765670776367,-51.9121551513671,45.76035754800752,-43.6066983830674,2679629789
iw,-75.7694854736328,-51.5459785461425,48.859004476531325,-23.856866861501388,2679646456
iw,-74.8572921752929,-51.5406951904296,50.9284532090461,-7.310620091252394,2679663123
iw,-73.9595184326171,-51.7286415100097,50.93568615958038,5.016060522563242,2679679790
iw,-73.0615921020507,-52.0942077636718,48.09611887178528,12.682814576959919,2679696457
iw,-72.1920471191406,-52.43452835083,42.112623028339385,15.965168470938567,2679713124
iw,-71.3795089721679,-52.7212371826171,33.3301511413612,15.841984560182201,2679729791
iw,-70.663589477539,-52.9467124938964,22.740766964618604,13.815475198162208,2679746458
iw,-70.1548919677734,-53.102424621582,11.80844518959959,11.597627593931369,2679763125
iw,-69.9638900756836,-53.2564849853515,2.134922489474431,10.739856166576217,2679779792
iw,-70.0170059204101,-53.4712982177734,-4.957061337958345,12.304922569589491,2679796459
iw,-70.1580505371093,-53.7539329528808,-8.80779090385202,16.672748780698246,2679813126
iw,-70.305191040039,-54.1891555786132,-9.651748576253096,23.535666373282414,2679829793
iw,-70.4155044555664,-55.0502281188964,-8.612443709024017,32.082564153643816,2679846460
iw,-70.4517974853515,-56.4510688781738,-7.446433639456942,41.30864412654732,2679863127
iw,-70.4321975708007,-58.1485710144043,-8.102143304966589,50.33772515901956,2679879794
iw,-70.5558242797851,-59.5159759521484,-12.223076111786897,58.63370123220331,2679896461
iw,-70.9819183349609,-60.5076904296875,-20.746437841482503,66.02590461038763,2679913128
iw,-71.8620681762695,-61.3746185302734,-33.71264496250468,72.56640454962825,2679929795
iw,-73.2453842163086,-62.5626754760742,-50.31910977056567,78.3240633006843,2679946462
iw,-75.0513610839843,-64.22705078125,-69.15952548110369,83.24350903812167,2679963129
iw,-77.2083587646484,-66.1953659057617,-88.53360325149767,87.14140904495522,2679979796
iw,-79.5574645996093,-68.1244430541992,-106.72029433047332,89.81763719610247,2679996463
iw,-81.9179458618164,-69.8511276245117,-122.16910642012314,91.18970306244883,2680013130
iw,-83.951919555664,-71.4173965454101,-133.63246270813244,91.35638914407606,2680029797
iw,-85.0015792846679,-72.8589706420898,-140.28816298948712,90.55332667382984,2680046464
iw,-84.5301971435546,-74.3066711425781,-141.87156400400838,89.03518699721451,2680063131
iw,-82.8897247314453,-75.8074951171875,-138.78168507751388,86.96048891295492,2680079798
iw,-80.9582138061523,-77.3206481933593,-132.0891474750432,84.34661532598659,2680096465
iw,-79.1150894165039,-78.8131942749023,-123.38446886799197,81.11755601281376,2680113132
iw,-77.417739868164,-80.2979583740234,-114.46001740439854,77.21570467541672,2680129799
iw,-75.9750595092773,-81.6843872070312,-106.891178742854,72.71885053640953,2680146466
iw,-74.5788879394531,-82.9369277954101,-101.63710659719051,67.90469085533277,2680163133
iw,-72.9624710083007,-84.0482025146484,-98.79146392851057,63.231070909745156,2680179800
iw,-71.0911026000976,-85.0416107177734,-97.5700581146347,59.2352866442614,2680196467
iw,-69.1654434204101,-85.9089736938476,-96.541203011831,56.385544933686184,2680213134
iw,-67.3794174194336,-86.7251815795898,-94.02301568391296,54.9339488113069,2680229801
iw,-65.8203735351562,-87.6091918945312,-88.52718263798032,54.82117185339015,2680246468
iw,-64.4765853881836,-88.535400390625,-79.13343040576441,55.669061945683794,2680263135
iw,-63.3041877746582,-89.5480270385742,-65.71529083500003,56.87136205939687,2680279802
iw,-62.3404541015625,-89.277473449707,-48.978886444979175,57.76068432829996,2680296469
iw,-61.753303527832,-88.1546401977539,-30.31048903619683,57.80151865963038,2680313136
iw,-61.7384910583496,-87.0588226318359,-11.462454864301417,56.744869957194375,2680329803
iw,-62.3069114685058,-86.0286712646484,5.8510156796805965,54.687241965949795,2680346470
iw,-63.0300788879394,-85.1309585571289,20.33745321882941,52.0049609303721,2680363137
iw,-63.6190872192382,-84.383544921875,31.370177558109262,49.175837287785605,2680379804
iw,-64.0751190185546,-83.7460250854492,39.019186332489475,46.54054637390705,2680396471
iw,-64.6703186035156,-83.1694183349609,43.88005402628016,44.082256963469526,2680413138
iw,-65.4659423828125,-82.6211853027343,46.79012315574865,41.305069111001345,2680429805
iw,-66.2523880004882,-82.0726852416992,48.550340321645045,37.267129691311006,2680446472
iw,-67.0687255859375,-81.5410919189453,49.74526140183772,30.77904994369676,2680463139
iw,-68.1252288818359,-81.0558700561523,50.69818929041267,20.725328574691822,2680479806
iw,-69.2255401611328,-80.7156677246093,51.5416062961619,6.421462191611217,2680496473
iw,-70.5002517700195,-80.635757446289,52.34280626354743,-12.103093694319544,2680513140
iw,-71.6595840454101,-80.9695816040039,53.21153697134161,-33.9956749633649,2680529807
iw,-72.6276321411132,-81.8738784790039,54.33461211192679,-57.69905026079358,2680546474
iw,-73.6116943359375,-83.4407958984375,55.92351867998312,-81.28068563119899,2680563141
iw,-74.6209182739257,-85.4282608032226,58.105261015530914,-102.8794712956975,2680579808
iw,-75.5554580688476,-87.0324478149414,60.81420201910973,-121.12657320325647,2680596475
iw,-76.5797119140625,-86.2580184936523,63.74410583820272,-135.39938030979292,2680613142
iw,-77.7723922729492,-83.8556671142578,66.39618164457477,-145.82920926191048,2680629809
iw,-78.9937210083007,-81.3701934814453,68.21821037066351,-153.08152202072066,2680646476
iw,-80.1888732910156,-79.1022186279296,68.78658387202515,-158.01579191554535,2680663143
iw,-81.2326965332031,-76.8657989501953,67.95842009280113,-161.36577351915903,2680679810
iw,-81.9583129882812,-74.5058288574218,65.92998407562173,-163.5452342259914,2680696477
iw,-82.2961502075195,-72.0431289672851,63.17685898632689,-164.6070529996425,2680713144
iw,-82.2476119995117,-69.5519943237304,60.3003954476468,-164.3150847434049,2680729811
iw,-81.9105834960937,-67.154426574707,57.84049692374221,-162.2633720146855,2680746478
iw,-81.4172058105468,-64.7354888916015,56.12272141107671,-157.9946821242615,2680763145
iw,-80.8766555786132,-62.3057022094726,55.188253835881234,-151.1019251614892,2680779812
iw,-80.3203735351562,-60.1488380432128,54.82023197700892,-141.31480288159682,2680796479
iw,-79.7605972290039,-58.159381866455,54.64476316518857,-128.5737484827176,2680813146
iw,-79.1529693603515,-56.3120307922363,54.26207664059545,-113.08495546027308,2680829813
iw,-78.4586639404296,-54.7738914489746,53.35881698259558,-95.34592016149371,2680846480
iw,-77.6730422973632,-53.601089477539,51.766703489765796,-76.13376659004271,2680863147
iw,-76.8209991455078,-52.6829643249511,49.459449425050366,-56.45556552307745,2680879814
iw,-75.9477996826171,-52.0374298095703,46.506539659719536,-37.465150265746466,2680896481
iw,-75.0979614257812,-51.7237663269043,43.01617404603809,-20.35085369496428,2680913148
iw,-74.3210830688476,-51.6937980651855,39.09562355988191,-6.197073759389801,2680929815
iw,-73.6344680786132,-51.9286346435546,34.84172660887355,4.171835184027479,2680946482
iw,-72.9752197265625,-52.2108154296875,30.358173145359547,10.342449796554407,2680963149
iw,-72.3120346069336,-52.4549026489257,25.786718387915943,12.421503530810277,2680979816
iw,-71.679328918457,-52.6085777282714,21.336999880177054,11.066511112704069,2680996483
iw,-71.1222305297851,-52.6751098632812,17.300505568236268,7.416928837220836,2681013150
iw,-70.6119155883789,-52.7774238586425,14.035086115210145,2.930168418505833,2681029817
iw,-70.1452865600586,-52.9412117004394,11.907830525663522,-0.8506876815380157,2681046484
iw,-69.795669555664,-53.1230812072753,11.191085171750615,-2.5576335151460237,2681063151
iw,-69.5678100585937,-53.2006568908691,11.923676635915822,-1.2415095142166777,2681079818
iw,-69.4284286499023,-53.304271697998,13.774568810099455,3.4506226637699315,2681096485
iw,-69.383804321289,-53.4971084594726,15.966769396985,11.21468779265115,2681113152
iw,-69.3361892700195,-54.0259819030761,17.31883655144646,21.18121037890037,2681129819
iw,-69.1873321533203,-54.9840621948242,16.430713355164364,32.155416378490344,2681146486
iw,-68.9569091796875,-56.4753837585449,11.986540915999026,42.94418589236117,2681163153
iw,-68.8270797729492,-58.0824890136718,3.0922341043410344,52.66055370286891,2681179820
iw,-68.9766464233398,-59.4083099365234,-10.461390167925297,60.89266952961792,2681196487
iw,-69.5689086914062,-60.3813438415527,-28.10046586111947,67.67918548527415,2681213154
iw,-70.7303619384765,-61.3396911621093,-48.56666287865937,73.32460769175681,2681229821
iw,-72.4540863037109,-62.5684471130371,-70.17207573450231,78.16355492520356,2681246488
iw,-74.618049621582,-64.209358215332,-91.11807629295362,82.39468958844544,2681263155
iw,-77.0896224975586,-66.1025924682617,-109.77832154500969,86.04806528767678,2681279822
iw,-79.6112670898437,-67.950080871582,-124.88464334717477,89.06463868699805,2681296489
iw,-82.1479034423828,-69.7155532836914,-135.61387260841823,91.40856384177071,2681313156
iw,-84.2874221801757,-71.3782272338867,-141.61518175988354,93.13133143466143,2681329823
iw,-85.5327911376953,-72.9068984985351,-143.01726948787572,94.35150979151845,2681346490
iw,-85.3607635498046,-74.433853149414,-140.42195085921261,95.17019489061342,2681363157
iw,-84.0065231323242,-76.0386505126953,-134.85714129451225,95.57801913524989,2681379824
iw,-82.2712249755859,-77.6839904785156,-127.65402571047477,95.41080245704724,2681396491
iw,-80.4442443847656,-79.3193130493164,-120.23524704794798,94.38359317365662,2681413158
iw,-78.6919250488281,-80.946533203125,-113.84057047844536,92.19492235761895,2681429825
iw,-77.1089096069336,-82.5872802734375,-109.25421548272676,88.662728340256,2681446492
iw,-75.4749755859375,-84.1677627563476,-106.61591613618155,83.84042138173464,2681463159
iw,-73.640396118164,-85.5914459228515,-105.38431290547683,78.06734192906161,2681479826
iw,-71.6861724853515,-86.8069686889648,-104.47660591128842,71.92914745412112,2681496493
iw,-69.8152465820312,-87.8484191894531,-102.54930117929976,66.13383678011009,2681513160
iw,-68.1312179565429,-88.7496109008789,-98.33996977831367,61.33830115383734,2681529827
iw,-66.6388778686523,-89.4276809692382,-90.97996139007577,57.978249110658524,2681546494
iw,-65.3189849853515,-89.2392196655273,-80.20926050104119,56.15513794848372,2681563161
iw,-64.1325912475586,-88.402717590332,-66.455600994183,55.6175162746696,2681579828
iw,-63.1340217590332,-87.4736938476562,-50.76374551011254,55.84577353107301,2681596495
iw,-62.5052146911621,-86.4218826293945,-34.579307784742745,56.21651375978071,2681613162
iw,-62.4321899414062,-85.2968521118164,-19.418158033731693,56.195111671061376,2681629829
iw,-62.8344612121582,-84.1926879882812,-6.492870588383421,55.491613348408485,2681646496
iw,-63.3036575317382,-83.1790161132812,3.5950334787661946,54.122257838718944,2681663163
iw,-63.5325202941894,-82.2461242675781,10.986738071745027,52.34700856200725,2681679830
iw,-63.6659355163574,-81.4449691772461,16.465137827396447,50.49515402811796,2681696497
iw,-63.9459037780761,-80.7718048095703,21.154482045664846,48.73261012294523,2681713164
iw,-64.4338150024414,-80.1658325195312,26.13055486092456,46.85179080633225,2681729831
iw,-64.9038467407226,-79.5987701416015,32.075851248676166,44.16787420376097,2681746498
iw,-65.3422927856445,-79.0664749145507,39.08641885533322,39.58047932596011,2681763165
iw,-66.236587524414,-78.5437088012695,46.68129766044683,31.811178395536786,2681779832
iw,-67.5591506958007,-77.9871215820312,54.00126512944828,19.766505372117557,2681796499
iw,-68.9991302490234,-77.5333709716796,60.12199220485627,2.9211111292523695,2681813166
iw,-70.4603118896484,-77.4280395507812,64.36663365539881,-18.411715965774473,2681829833
iw,-71.631851196289,-78.0211944580078,66.50736312947947,-43.03524277633338,2681846500
iw,-72.7928390502929,-79.4027633666992,66.79643011562298,-69.09164121574202,2681863167
iw,-73.9495620727539,-81.3819046020507,65.83740833984635,-94.49122987690154,2681879834
iw,-74.9017791748046,-83.5366821289062,64.36158120469561,-117.40178202887572,2681896501
iw,-75.8453979492187,-85.0631942749023,62.99557023508308,-136.62461392035547,2681913168
iw,-76.7897415161132,-84.6498031616211,62.096448840470885,-151.73401522476843,2681929835
iw,-77.6488647460937,-82.9075164794921,61.69869662097603,-162.95944485239414,2681946502
iw,-78.5619430541992,-81.0675888061523,61.57410723149186,-170.89573635149017,2681963169
iw,-79.4201583862304,-79.1342544555664,61.36583048217544,-176.1836260043174,2681979836
iw,-80.1014938354492,-76.8711929321289,60.736575019414985,-179.2851189426158,2681996503
iw,-80.4768676757812,-74.3924255371093,59.4764083720068,-180.40362173419348,2682013170
iw,-80.5437469482421,-71.8117523193359,57.54283373085344,-179.51999935366925,2682029837
iw,-80.4192657470703,-69.1789245605468,55.039703832635425,-176.47961255877956,2682046504
iw,-80.1486129760742,-66.5549011230468,52.16461371732466,-171.07840072855262,2682063171
iw,-79.7820968627929,-64.0062713623046,49.15726192392953,-163.1297985123475,2682079838
iw,-79.3428726196289,-61.7125434875488,46.267023424746775,-152.51845191235574,2682096505
iw,-78.8284606933593,-59.7262840270996,43.7381218524432,-139.25155715005846,2682113172
iw,-78.2695007324218,-57.8502197265625,41.797143066475705,-123.51140193210637,2682129839
iw,-77.6593780517578,-56.1903419494628,40.62663461824928,-105.70285827493419,2682146506
iw,-77.0026626586914,-54.8218269348144,40.31953083556215,-86.48191532916532,2682163173
iw,-76.3253860473632,-53.7421226501464,40.82580918530871,-66.74834366253525,2682179840
iw,-75.6268310546875,-52.9816436767578,41.916320798095654,-47.58913468525019,2682196507
iw,-74.9073944091796,-52.5483665466308,43.19130230984815,-30.168865694418002,2682213174
iw,-74.1857299804687,-52.4056015014648,44.14900039054184,-15.575967758161061,2682229841
iw,-73.4869918823242,-52.4724578857421,44.306369661477135,-4.647430404808355,2682246508
iw,-72.7906265258789,-52.5974311828613,43.33898355992294,2.1943929143162784,2682263175
iw,-72.0734024047851,-52.7012939453125,41.193110734553834,5.05496357283927,2682279842
iw,-71.3463668823242,-52.7888107299804,38.12647875334875,4.598505655210849,2682296509
iw,-70.6539230346679,-52.9693756103515,34.65429589640364,1.978835725164834,2682313176
iw,-70.0683517456054,-53.1943397521972,31.405659516784937,-1.329383099688953,2682329843
iw,-69.6080551147461,-53.3574523925781,28.922685770195454,-3.7790856505903165,2682346510
iw,-69.2149810791015,-53.4555053710937,27.453254676770616,-4.038789152534009,2682363177
iw,-68.8595199584961,-53.4945793151855,26.795023634518504,-1.2598054175822677,2682379844
iw,-68.580093383789,-53.5348434448242,26.24282622419084,4.7499304394179065,2682396511
iw,-68.3562774658203,-53.8055114746093,24.673406130484448,13.509422542750896,2682413178
iw,-68.1060562133789,-54.596580505371,20.76988698322876,24.030512256412422,2682429845
iw,-67.8362655639648,-56.0757446289062,13.34581200918799,35.12614258477379,2682446512
iw,-67.6848754882812,-57.7877235412597,1.6861233536661524,45.755389422654666,2682463179
iw,-67.7952499389648,-59.2022514343261,-14.199946074121668,55.272705236372005,2682479846
iw,-68.4111175537109,-60.1659355163574,-33.50331964222809,63.48916741537957,2682496513
iw,-69.6720809936523,-61.1337051391601,-54.750577382115836,70.5483974844877,2682513180
iw,-71.5019607543945,-62.4241333007812,-76.10938103990875,76.71215772638345,2682529847
iw,-73.7177963256836,-64.0999069213867,-95.76251357598626,82.1797736327973,2682546514
iw,-76.169563293457,-65.9773483276367,-112.23363517953834,87.01765532128668,2682563181
iw,-78.6553649902343,-67.8002319335937,-124.5843786261591,91.1925898132033,2682579848
iw,-81.0779113769531,-69.5598983764648,-132.46800329855162,94.6445283716785,2682596515
iw,-83.142593383789,-71.2627487182617,-136.07900527079988,97.33167189144845,2682613182
iw,-84.6363372802734,-72.9090881347656,-136.05243348061364,99.22034284252942,2682629849
iw,-85.1884307861328,-74.5606384277343,-133.34525950802515,100.23945804599464,2682646516
iw,-84.5917282104492,-76.2779235839843,-129.1026568397328,100.24497613785987,2682663183
iw,-83.2735519409179,-78.0046157836914,-124.49944822745994,99.03385322197458,2682679850
iw,-81.6075210571289,-79.6911087036132,-120.55722735809114,96.41857845930916,2682696517
iw,-79.7658767700195,-81.3390731811523,-117.96022101277293,92.34010552867886,2682713184
iw,-77.9862670898437,-83.0099258422851,-116.91213615814196,86.9747886830562,2682729851
iw,-76.1088714599609,-84.5996704101562,-117.0804508882761,80.78697942228276,2682746518
iw,-74.0267257690429,-85.9902954101562,-117.65918246044308,74.49283946072971,2682763185
iw,-71.844253540039,-87.1424102783203,-117.54822196111405,68.92885546194178,2682779852
iw,-69.7248916625976,-88.1084518432617,-115.60813650366762,64.85378596477317,2682796519
iw,-67.7913742065429,-88.9728317260742,-110.92304010531396,62.74372770386652,2682813186
iw,-66.0656661987304,-89.9072189331054,-103.00489888255997,62.652462735390536,2682829853
iw,-64.5257797241211,-88.9876022338867,-91.89661935792336,64.1939243437598,2682846520
iw,-63.1734046936035,-87.6337127685546,-78.16072088238397,66.6624562404251,2682863187
iw,-62.0354347229003,-86.1998672485351,-62.76105623174821,69.25381666437102,2682879854
iw,-61.2050476074218,-84.7792587280273,-46.857421963561734,71.30770721993073,2682896521
iw,-60.8560905456543,-83.4474029541015,-31.5474837793848,72.48106240614626,2682913188
iw,-60.9902687072753,-82.2188873291015,-17.613243884225483,72.78677300839045,2682929855
iw,-61.3186378479003,-81.0311737060546,-5.350248031234367,72.48307546564183,2682946522
iw,-61.5249786376953,-79.8769836425781,5.446929129959421,71.85220596704946,2682963189
iw,-61.6025009155273,-78.7740020751953,15.317377292365023,70.94380128867641,2682979856
iw,-61.7984046936035,-77.7535705566406,24.83827833737311,69.37078678148467,2682996523
iw,-62.2370452880859,-76.7984542846679,34.32149716911319,66.23451824249311,2683013190
iw,-62.9689712524414,-75.922378540039,43.63373934868539,60.226226519981495,2683029857
iw,-64.0511398315429,-75.1490859985351,52.217683707125495,49.9074036442268,2683046524
iw,-65.3624267578125,-74.4272994995117,59.30282217183635,34.11804854414505,2683063191
iw,-66.9319381713867,-73.8206558227539,64.21608951214877,12.409064265304742,2683079858
iw,-68.6413650512695,-73.5975265502929,66.66602591384058,-14.639022093844368,2683096525
iw,-69.8915405273437,-74.0410232543945,66.88980207053454,-45.34302251340731,2683113192
iw,-70.9790496826171,-75.343994140625,65.60960582304365,-77.16184282488835,2683129859
iw,-72.0927963256836,-77.4869155883789,63.81890452365816,-107.22595656377423,2683146526
iw,-73.0630950927734,-80.2386169433593,62.4795408421852,-133.00530439111037,2683163193
iw,-74.0952758789062,-83.2669906616211,62.236154278933974,-152.89939335715871,2683179860
iw,-75.2015991210937,-85.478271484375,63.24183087523446,-166.54567569876528,2683196527
iw,-76.2933502197265,-85.1057586669921,65.14709949032436,-174.74161016825417,2683213194
iw,-77.5191268920898,-83.2462615966796,67.24688607983666,-179.02536348766014,2683229861
iw,-78.7414169311523,-81.2548675537109,68.72544549092721,-181.09193173321654,2683246528
iw,-79.7580184936523,-79.0804595947265,68.90923856122164,-182.26880576714058,2683263195
iw,-80.5237808227539,-76.6269836425781,67.44544339668299,-183.21682122990146,2683279862
iw,-80.99658203125,-73.9507522583007,64.3635593790531,-183.90020456669993,2683296529
iw,-81.1977233886718,-71.2236785888671,60.02651404670693,-183.75924471744727,2683313196
iw,-81.2132492065429,-68.4556350708007,55.01109059796608,-181.97046371999326,2683329863
iw,-81.0041580200195,-65.7698135375976,49.96515088879229,-177.694466289654,2683346530
iw,-80.5436096191406,-63.1587409973144,45.47822410184192,-170.25898646954218,2683363197
iw,-79.9427490234375,-60.8649444580078,41.98629721870266,-159.26951006172274,2683379864
iw,-79.3444747924804,-58.7971229553222,39.71936279265915,-144.66484705020162,2683396531
iw,-78.7733688354492,-56.8083419799804,38.69163117541848,-126.73973663849556,2683413198
iw,-78.170181274414,-55.0202369689941,38.7271627179918,-106.14712853709071,2683429865
iw,-77.5460662841796,-53.5770606994628,39.50856044521002,-83.87687873378363,2683446532
iw,-76.904914855957,-52.4984092712402,40.635209330774885,-61.19538353058019,2683463199
iw,-76.2775039672851,-51.8796768188476,41.68044861276751,-39.53106568576902,2683479866
iw,-75.6592559814453,-51.671028137207,42.24238106190305,-20.30451298348924,2683496533
iw,-75.0449981689453,-51.66743850708,41.98893654856657,-4.722349789685768,2683513200
iw,-74.4386978149414,-51.9103126525878,40.70192023520407,6.428528973921448,2683529867
iw,-73.7633285522461,-52.1887855529785,38.32345980540884,12.941155807494921,2683546534
iw,-72.989990234375,-52.4468040466308,34.99903173486617,15.260424828842925,2683563201
iw,-72.1809310913086,-52.7580261230468,31.097024765163447,14.437250492313586,2683579868
iw,-71.4433364868164,-53.0613059997558,27.1750562439978,11.957868665306362,2683596535
iw,-70.9118881225586,-53.2953834533691,23.868960566513557,9.469893672424494,2683613202
iw,-70.6070022583007,-53.5365409851074,21.706010894750754,8.456225251427002,2683629869
iw,-70.4271087646484,-53.7856750488281,20.882582087124078,9.9302368207162,2683646536
iw,-70.2907028198242,-53.9911346435546,21.08096949993798,14.232247459190335,2683663203
iw,-70.1536712646484,-54.3241577148437,21.410199768136653,20.991974468051144,2683679870
iw,-69.9747848510742,-55.0673828125,20.528458815240008,29.282553558167784,2683696537
iw,-69.7374649047851,-56.3648033142089,16.943522943912413,37.932396001548355,2683713204
iw,-69.4838256835937,-58.0792045593261,9.414324971911032,45.896983038631184,2683729871
iw,-69.4083557128906,-59.6648368835449,-2.6750387529887525,52.55498943838368,2683746538
iw,-69.7580032348632,-60.7637252807617,-19.099245551703742,57.814841686341595,2683763205
iw,-70.6993331909179,-61.5569305419921,-38.80883462817003,62.00290261170175,2683779872
iw,-72.2322845458984,-62.4709587097168,-60.1658086350983,65.61076431512198,2683796539
iw,-74.2129669189453,-63.7229614257812,-81.30095631848118,69.04138079677053,2683813206
iw,-76.5011444091796,-65.3458251953125,-100.46305791212076,72.4733891625464,2683829873
