Label,Left_Hip_q,Right_Hip_q,Left_Hip_qd,Right_Hip_qd,SampleTimeFine
iw,-77.7909317016601,-84.9680633544921,68.1725769042968,-125.36880493164,2571910968
iw,-78.6279907226562,-83.2837371826171,65.06722102660603,-135.20598706158287,2571927635
iw,-79.3374404907226,-81.4894332885742,61.73270036894633,-150.29986169432345,2571944302
iw,-79.9752426147461,-79.3437728881836,58.48042733612196,-163.70135840242042,2571960969
iw,-80.3255310058593,-76.8637771606445,55.376132933582845,-174.0813937091674,2571977636
iw,-80.4251937866211,-74.2477722167968,52.48520518401856,-180.53634773278665,2571994303
iw,-80.3136749267578,-71.4695129394531,49.86349769624424,-182.6437934122849,2572010970
iw,-79.9686584472656,-68.6385726928711,47.54349664152998,-180.4154143938246,2572027637
iw,-79.435562133789,-65.9838256835937,45.52358294630526,-174.1821256116394,2572044304
iw,-78.9143142700195,-63.4498481750488,43.76812557875929,-164.460166164568,2572060971
iw,-78.5375061035156,-61.1107292175293,42.22262773745802,-151.84106212035246,2572077638
iw,-78.2670288085937,-58.9048957824707,40.841171020668355,-136.9297394964465,2572094305
iw,-77.9345626831054,-56.9393081665039,39.61511584946236,-120.3321905215436,2572110972
iw,-77.4065856933593,-55.272174835205,38.58766911387364,-102.67528706769502,2572127639
iw,-76.6934051513671,-53.9123306274414,37.84298361104889,-84.63284700778185,2572144306
iw,-75.8860473632812,-52.8386802673339,37.47016482836616,-66.93448939207336,2572160973
iw,-75.0654373168945,-52.0496520996093,37.51568869074774,-50.34243255764817,2572177640
iw,-74.2701644897461,-51.5391731262207,37.94439980841173,-35.591487802655955,2572194307
iw,-73.5071716308593,-51.2413330078125,38.625514805864746,-23.297981702631102,2572210974
iw,-72.7682571411132,-51.1311531066894,39.3490337567267,-13.85450025811585,2572227641
iw,-72.0530166625976,-51.1115646362304,39.86703577854906,-7.337233935451862,2572244308
iw,-71.3673324584961,-51.1428680419921,39.948610953671114,-3.456872185226679,2572260975
iw,-70.6854858398437,-51.1584167480468,39.43636364992042,-1.5780410075338391,2572277642
iw,-69.9869308471679,-51.0954818725585,38.29337793173608,-0.8149342177008778,2572294309
iw,-69.2770538330078,-51.1105880737304,36.629789370323024,-0.1867706672159364,2572310976
iw,-68.5759201049804,-51.2930564880371,34.697127272189746,1.2031395706530206,2572327643
iw,-67.8653335571289,-51.6234664916992,32.83844499230453,4.0059596591337066,2572344310
iw,-67.2061920166015,-51.9053382873535,31.387571170539676,8.51461126056956,2572360977
iw,-66.6966400146484,-52.2231903076171,30.526018699194825,14.617034207752996,2572377644
iw,-66.3404464721679,-52.6436538696289,30.13051867106265,21.825419324293104,2572394311
iw,-66.0586700439453,-53.1701889038085,29.66796146638368,29.38738417738548,2572410978
iw,-65.7444076538086,-53.9067459106445,28.200405956794633,36.47245854484421,2572427645
iw,-65.3606185913086,-55.0368041992187,24.537186079716804,42.4010541967026,2572444312
iw,-64.991226196289,-56.4643402099609,17.517715605791796,46.85242292420234,2572460979
iw,-64.7652740478515,-57.7897796630859,6.350055495992064,49.97292001932406,2572477646
iw,-64.8150634765625,-58.8761444091796,-9.1045825702731,52.32666297774047,2572494313
iw,-65.3106460571289,-59.7549743652343,-28.203791180345714,54.69067935979961,2572510980
iw,-66.3170166015625,-60.5106010437011,-49.605216875944514,57.76942220189917,2572527647
iw,-67.7728652954101,-61.5401153564453,-71.53663359340204,61.94581543216173,2572544314
iw,-69.6852493286132,-62.9489631652832,-92.16645967035927,67.16956498400046,2572560981
iw,-71.9697647094726,-64.6224746704101,-109.95294378818768,73.01624251003317,2572577648
iw,-74.4873428344726,-66.3215408325195,-123.86832166213054,78.87097155255579,2572594315
iw,-77.0442657470703,-67.937744140625,-133.45735418952984,84.1421608753995,2572610982
iw,-79.4909744262695,-69.5250396728515,-138.7649774557233,88.41522684003127,2572627649
iw,-81.5983734130859,-71.0674667358398,-140.21199756872065,91.50196700321001,2572644316
iw,-83.1821517944336,-72.6067428588867,-138.48770495190996,93.39633784510964,2572660983
iw,-83.9741287231445,-74.2394409179687,-134.47935925656878,94.18320376622982,2572677650
iw,-83.8162002563476,-75.9147644042968,-129.21025712820077,93.95207280663489,2572694317
iw,-82.870361328125,-77.5489959716796,-123.742440573847,92.74966689573482,2572710984
iw,-81.5515060424804,-79.1061935424804,-119.02244971993679,90.5795952820541,2572727651
iw,-80.1167297363281,-80.6406707763671,-115.69141806173292,87.43841295260691,2572744318
iw,-78.4800186157226,-82.160530090332,-113.91798870475397,83.36880560724953,2572760985
iw,-76.5291900634765,-83.591796875,-113.32185225744044,78.5086776960972,2572777652
iw,-74.4716567993164,-84.8830413818359,-113.0296433106466,73.1166660538432,2572794319
iw,-72.4806060791015,-86.0118865966796,-111.8570493229259,67.56149376091172,2572810986
iw,-70.5883483886718,-87.0520477294921,-108.56882699366656,62.27522606754105,2572827653
iw,-68.8507537841796,-88.0418548583984,-102.15239783804614,57.684145229318325,2572844320
iw,-67.3297653198242,-89.045913696289,-92.0494963696093,54.13841322897262,2572860987
iw,-66.0132446289062,-90.0,-78.30818484111079,51.85961831753964,2572877654
iw,-64.9339065551757,-89.2905883789062,-61.63136888846197,50.91655973793971,2572894321
iw,-64.106689453125,-88.3590850830078,-43.30607220828743,51.23006441414997,2572910988
iw,-63.6027221679687,-87.4729232788086,-25.00755297075377,52.60160317367672,2572927655
iw,-63.5208206176757,-86.5580978393554,-8.493228911248309,54.75848284236688,2572944322
iw,-63.9424819946289,-85.5596160888671,4.763923690578751,57.40756671503662,2572960989
iw,-64.5801239013671,-84.5282592773437,13.915303669169615,60.28653439002302,2572977656
iw,-64.9985733032226,-83.3125610351562,18.946227402633653,63.19646452016819,2572994323
iw,-65.294677734375,-82.0642700195312,20.67722792992673,65.99615734572771,2573010990
iw,-65.6636810302734,-80.8732147216796,20.54436398168794,68.54366072348485,2573027657
iw,-66.1414947509765,-79.7522583007812,20.218390805541453,70.58860205661,2573044324
iw,-66.487319946289,-78.7251968383789,21.16855735597468,71.64728772009268,2573060991
iw,-66.6258544921875,-77.7767944335937,24.286905399069145,70.91832245450182,2573077658
iw,-66.9347152709961,-76.8479385375976,29.67357130033754,67.30288973290301,2573094325
iw,-67.6602249145507,-75.9066009521484,36.64756348943829,59.57033783991637,2573110992
iw,-68.5678100585937,-74.9925842285156,43.98739372503027,46.65917372815333,2573127659
iw,-69.8718109130859,-74.2730484008789,50.33129821104463,28.042726159090527,2573144326
iw,-71.3950881958007,-73.8744125366211,54.6072633549088,4.042649097794712,2573160993
iw,-72.6152648925781,-73.9313354492187,56.349066812773486,-24.03512353063637,2573177660
iw,-73.4205017089843,-74.6636581420898,55.796666951969215,-54.028157729731376,2573194327
iw,-74.3389053344726,-76.2152709960937,53.76167469635864,-83.3150915107457,2573210994
iw,-75.115249633789,-78.429328918457,51.324158100711635,-109.39139802167333,2573227661
iw,-75.7846221923828,-80.9468994140625,49.4777189168967,-130.4528656220364,2573244328
iw,-76.6387405395507,-83.0256042480468,48.84119159666953,-145.7944604984787,2573260995
iw,-77.4057006835937,-83.7869415283203,49.5179172524489,-155.88728810407943,2573277662
iw,-78.1473846435546,-83.2355194091796,51.126530053749164,-162.1122286728365,2573294329
iw,-78.972183227539,-82.3478317260742,52.97018076254408,-166.25496308980215,2573310996
iw,-79.6624526977539,-81.1468963623046,54.27265847898769,-169.9438167037221,2573327663
iw,-80.2422256469726,-79.427017211914,54.4012792770702,-174.2063032264723,2573344330
iw,-80.5910949707031,-77.2830276489257,53.01625069874652,-179.24824706413213,2573360997
iw,-80.6668090820312,-74.8936157226562,50.12181057618024,-184.47106400889768,2573377664
iw,-80.5626449584961,-72.2305450439453,46.02876987683452,-188.68124353247384,2573394331
iw,-80.2676696777343,-69.2644653320312,41.25861037130087,-190.4187878852555,2573410998
iw,-79.8221206665039,-66.1774520874023,36.423423633997274,-188.32168462552187,2573427665
iw,-79.2612380981445,-63.3997497558593,32.109646796357055,-181.44203274403344,2573444332
iw,-78.7105331420898,-60.9735488891601,28.784570831667583,-169.44499815451329,2573460999
iw,-78.2570571899414,-58.7019386291503,26.73682013841418,-152.66115812797733,2573477666
iw,-77.8782348632812,-56.5621299743652,26.054889420027138,-132.01049544739897,2573494333
iw,-77.4806671142578,-54.7374610900878,26.640317550675142,-108.84491915178137,2573511000
iw,-76.9634704589843,-53.3585700988769,28.245492490887365,-84.75506483466283,2573527667
iw,-76.3250732421875,-52.4310455322265,30.52321735529482,-61.37083099040642,2573544334
iw,-75.6533660888671,-51.8671379089355,33.077417587333585,-40.173253189936,2573561001
iw,-74.993896484375,-51.5696487426757,35.50999607777242,-22.332974688140276,2573577668
iw,-74.3625259399414,-51.5072517395019,37.464045587388014,-8.590594493753235,2573594335
iw,-73.7462081909179,-51.5879249572753,38.66536836944406,0.8091573695311038,2573611002
iw,-73.1137542724609,-51.7549171447753,38.96215740754075,6.122910321003361,2573627669
iw,-72.4662094116211,-51.9309921264648,38.35855329135991,8.051988129137436,2573644336
iw,-71.825927734375,-52.0395317077636,37.0337850547026,7.626710092530295,2573661003
iw,-71.1732635498046,-52.1245346069335,35.33596411119323,6.043177224685236,2573677670
iw,-70.4736862182617,-52.3179054260253,33.738729569730296,4.475371529469016,2573694337
iw,-69.7913589477539,-52.5924034118652,32.7512811177499,3.8935970652821252,2573711004
iw,-69.1930923461914,-52.8575439453125,32.781720724906855,4.920228659123868,2573727671
iw,-68.7340698242187,-53.0940513610839,33.97304241268375,7.747836711182306,2573744338
iw,-68.3666687011718,-53.300365447998,36.055845405205325,12.139276997650216,2573761005
iw,-67.9820861816406,-53.6329002380371,38.27753811874942,17.523662190557527,2573777672
iw,-67.5130767822265,-54.2780265808105,39.4591483638997,23.186316363835584,2573794339
iw,-66.955337524414,-55.4510231018066,38.19457711614713,28.516899023807923,2573811006
iw,-66.4207992553711,-56.8316764831543,33.15666798697277,33.23685873679484,2573827673
iw,-66.0093002319336,-58.0113639831543,23.43199610823157,37.50486523639079,2573844340
iw,-65.8602218627929,-58.7813720703125,8.789779499953863,41.82964714364114,2573861007
iw,-66.1211242675781,-59.2139015197753,-10.194472044609368,46.80719504647812,2573877674
iw,-66.8274154663086,-59.6510200500488,-32.19960772589443,52.79971945256864,2573894341
iw,-67.9198455810546,-60.6821670532226,-55.3913130277179,59.71945336185681,2573911008
iw,-69.4876098632812,-62.4288864135742,-77.76662726538548,67.03189769511958,2573927675
iw,-71.5424652099609,-64.4394454956054,-97.52034181453115,73.97413252185045,2573944342
iw,-73.9452056884765,-66.2679138183593,-113.33905511629673,79.86799574201369,2573961009
iw,-76.4965896606445,-67.8824081420898,-124.55581881233688,84.3663146209658,2573977676
iw,-78.9850997924804,-69.3328399658203,-131.1504358305284,87.52107545177475,2573994343
iw,-81.192756652832,-70.7283477783203,-133.63427909688403,89.66395831025095,2574011010
iw,-82.9533615112304,-72.2020721435546,-132.884639177362,91.1789568168527,2574027677
iw,-84.1753997802734,-73.7948913574218,-129.9810281885931,92.28229148258939,2574044344
iw,-84.6167907714843,-75.4446868896484,-126.06175223174313,92.90273015625898,2574061011
iw,-84.0682601928711,-77.1433334350586,-122.19172969369384,92.69998213180963,2574077678
iw,-82.8152618408203,-78.8565368652343,-119.22830864500621,91.20178013110048,2574094345
iw,-81.3087387084961,-80.5381393432617,-117.68826578966032,88.00302087842167,2574111012
iw,-79.6432266235351,-82.1001205444336,-117.64233351245853,82.95814358848149,2574127679
iw,-77.7449264526367,-83.5236206054687,-118.67693418332514,76.30588924852574,2574144346
iw,-75.5955734252929,-84.7627334594726,-119.95423977445924,68.68698962170185,2574161013
iw,-73.4050903320312,-85.8206939697265,-120.37163023237923,61.04479905844738,2574177680
iw,-71.3100280761718,-86.7067489624023,-118.78604877183861,54.43107819719086,2574194347
iw,-69.3629074096679,-87.4454193115234,-114.2486824901495,49.76718087231683,2574211014
iw,-67.6365432739257,-88.1082458496093,-106.19971190714638,47.62670684711069,2574227681
iw,-66.1037139892578,-88.8168334960937,-94.59244477636355,48.10253548934276,2574244348
iw,-64.7568435668945,-89.4482192993164,-79.93454178612309,50.79744223262791,2574261015
iw,-63.591022491455,-88.9671249389648,-63.24193142638867,54.93977471135636,2574277682
iw,-62.7455825805664,-87.885025024414,-45.902160928981,59.58771078099271,2574294349
iw,-62.3252639770507,-86.7133026123046,-29.45068757239736,63.861835185470156,2574311016
iw,-62.2578773498535,-85.5049972534179,-15.285279029188825,67.14291772702005,2574327683
iw,-62.4408454895019,-84.2543792724609,-4.375392650323727,69.18619416848037,2574344350
iw,-62.761604309082,-83.0135726928711,2.953971818624302,70.12604748236727,2574361017
iw,-62.9794616699218,-81.817512512207,7.090909520864678,70.36893135825255,2574377684
iw,-63.11279296875,-80.6647491455078,9.025234942376288,70.3960918535658,2574394351
iw,-63.2963333129882,-79.5694351196289,10.083454582330743,70.52084308650724,2574411018
iw,-63.6016082763671,-78.5274887084961,11.586008688787755,70.66376310958825,2574427685
iw,-63.9166259765625,-77.5019226074218,14.5220210998817,70.21563863803567,2574444352
iw,-64.1343917846679,-76.4917297363281,19.32529885609932,68.04606025996334,2574461019
iw,-64.3417892456054,-75.5341262817382,25.80674266085298,62.68442901927467,2574477686
iw,-65.0524826049804,-74.6725082397461,33.261594025718345,52.65515601185557,2574494353
iw,-66.1217422485351,-73.9028778076171,40.723272982823325,36.89969339660875,2574511020
iw,-67.4288024902343,-73.282600402832,47.28351970026576,15.1766481198761,2574527687
iw,-68.6242141723632,-73.0391159057617,52.36590978269851,-11.688243222167115,2574544354
iw,-69.4540710449218,-73.4757919311523,55.855190031638436,-41.812422484670684,2574561021
iw,-70.3580017089843,-74.7386627197265,58.04897252982685,-72.57223837857283,2574577688
iw,-71.2783889770507,-76.8756103515625,59.475861296233276,-101.16750226592254,2574594355
iw,-72.3506393432617,-79.5308609008789,60.67121228226545,-125.2756614150228,2574611022
iw,-73.4957275390625,-82.226203918457,61.9995632683519,-143.5820422222245,2574627689
iw,-74.6097564697265,-84.0375747680664,63.57447868425152,-156.00244070102832,2574644356
iw,-75.7105407714843,-84.0489273071289,65.27890788382844,-163.52623956003774,2574661023
iw,-76.7864074707031,-83.1384506225586,66.85340462746808,-167.75580764534402,2574677690
iw,-77.7957305908203,-82.0087661743164,68.00496041497294,-170.33010158719304,2574694357
iw,-78.6891326904296,-80.3818893432617,68.49482380865251,-172.44156818536254,2574711024
iw,-79.3964385986328,-78.2717361450195,68.18256887235235,-174.58343820208287,2574727691
iw,-79.7493209838867,-75.8973922729492,67.02688348146033,-176.5522722389535,2574744358
iw,-79.8218765258789,-73.3603820800781,65.0621677369794,-177.64293604959954,2574761025
iw,-79.7378997802734,-70.6424942016601,62.37637143609543,-176.93845309917046,2574777692
iw,-79.5425720214843,-67.8404006958007,59.10648387501382,-173.6018793293986,2574794359
iw,-79.1914367675781,-65.2729873657226,55.44961155264137,-167.09813273732775,2574811026
iw,-78.7585906982421,-63.1325645446777,51.672497704048666,-157.30268364526532,2574827693
iw,-78.3337707519531,-61.1538734436035,48.10045231502218,-144.49227984913782,2574844360
iw,-77.8877868652343,-59.2388000488281,45.077132499258916,-129.25147055388416,2574861027
iw,-77.3252410888671,-57.488410949707,42.90111990044135,-112.34842196746085,2574877694
iw,-76.629035949707,-56.0543594360351,41.75609036593964,-94.6249361538704,2574894361
iw,-75.8323516845703,-54.8834114074707,41.6552136673494,-76.9199103544342,2574911028
iw,-75.0053100585937,-53.9835128784179,42.417167138202984,-60.02188614566556,2574927695
iw,-74.1872863769531,-53.2844505310058,43.68266864765514,-44.6348382939993,2574944362
iw,-73.3944778442382,-52.8536376953125,44.97022033858554,-31.34099340833908,2574961029
iw,-72.6322631835937,-52.6327095031738,45.761405238391895,-20.5516303125947,2574977696
iw,-71.9010391235351,-52.5841331481933,45.60096811356794,-12.44924232345958,2574994363
iw,-71.1538925170898,-52.6309661865234,44.194265630328616,-6.938606054339567,2575011030
iw,-70.3648986816406,-52.6608619689941,41.48390603795348,-3.633091810253133,2575027697
iw,-69.5940551757812,-52.6193161010742,37.68878213281603,-1.8982109135383887,2575044364
iw,-68.897232055664,-52.5777244567871,33.29209457912831,-0.9552176378174566,2575061031
iw,-68.3045272827148,-52.5826225280761,28.970069447536414,-0.022256615251590593,2575077698
iw,-67.8267059326171,-52.8044052124023,25.460944992934383,1.5459669908437401,2575094365
iw,-67.4129486083984,-53.1082572937011,23.386310154431506,4.157008389092491,2575111032
iw,-66.9852676391601,-53.3892860412597,23.053897457632946,7.938587071647366,2575127699
iw,-66.5418472290039,-53.6943664550781,24.288107028098903,12.75883637855839,2575144366
iw,-66.1242523193359,-54.079719543457,26.34389310171151,18.30260859416535,2575161033
iw,-65.7459640502929,-54.6117401123046,27.952966624090035,24.19148346168596,2575177700
iw,-65.3659439086914,-55.4861183166503,27.52433130505768,30.123152999094348,2575194367
iw,-64.9628143310546,-56.6108970642089,23.47713016150599,35.98795219442389,2575211034
iw,-64.5168075561523,-57.7433624267578,14.634593888475752,41.91073246126747,2575227701
iw,-64.1961059570312,-58.6496467590332,0.5719982185908448,48.18312378035659,2575244368
iw,-64.2993621826171,-59.4183921813964,-18.192921066780176,55.09792549084415,2575261035
iw,-65.0559539794921,-60.2601013183593,-40.24261419209904,62.75220466255557,2575277702
iw,-66.4805297851562,-61.4553718566894,-63.540807454761236,70.91303524942799,2575294369
iw,-68.4147644042968,-63.0926170349121,-85.87582772292755,79.01689460991587,2575311036
iw,-70.6965713500976,-65.0010223388671,-105.32959571549185,86.30977749647036,2575327703
iw,-73.1999130249023,-66.8871612548828,-120.62645427898053,92.06660469325466,2575344370
iw,-75.7862396240234,-68.6615371704101,-131.26806261328758,95.79481259656161,2575361037
iw,-78.2934646606445,-70.339729309082,-137.45232242751032,97.34409257419505,2575377704
iw,-80.6730422973632,-71.9479598999023,-139.85791792202315,96.89611082161727,2575394371
iw,-82.7601547241211,-73.5090866088867,-139.40656089813598,94.86147470223565,2575411038
iw,-84.2423095703125,-75.0649719238281,-137.08301653899403,91.73981981175437,2575427705
iw,-84.7054672241211,-76.614028930664,-133.8300362498026,87.99651615161628,2575444372
iw,-83.988037109375,-78.0952072143554,-130.48589599732313,83.98715111504967,2575461039
iw,-82.5571365356445,-79.5010910034179,-127.72092378315864,79.93524679281029,2575477706
iw,-80.909065246582,-80.8303070068359,-125.95214025779205,75.95132551098874,2575494373
iw,-79.1529312133789,-82.0738754272461,-125.25148314585815,72.07511279656647,2575511040
iw,-77.1695022583007,-83.2372589111328,-125.29010954745064,68.32355475161813,2575527707
iw,-74.9393615722656,-84.3604507446289,-125.36232848941849,64.73065918251888,2575544374
iw,-72.6824188232421,-85.4234161376953,-124.50561444209954,61.368912571526515,2575561041
iw,-70.5355529785156,-86.4746932983398,-121.69398920435196,58.346901505251346,2575577708
iw,-68.5701370239257,-87.5215682983398,-116.054959794723,55.784658781658834,2575594375
iw,-66.8247146606445,-88.4916915893554,-107.0581754921432,53.775908146372046,2575611042
iw,-65.2944183349609,-89.4710311889648,-94.64044216385064,52.351874666043855,2575627709
iw,-63.9768333435058,-90.0,-79.25050507895077,51.46202970317857,2575644376
iw,-62.8784484863281,-88.9146575927734,-61.80776819387192,50.982032714621404,2575661043
iw,-62.087661743164,-88.0291061401367,-43.57403523987189,50.74973073851107,2575677710
iw,-61.7111167907714,-87.1316757202148,-25.946444767077498,50.62011230993777,2575694377
iw,-61.7258186340332,-86.2489242553711,-10.200280963214725,50.522928250168974,2575711044
iw,-62.0471878051757,-85.3245010375976,2.7624833484865103,50.503331709447565,2575727711
iw,-62.4397048950195,-84.3704376220703,12.586408887943866,50.72623008826102,2575744378
iw,-62.7672119140625,-83.4371490478515,19.497235582457158,51.4296733215704,2575761045
iw,-63.0390815734863,-82.5091476440429,24.181708606932656,52.82305133651527,2575777712
iw,-63.4814109802246,-81.5861358642578,27.553097486788158,54.94286064443262,2575794379
iw,-64.0903015136718,-80.7083053588867,30.48192578621533,57.499779300346205,2575811046
iw,-64.7527236938476,-79.9088134765625,33.574334996719486,59.76915991421781,2575827713
iw,-65.3591613769531,-79.1251449584961,37.054266735296544,60.583673526569434,2575844380
iw,-65.970832824707,-78.3077774047851,40.77110516634016,58.472678076428295,2575861047
iw,-66.7877655029296,-77.3875503540039,44.32368100763715,51.95347953929834,2575877714
iw,-68.0263366699218,-76.4060821533203,47.261753134715924,39.92152597158474,2575894381
iw,-69.2714080810546,-75.6417007446289,49.29624477483123,22.030643947363792,2575911048
iw,-70.2524032592773,-75.4059829711914,50.43590501377195,-1.0701738148531177,2575927715
iw,-70.927734375,-75.7611541748046,50.99250172015498,-27.749110083757127,2575944382
iw,-71.7291717529296,-76.7923202514648,51.4565389308269,-55.68174606261102,2575961049
iw,-72.6050415039062,-78.4218215942382,52.30559276980158,-82.35111027608518,2575977716
iw,-73.5685119628906,-80.6350860595703,53.83020932692663,-105.61197580019271,2575994383
iw,-74.7021484375,-82.9619064331054,56.04137586585686,-124.14577914818584,2576011050
iw,-75.7720947265625,-84.8311996459961,58.680642949194976,-137.66608757486262,2576027717
iw,-76.8538665771484,-85.3038558959961,61.313604832923915,-146.82100569247567,2576044384
iw,-77.8937377929687,-84.3783493041992,63.46298098935906,-152.84735396285674,2576061051
iw,-78.7995071411132,-83.0269241333007,64.73302555802444,-157.1159333271504,2576077718
iw,-79.6082000732421,-81.3587112426757,64.89009801210256,-160.72871714407026,2576094385
iw,-80.3234252929687,-79.3021545410156,63.88672888514195,-164.28063155912483,2576111052
iw,-80.7712478637695,-77.0042114257812,61.83757238997591,-167.81323439768457,2576127719
iw,-80.9814071655273,-74.565200805664,58.96779373183413,-170.91494465379316,2576144386
iw,-80.9320678710937,-71.9395980834961,55.55642923256817,-172.89401166581587,2576161053
iw,-80.5595245361328,-69.1704559326171,51.89173684926467,-172.96169311702326,2576177720
iw,-79.9573287963867,-66.5085754394531,48.24643937858251,-170.38899660280617,2576194387
iw,-79.3106002807617,-64.0894088745117,44.872015048818604,-164.62236526130692,2576211054
iw,-78.7789535522461,-61.7859344482421,42.004859993868706,-155.35883951727106,2576227721
iw,-78.3568801879882,-59.496597290039,39.87283505290666,-142.59016157396476,2576244388
iw,-77.9135055541992,-57.3923034667968,38.6886498928376,-126.6247453852722,2576261055
iw,-77.370491027832,-55.6122093200683,38.619500576653834,-108.08700541595361,2576277722
iw,-76.7455139160156,-54.2201194763183,39.73259928870284,-87.88502365836526,2576294389
iw,-76.0360336303711,-53.1564331054687,41.93135516110016,-67.13898264295159,2576311056
iw,-75.2278442382812,-52.3789443969726,44.90991186781485,-47.071956709181926,2576327723
iw,-74.3475265502929,-51.8983497619628,48.15635221927101,-28.87299723378293,2576344390
iw,-73.4200668334961,-51.7603073120117,51.02255802518952,-13.547148934695816,2576361057
iw,-72.4883651733398,-51.9048957824707,52.854094384639225,-1.7724279890408483,2576377724
iw,-71.5794601440429,-52.1094741821289,53.14664126304679,6.208426354430126,2576394391
iw,-70.7417449951171,-52.2916412353515,51.67946411514474,10.630670580830817,2576411058
iw,-69.9865188598632,-52.3808860778808,48.58022654861197,12.165304418064252,2576427725
iw,-69.3032913208007,-52.4565353393554,44.29858348872861,11.797399758547924,2576444392
iw,-68.6846389770507,-52.696849822998,39.49761157339716,10.655603670088254,2576461059
iw,-68.0818176269531,-53.1000366210937,34.896770880515035,9.832277998789792,2576477726
iw,-67.4672698974609,-53.5964660644531,31.10735054988739,10.22242013286621,2576494393
iw,-66.8846130371093,-53.9952278137207,28.49244014958366,12.391666200118852,2576511060
iw,-66.4001007080078,-54.2400741577148,27.069155954216146,16.47940167885996,2576527727
iw,-66.026138305664,-54.4861145019531,26.46242307291962,22.158326017796032,2576544394
iw,-65.7586441040039,-54.9626235961914,25.919954585073857,28.688854110612695,2576561061
iw,-65.5564346313476,-55.7898941040039,24.40006147064922,35.097318466094514,2576577728
iw,-65.3646163940429,-57.068016052246,20.73738118936639,40.4594284077233,2576594395
iw,-65.2081756591796,-58.5128860473632,13.872255855484692,44.20536093718676,2576611062
iw,-65.1000442504882,-59.8521270751953,3.1026626081935884,46.322948563909605,2576627729
iw,-65.1609573364257,-60.7927207946777,-11.704572806677435,47.356947498066766,2576644396
iw,-65.6429214477539,-61.3614158630371,-30.010914711129537,48.18690308966831,2576661063
iw,-66.6948318481445,-61.828514099121,-50.65750245524922,49.673010767287096,2576677730
iw,-68.2875823974609,-62.5551834106445,-72.07078380026061,52.327617711192055,2576694397
iw,-70.3515090942382,-63.7647285461425,-92.56778904537423,56.15739108983968,2576711064
iw,-72.7019271850586,-65.4197082519531,-110.66827234383327,60.73281366236983,2576727731
iw,-75.2163391113281,-67.1031646728515,-125.32127757373891,65.42768275665155,2576744398
iw,-77.7432556152343,-68.6273803710937,-135.99573902372782,69.69547692676078,2576761065
iw,-80.1653747558593,-70.0047073364257,-142.64625070607704,73.2497699097565,2576777732
iw,-82.2437973022461,-71.2539749145507,-145.61017394122453,76.08295059248243,2576794399
iw,-83.807388305664,-72.4761047363281,-145.49669201502357,78.34592913702312,2576811066
iw,-84.5759582519531,-73.8257446289062,-143.0977139106226,80.17294549162774,2576827733
iw,-84.2496719360351,-75.3271713256836,-139.31219873752516,81.54623273738858,2576844400
iw,-82.9766387939453,-76.8757934570312,-135.05585440337995,82.261388333164,2576861067
iw,-81.2817459106445,-78.4257888793945,-131.13651159536204,82.00091565005388,2576877734
iw,-79.4871978759765,-79.9811859130859,-128.103811296914,80.47744697955021,2576894401
iw,-77.5602493286132,-81.4924392700195,-126.11242023000166,77.58522850346851,2576911068
iw,-75.4208526611328,-82.8840713500976,-124.85160897846292,73.50016199656055,2576927735
iw,-73.2150650024414,-84.1158676147461,-123.5800058840613,68.68912247198897,2576944402
iw,-71.0661392211914,-85.1790695190429,-121.26921833948526,63.82065048124446,2576961069
iw,-69.0484313964843,-86.1476593017578,-116.82440566900065,59.60238386120717,2576977736
iw,-67.2164916992187,-87.065559387207,-109.3317196972486,56.595403473922595,2576994403
iw,-65.6057205200195,-87.9776458740234,-98.28328934215351,55.063852221949745,2577011070
iw,-64.1472091674804,-88.9339370727539,-83.73870515843903,54.907683244903815,2577027737
iw,-62.8654861450195,-90.0,-66.3879282498523,55.70147863232186,2577044404
iw,-61.9103393554687,-89.1658477783203,-47.486126281016375,56.83061590579257,2577061071
iw,-61.4912986755371,-87.9799652099609,-28.647900326286653,57.68600705767873,2577077738
iw,-61.5302391052246,-86.7971725463867,-11.525446151289307,57.858296566072674,2577094405
iw,-61.8683128356933,-85.7145004272461,2.5562120067358944,57.268867742250926,2577111072
iw,-62.3664321899414,-84.7495422363281,12.900060350363418,56.191788441486864,2577127739
iw,-62.7602195739746,-83.84814453125,19.574372985763645,55.15404707606415,2577144406
iw,-63.047119140625,-82.989273071289,23.339360294509667,54.73913463379025,2577161073
iw,-63.4379501342773,-82.1037216186523,25.39097273487432,55.3471915786353,2577177740
iw,-63.9823837280273,-81.1877365112304,27.010034131039966,56.97586745689859,2577194407
iw,-64.5855407714843,-80.2713241577148,29.22453691269066,59.08108378103995,2577211074
iw,-65.1512680053711,-79.3973693847656,32.572950233729266,60.56189885150167,2577227741
iw,-65.702896118164,-78.5530471801757,37.01850925132758,59.8926360316753,2577244408
iw,-66.4131240844726,-77.6741638183593,42.027048558691135,55.397768585372475,2577261075
iw,-67.4781799316406,-76.7828063964843,46.78525885649337,45.62901051598084,2577277742
iw,-68.8013305664062,-76.0225830078125,50.49752650640317,29.76419433830879,2577294409
iw,-70.139778137207,-75.5849914550781,52.66635762995231,7.9186172913381245,2577311076
iw,-71.2176666259765,-75.6071090698242,53.25697888836193,-18.739334901252455,2577327743
iw,-71.970458984375,-76.3233032226562,52.68713700522026,-48.13447102602361,2577344410
iw,-72.7211380004882,-77.8349533081054,51.65545529944354,-77.68255086027546,2577361077
iw,-73.5164260864257,-79.9940185546875,50.887664856911925,-104.8416628264057,2577377744
iw,-74.3625793457031,-82.3967208862304,50.904546994059466,-127.65589467342464,2577394411
iw,-75.4203414916992,-84.2694778442382,51.89158575006302,-145.1226260834042,2577411078
iw,-76.4744262695312,-84.5466995239257,53.69788491141259,-157.27461484184843,2577427745
iw,-77.4798812866211,-83.3775329589843,55.93873132264554,-164.973048050685,2577444412
iw,-78.3940048217773,-81.9381027221679,58.14395522036617,-169.51052058966118,2577461079
iw,-79.1904296875,-80.3051528930664,59.89209537350241,-172.17623407540245,2577477746
iw,-79.8993911743164,-78.2481002807617,60.892609240222384,-173.91959931985994,2577494413
iw,-80.3936691284179,-75.9046249389648,61.00904304486629,-175.18178031817666,2577511080
iw,-80.7332916259765,-73.4189071655273,60.2396493073294,-175.89160596929932,2577527747
iw,-80.8503494262695,-70.7609405517578,58.68079310044439,-175.57960348681047,2577544414
iw,-80.7235641479492,-68.0045852661132,56.49352249865547,-173.55702299540266,2577561081
iw,-80.3647918701171,-65.3182220458984,53.88152246792508,-169.11582094852483,2577577748
iw,-79.8710784912109,-62.8915824890136,51.07763339145381,-161.7127899957142,2577594415
iw,-79.3768997192382,-60.64302444458,48.33126597102491,-151.10585483574633,2577611082
iw,-78.9522247314453,-58.5056991577148,45.889974121574134,-137.420503785074,2577627749
iw,-78.5348892211914,-56.6505508422851,43.97213772602183,-121.14056992616915,2577644416
iw,-78.0120697021484,-55.1449432373046,42.73234919912788,-103.03490102011845,2577661083
iw,-77.3283081054687,-53.9290885925293,42.2261263982093,-84.04514430196899,2577677750
iw,-76.4907150268554,-52.9574737548828,42.384623480606386,-65.1660277053948,2577694417
iw,-75.5735244750976,-52.2259902954101,43.01081630193529,-47.343935085576966,2577711084
iw,-74.6658477783203,-51.6934661865234,43.804898350669575,-31.40306619234778,2577727751
iw,-73.825080871582,-51.4116744995117,44.41916779577041,-17.990807482103506,2577744418
iw,-73.0422134399414,-51.3687019348144,44.53382807452565,-7.5277904751468,2577761085
iw,-72.2796630859375,-51.5156097412109,43.937414197996006,-0.15854047671771093,2577777752
iw,-71.4927215576171,-51.6566505432128,42.5913121282411,4.282183286574831,2577794419
iw,-70.6797943115234,-51.7436141967773,40.65884976547254,6.260533092788346,2577811086
iw,-69.8520584106445,-51.7776451110839,38.48574375019001,6.473555814664183,2577827753
iw,-69.05224609375,-51.7921905517578,36.52788402649173,5.725018256736035,2577844420
iw,-68.3579635620117,-51.9451751708984,35.23183609849675,4.780789337257739,2577861087
iw,-67.7568435668945,-52.1791687011718,34.88311254457229,4.247835488715005,2577877754
iw,-67.211067199707,-52.3546295166015,35.449331236589614,4.510232708781623,2577894421
iw,-66.7108535766601,-52.5671997070312,36.45943232582507,5.73398332728841,2577911088
iw,-66.2720565795898,-52.7624130249023,36.96979729936508,7.932537787806052,2577927755
iw,-65.825439453125,-53.1551551818847,35.662407326918185,11.069935156493909,2577944422
iw,-65.3218307495117,-53.8274192810058,31.09004807978451,15.164431259055842,2577961089
iw,-64.8335800170898,-54.6354217529296,22.031420337102002,20.344403076018125,2577977756
iw,-64.5304794311523,-55.2798919677734,7.863785608957578,26.814199773366603,2577994423
iw,-64.5969543457031,-55.7969627380371,-11.169188393779756,34.724001930236824,2578011090
iw,-65.239387512207,-56.2647819519043,-33.89998176435331,43.99597748632956,2578027757
iw,-66.5317840576171,-57.1171340942382,-58.431172396766456,54.202908823717046,2578044424
iw,-68.3582763671875,-58.5535202026367,-82.53128184421045,64.58664343103166,2578061091
iw,-70.6160736083984,-60.3736953735351,-104.10499553356216,74.23658836678449,2578077758
iw,-73.1299743652343,-62.217472076416,-121.58404416558531,82.36033376487141,2578094425
iw,-75.7122573852539,-63.9519233703613,-134.1284121309849,88.52435466367066,2578111092
iw,-78.3129119873046,-65.5243606567382,-141.61909550287055,92.7555977469979,2578127759
iw,-80.7458953857421,-67.017333984375,-144.5101342961481,95.4640578702789,2578144426
iw,-82.875503540039,-68.5016479492187,-143.63985585889714,97.23002150550742,2578161093
iw,-84.4442749023437,-70.1218643188476,-140.0708027099253,98.55387162638851,2578177760
iw,-85.0941619873046,-71.8574295043945,-134.96955945906473,99.66971445216048,2578194427
iw,-84.5827560424804,-73.6647567749023,-129.49651700795337,100.48390269800647,2578211094
iw,-83.2343597412109,-75.4940109252929,-124.67281733038556,100.64294983562161,2578227761
iw,-81.5956192016601,-77.3137130737304,-121.2194669694724,99.69066094226238,2578244428
iw,-79.9343032836914,-79.0852127075195,-119.40047718740469,97.25498835837192,2578261095
iw,-78.097412109375,-80.7813262939453,-118.92689976936035,93.20798295206691,2578277762
iw,-76.0149917602539,-82.3570251464843,-118.97649759061949,87.75737680181872,2578294429
iw,-73.8819808959961,-83.7690124511718,-118.35069327750068,81.44841077466866,2578311096
iw,-71.7862548828125,-85.0191345214843,-115.74079284396153,75.07620340979393,2578327763
iw,-69.8312911987304,-86.1752090454101,-110.03586724815,69.52971930963203,2578344430
iw,-68.0973358154296,-87.2549057006836,-100.59386437643654,65.60423549668317,2578361097
iw,-66.6046371459961,-88.3029174804687,-87.41361630654242,63.826174326374144,2578377764
iw,-65.345100402832,-89.2820892333984,-71.1730239656031,64.33103851330415,2578394431
iw,-64.3413162231445,-89.2374114990234,-53.124739043481895,66.82358487132565,2578411098
iw,-63.7171401977539,-88.1996307373046,-34.86283655059982,70.63204939680114,2578427765
iw,-63.5587844848632,-86.9074401855468,-17.997937603361283,74.84780783605397,2578444432
iw,-63.7752990722656,-85.4752426147461,-3.8070525937905235,78.5206595078627,2578461099
iw,-64.2311630249023,-83.9491958618164,7.051137458422431,80.8612315218498,2578477766
iw,-64.6093597412109,-82.3908081054687,14.66448649748684,81.3920568802885,2578494433
iw,-64.8496398925781,-80.8917617797851,19.786511276772814,79.99574875405936,2578511100
iw,-65.1674194335937,-79.6095962524414,23.5637037330913,76.83656482213354,2578527767
iw,-65.6564636230468,-78.595832824707,27.158181147378162,72.17560995062672,2578544434
iw,-66.1443481445312,-77.7216873168945,31.38861469570266,66.14517085988646,2578561101
iw,-66.6995468139648,-76.9400482177734,36.50179762876522,58.57385589859049,2578577768
iw,-67.2994766235351,-76.2389373779296,42.1425801328095,48.94522405354438,2578594435
iw,-68.2228622436523,-75.5989685058593,47.52952010079742,36.527412471405526,2578611102
iw,-69.5771865844726,-75.0855560302734,51.779376383240475,20.646183749061386,2578627769
iw,-71.1363677978515,-74.8071899414062,54.2681497788764,1.0138605971250303,2578644436
iw,-72.4931945800781,-74.8571548461914,54.89248601007856,-22.005409252782883,2578661103
iw,-73.3625259399414,-75.4105224609375,54.12575519858416,-47.30430679473832,2578677770
iw,-74.025161743164,-76.6178741455078,52.845885502128404,-73.17396844998389,2578694437
iw,-74.745864868164,-78.4195404052734,52.008877074078214,-97.65815356372455,2578711104
iw,-75.6577377319336,-80.7489547729492,52.30188337520717,-119.01800240419813,2578727771
iw,-76.5785827636718,-83.2722930908203,53.90693967586126,-136.1540994417963,2578744438
iw,-77.5429916381836,-85.1208724975586,56.45312341928452,-148.83713869291984,2578761105
iw,-78.7071533203125,-85.1646652221679,59.16155321609079,-157.66458930684573,2578777772
iw,-79.8202819824218,-83.9174346923828,61.12049442889536,-163.76559767375275,2578794439
iw,-80.7670288085937,-82.3505249023437,61.58664241781306,-168.3731262921458,2578811106
iw,-81.5280532836914,-80.4617080688476,60.20813170879741,-172.42275256682433,2578827773
iw,-82.0455932617187,-78.1563186645507,57.10461551738203,-176.30364262592116,2578844440
iw,-82.2241134643554,-75.5942153930664,52.7984860683101,-179.80561648553217,2578861107
iw,-82.1474990844726,-72.9023056030273,48.040610118762174,-182.22827049925993,2578877774
iw,-81.8466873168945,-70.1092987060546,43.597459160443094,-182.58171511697734,2578894441
iw,-81.3716125488281,-67.2567596435546,40.06415681757904,-179.8152610842098,2578911108
iw,-80.8173370361328,-64.4904327392578,37.748616381200435,-173.03535445273113,2578927775
iw,-80.3002471923828,-62.0181541442871,36.64565005651107,-161.69305747219235,2578944442
iw,-79.9144287109375,-59.6713142395019,36.49416786852743,-145.7271667427607,2578961109
iw,-79.5580139160156,-57.4953117370605,36.89018029602914,-125.64624201181113,2578977776
iw,-79.1044616699218,-55.7230072021484,37.417033478447856,-102.52860206226394,2578994443
iw,-78.4966430664062,-54.4139137268066,37.75487420931567,-77.9223673579691,2579011110
iw,-77.7919998168945,-53.5523567199707,37.74336970840721,-53.64517376825112,2579027777
iw,-77.0631103515625,-53.1683731079101,37.390298181154236,-31.512394447543535,2579044444
iw,-76.3504104614257,-53.0588912963867,36.836124769690116,-13.04937165841485,2579061111
iw,-75.6616821289062,-53.1576271057128,36.294580697372915,0.7472217849565963,2579077778
iw,-74.9827117919921,-53.362075805664,35.98957402881324,9.545764510133239,2579094445
iw,-74.2982940673828,-53.4937133789062,36.10236919849539,13.68836351503234,2579111112
iw,-73.5866546630859,-53.5178146362304,36.73470713233542,14.078940080582832,2579127779
iw,-72.8617172241211,-53.5214500427246,37.88685544898701,11.985137052440766,2579144446
iw,-72.1287689208984,-53.5845375061035,39.445813728515716,8.80332500684643,2579161113
iw,-71.3423461914062,-53.7002944946289,41.17801340419391,5.8354066969121,2579177780
iw,-70.5082244873046,-53.8868179321289,42.72213994563913,4.113369804651983,2579194447
iw,-69.7244644165039,-54.0872268676757,43.5812229042553,4.2912861088818515,2579211114
iw,-69.0618362426757,-54.3002548217773,43.12042003071002,6.612458464595401,2579227781
iw,-68.5558547973632,-54.5585479736328,40.587831485917604,10.952421238248228,2579244448
iw,-68.1831588745117,-55.055362701416,35.1840275856254,16.930226562408958,2579261115
iw,-67.8823318481445,-55.8259887695312,26.200659591564065,24.064080242490665,2579277782
iw,-67.6090011596679,-56.9369773864746,13.221814855750745,31.92506286970057,2579294449
iw,-67.44970703125,-58.14697265625,-3.6608319973806753,40.22989631933996,2579311116
iw,-67.5696258544921,-59.0874061584472,-23.704705380764757,48.83020439986181,2579327783
iw,-68.2577438354492,-59.8639869689941,-45.53293783714806,57.60564168992758,2579344450
iw,-69.6038360595703,-60.8751831054687,-67.35188481076646,66.32721236924232,2579361117
iw,-71.3599319458007,-62.3705291748046,-87.32695832470272,74.58323783208596,2579377784
iw,-73.3704681396484,-64.2243499755859,-103.99430391136289,81.82776666686291,2579394451
iw,-75.5850982666015,-66.1546859741211,-116.55644016960578,87.53644115609467,2579411118
iw,-78.000747680664,-67.952278137207,-124.95491676202134,91.38811088437757,2579427785
iw,-80.4656677246093,-69.6264266967773,-129.71343694522523,93.37573106002182,2579444452
iw,-82.6895523071289,-71.1944503784179,-131.64601679969488,93.79232375606881,2579461119
iw,-84.2766571044921,-72.7242813110351,-131.56997994102315,93.10522754374465,2579477786
iw,-84.7938003540039,-74.2599105834961,-130.13281061236816,91.78370775109899,2579494453
iw,-84.097412109375,-75.8347244262695,-127.78283240677699,90.15735432068509,2579511120
iw,-82.6733016967773,-77.4245681762695,-124.83710309602415,88.35709229545506,2579527787
iw,-80.9571685791015,-78.9847946166992,-121.56426430982165,86.34690848142786,2579544454
iw,-79.1559982299804,-80.520523071289,-118.21409061931095,84.01615800159912,2579561121
iw,-77.483528137207,-82.0215682983398,-114.97241309277507,81.28425565136115,2579577788
iw,-75.8103485107421,-83.4040603637695,-111.87162431180312,78.1737050674768,2579594455
iw,-73.9749298095703,-84.6410522460937,-108.71659411143014,74.827338459882,2579611122
iw,-72.0409088134765,-85.7917404174804,-105.07934176924955,71.47155139971943,2579627789
iw,-70.192138671875,-86.8832855224609,-100.37926452305972,68.34862180655806,2579644456
iw,-68.5543746948242,-87.9479598999023,-94.02388076357332,65.64944079831854,2579661123
iw,-67.1330795288086,-88.8356781005859,-85.56376566558662,63.47137230985454,2579677790
iw,-65.8919982910156,-88.9500350952148,-74.82083358989784,61.81070868105117,2579694457
iw,-64.8254089355468,-88.1654891967773,-61.96647873230637,60.58463555755685,2579711124
iw,-63.9808959960937,-87.1702880859375,-47.53786966328053,59.669646790538735,2579727791
iw,-63.348331451416,-86.1992416381836,-32.383382709742904,58.942357560902146,2579744458
iw,-63.006248474121,-85.2413253784179,-17.531587348710524,58.31208086162549,2579761125
iw,-63.0508689880371,-84.271011352539,-3.9934562699685885,57.73916174841716,2579777792
iw,-63.4549179077148,-83.2958068847656,7.46419430968775,57.23584572709459,2579794459
iw,-64.0719451904296,-82.2778549194336,16.50735709339282,56.846023549158836,2579811126
iw,-64.5781936645507,-81.2280197143554,23.311649846513426,56.59869215412182,2579827793
iw,-64.9454803466796,-80.1989135742187,28.48331954171131,56.43234554407289,2579844460
iw,-65.4555740356445,-79.2983245849609,32.84046253718885,56.09828448218535,2579861127
iw,-66.1265258789062,-78.579963684082,37.129553947164524,55.06999571517835,2579877794
iw,-66.7879028320312,-77.9472351074218,41.778301083208454,52.50518726780799,2579894461
iw,-67.4686737060546,-77.2960433959961,46.76988910121957,47.311526984702255,2579911128
iw,-68.4216384887695,-76.6517944335937,51.67977915921512,38.343397837644595,2579927795
iw,-69.5920715332031,-76.0458297729492,55.86155147837278,24.706357675667537,2579944462
iw,-71.032112121582,-75.5825729370117,58.71575849867885,6.088288537186097,2579961129
iw,-72.4156112670898,-75.4865341186523,59.94159176479306,-16.999627427835655,2579977796
iw,-73.5105819702148,-76.0375289916992,59.6739781719758,-43.180140535410665,2579994463
iw,-74.4715576171875,-77.2522201538086,58.453450444934624,-70.41528823775514,2580011130
iw,-75.4177551269531,-79.0613021850586,57.04347034168104,-96.42119276866119,2580027797
iw,-76.3073654174804,-81.1536026000976,56.16738522837482,-119.17145239695814,2580044464
iw,-77.1716156005859,-83.0375366210937,56.262009110832274,-137.3300459974422,2580061131
iw,-77.9946899414062,-83.9563293457031,57.333807682077,-150.47840380929208,2580077798
iw,-78.8743133544921,-83.4942550659179,58.96525928037945,-159.07678310064648,2580094465
iw,-79.8572006225586,-82.4430313110351,60.464886133381945,-164.1951907623549,2580111132
iw,-80.7880401611328,-81.1373596191406,61.10170950409962,-167.12403827735668,2580127799
iw,-81.5559921264648,-79.4209518432617,60.33565463465505,-168.99874959889084,2580144466
iw,-82.0174865722656,-77.3067779541015,57.96476183291691,-170.5402665883152,2580161133
iw,-82.0737838745117,-74.8979721069336,54.15236204458211,-171.9498828612833,2580177800
iw,-81.8414001464843,-72.3326263427734,49.348536588720286,-172.94027956775236,2580194467
iw,-81.4340896606445,-69.5895614624023,44.154545138283694,-172.8583121454887,2580211134
iw,-80.9263687133789,-66.9396286010742,39.18490447922913,-170.85600889720524,2580227801
iw,-80.3482437133789,-64.4521484375,34.964854970594324,-166.07782035919718,2580244468
iw,-79.7906341552734,-62.0317802429199,31.875527234059405,-157.8414746461622,2580261135
iw,-79.2888259887695,-59.6646270751953,30.13827505414683,-145.7928395359778,2580277802
iw,-78.7680587768554,-57.5629425048828,29.81959638134409,-130.01432446846823,2580294469
iw,-78.1850433349609,-55.786880493164,30.83930869009278,-111.06777033463135,2580311136
iw,-77.51806640625,-54.3694877624511,32.97448776552725,-89.96164962925873,2580327803
iw,-76.790901184082,-53.2701454162597,35.86471734765988,-68.04646796096102,2580344470
iw,-76.0311431884765,-52.5064163208007,39.03322874723814,-46.85353186069878,2580361137
iw,-75.2666931152343,-52.1327476501464,41.938050847252455,-27.89684170325205,2580377804
iw,-74.5169830322265,-52.0480690002441,44.05684257175145,-12.460077316992049,2580394471
iw,-73.7804183959961,-52.118537902832,44.99305115880765,-1.3955766155924954,2580411138
iw,-73.0405578613281,-52.330207824707,44.57623043860419,5.031663132026563,2580427805
iw,-72.3020095825195,-52.5357589721679,42.92244117120217,7.2204595872152195,2580444472
iw,-71.5883483886718,-52.6654090881347,40.42601467022498,6.203009287130942,2580461139
iw,-70.9190673828125,-52.7522506713867,37.67127147963513,3.4964138912510987,2580477806
iw,-70.3082122802734,-52.8459434509277,35.27628447211257,0.8484944214001555,2580494473
iw,-69.7541809082031,-52.9666786193847,33.70219951631529,-0.08414145533944502,2580511140
iw,-69.2024459838867,-53.0753936767578,33.07468083472277,1.933539047237018,2580527807
iw,-68.6774673461914,-53.2116355895996,33.06634519147068,7.448217942105319,2580544474
iw,-68.2627029418945,-53.4636001586914,32.88094812254996,16.187891108846703,2580561141
iw,-67.9631195068359,-53.9046325683593,31.362484774512367,27.12357680867962,2580577808
iw,-67.6503524780273,-54.8266372680664,27.225382836012958,38.73601724248329,2580594475
iw,-67.2755737304687,-56.3190612792968,19.366792111798606,49.43417893648408,2580611142
iw,-67.0024871826171,-58.3328628540039,7.186072453306197,58.00313195286016,2580627809
iw,-67.0363464355468,-60.1531677246093,-9.184239931707472,63.923218232846935,2580644476
iw,-67.5150604248046,-61.3344917297363,-28.820741582113335,67.43469391441822,2580661143
iw,-68.5689239501953,-62.1404800415039,-50.16176550607937,69.32502080038627,2580677810
iw,-70.1594161987304,-62.9965705871582,-71.3363188118422,70.54319196142463,2580694477
iw,-72.220458984375,-64.1854705810546,-90.56924858346052,71.82258790977332,2580711144
iw,-74.5551528930664,-65.7994613647461,-106.53196643738814,73.47274738098989,2580727811
iw,-76.941291809082,-67.5650024414062,-118.53140992107129,75.39758175675718,2580744478
iw,-79.2892837524414,-69.2689208984375,-126.50046947187359,77.27992505859716,2580761145
iw,-81.5588989257812,-70.852294921875,-130.8369180025596,78.80662799544034,2580777812
iw,-83.5414199829101,-72.3075942993164,-132.18986679753385,79.81912219558971,2580794479
iw,-84.9673309326171,-73.6433563232421,-131.28685484852022,80.3385933214434,2580811146
iw,-85.4590377807617,-74.9616317749023,-128.8432772880148,80.48766827301024,2580827813
iw,-84.8174133300781,-76.3353424072265,-125.53747106050264,80.3746056503058,2580844480
iw,-83.4213256835937,-77.7453155517578,-122.00277246489993,80.00782698305137,2580861147
iw,-81.6533432006836,-79.1529083251953,-118.79178235102523,79.27852482850413,2580877814
iw,-79.8876953125,-80.5529403686523,-116.2973766972989,78.0100056887941,2580894481
iw,-78.1546020507812,-81.938491821289,-114.65139889204151,76.04461931036892,2580911148
iw,-76.3107376098632,-83.2929992675781,-113.64749721177957,73.33019893722299,2580927815
iw,-74.2970428466796,-84.5681915283203,-112.73575060958171,69.97401565807573,2580944482
iw,-72.2789306640625,-85.7161865234375,-111.11110226232263,66.24598342824578,2580961149
iw,-70.3698272705078,-86.7433395385742,-107.87925487588004,62.52928532204002,2580977816
iw,-68.6439514160156,-87.7373046875,-102.25560166478628,59.23276318619402,2580994483
iw,-67.1234893798828,-88.7348327636718,-93.74831773778959,56.69154127128362,2581011150
iw,-65.7853240966796,-90.0,-82.2898002412878,55.08619276150583,2581027817
iw,-64.6079025268554,-89.6539535522461,-68.29522521236316,54.40473970679415,2581044484
iw,-63.6362724304199,-88.5375442504882,-52.63388534591853,54.45834931120469,2581061151
iw,-62.973403930664,-87.5543975830078,-36.502988560658935,54.94544799806599,2581077818
iw,-62.6863784790039,-86.5636215209961,-21.207191346342547,55.54494671469969,2581094485
iw,-62.860050201416,-85.617691040039,-7.877197171890182,56.01110456466903,2581111152
iw,-63.3395195007324,-84.5945587158203,2.80169369851882,56.24166015694068,2581127819
iw,-63.7188301086425,-83.5380172729492,10.759156817165659,56.295849108981685,2581144486
iw,-63.9491157531738,-82.4992294311523,16.535073566198342,56.34797918805844,2581161153
iw,-64.1735610961914,-81.5199203491211,21.089424181269155,56.576060094253435,2581177820
iw,-64.6697006225586,-80.6394271850586,25.489034262229413,57.00525802577504,2581194487
iw,-65.3575286865234,-79.8558044433593,30.576784778454577,57.349754650806915,2581211154
iw,-65.9836883544921,-79.1175689697265,36.7247659784218,56.913987231185445,2581227821
iw,-66.5723114013671,-78.3598098754882,43.73729453557523,54.6126449040341,2581244488
iw,-67.4722900390625,-77.563850402832,50.927038967508885,49.1408600868489,2581261155
iw,-68.7745513916015,-76.7506103515625,57.344441051050545,39.275938500276105,2581277822
iw,-70.3301162719726,-76.025390625,62.09418812104274,24.236479788642047,2581294489
iw,-71.8496704101562,-75.6800079345703,64.63465255001013,3.987723254042743,2581311156
iw,-72.9284057617187,-75.922134399414,64.9541044029856,-20.616280722176022,2581327823
iw,-73.9071578979492,-76.7074890136718,63.564283841501215,-47.91761516230888,2581344490
iw,-74.9674911499023,-78.0314254760742,61.32556428017825,-75.7574219536131,2581361157
iw,-75.99560546875,-79.8508987426757,59.17686880543523,-101.91624439298735,2581377824
iw,-76.8736419677734,-82.0250701904296,57.862829225214576,-124.56726044333838,2581394491
iw,-77.7630081176757,-83.9623336791992,57.73670465631818,-142.61351775733107,2581411158
iw,-78.6220703125,-84.6365890502929,58.68795265360926,-155.8158647006785,2581427825
iw,-79.4789810180664,-83.6612014770507,60.20646063774769,-164.68554730817715,2581444492
iw,-80.3988265991211,-82.0870208740234,61.55500458054604,-170.19455498489762,2581461159
iw,-81.2006530761718,-80.2784271240234,61.98880597842613,-173.41607089265491,2581477826
iw,-81.7715148925781,-78.1236953735351,60.95149696044654,-175.21750308990016,2581494493
iw,-82.0553283691406,-75.703628540039,58.19565590247287,-176.08541599029135,2581511160
iw,-82.0249481201171,-73.212158203125,53.811701735011255,-176.09449688268796,2581527827
iw,-81.7469863891601,-70.5881652832031,48.180991906260175,-174.98265649625122,2581544494
iw,-81.3094787597656,-67.909309387207,41.883719232534425,-172.2814084166817,2581561161
iw,-80.7986755371093,-65.3529891967773,35.59028455487988,-167.46321610844169,2581577828
iw,-80.2316131591796,-62.94380569458,29.956022092458387,-160.08261205951453,2581594495
iw,-79.6672897338867,-60.6813812255859,25.532031248443918,-149.89411191509075,2581611162
iw,-79.1204605102539,-58.5863189697265,22.701064550963935,-136.93023745529095,2581627829
iw,-78.5912017822265,-56.74556350708,21.643724902869224,-121.52526482542474,2581644496
iw,-78.0496139526367,-55.2154731750488,22.334381178423556,-104.28001521116103,2581661163
iw,-77.4611358642578,-54.0243377685546,24.560004700112035,-85.97925600210284,2581677830
iw,-76.830451965332,-53.0963325500488,27.952377872711367,-67.48826322297244,2581694497
iw,-76.1721725463867,-52.3978538513183,32.026606385352665,-49.65878069133989,2581711164
iw,-75.4888763427734,-51.8993225097656,36.22431533342688,-33.26313827552611,2581727831
iw,-74.7910385131836,-51.6250686645507,39.964060278207334,-18.95540946552663,2581744498
iw,-74.0765228271484,-51.5769577026367,42.701868153708155,-7.243172829314835,2581761165
iw,-73.3384170532226,-51.6660957336425,44.001608143829195,1.547832098942166,2581777832
iw,-72.5752792358398,-51.8300628662109,43.6088430909707,7.321624788144113,2581794499
iw,-71.8269500732421,-52.1026802062988,41.514193569137916,10.260927274142398,2581811166
iw,-71.1308441162109,-52.3870887756347,37.98641774753341,10.85384652715342,2581827833
iw,-70.493782043457,-52.5911064147949,33.55536869782368,9.874707249755726,2581844500
iw,-69.916015625,-52.8512496948242,28.932315348739447,8.306674244910113,2581861167
iw,-69.4072647094726,-53.2420578002929,24.86909593670938,7.210250714361894,2581877834
iw,-68.9678497314453,-53.5969619750976,21.976352447355413,7.555011935775167,2581894501
iw,-68.597412109375,-53.8504104614257,20.54007530686112,10.040370692677294,2581911168
iw,-68.2926559448242,-54.0279655456543,20.387086296219636,14.940765468155663,2581927835
iw,-68.034927368164,-54.297752380371,20.847012585418447,22.022275297290783,2581944502
iw,-67.7961654663086,-54.8975563049316,20.83884497485699,30.577756512362644,2581961169
iw,-67.562141418457,-55.9099349975585,19.0777937172286,39.59932804839622,2581977836
iw,-67.3706512451171,-57.1333656311035,14.360940680358237,48.051990432615995,2581994503
iw,-67.2642211914062,-58.6028137207031,5.860300763430695,55.15807671725391,2582011170
iw,-67.3649978637695,-60.0199127197265,-6.657694073285543,60.58522842745462,2582027837
iw,-67.7774658203125,-61.1875686645507,-22.74958389152225,64.4668059350907,2582044504
iw,-68.6276702880859,-62.121410369873,-41.37166169880794,67.2566614349914,2582061171
iw,-69.9791030883789,-63.1323280334472,-61.08918815412991,69.49252262307948,2582077838
iw,-71.8564224243164,-64.3726654052734,-80.3515165798302,71.57699373112176,2582094505
iw,-74.0945205688476,-65.9256896972656,-97.75288190751246,73.66534555328523,2582111172
iw,-76.564094543457,-67.6007308959961,-112.21699025190613,75.687790996791,2582127839
iw,-79.0971755981445,-69.1990509033203,-123.08471196571051,77.46688733050581,2582144506
iw,-81.5030059814453,-70.7275466918945,-130.1247957197472,78.85398631247898,2582161173
iw,-83.5783767700195,-72.1527023315429,-133.50414951345317,79.81569023126704,2582177840
iw,-85.0679550170898,-73.5087509155273,-133.7411616299496,80.43909583250667,2582194507
iw,-85.5375747680664,-74.8717727661132,-131.63918388591992,80.86791584804145,2582211174
iw,-84.859748840332,-76.2557144165039,-128.1817557210833,81.20972755955405,2582227841
iw,-83.4558486938476,-77.6253204345703,-124.37902004638661,81.45993145323682,2582244508
iw,-81.6661987304687,-78.9874420166015,-121.080127001629,81.47479404604604,2582261175
iw,-79.8423767089843,-80.3484497070312,-118.79237495700984,81.00420158663812,2582277842
iw,-77.9540100097656,-81.7412719726562,-117.55934683643157,79.77335637550753,2582294509
iw,-75.9627456665039,-83.1689300537109,-116.94109124894918,77.58670894091762,2582311176
iw,-73.8466110229492,-84.5219268798828,-116.11155237706217,74.42000115091567,2582327843
iw,-71.7725677490234,-85.7296066284179,-114.05143162239386,70.46975955636624,2582344510
iw,-69.8704833984375,-86.8868713378906,-109.78460865399076,66.1434019150507,2582361177
iw,-68.1792984008789,-88.0214767456054,-102.5982391756978,61.99150130937993,2582377844
iw,-66.7252120971679,-89.1117706298828,-92.20233356163777,58.598683863025144,2582394511
iw,-65.4702911376953,-90.0,-78.80970983512216,56.45767374173087,2582411178
iw,-64.3771438598632,-89.2239379882812,-63.13399332414501,55.85443982213252,2582427845
iw,-63.5262641906738,-88.2619018554687,-46.30585125876949,56.79290871760547,2582444512
iw,-62.9938049316406,-87.2965850830078,-29.70550176397372,58.98247839254577,2582461179
iw,-62.8172225952148,-86.2277908325195,-14.718324165144274,61.89757364248625,2582477846
iw,-63.0781707763671,-85.0753860473632,-2.4472338369776105,64.89770480226095,2582494513
iw,-63.5742530822753,-83.8474807739257,6.54977296093482,67.37535901578913,2582511180
iw,-63.9775619506835,-82.4666290283203,12.4098034421867,68.88478731509173,2582527847
iw,-64.2181625366211,-81.0845642089843,15.935279815440067,69.20340067477373,2582544514
iw,-64.5138320922851,-79.9033432006836,18.374364111524933,68.29383833333776,2582561181
iw,-64.937385559082,-78.9463577270507,21.07098188842514,66.17000167534924,2582577848
iw,-65.4065628051757,-78.1474075317382,25.0892180135012,62.71578414965672,2582594515
iw,-65.7156143188476,-77.4234848022461,30.922886984389212,57.54000165459523,2582611182
iw,-66.1669540405273,-76.7442932128906,38.37548499573857,49.95243939179923,2582627849
iw,-67.1494140625,-76.0720672607421,46.64943652842764,39.10594978751323,2582644516
iw,-68.436164855957,-75.4593811035156,54.62089210681721,24.281629949706538,2582661183
iw,-69.935676574707,-75.0375747680664,61.20983264150128,5.2261032904080755,2582677850
iw,-71.4110794067382,-74.9683074951171,65.71493819345342,-17.588743886581756,2582694517
iw,-72.5981292724609,-75.4531860351562,67.99596179868526,-42.90281434095085,2582711184
iw,-73.7379760742187,-76.6717834472656,68.4507106160379,-68.85925286588632,2582727851
iw,-74.8936767578125,-78.5689010620117,67.8158934144607,-93.4137724418879,2582744518
iw,-75.9456634521484,-80.8857269287109,66.881508568837,-114.83454261414938,2582761185
iw,-77.0634765625,-83.250617980957,66.2259599435613,-132.11840690804908,2582777852
iw,-78.1783218383789,-84.7001419067382,66.0564178223997,-145.17232597979515,2582794519
iw,-79.1912384033203,-84.3491668701171,66.19213091724896,-154.69806594367785,2582811186
iw,-80.1455154418945,-83.0012588500976,66.17661079774211,-161.8364064013649,2582827853
iw,-81.0527572631836,-81.5349960327148,65.46545845201892,-167.71913188964805,2582844520
iw,-81.7780151367187,-79.7675704956054,63.621203162720114,-173.09696045205942,2582861187
iw,-82.2214584350586,-77.5952224731445,60.455797436263424,-178.15322677152605,2582877854
iw,-82.3092575073242,-75.2549438476562,56.08764415594812,-182.51816589986618,2582894521
iw,-82.1123580932617,-72.6768417358398,50.9111574210648,-185.42601362797834,2582911188
iw,-81.6935043334961,-69.8615417480468,45.501288658826084,-185.93653553652672,2582927855
iw,-81.1181716918945,-66.9375610351562,40.48708014728178,-183.1585259009494,2582944522
iw,-80.4813232421875,-64.1238555908203,36.42820447488914,-176.43438526191264,2582961189
iw,-79.8418731689453,-61.7116622924804,33.721171193522814,-165.46080335657842,2582977856
iw,-79.2688674926757,-59.5611915588378,32.55077088204447,-150.33816019957035,2582994523
iw,-78.7525482177734,-57.4740600585937,32.8888540542507,-131.5617632003928,2583011190
iw,-78.1891250610351,-55.6110153198242,34.52910457460388,-109.97868431972273,2583027857
iw,-77.4982528686523,-54.0952339172363,37.13799506714434,-86.72575632379208,2583044524
iw,-76.6885757446289,-53.0061378479003,40.30331175269246,-63.146674472366634,2583061191
iw,-75.8259353637695,-52.368480682373,43.571828570705584,-40.677310923931174,2583077858
iw,-74.9876403808593,-52.0992202758789,46.47973431972508,-20.695840575719398,2583094525
iw,-74.2019348144531,-52.0736274719238,48.58546283791604,-4.350433380050767,2583111192
iw,-73.4135818481445,-52.2471160888671,49.51244505005089,7.609617284885623,2583127859
iw,-72.594970703125,-52.6583137512207,49.00205507739047,14.968069007382987,2583144526
iw,-71.7446594238281,-53.0571250915527,46.96834523767395,18.109703181196814,2583161193
iw,-70.8936157226562,-53.4579963684082,43.537930726537105,17.993951764265987,2583177860
iw,-70.0089111328125,-53.7988815307617,39.052238467678244,16.01740372640013,2583194527
iw,-69.1911544799804,-54.1392936706543,34.00933375063773,13.77216239357686,2583211194
iw,-68.5663604736328,-54.4805145263671,28.934819846064556,12.739033555324367,2583227861
iw,-68.20654296875,-54.7076530456543,24.19875938776634,13.983258162277362,2583244528
iw,-68.031753540039,-55.031452178955,19.830824064352672,17.93444714655458,2583261195
iw,-67.9422988891601,-55.4351234436035,15.410395499235582,24.32342945172369,2583277862
iw,-67.8826293945312,-56.1952629089355,10.101774241770487,32.31204039605713,2583294529
iw,-67.753303527832,-57.3813819885253,2.859171787572896,40.79029387190167,2583311196
iw,-67.6456832885742,-58.9573593139648,-7.24450625522084,48.7470895304695,2583327863
iw,-67.7526779174804,-60.548282623291,-20.67461378010588,55.57820852427334,2583344530
iw,-68.3127517700195,-61.7569847106933,-37.20808089146009,61.2097690174727,2583361197
iw,-69.4534530639648,-62.6156387329101,-55.915225450000015,65.99232481816111,2583377864
iw,-71.1383819580078,-63.437255859375,-75.35831191147051,70.42777686344272,2583394531
iw,-73.2477569580078,-64.5558013916015,-93.92649086075942,74.87002369396616,2583411198
iw,-75.6368789672851,-66.1348571777343,-110.17894198565389,79.34393208327316,2583427865
iw,-78.1605911254882,-68.0030746459961,-123.08469521043443,83.55437100685573,2583444532
iw,-80.6195068359375,-69.884536743164,-132.11443221979613,87.05328794010636,2583461199
iw,-82.8427810668945,-71.6829299926757,-137.21262433758938,89.45818682334864,2583477866
iw,-84.5465545654296,-73.2841110229492,-138.71454563482214,90.60585751613027,2583494533
iw,-85.2876892089843,-74.6815414428711,-137.25952320435576,90.57582153947567,2583511200
iw,-84.7421569824218,-76.0478286743164,-133.7114061660887,89.5933013605713,2583527867
iw,-83.3432998657226,-77.4610977172851,-129.06430282116142,87.87994355949999,2583544534
iw,-81.6209411621093,-78.887451171875,-124.30785299182274,85.53602365389023,2583561201
iw,-79.8031234741211,-80.2853012084961,-120.25080192404009,82.51056078604343,2583577868
iw,-78.1039352416992,-81.6873550415039,-117.3373421120014,78.66710369428905,2583594535
iw,-76.3458557128906,-83.0755310058593,-115.51621815767915,73.90938866948589,2583611202
iw,-74.3739852905273,-84.3956604003906,-114.22150646574818,68.30920086861482,2583627869
iw,-72.2867584228515,-85.5703506469726,-112.49144843281304,62.181478755609064,2583644536
iw,-70.2792816162109,-86.5529251098632,-109.20053306996596,56.07310765969861,2583661203
iw,-68.4864273071289,-87.3408966064453,-103.3377151419771,50.66295129502188,2583677870
iw,-66.9604110717773,-88.0529861450195,-94.2536669927069,46.60171784574666,2583694537
iw,-65.6736373901367,-88.7435302734375,-81.82236370498033,44.34147780991126,2583711204
iw,-64.6025772094726,-89.2482681274414,-66.49589784283792,44.00881118627624,2583727871
iw,-63.7471656799316,-89.2126693725586,-49.25450129271864,45.362117040085764,2583744538
iw,-63.1329345703125,-88.6589965820312,-31.461225053222197,47.84906743906563,2583761205
iw,-62.8877182006835,-87.8256149291992,-14.6340301416769,50.75247694141527,2583777872
iw,-63.0911483764648,-86.7935028076171,-0.1618381737184682,53.386861614092645,2583794539
iw,-63.6620483398437,-85.696304321289,10.98197904390812,55.287988075929825,2583811206
iw,-64.2495346069336,-84.6009063720703,18.451185937433657,56.33138862630716,2583827873
iw,-64.6114120483398,-83.5818328857421,22.590016411674046,56.730846070354886,2583844540
iw,-64.9279708862304,-82.6655654907226,24.318439067201894,56.904078404507025,2583861207
iw,-65.4639434814453,-81.8164825439453,24.873024614915195,57.23916738469074,2583877874
iw,-66.0988006591796,-81.0237045288086,25.483581684520086,57.83466587909277,2583894541
iw,-66.5306091308593,-80.2357559204101,27.074914111820046,58.303984015175345,2583911208
iw,-66.7172546386718,-79.4087371826171,30.066231028708483,57.723481143306756,2583927875
iw,-67.2032928466796,-78.5532913208007,34.316930242009974,54.76562905537296,2583944542
iw,-68.1209335327148,-77.6808471679687,39.236093499537446,48.0033673092732,2583961209
iw,-69.2609024047851,-76.8657531738281,44.024654942476424,36.31435706394332,2583977876
iw,-70.3787002563476,-76.2336196899414,47.96643128190174,19.27141649016024,2583994543
iw,-71.3533477783203,-75.9793395996093,50.66128670867076,-2.6065429138826532,2584011210
iw,-72.2262268066406,-76.2338562011718,52.121052828285634,-27.84104541729223,2584027877
iw,-73.1541290283203,-77.1873931884765,52.710371635911216,-54.25058990133072,2584044544
iw,-74.0683135986328,-78.7831420898437,52.97444067627806,-79.42306154771421,2584061211
iw,-74.9505386352539,-80.7122955322265,53.42813817253031,-101.27118214362173,2584077878
iw,-75.917236328125,-82.6017227172851,54.38187697110995,-118.50015925888033,2584094545
iw,-76.8630599975586,-83.7629776000976,55.856382220449305,-130.83993463335648,2584111212
iw,-77.8638763427734,-83.4974822998046,57.60167279595038,-138.9743748802425,2584127879
iw,-78.8343200683593,-82.488166809082,59.19765158458975,-144.20646316703844,2584144546
iw,-79.7092132568359,-81.4379653930664,60.18947724429685,-147.98853989562178,2584161213
iw,-80.4653701782226,-80.2030715942382,60.20907908031918,-151.4809923518887,2584177880
iw,-81.0465011596679,-78.5823211669921,59.05146067340174,-155.26851393786376,2584194547
iw,-81.3510818481445,-76.6492385864257,56.69851673212556,-159.28495620460092,2584211214
iw,-81.4317474365234,-74.5075607299804,53.30173825779718,-162.92217982994077,2584227881
iw,-81.3109054565429,-72.1262054443359,49.14254128949377,-165.2571444406404,2584244548
iw,-80.9874038696289,-69.5696945190429,44.58597401844267,-165.32401840832654,2584261215
iw,-80.4947357177734,-67.1342544555664,40.035517637946384,-162.36649984672684,2584277882
iw,-79.9732666015625,-64.8800277709961,35.88974606714484,-156.0192534391482,2584294549
iw,-79.4876556396484,-62.7351036071777,32.49920455871942,-146.38704577502938,2584311216
iw,-79.0561752319336,-60.7359161376953,30.123728481539484,-134.01549765608746,2584327883
iw,-78.5848922729492,-58.9882926940918,28.89437074041505,-119.77190889834822,2584344550
iw,-78.0374984741211,-57.4768486022949,28.787778832155546,-104.67218838671062,2584361217
iw,-77.4587478637695,-56.2038879394531,29.62219834229651,-89.69843525057843,2584377884
iw,-76.8868789672851,-55.1441078186035,31.081907250814687,-75.65011195114018,2584394551
iw,-76.3343200683593,-54.2481651306152,32.77070220870767,-63.05922739025429,2584411218
iw,-75.7853317260742,-53.4821510314941,34.286514119778005,-52.17904686893249,2584427885
iw,-75.2099456787109,-52.809471130371,35.30115609365923,-43.03317874297934,2584444552
iw,-74.5837783813476,-52.2644462585449,35.62515498439427,-35.49537836784904,2584461219
iw,-73.9229049682617,-51.8332443237304,35.240505885839426,-29.366092193767912,2584477886
iw,-73.2644805908203,-51.482624053955,34.29419185416669,-24.420963139729476,2584494553
iw,-72.6374130249023,-51.1909484863281,33.058364841867316,-20.424248960278447,2584511220
iw,-72.0541229248046,-51.004596710205,31.872377166051276,-17.117498471627158,2584527887
iw,-71.4868545532226,-50.9123153686523,31.08239019750437,-14.20382029885471,2584544554
iw,-70.8961791992187,-50.8867034912109,30.986791890090654,-11.348613491005093,2584561221
iw,-70.3040695190429,-50.9148864746093,31.786020893993108,-8.209955595746408,2584577888
iw,-69.7225875854492,-50.9840545654296,33.53037152536195,-4.4981696447747,2584594555
iw,-69.144660949707,-51.0571022033691,36.06259430791474,-0.04788086850627484,2584611222
iw,-68.5904922485351,-51.217041015625,38.96296692315896,5.127255971943916,2584627889
iw,-68.0747756958007,-51.4331665039062,41.51843709482623,10.830194422007462,2584644556
iw,-67.5731811523437,-51.8496055603027,42.746786482014805,16.747498312549382,2584661223
iw,-67.0537414550781,-52.5068321228027,41.503193184755126,22.581033857433216,2584677890
iw,-66.5343475341796,-53.462230682373,36.675741143892225,28.201989736608894,2584694557
iw,-66.0728378295898,-54.6072006225585,27.442323620626293,33.75760320321609,2584711224
iw,-65.7645645141601,-55.6533584594726,13.526400511014291,39.66271153724021,2584727891
iw,-65.742805480957,-56.4000663757324,-4.630732751227178,46.45084250948515,2584744558
iw,-66.2291946411132,-57.0393142700195,-25.85486358151659,54.530675912333464,2584761225
iw,-67.2699890136718,-57.9684791564941,-48.41318463256012,63.95472049970701,2584777892
iw,-68.7417068481445,-59.4077835083007,-70.34569559071403,74.31523742407086,2584794559
iw,-70.6058273315429,-61.2840042114257,-89.85893897880639,84.82459629745132,2584811226
iw,-72.8250579833984,-63.2709465026855,-105.65832432649312,94.54464038767993,2584827893
iw,-75.2182083129882,-65.2180557250976,-117.11875482984532,102.65786176409199,2584844560
iw,-77.6065673828125,-67.1048736572265,-124.26150847148125,108.66250711623758,2584861227
iw,-79.9440231323242,-68.9453887939453,-127.58489604261622,112.42323724486478,2584877894
iw,-82.1715850830078,-70.7430801391601,-127.84536090148396,114.08365665275923,2584894561
iw,-84.1810226440429,-72.5856399536132,-125.88031244002018,113.90575506038668,2584911228
iw,-85.7427902221679,-74.4836196899414,-122.5143827563926,112.11992551787402,2584927895
iw,-86.2792205810546,-76.3737030029296,-118.53244781074228,108.84769255427835,2584944562
iw,-85.5723800659179,-78.2444458007812,-114.66928037951556,104.11606300319097,2584961229
iw,-84.2937774658203,-80.0562210083007,-111.56971240424343,97.94148782549264,2584977896
iw,-82.7883605957031,-81.7377319335937,-109.70556004992703,90.43868381196555,2584994563
iw,-81.0997848510742,-83.2083740234375,-109.27413813636785,81.90767824986857,2585011230
iw,-79.2047958374023,-84.4388809204101,-110.12450044477318,72.86555560476698,2585027897
iw,-77.1986541748046,-85.4558944702148,-111.7504037710609,64.00971709480378,2585044564
iw,-75.1900329589843,-86.2955703735351,-113.36162032875923,56.12028390563099,2585061231
iw,-73.2022628784179,-87.0810775756836,-114.01726010161676,49.925557657145546,2585077898
iw,-71.2858352661132,-87.8810501098632,-112.79064514601923,45.96318641837107,2585094565
iw,-69.4853744506836,-88.6405944824218,-108.93531537364838,44.47002708385504,2585111232
iw,-67.7953796386718,-89.4625930786132,-102.02730930572763,45.32668408452101,2585127899
iw,-66.2287216186523,-89.6189651489257,-92.06259823327491,48.07044241320725,2585144566
iw,-64.8708114624023,-88.7132110595703,-79.48970628666221,51.975453926493685,2585161233
iw,-63.7882423400878,-87.727554321289,-65.16105005615539,56.18503234424865,2585177900
iw,-62.9939460754394,-86.7160415649414,-50.19818629613704,59.87129388322301,2585194567
iw,-62.4935760498046,-85.6877517700195,-35.78687398794355,62.39353363102131,2585211234
iw,-62.2398452758789,-84.5623550415039,-22.94145943030364,63.42676403009775,2585227901
iw,-62.2392807006835,-83.3649063110351,-12.294735093631735,63.0325614132878,2585244568
iw,-62.3883018493652,-82.1552810668945,-3.970848845793344,61.645598650264596,2585261235
iw,-62.5147895812988,-81.0403594970703,2.4185367674261244,59.95663007994933,2585277902
iw,-62.6853103637695,-80.0512771606445,7.648025339298316,58.69387516313304,2585294569
iw,-62.9701766967773,-79.2407684326171,12.654143176499224,58.34034100064703,2585311236
iw,-63.3910484313964,-78.5388946533203,18.273273318879827,58.86289819488878,2585327903
iw,-63.9545059204101,-77.7918701171875,25.009784857736427,59.54993513732472,2585344570
iw,-64.4795761108398,-76.9359588623046,32.891253918543036,59.040914375084924,2585361237
iw,-64.9255828857421,-75.9824295043945,41.44840770105432,55.5796533297858,2585377904
iw,-65.939826965332,-74.9965591430664,49.833896372432356,47.44851320887596,2585394571
iw,-67.3147964477539,-74.1179809570312,57.060132962983666,33.47040328237677,2585411238
iw,-68.746223449707,-73.5498580932617,62.29259768272231,13.427187870414569,2585427905
iw,-70.1765975952148,-73.479133605957,65.10287137603281,-11.74667938595612,2585444572
iw,-71.3591156005859,-74.0314178466796,65.59283078577673,-40.077251201803506,2585461239
iw,-72.4880905151367,-75.3276977539062,64.35037751331107,-68.96040454044315,2585477906
iw,-73.5645980834961,-77.2972412109375,62.26046502445696,-95.75920991245489,2585494573
iw,-74.6233978271484,-79.5888061523437,60.2414894411779,-118.41186547578106,2585511240
iw,-75.6320114135742,-81.6907196044921,58.99245888675621,-135.86095597653457,2585527907
iw,-76.5742111206054,-82.9078750610351,58.82412008691747,-148.1723918113239,2585544574
iw,-77.4965744018554,-82.8576507568359,59.61651628066738,-156.32260998143514,2585561241
iw,-78.4683456420898,-82.2776260375976,60.90516107161138,-161.75178765449576,2585577908
iw,-79.4658813476562,-81.531509399414,62.05851140198048,-165.8565933901392,2585594575
iw,-80.3932571411132,-80.2668991088867,62.48330849499937,-169.5948282299924,2585611242
iw,-81.0964279174804,-78.3775253295898,61.79154218213621,-173.30282200742428,2585627909
iw,-81.4216079711914,-76.1191482543945,59.884092336632314,-176.7291755721048,2585644576
iw,-81.4143753051757,-73.5951690673828,56.94131441814315,-179.21696275668614,2585661243
iw,-81.1424865722656,-70.8324127197265,53.34363037372529,-179.9441305968766,2585677910
iw,-80.6984710693359,-68.0169067382812,49.56213220363935,-178.14672315632163,2585694577
iw,-80.1902542114257,-65.4464874267578,46.05681538835452,-173.27816298054623,2585711244
iw,-79.6974487304687,-63.1899604797363,43.20470071991568,-165.08748998454945,2585727911
iw,-79.271858215332,-60.9863014221191,41.26199944249273,-153.62707769011325,2585744578
iw,-78.8716888427734,-58.8715782165527,40.35170287929288,-139.21959775334116,2585761245
iw,-78.3854064941406,-56.9557189941406,40.46406477386227,-122.4156878884957,2585777912
iw,-77.7336730957031,-55.3287734985351,41.46168325871114,-103.95808518670945,2585794579
iw,-76.9467468261718,-54.0215911865234,43.08939745129795,-84.74739372115508,2585811246
iw,-76.0998458862304,-53.0221633911132,44.99641399341436,-65.79255225485342,2585827913
iw,-75.2466430664062,-52.2620162963867,46.77923133321843,-48.13010344397804,2585844580
iw,-74.4097290039062,-51.7931289672851,48.04786714386003,-32.70764005866167,2585861247
iw,-73.5935440063476,-51.6042404174804,48.507431365258384,-20.24336882616301,2585877914
iw,-72.7872467041015,-51.6106452941894,48.03676720998887,-11.090792113368437,2585894581
iw,-71.9646987915039,-51.6736755371093,46.73981781229875,-5.148939909967754,2585911248
iw,-71.0932083129882,-51.6689186096191,44.94649106368863,-1.8565984090902385,2585927915
iw,-70.2046585083007,-51.6160469055175,43.14907683585444,-0.28899308679339886,2585944582
iw,-69.3457870483398,-51.6027755737304,41.87581838530223,0.6572616866285943,2585961249
iw,-68.5364379882812,-51.6739654541015,41.520864858069835,2.0354870842011037,2585977916
iw,-67.8215866088867,-51.8648643493652,42.1653534408763,4.634776165457072,2585994583
iw,-67.2215957641601,-52.0792961120605,43.43507340872104,8.832736826820705,2586011250
iw,-66.6628112792968,-52.3066253662109,44.44369703262155,14.550486374704775,2586027917
iw,-66.0995178222656,-52.7383995056152,43.86311204254304,21.325120164647213,2586044584
iw,-65.5567016601562,-53.3990974426269,40.139604886123436,28.490918722318288,2586061251
iw,-65.0182647705078,-54.2345428466796,31.835835675783876,35.428768945345986,2586077918
iw,-64.5407791137695,-55.7523727416992,18.03079865392684,41.80882861736582,2586094585
iw,-64.2838592529296,-57.4734687805175,-1.3310623591058224,47.731610811755615,2586111252
iw,-64.4983749389648,-58.6899909973144,-25.26378981104532,53.688966312700266,2586127919
iw,-65.4331970214843,-59.3667221069335,-51.826996911365086,60.33133195450741,2586144586
iw,-67.0828399658203,-60.0245513916015,-78.48690373598781,68.12421041336337,2586161253
iw,-69.2032318115234,-61.1371536254882,-102.66029747246898,77.05058207574649,2586177920
iw,-71.720962524414,-62.9081001281738,-122.27204583034388,86.50812484259065,2586194587
iw,-74.3673324584961,-65.0243072509765,-136.1455321962914,95.45364406124384,2586211254
iw,-77.001106262207,-67.0710525512695,-144.11359019066265,102.72148163493362,2586227921
iw,-79.5742111206054,-69.0769729614257,-146.85385258654753,107.3666245924859,2586244588
iw,-81.9624710083007,-70.9808120727539,-145.55687686999715,108.89365851915858,2586261255
iw,-84.0848770141601,-72.6832199096679,-141.57563287079614,107.30713775299549,2586277922
iw,-85.5465850830078,-74.2724990844726,-136.1699937262609,103.00599448813404,2586294589
iw,-85.7594757080078,-75.8388595581054,-130.3833052599894,96.60172692921108,2586311256
iw,-84.6840057373046,-77.3543548583984,-125.01855129499188,88.74952477436527,2586327923
iw,-83.0211868286132,-78.7557907104492,-120.65041522109681,80.04973562543698,2586344590
iw,-81.2815856933593,-80.04736328125,-117.62041450663149,71.02807383751345,2586361257
iw,-79.5467453002929,-81.2339782714843,-115.99946999338022,62.16435718706062,2586377924
iw,-77.6618499755859,-82.3147430419921,-115.5415004532291,53.92695857501514,2586394591
iw,-75.6243057250976,-83.2638778686523,-115.6705083357412,46.7812076353481,2586411258
iw,-73.6063232421875,-84.0449447631836,-115.533719865902,41.16136487576445,2586427925
iw,-71.654067993164,-84.7007980346679,-114.12601409546971,37.41483318282567,2586444592
iw,-69.7931671142578,-85.3399505615234,-110.46627189745901,35.73803934856716,2586461259
iw,-68.0881042480468,-85.9547042846679,-103.79481201458717,36.12567066741687,2586477926
iw,-66.5313186645507,-86.6802825927734,-93.75821732138867,38.350781069139174,2586494593
iw,-65.1055831909179,-87.4606323242187,-80.54507948910226,41.985201819217146,2586511260
iw,-63.8873481750488,-88.2879943847656,-64.93253507955323,46.46009928298174,2586527927
iw,-62.9926834106445,-89.2669830322265,-48.207242002007355,51.157448097642224,2586544594
iw,-62.5348358154296,-90.0,-31.946473946942355,55.515847055540455,2586561261
iw,-62.4741821289062,-88.865478515625,-17.68782692777799,59.12910556759047,2586577928
iw,-62.7049751281738,-87.7437210083007,-6.566100049791778,61.81469399844583,2586594595
iw,-62.9744606018066,-86.6379165649414,0.9728541325079687,63.63324483033653,2586611262
iw,-63.0927124023437,-85.4581298828125,5.282185133196454,64.84920661430749,2586627929
iw,-63.1633148193359,-84.2358856201171,7.403889895009844,65.83310703346002,2586644596
iw,-63.3085136413574,-83.0843505859375,8.76987078945912,66.91594939888296,2586661263
iw,-63.548225402832,-82.0309448242187,10.805851692349423,68.21860075964699,2586677930
iw,-63.80517578125,-80.9947967529296,14.551813822813925,69.49523696435156,2586694597
iw,-64.0291900634765,-79.9859848022461,20.399095062893874,70.0437169510125,2586711264
iw,-64.3298645019531,-79.0218200683593,28.01136437682134,68.73513402277626,2586727931
iw,-64.9985427856445,-78.0447921752929,36.45343359924365,64.19162420965198,2586744598
iw,-66.2036209106445,-76.9911956787109,44.497195325137696,55.09780578199451,2586761265
iw,-67.6250915527343,-76.025390625,51.01343821790067,40.57882417417943,2586777932
iw,-69.0774230957031,-75.3900909423828,55.317111641914515,20.536453678923532,2586794599
iw,-70.180191040039,-75.2332534790039,57.34338272067829,-4.1741461614853135,2586811266
iw,-71.0169906616211,-75.6643753051757,57.59965257438249,-31.808651400393668,2586827933
iw,-71.9300384521484,-76.7469787597656,56.93248691858054,-60.04806225548873,2586844600
iw,-72.7950744628906,-78.4024581909179,56.21766126004947,-86.48919877501827,2586861267
iw,-73.8611831665039,-80.5040664672851,56.09442104561202,-109.17243269417969,2586877934
iw,-75.083511352539,-82.5975341796875,56.82613160896004,-126.98653826529433,2586894601
iw,-76.2812576293945,-83.6628341674804,58.30672018882177,-139.82435472358958,2586911268
iw,-77.4266738891601,-83.1319580078125,60.175665448063405,-148.4466837947588,2586927935
iw,-78.4825592041015,-82.0055923461914,61.97432998622856,-154.11761439317834,2586944602
iw,-79.3743438720703,-80.8292388916015,63.27981077820158,-158.1551865658077,2586961269
iw,-80.1486892700195,-79.3495178222656,63.78066077419811,-161.55461843737223,2586977936
iw,-80.7847290039062,-77.5326461791992,63.29377201531248,-164.7835561651697,2586994603
iw,-81.1888656616211,-75.4808578491211,61.746495816133724,-167.76286006868983,2587011270
iw,-81.4007034301757,-73.2082748413086,59.15470100539405,-169.98575621586593,2587027937
iw,-81.4083175659179,-70.6601257324218,55.61760369246856,-170.71204783098457,2587044604
iw,-81.2281112670898,-68.0204467773437,51.33141340986533,-169.18294088973113,2587061271
iw,-80.857437133789,-65.5300827026367,46.605958983101914,-164.81146403812824,2587077938
iw,-80.3888854980468,-63.3426818847656,41.86060514899577,-157.31089507216882,2587094605
iw,-79.9285049438476,-61.3537063598632,37.58243947430623,-146.74024811869694,2587111272
iw,-79.4658889770507,-59.4955940246582,34.24769200054858,-133.4733272358553,2587127939
iw,-78.9414291381836,-57.701847076416,32.226860819562006,-118.12169652322243,2587144606
iw,-78.3145217895507,-56.126407623291,31.70417647259417,-101.44678298256653,2587161273
iw,-77.5928344726562,-54.8832321166992,32.63736651157689,-84.28195299048721,2587177940
iw,-76.8475341796875,-53.957706451416,34.767231872834905,-67.46626084352795,2587194607
iw,-76.143310546875,-53.270652770996,37.66780763518329,-51.78225603037155,2587211274
iw,-75.5077590942382,-52.8043632507324,40.81707705796404,-37.89325478974914,2587227941
iw,-74.913459777832,-52.5461807250976,43.670092843472084,-26.28337442744399,2587244608
iw,-74.295166015625,-52.3955192565918,45.72704699530091,-17.209380613373796,2587261275
iw,-73.6103134155273,-52.3451690673828,46.59860540979079,-10.67532145086947,2587277942
iw,-72.8676147460937,-52.2836990356445,46.07155238907325,-6.439402712655777,2587294609
iw,-72.1043930053711,-52.1432151794433,44.16881805649362,-4.056708795080262,2587311276
iw,-71.3674011230468,-52.0279159545898,41.18585852088242,-2.950955802395422,2587327943
iw,-70.6894989013671,-52.0455818176269,37.67879180707507,-2.4979570428015747,2587344610
iw,-70.0529708862304,-52.1478576660156,34.3840525192563,-2.100897236210118,2587361277
iw,-69.4354782104492,-52.3561668395996,32.06471614631538,-1.2462871448558752,2587377944
iw,-68.8748931884765,-52.592975616455,31.3013954617673,0.45718654838236106,2587394611
iw,-68.3974914550781,-52.7648086547851,32.27031542711861,3.2486357104287755,2587411278
iw,-67.9655227661132,-52.9034996032714,34.57069474941002,7.192609369537342,2587427945
iw,-67.5541915893554,-53.1384353637695,37.168765442000975,12.177467404382792,2587444612
iw,-67.1089935302734,-53.4490165710449,38.50840504108859,17.95457951069324,2587461279
iw,-66.5574417114257,-54.0403022766113,36.79685600526606,24.226696926595586,2587477946
iw,-65.9676742553711,-55.00191116333,30.4176255082672,30.76485833100254,2587494613
iw,-65.5152740478515,-56.2099647521972,18.37024097117044,37.50341224237107,2587511280
iw,-65.3545684814453,-57.3576011657714,0.6094865671778014,44.55554854335644,2587527947
iw,-65.6269454956054,-58.2258872985839,-21.83033219800983,52.12211913170013,2587544614
iw,-66.5256042480468,-59.0371284484863,-46.98616572869612,60.32536202592585,2587561281
iw,-68.1167831420898,-60.1905250549316,-72.36888996716549,69.05136982845376,2587577948
iw,-70.1740036010742,-61.8319473266601,-95.50795516653987,77.89138461025453,2587594615
iw,-72.5143280029296,-63.7668991088867,-114.47214467826169,86.22110440181451,2587611282
iw,-74.9890899658203,-65.6970825195312,-128.2064533687765,93.38023278888338,2587627949
iw,-77.4695053100586,-67.5144119262695,-136.598873247983,98.8625978319392,2587644616
iw,-79.8602218627929,-69.285659790039,-140.30009510313872,102.43093631375248,2587661283
iw,-82.0740280151367,-70.9988327026367,-140.40717340978858,104.11952710298102,2587677950
iw,-83.9879684448242,-72.7411499023437,-138.14572093270075,104.14611382856866,2587694617
iw,-85.3083572387695,-74.4924621582031,-134.64360740991174,102.78978662394655,2587711284
iw,-85.5345458984375,-76.2218856811523,-130.81948613603208,100.29272021315109,2587727951
iw,-84.4841003417968,-77.8891983032226,-127.3542203310749,96.81983169163891,2587744618
iw,-82.7770538330078,-79.4978866577148,-124.69329964620012,92.47914819084667,2587761285
iw,-80.9372406005859,-81.0529327392578,-123.04072354085089,87.38164125051699,2587777952
iw,-79.033462524414,-82.5655822753906,-122.33491438404157,81.70855148297134,2587794619
iw,-77.0008239746093,-83.9852294921875,-122.22705113295699,75.75560107398374,2587811286
iw,-74.8169784545898,-85.2503051757812,-122.09529805197,69.93306827562803,2587827953
iw,-72.6542739868164,-86.3257675170898,-121.11811537500405,64.71523490233679,2587844620
iw,-70.5824584960937,-87.2767486572265,-118.4052704327028,60.549712406514715,2587861287
iw,-68.6406478881836,-88.1531600952148,-113.16340710692486,57.75269590567617,2587877954
iw,-66.8938980102539,-89.0244216918945,-104.86399863250479,56.42455782239503,2587894621
iw,-65.3328399658203,-89.5190811157226,-93.38238453897274,56.416957674624435,2587911288
iw,-63.9749526977539,-88.7053298950195,-79.07964104219019,57.36784153120997,2587927955
iw,-62.8531379699707,-87.6115646362304,-62.80130799059071,58.798650378137765,2587944622
iw,-61.9756088256835,-86.464485168457,-45.772859516943576,60.24576937115437,2587961289
iw,-61.5170211791992,-85.333267211914,-29.38882004304997,61.38417285166944,2587977956
iw,-61.5027465820312,-84.2542114257812,-14.924230265238311,62.102019211152395,2587994623
iw,-61.8687553405761,-83.1852569580078,-3.236401288879136,62.50074510877564,2588011290
iw,-62.264060974121,-82.1116638183593,5.448814707304516,62.81866780358077,2588027957
iw,-62.4791221618652,-81.0328216552734,11.582350108869853,63.29752579630811,2588044624
iw,-62.6612815856933,-79.963150024414,16.138822070601723,64.02492369703887,2588061291
iw,-63.0630912780761,-78.8854827880859,20.30941018155837,64.79114905852589,2588077958
iw,-63.59321975708,-77.8670578002929,25.140676465994645,64.99887562190885,2588094625
iw,-64.0221633911132,-76.9357147216796,31.231924448229133,63.66021386012976,2588111292
iw,-64.4306335449218,-76.0958633422851,38.57949272575353,59.50575995719733,2588127959
iw,-65.3097152709961,-75.3503952026367,46.61289685798951,51.21081360098799,2588144626
iw,-66.5767745971679,-74.6326065063476,54.412393072174424,37.711922369275236,2588161293
iw,-68.1722106933593,-74.0042419433593,61.03564049959974,18.546097066465364,2588177960
iw,-69.7121429443359,-73.6424179077148,65.83497450647005,-5.88982841768285,2588194627
iw,-70.9060363769531,-73.9393539428711,68.64713431841754,-34.267859906822,2588211294
iw,-72.0805892944336,-75.1044540405273,69.79215633159396,-64.51127867805279,2588227961
iw,-73.2427825927734,-76.9685592651367,69.89943011244188,-94.21011662982285,2588244628
iw,-74.3280792236328,-79.2919158935546,69.64405755332389,-121.15282615670377,2588261295
iw,-75.4497985839843,-81.7784423828125,69.4999960040105,-143.80015555122125,2588277962
iw,-76.651611328125,-83.5897750854492,69.59792962846504,-161.54119873327804,2588294629
iw,-77.8316955566406,-83.808723449707,69.72868618908659,-174.65335138956434,2588311296
iw,-79.0340042114257,-82.9514083862304,69.47512467814082,-184.0025409035602,2588327963
iw,-80.1876068115234,-81.7750930786132,68.4082897605703,-190.6169711813715,2588344630
iw,-81.1194229125976,-79.9499893188476,66.26624555171739,-195.3012838583514,2588361297
iw,-81.703384399414,-77.4253997802734,63.0518677782601,-198.4139520363989,2588377964
iw,-81.8518981933593,-74.6396408081054,59.02748509873441,-199.83992069883618,2588394631
iw,-81.7257385253906,-71.7045516967773,54.62802883800763,-199.1100008558292,2588411298
iw,-81.4386520385742,-68.6019058227539,50.34037612072379,-195.58729073666314,2588427965
iw,-81.0403137207031,-65.5627822875976,46.59665897405346,-188.65491707060752,2588444632
iw,-80.5776062011718,-62.7776412963867,43.70965687238216,-177.86944877152175,2588461299
iw,-80.0815505981445,-60.4029693603515,41.853359785208404,-163.0689781633645,2588477966
iw,-79.5647659301757,-58.1936416625976,41.0740137061697,-144.4396212996351,2588494633
iw,-79.0141525268554,-56.1597709655761,41.31161318318636,-122.5489088457806,2588511300
iw,-78.36328125,-54.4347991943359,42.41724985367439,-98.34771155513093,2588527967
iw,-77.5973052978515,-53.1241645812988,44.16254850050761,-73.1288987891657,2588544634
iw,-76.7549819946289,-52.2659912109375,46.24715820600171,-48.424012826765285,2588561301
iw,-75.8844223022461,-51.8929786682128,48.31424906061278,-25.82885690693502,2588577968
iw,-75.022590637207,-51.8686180114746,49.98150541689047,-6.772798383622012,2588594635
iw,-74.2103729248046,-52.1443061828613,50.888960082831176,7.726537579579783,2588611302
iw,-73.4236068725586,-52.62837600708,50.758299655439956,17.26382310935488,2588627969
iw,-72.5800476074218,-53.0405197143554,49.45180536186802,22.142040739983603,2588644636
iw,-71.6279373168945,-53.4571495056152,47.01219865100331,23.32362032302453,2588661303
iw,-70.5989532470703,-53.8562812805175,43.65919052418816,22.232350131798743,2588677970
iw,-69.707534790039,-54.1669731140136,39.721385321981955,20.444767879921667,2588694637
iw,-69.1396484375,-54.4475021362304,35.501201704662215,19.346587336061344,2588711304
iw,-68.8582077026367,-54.8041877746582,31.10488919860663,19.847429590840754,2588727971
iw,-68.7040939331054,-55.1929092407226,26.304012452396982,22.2371672319536,2588744638
iw,-68.5317993164062,-55.6840286254882,20.504853418785583,26.229037327106468,2588761305
iw,-68.3018646240234,-56.5438499450683,12.872497014427905,31.17678917315809,2588777972
iw,-68.1099700927734,-58.0177116394043,2.594008629348831,36.39028365494625,2588794639
iw,-68.0337371826171,-59.7301559448242,-10.802049676747693,41.426981663891375,2588811306
iw,-68.2051391601562,-60.9059104919433,-27.191277348840313,46.23337174982473,2588827973
iw,-68.9461822509765,-61.5422172546386,-45.77399846368926,51.071236672731324,2588844640
iw,-70.3095016479492,-62.0971565246582,-65.21707452978107,56.27301769514375,2588861307
iw,-72.2273483276367,-62.996166229248,-83.97179993235491,61.96721612183173,2588877974
iw,-74.4763793945312,-64.4598770141601,-100.64540013969544,67.93149865085631,2588894641
iw,-76.8236312866211,-66.3426971435546,-114.28264066960588,73.65199597560782,2588911308
iw,-79.1555938720703,-68.1468200683593,-124.46467602303557,78.54411950217927,2588927975
iw,-81.4490127563476,-69.7961654663086,-131.22748353618493,82.20268417868513,2588944642
iw,-83.5305862426757,-71.3165588378906,-134.88549436111367,84.54626613171263,2588961309
iw,-85.109878540039,-72.6738128662109,-135.8696746670639,85.79243971951811,2588977976
iw,-85.5416564941406,-73.998306274414,-134.64821121407263,86.29498822071353,2588994643
iw,-84.6049728393554,-75.4215087890625,-131.7281966661914,86.33804394343235,2589011310
iw,-82.9149627685546,-76.8941650390625,-127.68403806845822,85.98965067392457,2589027977
iw,-81.0280685424804,-78.3651123046875,-123.14830128537294,85.07581621845584,2589044644
iw,-79.2241134643554,-79.8482284545898,-118.73081232036922,83.2747105775309,2589061311
iw,-77.5108489990234,-81.3471069335937,-114.88052568646756,80.28068658376428,2589077978
iw,-75.6817855834961,-82.8194427490234,-111.7445583547468,75.96713620808939,2589094645
iw,-73.7579040527343,-84.156753540039,-109.08868410408414,70.48646225202131,2589111312
iw,-71.876724243164,-85.2902755737304,-106.3196645480432,64.27457198836908,2589127979
iw,-70.0988998413086,-86.1799163818359,-102.6090637117866,57.96322977133886,2589144646
iw,-68.4793014526367,-86.9966506958007,-97.08550880152579,52.234115239904135,2589161313
iw,-67.0292510986328,-87.7870712280273,-89.05034857338725,47.66397287102497,2589177980
iw,-65.7609481811523,-88.571662902832,-78.1745025275052,44.60691933236237,2589194647
iw,-64.6305465698242,-89.3803939819336,-64.63929686886853,43.142124996436365,2589211314
iw,-63.6792831420898,-90.0,-49.18562507824047,43.092660300598894,2589227981
iw,-63.0236053466796,-89.1477432250976,-33.03968431502454,44.102899009917564,2589244648
iw,-62.7669792175293,-88.2982025146484,-17.701651602973566,45.75044449442406,2589261315
iw,-62.95112991333,-87.4261093139648,-4.62247249023273,47.663049976443915,2589277982
iw,-63.4273452758789,-86.5159759521484,5.156017445353917,49.61021665596933,2589294649
iw,-63.9146919250488,-85.6019897460937,11.286951676991537,51.5433584463173,2589311316
iw,-64.1930923461914,-84.6228790283203,14.226139364012111,53.56824963138846,2589327983
iw,-64.3817062377929,-83.6194534301757,15.11305220606745,55.84812901740982,2589344650
iw,-64.6633148193359,-82.6177597045898,15.45700069528495,58.45338554869645,2589361317
iw,-65.0416488647461,-81.696060180664,16.725407271018085,61.192427381046144,2589377984
iw,-65.3997497558593,-80.8105773925781,19.954235528945354,63.47533081052758,2589394651
iw,-65.674934387207,-79.9565277099609,25.485295484234783,64.27039071828507,2589411318
iw,-66.0173416137695,-79.1054382324218,32.89961164849474,62.203785437383175,2589427985
iw,-66.9240341186523,-78.1776809692382,41.16923656873221,55.81756343616321,2589444652
iw,-68.2233200073242,-77.1794815063476,48.9898279006053,43.945131517495646,2589461319
iw,-69.709602355957,-76.3147735595703,55.19188481625282,26.104287363561273,2589477986
iw,-71.128662109375,-75.9040222167968,59.090669634645714,2.7734644065363354,2589494653
iw,-72.1811752319336,-76.1895217895507,60.65411815023738,-24.567472168259894,2589511320
iw,-73.1640243530273,-77.2051010131836,60.442123317658556,-53.67972446137007,2589527987
iw,-74.1178359985351,-78.7893981933593,59.36073775357865,-82.03779895069017,2589544654
iw,-74.9956817626953,-80.7025756835937,58.33597501618151,-107.3898803594369,2589561321
iw,-76.0194549560546,-82.4805755615234,58.02343058280824,-128.2290635922326,2589577988
iw,-77.0287704467773,-83.2164077758789,58.64007466911957,-144.02951783683855,2589594655
iw,-77.9305953979492,-82.599250793457,59.95374658188758,-155.18723654622374,2589611322
iw,-78.9473266601562,-81.5996627807617,61.4130148218793,-162.71173163138388,2589627989
iw,-79.9579925537109,-80.543960571289,62.35929858735912,-167.7991168840846,2589644656
iw,-80.8327178955078,-79.0805969238281,62.24424498625341,-171.44109043326216,2589661323
iw,-81.4494857788086,-77.1786804199218,60.78311945794056,-174.18188897746995,2589677990
iw,-81.7273025512695,-74.9716415405273,58.00624609274299,-176.05914809634993,2589694657
iw,-81.7318878173828,-72.4880142211914,54.21179716872994,-176.69999555717894,2589711324
iw,-81.557502746582,-69.7574462890625,49.85579292426001,-175.51169614061484,2589727991
iw,-81.2006301879882,-66.9668807983398,45.42672461174807,-171.89896414894883,2589744658
iw,-80.7100067138671,-64.4772491455078,41.343646165609854,-165.44611305590664,2589761325
iw,-80.1544036865234,-62.3625183105468,37.89815366266176,-156.02167505050537,2589777992
iw,-79.6160202026367,-60.3504676818847,35.242650733142845,-143.7963152430914,2589794659
iw,-79.1022491455078,-58.3838577270507,33.41424660684181,-129.19810637441387,2589811326
iw,-78.569091796875,-56.5388412475585,32.37599928692626,-112.84313488446963,2589827993
iw,-77.9838562011718,-55.0135345458984,32.05535195996762,-95.4691498707364,2589844660
iw,-77.3671646118164,-53.8240547180175,32.3643747742769,-77.87963339989822,2589861327
iw,-76.7569427490234,-52.9197883605957,33.19672104866413,-60.892218009969696,2589877994
iw,-76.1842269897461,-52.2334518432617,34.40788549134026,-45.28360584756219,2589894661
iw,-75.6095809936523,-51.749340057373,35.79350691413911,-31.727224436275304,2589911328
iw,-74.9907913208007,-51.5011291503906,37.082538091720565,-20.72443278526926,2589927995
iw,-74.299560546875,-51.4039993286132,37.95839879511383,-12.535569177989432,2589944662
iw,-73.5115814208984,-51.3604278564453,38.11303451133661,-7.1247806387444585,2589961329
iw,-72.6972732543945,-51.3036956787109,37.327365402453374,-4.138643767226116,2589977996
iw,-71.9342727661132,-51.2017478942871,35.55890396826621,-2.9361930352980314,2589994663
iw,-71.2485275268554,-51.1223487854003,33.00683788081311,-2.674589105055937,2590011330
iw,-70.6476593017578,-51.1526985168457,30.1212437782999,-2.43648613776827,2590027997
iw,-70.1129760742187,-51.3387145996093,27.530973152727313,-1.3730908609838663,2590044664
iw,-69.6235275268554,-51.5962791442871,25.886235394414022,1.163083280562179,2590061331
iw,-69.185073852539,-51.8733520507812,25.64280095018144,5.514583180751382,2590077998
iw,-68.8288040161132,-52.1482963562011,26.844244193170457,11.659413615290966,2590094665
iw,-68.5479125976562,-52.4622611999511,28.974538247283707,19.213321538528113,2590111332
iw,-68.2542419433593,-52.9815788269043,30.947355574230315,27.512499813669113,2590127999
iw,-67.8593597412109,-53.8697929382324,31.267874227453138,35.77987278508735,2590144666
iw,-67.3923797607421,-55.1352882385253,28.351887746350826,43.3433128817309,2590161333
iw,-66.9705429077148,-56.7387390136718,20.929489085477506,49.83543475719011,2590178000
iw,-66.711196899414,-58.2389755249023,8.418674833983488,55.28995280110464,2590194667
iw,-66.7848358154296,-59.3485107421875,-8.85142021168495,60.08016099999174,2590211334
iw,-67.3658981323242,-60.1955986022949,-29.64951527464341,64.71610585296541,2590228001
iw,-68.5078659057617,-61.1343994140625,-52.092506151724535,69.5926500665815,2590244668
iw,-70.1682510375976,-62.5650405883789,-74.06342317071697,74.81190963646608,2590261335
iw,-72.2837142944336,-64.4313354492187,-93.662698496237,80.16347091193417,2590278002
iw,-74.6664505004882,-66.3076019287109,-109.54934328394903,85.25570779562275,2590294669
iw,-77.1605682373046,-68.0595932006836,-121.08104163656611,89.71026608015148,2590311336
iw,-79.602783203125,-69.7664947509765,-128.2531563879886,93.3101933896653,2590328003
iw,-81.8726425170898,-71.4077453613281,-131.51739021831494,96.03459003618704,2590344670
iw,-83.8557968139648,-73.0109481811523,-131.58738487045042,97.98201317548069,2590361337
iw,-85.3182601928711,-74.6364669799804,-129.3035886879856,99.23872993386543,2590378004
iw,-85.766357421875,-76.3113784790039,-125.56558792037563,99.76488233565952,2590394671
iw,-85.0007629394531,-78.0004043579101,-121.2906694708051,99.35357085045055,2590411338
iw,-83.5345230102539,-79.727912902832,-117.34764646683676,97.68054445510973,2590428005
iw,-81.9082794189453,-81.4655151367187,-114.44197277909325,94.42452943198795,2590444672
iw,-80.270881652832,-83.143798828125,-112.97108749045516,89.4135574372686,2590461339
iw,-78.5353775024414,-84.7290573120117,-112.90305072584782,82.74560136393308,2590478006
iw,-76.5874404907226,-86.1191482543945,-113.73813637937201,74.84082564117982,2590494673
iw,-74.5309600830078,-87.2852401733398,-114.5872084487923,66.4033731643324,2590511340
iw,-72.5279235839843,-88.2621307373046,-114.3559719340003,58.29719053939159,2590528007
iw,-70.631477355957,-89.0833663940429,-111.98582084271192,51.36647070916397,2590544674
iw,-68.8976593017578,-90.0,-106.68890638416684,46.24990826991197,2590561341
iw,-67.3359603881836,-89.6891021728515,-98.12671180427705,43.24292075426431,2590578008
iw,-65.8981475830078,-88.8449554443359,-86.5027742181628,42.249955141235205,2590594675
iw,-64.6043395996093,-88.0065002441406,-72.55701457955882,42.84186204360047,2590611342
iw,-63.610481262207,-87.1500930786132,-57.45863055691082,44.39972988225866,2590628009
iw,-62.9491958618164,-86.2852172851562,-42.60428735487411,46.29959081331142,2590644676
iw,-62.520336151123,-85.3929977416992,-29.346439753007424,48.082290565938685,2590661343
iw,-62.2933006286621,-84.4902114868164,-18.701435580994332,49.560754804510516,2590678010
iw,-62.357250213623,-83.5760269165039,-11.107182648441128,50.83623265001287,2590694677
iw,-62.4974746704101,-82.6587982177734,-6.302931897001447,52.217927229214425,2590711344
iw,-62.5303840637207,-81.7285614013671,-3.38178221965889,54.06214357385936,2590728011
iw,-62.467430114746,-80.8033142089843,-1.0203894122536155,56.56610570802583,2590744678
iw,-62.450080871582,-79.8945999145507,2.167639541483953,59.56673391496712,2590761345
iw,-62.5048904418945,-79.0025253295898,7.25448088572283,62.40317119801377,2590778012
iw,-62.680850982666,-78.0891952514648,14.709540232996533,63.89896382956194,2590794679
iw,-62.9623641967773,-77.1656188964843,24.286193498389427,62.50058372460106,2590811346
iw,-63.6624374389648,-76.2526473999023,35.116682946839525,56.57203725792258,2590828013
iw,-64.8205871582031,-75.3460998535156,45.983185527456655,44.79621948862683,2590844680
iw,-66.1764526367187,-74.5370483398437,55.675243643479156,26.585655947113647,2590861347
iw,-67.5332641601562,-74.0783538818359,63.314657318394474,2.3770705337856164,2590878014
iw,-68.7914581298828,-74.3384857177734,68.54551406575536,-26.305037678095122,2590894681
iw,-70.0847625732421,-75.4048080444336,71.54389279937237,-57.07193373424626,2590911348
iw,-71.4368667602539,-77.0408859252929,72.86921868502957,-87.14430775780296,2590928015
iw,-72.695571899414,-79.2428894042968,73.22587473244717,-113.94797830735384,2590944682
iw,-73.9423751831054,-81.7900314331054,73.21845924784978,-135.65484773002345,2590961349
iw,-75.155647277832,-83.9456710815429,73.17405660983641,-151.5071092325004,2590978016
iw,-76.3426437377929,-84.6452941894531,73.07881937722352,-161.8357341547707,2590994683
iw,-77.5672073364257,-83.682144165039,72.63864932905443,-167.78949316876654,2591011350
iw,-78.7446365356445,-82.1584243774414,71.43262629735347,-170.88792916937717,2591028017
iw,-79.7431488037109,-80.3769454956054,69.09788769113865,-172.55896586997957,2591044684
iw,-80.4859313964843,-78.21875,65.47967530204012,-173.79960441489678,2591061351
iw,-80.8910140991211,-75.8466796875,60.70175057947306,-175.0255264362777,2591078018
iw,-80.9934005737304,-73.4321670532226,55.14743306334709,-176.09762132445383,2591094685
iw,-80.8599090576171,-70.861946105957,49.37212737335728,-176.46809730470946,2591111352
iw,-80.5683135986328,-68.1940689086914,43.983022540839215,-175.3823421565557,2591128019
iw,-80.1807632446289,-65.6019744873046,39.520284167879936,-172.08668672059935,2591144686
iw,-79.7387924194336,-63.2023963928222,36.36325477359963,-166.0074276239128,2591161353
iw,-79.2915420532226,-60.91060256958,34.672861855313606,-156.87697766155503,2591178020
iw,-78.8049240112304,-58.7212753295898,34.372904541831815,-144.79185530407554,2591194687
iw,-78.2188262939453,-56.7644577026367,35.16935877829856,-130.1976820475313,2591211354
iw,-77.5578994750976,-55.1015472412109,36.605654494205844,-113.80989376689426,2591228021
iw,-76.8683853149414,-53.7144813537597,38.148623632680724,-96.4943157051345,2591244688
iw,-76.1999816894531,-52.5650939941406,39.29227962241205,-79.14264209778327,2591261355
iw,-75.5952606201171,-51.6378707885742,39.65787291398481,-62.57526338576664,2591278022
iw,-75.0663299560546,-50.8505859375,39.06549134366487,-47.48554011265697,2591294689
iw,-74.5508270263671,-50.2061195373535,37.55928913965432,-34.41498299921555,2591311356
iw,-74.0086517333984,-49.913719177246,35.38328224201164,-23.733768350134365,2591328023
iw,-73.42041015625,-49.8110313415527,32.92039933960478,-15.606702697426048,2591344690
iw,-72.7912368774414,-49.7315330505371,30.616462515232964,-9.947725144059325,2591361357
iw,-72.1384658813476,-49.6530113220214,28.909435782112965,-6.388745797988997,2591378024
iw,-71.4562072753906,-49.5720710754394,28.17488336482604,-4.293524065543848,2591394691
iw,-70.7800903320312,-49.5275726318359,28.686768096243693,-2.832046897047877,2591411358
iw,-70.1630859375,-49.5734939575195,30.583787197525265,-1.107839666507298,2591428025
iw,-69.5742034912109,-49.7651977539062,33.828937627494284,1.686309692348434,2591444692
iw,-68.9979248046875,-50.0356369018554,38.15591915430142,6.114624042266014,2591461359
iw,-68.4494552612304,-50.3331108093261,43.00996317668433,12.376276272232426,2591478026
iw,-67.9184265136718,-50.6719665527343,47.50857663078388,20.244121184892567,2591494693
iw,-67.3760452270507,-51.1016426086425,50.461228513239355,29.09310874536269,2591511360
iw,-66.7861404418945,-51.7737426757812,50.485723068970145,38.03789433584011,2591528027
iw,-66.1430282592773,-52.7724342346191,46.2354661946649,46.170177264584005,2591544694
iw,-65.4789199829101,-54.2476387023925,36.7084122505747,52.83960717896601,2591561361
iw,-65.0083084106445,-56.1356658935546,21.560623689022012,57.87841649515359,2591578028
iw,-64.9399261474609,-57.7021484375,1.3189826690601396,61.66190515835506,2591594695
iw,-65.4646530151367,-58.5833740234375,-22.600872379797188,64.9491437069395,2591611362
iw,-66.5898284912109,-59.2383346557617,-48.109786364578305,68.55114332059746,2591628029
iw,-68.2217102050781,-60.1727294921875,-72.850474652191,72.97269297085408,2591644696
iw,-70.3145751953125,-61.6705360412597,-94.67675521249225,78.19967667391658,2591661363
iw,-72.6851272583007,-63.6636047363281,-112.05964574311788,83.7291545006683,2591678030
iw,-75.1402816772461,-65.6220932006836,-124.30268141844529,88.809577950505,2591694697
iw,-77.6613388061523,-67.3985595703125,-131.5269525587724,92.75637091685182,2591711364
iw,-80.062141418457,-69.0723266601562,-134.47489950958425,95.19102850720044,2591728031
iw,-82.1745910644531,-70.6350326538086,-134.23542347047433,96.11477459859273,2591744698
iw,-83.9394912719726,-72.1067352294921,-131.98933298346148,95.82004460092065,2591761365
iw,-85.1534576416015,-73.6230850219726,-128.8289288156645,94.71212617634741,2591778032
iw,-85.4478302001953,-75.1704330444336,-125.65446954424729,93.1337382711461,2591794699
iw,-84.5602951049804,-76.7121658325195,-123.12060121269478,91.26102045770685,2591811366
iw,-82.9646987915039,-78.2463760375976,-121.60312196935237,89.092697072364,2591828033
iw,-81.1383209228515,-79.7595748901367,-121.1716391437956,86.51166844189159,2591844700
iw,-79.2100830078125,-81.2659454345703,-121.57430575099578,83.37714133119562,2591861367
iw,-77.1245422363281,-82.6877212524414,-122.25510507544416,79.60741382149783,2591878034
iw,-74.9678268432617,-83.9933471679687,-122.42306230592419,75.22944558783297,2591894701
iw,-72.8572692871093,-85.1772079467773,-121.17615275901251,70.39009436455943,2591911368
iw,-70.8025207519531,-86.2288818359375,-117.66159543593753,65.33770226984875,2591928035
iw,-68.9081573486328,-87.2117462158203,-111.24180145530005,60.38844624641617,2591944702
iw,-67.2096633911132,-88.2231521606445,-101.63532004957126,55.889590757982674,2591961369
iw,-65.6928405761718,-89.0302505493164,-89.00853698718599,52.184153138579106,2591978036
iw,-64.3834533691406,-89.2008285522461,-73.99894392547537,49.574203654165224,2591994703
iw,-63.288272857666,-88.6982421875,-57.65296891265826,48.27948974585069,2592011370
iw,-62.4510841369628,-88.0010070800781,-41.266902793947295,48.395207427708094,2592028037
iw,-62.0931739807128,-87.2020797729492,-26.13788210771413,49.860488792470605,2592044704
iw,-62.2120399475097,-86.3473052978515,-13.266883127459698,52.449387049527544,2592061371
iw,-62.5718002319335,-85.3891372680664,-3.095990263367746,55.78765912622724,2592078038
iw,-62.921875,-84.2857437133789,4.6187673820523765,59.38693615829176,2592094705
iw,-63.0759353637695,-83.1133728027343,10.725864847085669,62.679616806760734,2592111372
iw,-63.1155242919921,-82.0037002563476,16.390677247245684,65.03820481517097,2592128039
iw,-63.3645858764648,-80.9547119140625,22.69349428592958,65.77451181538902,2592144706
iw,-63.8626365661621,-80.0047378540039,30.2580540592922,64.13405614153177,2592161373
iw,-64.4357147216796,-79.2153854370117,39.044682952695545,59.31846246725345,2592178040
iw,-65.3087539672851,-78.5157852172851,48.37716719673641,50.57037797581472,2592194707
iw,-66.6221160888671,-77.7900085449218,57.18671898669304,37.33364678085116,2592211374
iw,-68.1245040893554,-77.1838226318359,64.38183418205885,19.4603306806525,2592228041
iw,-69.818733215332,-76.9505615234375,69.21162369783808,-2.606223271778508,2592244708
iw,-71.1998748779296,-77.2347259521484,71.49612426257815,-27.76054854871883,2592261375
iw,-72.3483810424804,-78.0888519287109,71.64974657694083,-54.3396785585096,2592278042
iw,-73.5513000488281,-79.5550003051757,70.50251995232286,-80.40449942722445,2592294709
iw,-74.6224822998046,-81.5500793457031,68.99525066954685,-104.12704371115032,2592311376
iw,-75.6474609375,-83.8274993896484,67.86292131114254,-124.16284369479948,2592328043
iw,-76.6684341430664,-85.5352935791015,67.41688877303307,-139.88276854620713,2592344710
iw,-77.7887496948242,-85.3401565551757,67.49548263001216,-151.38655220653197,2592361377
iw,-79.0196685791015,-83.7730407714843,67.58738210522193,-159.30559151280244,2592378044
iw,-80.1940231323242,-81.9607543945312,67.06571098664344,-164.4879366236385,2592394711
iw,-81.1390914916992,-79.9349136352539,65.43287163300327,-167.69826900335445,2592411378
iw,-81.7295608520507,-77.6329040527343,62.48540382737263,-169.43696956876516,2592428045
iw,-81.9918518066406,-75.1788711547851,58.35620053361569,-169.90610716032435,2592444712
iw,-82.0285873413086,-72.7266082763671,53.44783296269338,-169.0783286252343,2592461379
iw,-81.8975601196289,-70.2114868164062,48.30580703702369,-166.79891497279542,2592478046
iw,-81.5936584472656,-67.7058868408203,43.48452241488237,-162.87272038495294,2592494713
iw,-81.1728820800781,-65.2754211425781,39.44205605959947,-157.12503203351042,2592511380
iw,-80.6715316772461,-63.011474609375,36.479024468267006,-149.4476401428628,2592528047
iw,-80.1646881103515,-60.7949142456054,34.72115841116253,-139.84018002969898,2592544714
iw,-79.6637802124023,-58.7409744262695,34.13600905290416,-128.44336184899473,2592561381
iw,-79.1133880615234,-56.9379501342773,34.56962733471595,-115.55113760484255,2592578048
iw,-78.4977493286132,-55.376853942871,35.78826800680223,-101.59233336311395,2592594715
iw,-77.8096771240234,-54.0592422485351,37.513343863473494,-87.08600677629435,2592611382
iw,-77.0662307739257,-52.9387550354003,39.44455548861385,-72.58697049809633,2592628049
iw,-76.3116226196289,-52.0034217834472,41.27400318423934,-58.63817525801393,2592644716
iw,-75.5684967041015,-51.237449645996,42.69951284653342,-45.73515952350868,2592661383
iw,-74.8682022094726,-50.6574935913085,43.44577854114148,-34.29440720746402,2592678050
iw,-74.1977767944336,-50.3152198791503,43.29742835387524,-24.61320445885027,2592694717
iw,-73.5214614868164,-50.0942916870117,42.14103627988611,-16.817388604938646,2592711384
iw,-72.8094329833984,-49.9394187927246,40.00589968726269,-10.809371662370078,2592728051
iw,-72.077392578125,-49.8517684936523,37.08820298375924,-6.240702951299675,2592744718
iw,-71.347900390625,-49.8524513244628,33.74237778506899,-2.533227193149786,2592761385
iw,-70.6560668945312,-49.9449195861816,30.428874297229857,1.0389416876961894,2592778052
iw,-70.0244979858398,-50.1115379333496,27.618255304377993,5.2122100330101375,2592794719
iw,-69.4554977416992,-50.3472938537597,25.66375246508387,10.565517765917669,2592811386
iw,-68.9426879882812,-50.6582489013671,24.66499537826395,17.362831514554326,2592828053
iw,-68.5160064697265,-51.0767402648925,24.354530765326103,25.457281092266268,2592844720
iw,-68.2066574096679,-51.7316818237304,24.046210989440993,34.30336867367745,2592861387
iw,-67.9975280761718,-52.5796966552734,22.68543597764491,43.09764466182234,2592878054
iw,-67.8011322021484,-53.8296508789062,19.02553538782332,51.022522352542325,2592894721
iw,-67.578384399414,-55.6212692260742,11.916432151384393,57.51686190429671,2592911388
iw,-67.4134674072265,-57.5330810546875,0.6398398814546807,62.46539335246318,2592928055
iw,-67.4386596679687,-58.8939132690429,-14.816104421419643,66.21308898396745,2592944722
iw,-67.9076232910156,-59.7358512878418,-33.65292306126211,69.38078736216289,2592961389
iw,-69.0433120727539,-60.6103553771972,-54.39023316790044,72.55964772483446,2592978056
iw,-70.7641296386718,-61.9025382995605,-75.20088674672108,76.03457408217112,2592994723
iw,-72.8660125732421,-63.6369400024414,-94.33841658581662,79.67612908025333,2593011390
iw,-75.1563873291015,-65.6346054077148,-110.49915141170735,83.04667825769523,2593028057
iw,-77.5934600830078,-67.5475616455078,-122.99425095057263,85.64906862315537,2593044724
iw,-80.0913467407226,-69.2619705200195,-131.70414032112004,87.17778366924546,2593061391
iw,-82.4552230834961,-70.8431320190429,-136.89327675969122,87.6473179309457,2593078058
iw,-84.3623275756836,-72.3140411376953,-139.01228410943972,87.35026020025056,2593094725
iw,-85.2998886108398,-73.7449645996093,-138.5831188800864,86.686686973624,2593111392
iw,-84.8448257446289,-75.1944580078125,-136.18317908995525,85.9601805241844,2593128059
iw,-83.3689575195312,-76.6532897949218,-132.47337908200302,85.23585819363949,2593144726
iw,-81.5103912353515,-78.1198501586914,-128.19240688708888,84.31437083262836,2593161393
iw,-79.5797653198242,-79.6226959228515,-124.0678657871869,82.8211010762098,2593178060
iw,-77.8240127563476,-81.1529159545898,-120.65165224364053,80.36733921106328,2593194727
iw,-76.0840301513671,-82.6609344482421,-118.14028823472184,76.72156667115719,2593211394
iw,-74.1512145996093,-84.0287704467773,-116.26419247440344,71.9326508246476,2593228061
iw,-72.0446701049804,-85.2094421386718,-114.30979515913343,66.36602290015507,2593244728
iw,-69.9699249267578,-86.2126083374023,-111.28376977111014,60.64180954568465,2593261395
iw,-68.0616683959961,-87.0932998657226,-106.16972319582565,55.49326039686337,2593278062
iw,-66.3968811035156,-87.9159698486328,-98.19692972255146,51.58699622423636,2593294729
iw,-64.9904251098632,-88.7089614868164,-87.04849136156966,49.35736971226713,2593311396
iw,-63.8215141296386,-89.5725021362304,-72.96671428915585,48.90297052081521,2593328063
iw,-62.8159065246582,-90.0,-56.74271555321917,49.97539658263758,2593344730
iw,-62.0504302978515,-88.7761917114257,-39.59387512125615,52.063481785480406,2593361397
iw,-61.6654472351074,-87.7389526367187,-22.94281819104116,54.54742866790564,2593378064
iw,-61.6891441345214,-86.6751632690429,-8.128454529171787,56.87533167082668,2593394731
iw,-62.0567207336425,-85.5941162109375,3.8926240567322443,58.70647281112202,2593411398
iw,-62.5601501464843,-84.4702606201171,12.771320010669605,59.97389173558645,2593428065
iw,-62.9402503967285,-83.348876953125,18.836925789206095,60.84026683235091,2593444732
iw,-63.2187347412109,-82.3170700073242,22.975267348755924,61.550873943097,2593461399
iw,-63.6362876892089,-81.3808975219726,26.344447839404594,62.21996497833955,2593478066
iw,-64.2435150146484,-80.5040283203125,30.018795314831276,62.615646116622614,2593494733
iw,-64.8575363159179,-79.6866302490234,34.6734718232985,62.023503180116734,2593511400
iw,-65.4006118774414,-78.9065322875976,40.40303715092005,59.26080618870022,2593528067
iw,-66.1234283447265,-78.0888214111328,46.72471968407271,52.876816216829035,2593544734
iw,-67.3665390014648,-77.2357482910156,52.7653361751128,41.51593855784234,2593561401
iw,-68.656623840332,-76.5041961669921,57.574802665083894,24.35511128616127,2593578068
iw,-70.2610931396484,-76.0625686645507,60.461502092610125,1.4790075456978176,2593594735
iw,-71.6742858886718,-76.157241821289,61.23002607309644,-25.948973030451366,2593611402
iw,-72.6495208740234,-76.9663925170898,60.23616136912618,-55.81263336113058,2593628069
iw,-73.588623046875,-78.5963363647461,58.2463462575218,-85.46343049561948,2593644736
iw,-74.4526977539062,-80.8344497680664,56.16524669222831,-112.32370923485416,2593661403
iw,-75.286148071289,-83.1335906982421,54.74015840192894,-134.4818754349648,2593678070
iw,-76.2533645629882,-84.2420120239257,54.34844202103508,-151.0794362309047,2593694737
iw,-77.2117767333984,-83.4398040771484,54.932050212828166,-162.36373147326398,2593711404
iw,-78.2194290161132,-81.8293685913086,56.08278840862451,-169.40993324851894,2593728071
iw,-79.2168273925781,-80.2652816772461,57.227125723886424,-173.64115939396905,2593744738
iw,-80.0958557128906,-78.5080337524414,57.830227545875154,-176.33530372967834,2593761405
iw,-80.7581329345703,-76.3402252197265,57.54498007367786,-178.2785686913152,2593778072
iw,-81.149429321289,-73.9625396728515,56.26706709281794,-179.63844612763742,2593794739
iw,-81.3192672729492,-71.3929061889648,54.102390452808685,-180.039969753715,2593811406
iw,-81.3698043823242,-68.5555725097656,51.28584833294077,-178.7781233244531,2593828073
iw,-81.2744064331054,-65.6689987182617,48.09745252009424,-175.08713030846354,2593844740
iw,-80.9708709716796,-63.0469284057617,44.80586603058169,-168.3941822650513,2593861407
iw,-80.4552612304687,-60.699535369873,41.6456082144152,-158.49930641551265,2593878074
iw,-79.8959045410156,-58.4888648986816,38.81723509894212,-145.64520039199007,2593894741
iw,-79.3936996459961,-56.4993743896484,36.4948577306474,-130.47011745204634,2593911408
iw,-78.9089965820312,-54.8264007568359,34.828576952248746,-113.86633012682572,2593928075
iw,-78.3720016479492,-53.4860115051269,33.93542093784993,-96.78998330950186,2593944742
iw,-77.7707138061523,-52.397834777832,33.87864305705384,-80.08083598833154,2593961409
iw,-77.1174392700195,-51.5402526855468,34.6409931626783,-64.34638327873168,2593978076
iw,-76.4401779174804,-50.828929901123,36.10193846611088,-49.94007582091782,2593994743
iw,-75.7803878784179,-50.196605682373,38.03060504499823,-37.02411782528056,2594011410
iw,-75.1376647949218,-49.702766418457,40.10422077026444,-25.670958046848607,2594028077
iw,-74.4648208618164,-49.4963264465332,41.95539746297532,-15.943374362113772,2594044744
iw,-73.7144393920898,-49.4702491760253,43.24182444795624,-7.91031229268375,2594061411
iw,-72.8999328613281,-49.5587158203125,43.722227148944306,-1.595825947954501,2594078078
iw,-72.0706253051757,-49.7243118286132,43.31692155217868,3.1017240293127157,2594094745
iw,-71.2654876708984,-49.9076652526855,42.13249417703794,6.466473281428853,2594111412
iw,-70.5242691040039,-50.087417602539,40.437399429017326,8.957842501454529,2594128079
iw,-69.8742294311523,-50.3361740112304,38.58571118241599,11.132341565134514,2594144746
iw,-69.2917098999023,-50.725528717041,36.89785085555294,13.52024257327128,2594161413
iw,-68.7721405029296,-51.1514282226562,35.51990169636483,16.500277818372542,2594178080
iw,-68.3431091308593,-51.5413093566894,34.29652344188698,20.214544654211913,2594194747
iw,-68.0099487304687,-52.0008125305175,32.70202574146585,24.55369396074773,2594211414
iw,-67.6877288818359,-52.5851135253906,29.871910785577136,29.224908357376684,2594228081
iw,-67.3298797607421,-53.3612480163574,24.756269299414267,33.89084264695593,2594244748
iw,-66.9759521484375,-54.4448356628418,16.377354448437142,38.336675174913815,2594261415
iw,-66.7486953735351,-55.8544960021972,4.128379040240573,42.59629840062651,2594278082
iw,-66.7571029663086,-57.0689659118652,-11.980719964054565,46.96816348390392,2594294749
iw,-67.2122497558593,-57.8557205200195,-31.223245001591312,51.89124345255267,2594311416
iw,-68.3282012939453,-58.5014114379882,-52.25254253391549,57.722975002692046,2594328083
iw,-70.0873413085937,-59.450870513916,-73.37595559463655,64.52503463248124,2594344750
iw,-72.3141937255859,-60.9358825683593,-92.91482188138673,71.972059239495,2594361417
iw,-74.7365798950195,-62.7858161926269,-109.52437911565484,79.43690391030682,2594378084
iw,-77.2045822143554,-64.637939453125,-122.37313633640105,86.20938930723213,2594394751
iw,-79.6662368774414,-66.3711471557617,-131.15685519019968,91.73629986824446,2594411418
iw,-81.9659118652343,-68.0268478393554,-136.0011062747036,95.76938836934713,2594428085
iw,-83.9079666137695,-69.5893478393554,-137.33869382513524,98.3671487035234,2594444752
iw,-85.1868820190429,-71.1117401123046,-135.82123407564202,99.77275011269073,2594461419
iw,-85.3662567138671,-72.6980361938476,-132.26845687656305,100.2426575060478,2594478086
iw,-84.4439544677734,-74.3522415161132,-127.61745101765234,99.90887714176316,2594494753
iw,-82.9342269897461,-76.004280090332,-122.82980914310183,98.72837239430403,2594511420
iw,-81.2587280273437,-77.6185302734375,-118.74275273468267,96.52742942440518,2594528087
iw,-79.5916595458984,-79.2023696899414,-115.89085229713322,93.11000913977085,2594544754
iw,-77.8288955688476,-80.7424163818359,-114.35570854665013,88.38115777360137,2594561421
iw,-75.8648834228515,-82.2046966552734,-113.70547666581153,82.43994136175,2594578088
iw,-73.8476791381836,-83.5048446655273,-113.06034055721771,75.6133989993112,2594594755
