Label,Left_Hip_q,Right_Hip_q,Left_Hip_qd,Right_Hip_qd,SampleTimeFine
fw,-65.4031906127929,-84.2818374633789,-2.285249710083,-172.537460327148,268696246
fw,-66.8142471313476,-81.7840270996093,53.503945516245246,-211.94033204569934,268712913
fw,-68.201904296875,-78.6416473388671,55.358476896106225,-196.32357038897803,268729580
fw,-69.4018859863281,-75.5322723388671,56.29295176406453,-181.8785894730209,268746247
fw,-70.7765655517578,-72.6530456542968,55.711823340416615,-169.72730840340995,268762914
fw,-72.1553726196289,-70.1334381103515,53.54264642816969,-160.59588009146304,268779581
fw,-73.1127471923828,-67.9962463378906,50.253843762191906,-154.61632727946161,268796248
fw,-73.8671722412109,-66.0096893310546,46.687286353321404,-151.20712741174685,268812915
fw,-74.8487548828125,-63.9098434448242,43.778073525803265,-149.10488510396533,268829582
fw,-76.0172805786132,-61.5943870544433,42.2739432590947,-146.58527893949437,268846249
fw,-77.0756530761718,-59.1204566955566,42.54977101493595,-141.84181631063944,268862916
fw,-77.9573974609375,-56.7526054382324,44.556022623808865,-133.41847649064562,268879583
fw,-78.8032684326171,-54.6821746826171,47.88608876162242,-120.55772906358195,268896250
fw,-79.7331466674804,-53.1368560791015,51.920775758956125,-103.3515723307431,268912917
fw,-80.6816482543945,-52.1349258422851,56.002481279043494,-82.65961404950718,268929584
fw,-81.7116012573242,-51.5520706176757,59.59280611398478,-59.847133801880986,268946251
fw,-82.8475265502929,-51.3494644165039,62.373137028076655,-36.45528691594689,268962918
fw,-83.9984130859375,-51.4400215148925,64.262374509079,-13.921710032402645,268979585
fw,-85.1544723510742,-51.9005241394043,65.34957739011271,6.572325381317599,268996252
fw,-86.3044509887695,-52.3713493347168,65.76578964560433,24.117986768631237,269012919
fw,-87.4038391113281,-52.6611175537109,65.54000113806724,38.01037561749507,269029586
fw,-88.4490966796875,-53.0504722595214,64.49143579511113,47.68462186442173,269046253
fw,-89.4864196777343,-54.0834312438964,62.20045377123473,52.739455339696065,269062920
fw,-89.1472854614257,-55.5293235778808,58.07506451528595,53.07382570999803,269079587
fw,-88.215347290039,-57.0472526550293,51.49733534044686,49.07491286984939,269096254
fw,-87.4425811767578,-58.2410697937011,42.00654293986791,41.73224687386144,269112921
fw,-86.8311538696289,-58.72216796875,29.464436619648385,32.56434539344036,269129588
fw,-86.5106964111328,-58.6862144470214,14.154097195014657,23.335957621143514,269146255
fw,-86.4998321533203,-58.3734130859375,-3.2181093002271877,15.663458005748106,269162922
fw,-86.7815551757812,-58.36665725708,-21.624161497823863,10.677619453400824,269179589
fw,-87.2840118408203,-58.7368278503418,-39.901047313672564,8.887139481564144,269196256
fw,-87.8593597412109,-59.6178245544433,-56.98160476585207,10.272867374442068,269212923
fw,-87.8482360839843,-60.3964462280273,-72.11323689135934,14.510894391594839,269229590
fw,-86.5078887939453,-60.3356246948242,-85.00357497520075,21.161411202135447,269246257
fw,-84.6391525268554,-60.4670181274414,-95.84443394557574,29.71516069141689,269262924
fw,-82.3919982910156,-61.0823745727539,-105.19848450554203,39.518774262716136,269279591
fw,-79.7782669067382,-62.0590858459472,-113.77798142827722,49.701243478225784,269296258
fw,-77.053840637207,-63.5207138061523,-122.18019104901674,59.22051555661847,269312925
fw,-74.5842132568359,-65.0457305908203,-130.65448317207733,67.05599713928822,269329592
fw,-72.3958358764648,-66.5342712402343,-138.96463060828617,72.4675871565154,269346259
fw,-70.3011322021484,-67.9814300537109,-146.3866558797222,75.19471408957037,269362926
fw,-68.0610198974609,-69.2792358398437,-151.84936237160147,75.49863632181993,269379593
fw,-65.671028137207,-70.3334197998046,-154.18201072634133,74.0300333730848,269396260
fw,-63.3565330505371,-71.3487396240234,-152.39516702228062,71.58513386768848,269412927
fw,-61.1733741760253,-72.5431213378906,-145.90858633813153,68.8582064471233,269429594
fw,-59.214859008789,-73.923583984375,-134.66410045249685,66.28829307599635,269446261
fw,-57.5094680786132,-75.3796310424804,-119.10922280989496,64.04248968666178,269462928
fw,-56.0366401672363,-76.6698989868164,-100.08353877966945,62.10927167918684,269479595
fw,-54.9117622375488,-77.7416458129882,-78.66569880666542,60.431403106185016,269496262
fw,-54.1707038879394,-78.66650390625,-56.038935030694375,59.008345028917496,269512929
fw,-53.6878967285156,-79.5475082397461,-33.41166494222099,57.93256241380875,269529596
fw,-53.4842109680175,-80.4552383422851,-11.993428698948204,57.364465362145374,269546263
fw,-53.5922012329101,-81.3946533203125,7.014255740962883,57.473624570928145,269562930
fw,-54.0553741455078,-82.4100494384765,22.476866029979,58.374581701481254,269579597
fw,-55.6135025024414,-83.515151977539,33.48276535586978,60.073573027915955,269596264
fw,-57.56343460083,-84.6242218017578,39.575447062585134,62.42990857381124,269612931
fw,-59.038948059082,-85.6715698242187,40.95867678784531,65.13007125261404,269629598
fw,-59.5845031738281,-86.7285919189453,38.54201976627323,67.67501254121916,269646265
fw,-59.9669380187988,-87.8185195922851,33.76163817000216,69.386839205773,269662932
fw,-60.5524749755859,-88.7722015380859,28.233844892855203,69.44280491490467,269679599
fw,-61.1637725830078,-88.8625411987304,23.381982545722646,66.93928871749165,269696266
fw,-61.86275100708,-88.1012268066406,20.16836549573926,60.98093132782144,269712933
fw,-62.3763198852539,-87.3597335815429,18.99400447874768,50.78737048497011,269729600
fw,-62.8028526306152,-86.8059844970703,19.759968885128174,35.81337857094515,269746267
fw,-63.6334724426269,-86.4491806030273,22.039848293658405,15.880770112882375,269762934
fw,-64.2781753540039,-86.2802200317382,25.286468565090498,-8.687154559698072,269779601
fw,-64.4402160644531,-86.3616409301757,28.99255761466794,-36.95777397129945,269796268
fw,-64.6455688476562,-86.7094268798828,32.76049373566787,-67.35871946851971,269812935
fw,-65.3425521850586,-87.0159454345703,36.29687319956096,-97.78067242515056,269829602
fw,-66.4161834716796,-86.5057601928711,39.38569237149081,-125.8435567574214,269846269
fw,-67.6227493286132,-84.506103515625,41.88165916812348,-149.30067538217634,269862936
fw,-68.6852111816406,-81.5120544433593,43.72668260105667,-166.48832261818953,269879603
fw,-69.6806716918945,-78.2748565673828,44.96833134665731,-176.68225379883222,269896270
fw,-70.8536682128906,-75.115249633789,45.76043210490326,-180.22881950993786,269912937
fw,-72.0668563842773,-72.1979217529296,46.33726285332797,-178.38661698368017,269929604
fw,-73.1530075073242,-69.701919555664,46.96081726865202,-172.91846060661678,269946271
fw,-74.12255859375,-67.4757843017578,47.84835581022824,-165.56646951816714,269962938
fw,-75.1968231201171,-65.2369918823242,49.10064333329903,-157.58424908651537,269979605
fw,-76.3864212036132,-62.888427734375,50.662512875284655,-149.4727476701105,269996272
fw,-77.5779876708984,-60.4210166931152,52.342162952126806,-140.9829913810877,270012939
fw,-78.7334976196289,-58.0620880126953,53.89112787998935,-131.34748893345332,270029606
fw,-79.8008270263671,-55.9519462585449,55.11708395120504,-119.62895554083651,270046273
fw,-80.8114547729492,-54.2202033996582,55.98377044039078,-105.05916653087048,270062940
fw,-81.8335800170898,-52.9276466369628,56.65387466333337,-87.27853998482314,270079607
fw,-82.8414916992187,-52.0330505371093,57.44873370281491,-66.44861572879114,270096274
fw,-83.8478851318359,-51.5456886291503,58.725526326854535,-43.2598063985305,270112941
fw,-84.8922882080078,-51.3383102416992,60.70072125694924,-18.87434002482305,270129608
fw,-85.9398193359375,-51.4916305541992,63.27120501886359,5.170531621843009,270146275
fw,-86.979621887207,-51.910171508789,65.89529281045807,27.10301245246628,270162942
fw,-88.0188980102539,-52.5941085815429,67.58925067734346,45.12282798596289,270179609
fw,-89.0168228149414,-53.6742897033691,67.06835545287446,57.68295799082873,270196276
fw,-89.0055465698242,-55.0105476379394,63.017910282571926,63.81497177496472,270212943
fw,-87.9972915649414,-56.5154838562011,54.430892580554875,63.41454515992496,270229610
fw,-87.0815353393554,-58.0861473083496,40.91439402727123,57.376569271732606,270246277
fw,-86.5288162231445,-59.0307655334472,22.86439620487584,47.492490804823454,270262944
fw,-86.4198608398437,-59.27587890625,1.4426493815610637,36.09835256544683,270279611
fw,-86.7432785034179,-59.1345748901367,-21.650693909838836,25.563546390437672,270296278
fw,-87.4879150390625,-59.0291519165039,-44.550384243106215,17.788556352381843,270312945
fw,-88.1778030395507,-59.0840187072753,-65.63874080358141,13.885739340485337,270329612
fw,-87.4262619018554,-59.9555320739746,-83.8752950444027,14.134128605219642,270346279
fw,-85.7077331542968,-61.0601234436035,-98.94633366863437,18.165439576188927,270362946
fw,-83.5562438964843,-61.2187118530273,-111.198737138149,25.234214645352743,270379613
fw,-80.9133377075195,-61.5018501281738,-121.39566015665915,34.42199386133698,270396280
fw,-77.84033203125,-62.3251152038574,-130.38245703018976,44.721871415194705,270412947
fw,-74.7931518554687,-63.4219284057617,-138.76211372793566,55.06060914186116,270429614
fw,-72.3220748901367,-64.8033828735351,-146.6613796305514,64.35098498579215,270446281
fw,-70.1711120605468,-66.4148330688476,-153.6424549657324,71.61676764243605,270462948
fw,-67.9679946899414,-67.953872680664,-158.78489741143198,76.15637088467462,270479615
fw,-65.4553985595703,-69.3402633666992,-160.91974628217565,77.67013639372698,270496282
fw,-62.7518043518066,-70.5408248901367,-158.94658784935626,76.29085771343019,270512949
fw,-60.2783660888671,-71.6257095336914,-152.12996063415258,72.50894277088197,270529616
fw,-58.197467803955,-72.7688522338867,-140.28053774356854,67.03539316020374,270546283
fw,-56.4735488891601,-74.0479125976562,-123.77994221848611,60.666339172938095,270562950
fw,-55.0583457946777,-75.3374404907226,-103.47663084477847,54.194006284195694,270579617
fw,-53.9494438171386,-76.4615631103515,-80.52517372175605,48.36748632800997,270596284
fw,-53.2000312805175,-77.3074951171875,-56.24183496783919,43.87211218752715,270612951
fw,-52.7776679992675,-77.9334335327148,-32.01360315413204,41.29099251477097,270629618
fw,-52.6899299621582,-78.4576950073242,-9.250111703182728,41.036085418440685,270646285
fw,-53.1084671020507,-79.0849075317382,10.667568191058733,43.26791123048446,270662952
fw,-53.8059196472168,-79.8733901977539,26.49377628426525,47.83866558598916,270679619
fw,-55.1193656921386,-80.7971572875976,37.30405169510479,54.284602046156,270696286
fw,-57.0039901733398,-81.8511962890625,42.72557858487146,61.870463284278074,270712953
fw,-58.7089958190918,-83.0021514892578,43.118073490479794,69.66890449041509,270729620
fw,-59.7077522277832,-84.2191085815429,39.59010446592107,76.65150707286678,270746287
fw,-60.0320625305175,-85.4904632568359,33.78665501220044,81.7734020058015,270762954
fw,-60.3611640930175,-86.7577438354492,27.491608705368257,84.04274247548393,270779621
fw,-60.6266021728515,-87.7798309326171,22.18718966225453,82.57347439859801,270796288
fw,-61.0542335510253,-88.1922531127929,18.735772246738033,76.62537570848156,270812955
fw,-61.5535850524902,-88.0472564697265,17.290532017454087,65.64244333181112,270829622
fw,-61.9034042358398,-87.6400070190429,17.44573423728552,49.30800287591066,270846289
fw,-62.4523544311523,-87.2223052978515,18.551962482451515,27.633363008155698,270862956
fw,-63.3922080993652,-86.9600524902343,20.065877951347147,1.0781649677234,270879623
fw,-63.8763809204101,-86.9318389892578,21.788432525173214,-29.330803699255977,270896290
fw,-63.7295112609863,-87.0112838745117,23.888387078781236,-61.942423759086466,270912957
fw,-63.953125,-86.8466339111328,26.71088793127031,-94.55073054558223,270929624
fw,-64.6120910644531,-85.9796142578125,30.484864716558196,-124.63203249391505,270946291
fw,-65.5797500610351,-83.9352493286132,35.0948230126472,-149.74017552993226,270962958
fw,-66.8655395507812,-80.9091491699218,40.04022322032031,-167.9840080548825,270979625
fw,-68.1451034545898,-77.5956954956054,44.60117950815933,-178.4516586642248,270996292
fw,-69.4173355102539,-74.4052658081054,48.1238598635298,-181.4289399549434,271012959
fw,-70.7193908691406,-71.4590530395507,50.28390058611885,-178.30901656210622,271029626
fw,-71.941177368164,-68.9014282226562,51.203641547500375,-171.19525816012506,271046293
fw,-72.9170227050781,-66.72412109375,51.37602038616932,-162.31226883496743,271062960
fw,-73.8571243286132,-64.7220230102539,51.44339772081498,-153.41126488010102,271079627
fw,-75.0297698974609,-62.6630935668945,51.94415570084514,-145.35731403661276,271096294
fw,-76.3386840820312,-60.4190483093261,53.14118045381605,-138.01785569800037,271112961
fw,-77.6222229003906,-58.0482673645019,54.9893751938529,-130.46105419450808,271129628
fw,-78.7789306640625,-55.8412399291992,57.22491758144179,-121.36489657663728,271146295
fw,-79.8460922241211,-53.9514503479003,59.51187483202625,-109.47986227540657,271162962
fw,-80.8970947265625,-52.4938621520996,61.5778006377305,-94.00057319253571,271179629
fw,-81.9588012695312,-51.4937400817871,63.2939268330659,-74.7686848299805,271196296
fw,-83.0720443725586,-50.9601669311523,64.68464291030848,-52.30888095097283,271212963
fw,-84.2686538696289,-50.7960968017578,65.87296222120726,-27.751907307018783,271229630
fw,-85.472427368164,-50.8694534301757,66.98285707186932,-2.7044084367178733,271246297
fw,-86.6332702636718,-51.2612876892089,68.02844693361713,20.907076400413178,271262964
fw,-87.7526626586914,-51.7028999328613,68.82449580752125,41.033266527169445,271279631
fw,-88.8481826782226,-52.4351844787597,68.94969522102679,55.77485712902949,271296298
fw,-89.3045120239257,-53.6072235107421,67.78082383097014,63.73896495357509,271312965
fw,-88.3401107788086,-55.1930770874023,64.59394806340441,64.4211895660557,271329632
fw,-87.1850662231445,-56.8889923095703,58.70658212468328,58.485045569389044,271346299
fw,-86.2445983886718,-58.1681938171386,49.622200817484355,47.78822415415766,271362966
fw,-85.6898880004882,-58.5535545349121,37.14120820630663,35.065754949401864,271379633
fw,-85.4027023315429,-58.3791313171386,21.418010949119765,23.312350255729502,271396300
fw,-85.3025588989257,-58.0542526245117,2.9623071260558995,15.049049757936588,271412967
fw,-85.5145034790039,-57.8246841430664,-17.407581221021115,11.733488666511702,271429634
fw,-86.0214233398437,-57.9671249389648,-38.65378919529362,13.52900673334872,271446301
fw,-86.7446670532226,-59.3337249755859,-59.650021478226144,19.49654059533698,271462968
fw,-87.6131286621093,-60.6879730224609,-79.34934771019287,28.08558120941261,271479635
fw,-87.5899505615234,-61.0130271911621,-96.9632933195747,37.679032726204305,271496302
fw,-85.7827682495117,-61.1700325012207,-112.10118080431594,46.96824196672372,271512969
fw,-83.4494705200195,-62.0450439453125,-124.80930400146282,55.079539528860316,271529636
fw,-80.7387008666992,-63.2114677429199,-135.47507568895372,61.52684007025009,271546303
fw,-77.8296508789062,-64.5747451782226,-144.61554929960445,66.11898945631206,271562970
fw,-75.0763397216796,-66.0918731689453,-152.62170808369854,68.90140426550116,271579637
fw,-72.5357971191406,-67.5105743408203,-159.55018500505977,70.13285548364074,271596304
fw,-70.0755615234375,-68.7549438476562,-165.03495094022668,70.25477115846299,271612971
fw,-67.3828735351562,-69.9460830688476,-168.34440403956637,69.81700785903413,271629638
fw,-64.5467758178711,-71.1046142578125,-168.5547676561036,69.35947087013011,271646305
fw,-61.8507652282714,-72.3355331420898,-164.7720645582712,69.28273514065316,271662972
fw,-59.458812713623,-73.6536636352539,-156.329930396685,69.75318198326941,271679639
fw,-57.3696975708007,-75.02099609375,-142.91981870508098,70.67723409792748,271696306
fw,-55.491527557373,-76.4603805541992,-124.65296687595321,71.75445269836196,271712973
fw,-53.8674278259277,-77.8582458496093,-102.08073711703658,72.59200418466894,271729640
fw,-52.643268585205,-79.1114501953125,-76.19710319296459,72.84325715994002,271746307
fw,-51.8382339477539,-80.2896728515625,-48.42373034980449,72.32795793468568,271762974
fw,-51.42183303833,-81.4569625854492,-20.554650013686594,71.10074687901835,271779641
fw,-51.5659866333007,-82.6125183105468,5.372717185426967,69.45122813811678,271796308
fw,-52.1046867370605,-83.7513198852539,27.30608195666321,67.8339249291551,271812975
fw,-53.6825866699218,-84.8692092895507,43.5030970798008,66.73837725138846,271829642
fw,-55.7839317321777,-85.9298019409179,52.896438276223314,66.52201768373506,271846309
fw,-57.5797042846679,-86.8794021606445,55.38556744686454,67.24297470077829,271862976
fw,-58.7988052368164,-87.6879348754882,51.92444414164294,68.54144213157466,271879643
fw,-59.5859146118164,-88.2947540283203,44.333098084279534,69.61638815097233,271896310
fw,-60.2423362731933,-88.1566619873046,34.873973131620225,69.32092070608202,271912977
fw,-60.47216796875,-87.1571044921875,25.73245882427179,66.35825458325023,271929644
fw,-60.606216430664,-86.0507278442382,18.570821742619362,59.52099699726775,271946311
fw,-61.0202827453613,-85.3119964599609,14.283867300848513,47.90541434609101,271962978
fw,-61.0932006835937,-84.9104614257812,13.004024024403778,31.0590689442751,271979645
fw,-61.4562187194824,-84.762580871582,14.315190181252166,9.064222208788234,271996312
fw,-62.2494163513183,-84.7647933959961,17.564135693995787,-17.41614768402691,272012979
fw,-62.5806579589843,-85.0645370483398,22.130185445588015,-47.1185148035497,272029646
fw,-62.7585182189941,-85.7418212890625,27.548028800118235,-78.21390425123776,272046313
fw,-63.3877906799316,-86.5427703857421,33.46733710812841,-108.45181155522678,272062980
fw,-64.3383331298828,-86.6359405517578,39.526882528212155,-135.4478317852617,272079647
fw,-65.5288009643554,-84.8825149536132,45.25912841173133,-157.08916632742117,272096314
fw,-66.8289260864257,-81.8512649536132,50.104949587071026,-171.96075456567374,272112981
fw,-68.1316909790039,-78.6543807983398,53.54105433493806,-179.65385245153837,272129648
fw,-69.4352645874023,-75.4763565063476,55.25497014239973,-180.8377244047147,272146315
fw,-70.7294540405273,-72.4342422485351,55.27680579559755,-177.0514845741154,272162982
fw,-71.882827758789,-69.7945861816406,53.99909364527211,-170.27128043645178,272179649
fw,-72.9095687866211,-67.4557723999023,52.0697310337902,-162.38299829412134,272196316
fw,-73.9612121582031,-65.1511535644531,50.20084193942384,-154.71567642289278,272212983
fw,-75.1590576171875,-62.7472343444824,48.97048916712988,-147.7628444033553,272229650
fw,-76.406135559082,-60.4066505432128,48.688950524430716,-141.1523213391904,272246317
fw,-77.5369033813476,-58.1933708190918,49.3638434308393,-133.84686916284068,272262984
fw,-78.5370559692382,-56.1599006652832,50.7548171381112,-124.49896327936335,272279651
fw,-79.520149230957,-54.316780090332,52.482858763791356,-111.85910014122037,272296318
fw,-80.521499633789,-52.8494186401367,54.155611593861416,-95.14400610142641,272312985
fw,-81.5193176269531,-51.7438888549804,55.4769435601524,-74.29458266751594,272329652
fw,-82.5674285888671,-51.0172805786132,56.31634565550165,-50.08212290279934,272346319
fw,-83.7039947509765,-50.7258605957031,56.721258809749415,-24.049765976056168,272362986
fw,-84.8329772949218,-51.1445846557617,56.8670481100102,1.697315353904988,272379653
fw,-85.9072952270507,-51.8691940307617,56.95622142804126,24.815206079644696,272396320
fw,-86.9264221191406,-52.5373153686523,57.096706620527385,43.10192853234714,272412987
fw,-87.9503479003906,-53.2233428955078,57.2003143687091,54.874300164731494,272429654
fw,-88.9528350830078,-54.3045539855957,56.938644824247376,59.287309488841856,272446321
fw,-89.6539535522461,-55.7668914794921,55.77349164670008,56.548397961279235,272462988
fw,-88.8777847290039,-57.3159217834472,53.05136312101405,47.973058076978454,272479655
fw,-88.0809249877929,-58.3413391113281,48.13106786649339,35.82500524142644,272496322
fw,-87.4395217895507,-58.7085304260253,40.5087285781238,22.915628128076285,272512989
fw,-86.9416809082031,-58.474323272705,29.9145107947314,12.01648535142431,272529656
fw,-86.5893020629882,-57.9454078674316,16.369324894631127,5.23545379155876,272546323
fw,-86.5254287719726,-57.6682357788085,0.19809832919562337,3.5626375580145955,272562990
fw,-86.828125,-57.7777099609375,-18.001736264515923,6.7576201413183465,272579657
fw,-87.3372192382812,-58.8125381469726,-37.43606248588914,13.621968795752496,272596324
fw,-88.0919723510742,-60.2859344482421,-57.227569653198124,22.532894739830517,272612991
fw,-88.6460723876953,-60.7264289855957,-76.54944679403503,31.995925913233126,272629658
fw,-87.3442153930664,-60.7503471374511,-94.74868294344923,40.98512831044436,272646325
fw,-85.1009979248046,-61.3333168029785,-111.42025237729429,48.980431452484346,272662992
fw,-82.5888214111328,-62.3432846069335,-126.40217053208721,55.786958942047704,272679659
fw,-79.5648345947265,-63.6423988342285,-139.6897400501031,61.31198623112833,272696326
fw,-76.3840713500976,-65.1099319458007,-151.2989709727735,65.44160611658448,272712993
fw,-73.5788040161132,-66.6196670532226,-161.12459888918863,68.05587777638613,272729660
fw,-70.9938430786132,-67.9803314208984,-168.83641502638577,69.1281037647559,272746327
fw,-68.3218536376953,-69.2743148803711,-173.84870578558053,68.81709774108207,272762994
fw,-65.4478607177734,-70.3832397460937,-175.38114513398332,67.48315127630094,272779661
fw,-62.6134986877441,-71.3961563110351,-172.6007727005417,65.61294645938185,272796328
fw,-59.9256553649902,-72.4799499511718,-164.80461755946868,63.691703638872596,272812995
fw,-57.5458793640136,-73.6994323730468,-151.59205596344637,62.08616873152843,272829662
fw,-55.5411796569824,-74.9979629516601,-132.9919134329811,60.99070140441379,272846329
fw,-53.8666343688964,-76.2339859008789,-109.5362900248485,60.4514330928344,272862996
fw,-52.5671768188476,-77.3734741210937,-82.28844327940412,60.44380320945752,272879663
fw,-51.5883865356445,-78.4080123901367,-52.82457299355821,60.95810366599497,272896330
fw,-51.0645866394043,-79.3987503051757,-23.147556146501966,62.05212272555128,272912997
fw,-51.2255325317382,-80.4447021484375,4.502021054238364,63.850090905430534,272929664
fw,-52.2185974121093,-81.5697174072265,27.952393742965633,66.48826597271602,272946331
fw,-54.3057632446289,-82.7576065063476,45.48247613469306,70.0210654229972,272962998
fw,-55.93111038208,-84.0209579467773,56.17009111650409,74.30845087463545,272979665
fw,-57.1981964111328,-85.3253021240234,60.074122783740094,78.91035874508835,272996332
fw,-58.257511138916,-86.5889511108398,58.17333367413553,83.01957195738291,273012999
fw,-59.4166755676269,-87.8258895874023,52.090701033789436,85.46697413741126,273029666
fw,-60.3379516601562,-88.9189987182617,43.71528928630682,84.8254521143118,273046333
fw,-60.8562431335449,-88.6906051635742,34.847231023043356,79.61575268743113,273063000
fw,-61.287124633789,-87.5062866210937,26.951340897412805,68.58346334539186,273079667
fw,-61.8773078918457,-86.5902709960937,21.050481743217286,50.98632775601344,273096334
fw,-62.1364250183105,-86.1719360351562,17.739913481595092,26.822625250009526,273113001
fw,-62.9313087463378,-86.0367202758789,17.26292767605788,-3.051848045198788,273129668
fw,-63.2819633483886,-86.1991958618164,19.57088875888744,-36.942946377226285,273146335
fw,-63.2712173461914,-86.6699829101562,24.31994258515196,-72.47706276538898,273163002
fw,-63.722297668457,-86.9697799682617,30.829827571395292,-106.8903048567635,273179669
fw,-64.8748321533203,-86.2713317871093,38.09641257647825,-137.4212922914832,273196336
fw,-66.3004531860351,-84.1148376464843,44.942368257774746,-161.75187181452523,273213003
fw,-67.7323608398437,-81.0823364257812,50.30098437409127,-178.40745650216584,273229670
fw,-68.9735031127929,-77.8153457641601,53.525195936038166,-187.01197189756368,273246337
fw,-70.032974243164,-74.5166320800781,54.577149608509295,-188.31064282967182,273263004
fw,-71.0670089721679,-71.4391860961914,54.005166897108694,-183.93205995191457,273279671
fw,-72.0849838256836,-68.7608871459961,52.71575316195384,-175.94156943149656,273296338
fw,-73.0436782836914,-66.506103515625,51.63873973683218,-166.30884959926632,273313005
fw,-74.1561660766601,-64.3072433471679,51.4212227498589,-156.4440314711513,273329672
fw,-75.4443893432617,-61.9555892944335,52.26103582198467,-146.9338729677985,273346339
fw,-76.7429733276367,-59.5539093017578,53.92266525669202,-137.53850676281618,273363006
fw,-77.9095077514648,-57.3092956542968,55.90324515558384,-127.42003140899091,273379673
fw,-78.9686660766601,-55.2654876708984,57.666900110609376,-115.50740861472725,273396340
fw,-80.048828125,-53.4985313415527,58.856372212886264,-100.88257205046858,273413007
fw,-81.1601104736328,-52.0967674255371,59.413135364577904,-83.09422476725923,273429674
fw,-82.2215118408203,-51.0814933776855,59.573792238273974,-62.343719101252866,273446341
fw,-83.2896881103515,-50.4539680480957,59.7494773226996,-39.52100940001075,273463008
fw,-84.3989868164062,-50.2274551391601,60.329756155407644,-16.092087296903276,273479675
fw,-85.4876861572265,-50.6807556152343,61.47578720237834,6.14198611612578,273496342
fw,-86.5724029541015,-51.4459381103515,62.9716218084613,25.37289299028001,273513009
fw,-87.6808319091796,-52.4462699890136,64.18532452994235,40.134236625875026,273529676
fw,-88.7251281738281,-53.4574851989746,64.15871615773439,49.59128190710773,273546343
fw,-89.298355102539,-54.4712867736816,61.806479175206164,53.69711430561126,273563010
fw,-88.6146469116211,-55.4073791503906,56.173287841032334,53.17349109063845,273579677
fw,-87.7047576904296,-56.3478813171386,46.679727077763786,49.323392519246504,273596344
fw,-86.9259796142578,-57.2001762390136,33.28795101399795,43.72958241708761,273613011
fw,-86.5863723754882,-57.8569831848144,16.53724135897544,37.922099607403474,273629678
fw,-86.731460571289,-58.3492202758789,-2.5641554314505752,33.1000952238446,273646345
fw,-87.1619338989257,-58.6932373046875,-22.76002406896368,29.97442897913994,273663012
fw,-87.805191040039,-59.0413169860839,-42.813195134753386,28.76440487376279,273679679
fw,-88.1738357543945,-59.8775520324707,-61.740932832598816,29.336422069729625,273696346
fw,-87.6048583984375,-61.0225791931152,-78.95877563096079,31.41730760914704,273713013
fw,-86.1759262084961,-61.5647354125976,-94.30728177370933,34.774210377935276,273729680
fw,-84.1619186401367,-61.724323272705,-107.97001055016531,39.266536747106095,273746347
fw,-81.784553527832,-62.3544578552246,-120.31358811823826,44.75651036154738,273763014
fw,-79.0524749755859,-63.3425483703613,-131.69124947984133,50.96256475108421,273779681
fw,-76.0001144409179,-64.624526977539,-142.2545091602699,57.375996281385135,273796348
fw,-73.1680603027343,-66.1298904418945,-151.81650504388287,63.31027159651381,273813015
fw,-70.7408370971679,-67.614990234375,-159.8048494952595,68.06160848224738,273829682
fw,-68.3279342651367,-68.9813003540039,-165.32854367714484,71.09610970384556,273846349
fw,-65.6779708862304,-70.2359313964843,-167.35640976571082,72.17544408548335,273863016
fw,-62.8685455322265,-71.3571624755859,-164.96310667003513,71.37846168295823,273879683
fw,-60.2477073669433,-72.4969482421875,-157.5623450898686,69.03476523618318,273896350
fw,-58.0652694702148,-73.7661743164062,-145.04604805402113,65.62357117951116,273913017
fw,-56.2234992980957,-75.1294555664062,-127.7935401389684,61.69089540138514,273929684
fw,-54.7094078063964,-76.4760208129882,-106.58005849925573,57.807102966562006,273946351
fw,-53.4840049743652,-77.6655044555664,-82.45606084437068,54.548560199795865,273963018
fw,-52.6135101318359,-78.6333084106445,-56.66339525787159,52.466864225380775,273979685
fw,-52.0897903442382,-79.4159317016601,-30.6092390389904,52.018812732607515,273996352
fw,-51.9444351196289,-80.1590118408203,-5.8616846599865635,53.46170804775123,274013019
fw,-52.1464576721191,-80.9874496459961,15.907375031746922,56.75013030976933,274029686
fw,-53.338035583496,-81.9529190063476,33.10024068569459,61.481897564644704,274046353
fw,-55.3987159729003,-83.0829544067382,44.498083154868986,66.92625224649632,274063020
fw,-57.2383117675781,-84.3994369506836,49.60158393721564,72.13514861486098,274079687
fw,-58.5772399902343,-85.83251953125,48.84943811389501,76.10488810460748,274096354
fw,-59.3885078430175,-87.2199783325195,43.580999953590194,77.93484767282186,274113021
fw,-60.067771911621,-88.3920974731445,35.72304429778324,76.93113148591797,274129688
fw,-60.4026489257812,-88.7766723632812,27.31013146235639,72.62603186107441,274146355
fw,-60.5065765380859,-88.2921142578125,20.015783694780826,64.72122991609133,274163022
fw,-60.9157791137695,-87.7335891723632,14.854064282894187,52.9996577957441,274179689
fw,-61.4026451110839,-87.3305435180664,12.132774844053234,37.2719163669391,274196356
fw,-61.7942504882812,-86.9861068725586,11.638142092359551,17.41497261029263,274213023
fw,-62.4424591064453,-86.6838302612304,12.941593298293268,-6.480223911500812,274229690
fw,-62.9880332946777,-86.5065460205078,15.674595554825746,-33.89684083348229,274246357
fw,-63.0569610595703,-86.4987640380859,19.642258192070603,-63.71295027078521,274263024
fw,-63.1418952941894,-86.3920211791992,24.740056916431072,-94.16409810738249,274279691
fw,-63.7405624389648,-85.6145629882812,30.7575261723647,-123.01599834463275,274296358
fw,-64.8693466186523,-83.703254699707,37.22375052255949,-147.93703997515647,274313025
fw,-66.3858413696289,-80.9297256469726,43.419899914422615,-166.97692240300458,274329692
fw,-67.6548767089843,-77.7495956420898,48.573303443445845,-179.00435321112934,274346359
fw,-68.9079360961914,-74.4556274414062,52.13332685365234,-183.9562238800182,274363026
fw,-70.1833877563476,-71.3618240356445,53.98301295374352,-182.80569755881882,274379693
fw,-71.3888244628906,-68.6911087036132,54.47801198172151,-177.24824290307765,274396360
fw,-72.3736801147461,-66.3425369262695,54.29248481627244,-169.199748179361,274413027
fw,-73.3115997314453,-64.1315231323242,54.14296370175028,-160.2642657551199,274429694
fw,-74.5192337036132,-61.9350204467773,54.51516180847043,-151.33578244286318,274446361
fw,-75.8717880249023,-59.6913337707519,55.51076719823147,-142.44594192746254,274463028
fw,-77.1336059570312,-57.4945373535156,56.86692941995756,-132.88156031858304,274479695
fw,-78.2686767578125,-55.4048919677734,58.11955331207651,-121.51042670949757,274496362
fw,-79.4061508178711,-53.5290794372558,58.82740348046295,-107.20252136041621,274513029
fw,-80.5197372436523,-52.0154876708984,58.764881118697936,-89.22629233675065,274529696
fw,-81.5420455932617,-50.8947448730468,58.01604976392444,-67.5263990492962,274546363
fw,-82.5153884887695,-50.2368087768554,56.94295087772509,-42.83253207677818,274563030
fw,-83.4904861450195,-50.1040000915527,56.04437765407756,-16.59282112691155,274579697
fw,-84.4833145141601,-50.7673950195312,55.756035719998316,9.238913233405688,274596364
fw,-85.487075805664,-51.5850868225097,56.25926803028827,32.50901845858333,274613031
fw,-86.5109786987304,-52.439525604248,57.359202993166775,51.20172054779168,274629698
fw,-87.5880889892578,-53.3607482910156,58.46891663334016,63.75639083287079,274646365
fw,-88.6677856445312,-54.5716476440429,58.703869757954216,69.32919992949049,274663032
fw,-89.6573638916015,-55.9273490905761,57.06074018925621,67.97204300208573,274679699
fw,-89.1800460815429,-57.536033630371,52.634159452943244,60.69375735876045,274696366
fw,-88.3046569824218,-58.8432960510253,44.817049951712235,49.36003479485063,274713033
fw,-87.6598281860351,-59.6910324096679,33.43557439702866,36.40434203401628,274729700
fw,-87.2996292114257,-59.9107933044433,18.787097640368724,24.374948084614438,274746367
fw,-87.2916641235351,-59.7654266357421,1.5756938230396562,15.417303699549642,274763034
fw,-87.660415649414,-59.4302062988281,-17.232629792359642,10.846542229729986,274779701
fw,-88.2092132568359,-59.2643241882324,-36.59318804023791,10.959222549165432,274796368
fw,-88.6547698974609,-60.2991561889648,-55.55791600744933,15.149675855378682,274813035
fw,-88.1978912353515,-61.6179389953613,-73.40652146088311,22.262996915933808,274829702
fw,-86.7199249267578,-61.8395690917968,-89.71466342045011,31.008230614308808,274846369
fw,-84.6627807617187,-61.9115524291992,-104.35535735353103,40.25136760064089,274863036
fw,-82.139778137207,-62.720645904541,-117.43885488156283,49.11699461465136,274879703
fw,-79.1512069702148,-63.843650817871,-129.20188763250255,56.95971120017338,274896370
fw,-76.0206451416015,-65.2204284667968,-139.8630601767059,63.317234118003,274913037
fw,-73.2498168945312,-66.7574005126953,-149.4693387936624,67.91032692731002,274929704
fw,-70.7144088745117,-68.205581665039,-157.76859934721983,70.67682384896275,274946371
fw,-68.3136978149414,-69.4984970092773,-164.14953910780716,71.78524407790641,274963038
fw,-65.7627868652343,-70.6422042846679,-167.6830682489932,71.58642441938673,274979705
fw,-63.0685729980468,-71.7036514282226,-167.27330551056215,70.50678808554485,274996372
fw,-60.4179077148437,-72.8565368652343,-161.8892682874582,68.92801027116583,275013039
fw,-58.0319099426269,-74.1775741577148,-150.81878441208997,67.1087876465808,275029706
fw,-56.014102935791,-75.579849243164,-133.88074895238742,65.18169129516971,275046373
fw,-54.3158416748046,-76.945930480957,-111.55170461748853,63.21824405869589,275063040
fw,-53.0001907348632,-78.1208953857421,-84.99152706307555,61.322207820697756,275079707
fw,-52.126407623291,-79.1265182495117,-55.97161685800655,59.701351715549734,275096374
fw,-51.6060028076171,-80.0686721801757,-26.71180060868724,58.682847885507925,275113041
fw,-51.5108757019043,-81.0055999755859,0.37132793677427,58.66404379658578,275129708
fw,-52.1675109863281,-82.0203857421875,22.99655447176688,60.01248364810971,275146375
fw,-53.4888610839843,-83.1162185668945,39.397687187134025,62.93867994562409,275163042
fw,-55.6154632568359,-84.2688293457031,48.675957985245574,67.36566204355894,275179709
fw,-57.2897338867187,-85.4608535766601,51.01578203046645,72.81932400562157,275196376
fw,-58.3880081176757,-86.6258926391601,47.66390005582063,78.36789214106354,275213043
fw,-59.4198684692382,-87.7239379882812,40.643122283300066,82.64374883629594,275229710
fw,-60.0291862487793,-88.7280502319336,32.27502173806024,83.97604955050728,275246377
fw,-60.2417984008789,-88.6007232666015,24.661956144071173,80.6388006668142,275263044
fw,-60.087905883789,-87.3839416503906,19.28876210480109,71.17846712147957,275279711
fw,-60.5400581359863,-86.3383102416992,16.850111586571263,54.74610959052362,275296378
fw,-60.8869514465332,-85.7961654663086,17.31842153803048,31.346107468005158,275313045
fw,-61.1671981811523,-85.7524108886718,20.179004076612564,1.9366907430697515,275329712
fw,-62.0671806335449,-86.0555801391601,24.712017844201753,-31.63861436697853,275346379
fw,-62.6629371643066,-86.7674179077148,30.20938436978876,-66.87172305962191,275363046
fw,-62.8583679199218,-87.6977767944336,36.0674749808334,-100.92735682942437,275379713
fw,-63.6338539123535,-87.4247360229492,41.7703082070972,-131.0532492294131,275396380
fw,-64.8321533203125,-85.4246139526367,46.83922035441732,-155.00742796653344,275413047
fw,-66.0600662231445,-82.3864517211914,50.83333325241677,-171.42945477195738,275429714
fw,-67.3723754882812,-79.0394287109375,53.43195757877763,-180.07122001965607,275446381
fw,-68.6875457763671,-75.7516098022461,54.55641770172035,-181.81260857266554,275463048
fw,-69.9515914916992,-72.6380004882812,54.448327809826104,-178.42762081339933,275479715
fw,-71.1707000732421,-69.900650024414,53.63763509000293,-172.1327905769408,275496382
fw,-72.2777938842773,-67.5582046508789,52.792709029835656,-165.02044787349848,275513049
fw,-73.3491668701171,-65.4330520629882,52.50961108310996,-158.52617660777383,275529716
fw,-74.5218429565429,-63.2061691284179,53.13099708610507,-153.08144141880052,275546383
fw,-75.8517684936523,-60.7785148620605,54.66990690573785,-148.05263150827082,275563050
fw,-77.2108383178711,-58.3037528991699,56.86126063727087,-141.98075027649432,275579717
fw,-78.4608383178711,-55.9789657592773,59.30481133583745,-133.04506137070774,275596384
fw,-79.6235046386718,-53.9223480224609,61.62869240337125,-119.61585885074942,275613051
fw,-80.7789993286132,-52.2546195983886,63.60562387787355,-100.75338258686605,275629718
fw,-81.9180679321289,-51.0262870788574,65.184206831516,-76.54188827646342,275646385
fw,-83.0214385986328,-50.2382698059082,66.43492100198507,-48.196437988995335,275663052
fw,-84.141616821289,-49.8785324096679,67.43964270864244,-17.926604991617,275679719
fw,-85.3293228149414,-50.2446708679199,68.16954823689287,11.41860764207317,275696386
fw,-86.5811004638671,-51.3120231628418,68.39781113584245,36.86179852633738,275713053
fw,-87.8043823242187,-52.6028785705566,67.68053855445373,55.86339365202174,275729720
fw,-88.8994445800781,-53.6422691345214,65.41600541413395,66.81874700905936,275746387
fw,-89.184585571289,-54.815689086914,60.966842751917014,69.37217221757159,275763054
fw,-88.4157638549804,-56.0662231445312,53.81096232294901,64.47991056029979,275779721
fw,-87.6474914550781,-57.5106925964355,43.67967556741217,54.21278094592784,275796388
fw,-87.0510482788086,-58.4698295593261,30.646395707513957,41.337942318329574,275813055
fw,-86.7646942138671,-58.8523750305175,15.143608595448404,28.757244958426995,275829722
fw,-86.8292388916015,-58.7169647216796,-2.0954513463362114,18.917573009942,275846389
fw,-87.1570434570312,-58.4669456481933,-20.15608425315312,13.339916752312941,275863056
fw,-87.7324676513671,-58.4457664489746,-38.09582469531224,12.408769352445908,275879723
fw,-88.3829879760742,-59.0151710510253,-55.10208029514489,15.494236946326952,275896390
fw,-88.4914321899414,-60.4015769958496,-70.62513168354687,21.354554756414483,275913057
fw,-87.2047424316406,-61.2921180725097,-84.45988615904476,28.643737597293647,275929724
fw,-85.2490234375,-61.4518699645996,-96.75080948677562,36.307419505012106,275946391
fw,-82.9925231933593,-61.8352813720703,-107.90315737410762,43.72915153114894,275963058
fw,-80.5463256835937,-62.7709884643554,-118.40861415061329,50.63981637298462,275979725
fw,-77.6647109985351,-63.764720916748,-128.62738600692256,56.91839468306085,275996392
fw,-74.7666702270507,-64.9741439819336,-138.59042089829228,62.42698980831022,276013059
fw,-72.3491592407226,-66.4339294433593,-147.88245906046342,66.95736033686019,276029726
fw,-70.1237487792968,-67.9151229858398,-155.64680713351873,70.2825523398695,276046393
fw,-67.7016448974609,-69.3659896850586,-160.72553695517308,72.25212866601707,276063060
fw,-64.9971542358398,-70.6558837890625,-161.91136666531267,72.86042201341742,276079727
fw,-62.3289794921875,-71.7412719726562,-158.24261405491808,72.24910740636967,276096394
fw,-59.983959197998,-72.8392715454101,-149.2460390847033,70.65480648054044,276113061
fw,-58.0403785705566,-74.1077117919921,-135.05120181473592,68.34788660656552,276129728
fw,-56.337417602539,-75.5380249023437,-116.35806178873304,65.60812447331703,276146395
fw,-54.8914070129394,-76.9631195068359,-94.29873957532637,62.74824374619345,276163062
fw,-53.7903022766113,-78.1816482543945,-70.26011055266363,60.153264762828776,276179729
fw,-53.1472587585449,-79.1636810302734,-45.72264046477311,58.28423118500433,276196396
fw,-52.8298072814941,-80.0469512939453,-22.142198711767442,57.61319094054199,276213063
fw,-52.7828674316406,-80.9191360473632,-0.8727610840535102,58.49800985785866,276229730
fw,-53.0689811706543,-81.879409790039,16.89600008756788,61.04169827745573,276246397
fw,-53.6208839416503,-82.9723129272461,30.226101065396,64.99109735366561,276263064
fw,-55.3166465759277,-84.2073898315429,38.571534553936914,69.71380534233363,276279731
fw,-57.3719978332519,-85.5122756958007,41.94930528186969,74.26387634100375,276296398
fw,-58.822696685791,-86.7947235107421,41.052814564074424,77.52084795591956,276313065
fw,-59.4623832702636,-88.08154296875,37.19687747034756,78.37014822231993,276329732
fw,-59.9123420715332,-89.3960723876953,32.04843881452705,75.8844296212771,276346399
fw,-60.1965065002441,-88.7901763916015,27.215296165064238,69.46124003215431,276363066
fw,-60.6252937316894,-87.5982513427734,23.849503981853793,58.87602667223653,276379733
fw,-61.1933860778808,-87.0058517456054,22.417488253209264,44.23208634126823,276396400
fw,-61.8561820983886,-87.0170516967773,22.71272245634718,25.8352889346746,276413067
fw,-62.6556701660156,-87.3228530883789,24.090021299486367,4.071210564593529,276429734
fw,-63.7689361572265,-87.6133728027343,25.819036948810414,-20.62414562058849,276446401
fw,-64.4062881469726,-87.8782806396484,27.40784952419805,-47.65812952620904,276463068
fw,-64.5406341552734,-88.197021484375,28.758352986639242,-76.09120215622035,276479735
fw,-64.7144317626953,-88.1143569946289,30.09707274894982,-104.49288247211818,276496402
fw,-65.4341354370117,-86.7509231567382,31.745610933543237,-130.98127821138476,276513069
fw,-66.5425415039062,-84.0906372070312,33.87868193964349,-153.50591407709751,276529736
fw,-67.9178161621093,-80.7647552490234,36.407947980082994,-170.30973130761924,276546403
fw,-69.1142883300781,-77.2618179321289,39.03993576536772,-180.40223970831187,276563070
fw,-70.1841201782226,-73.905158996582,41.452700021263205,-183.8479245647608,276579737
fw,-71.3509292602539,-70.8952560424804,43.47983314276118,-181.7378319737545,276596404
fw,-72.4779663085937,-68.3061141967773,45.20028449091368,-175.83620711519657,276613071
fw,-73.3164596557617,-66.0983657836914,46.890076604804676,-168.02036146596555,276629738
fw,-74.1772766113281,-63.9946174621582,48.86610145330634,-159.7082307435957,276646405
fw,-75.3582687377929,-61.7715950012207,51.30858587414874,-151.4678063087869,276663072
fw,-76.7283859252929,-59.419319152832,54.15681332055276,-142.930348844499,276679739
fw,-77.992935180664,-57.0995635986328,57.12656894805861,-133.01713244766742,276696406
fw,-79.1080474853515,-54.9267349243164,59.83009240590129,-120.38428994122545,276713073
fw,-80.1765899658203,-53.0910034179687,61.93489585657292,-103.93175757114385,276729740
fw,-81.3622283935546,-51.7019309997558,63.293862683696574,-83.22400101175198,276746407
fw,-82.6538009643554,-50.8347702026367,63.999995271184275,-58.718303066069915,276763074
fw,-83.8825912475586,-50.4904823303222,64.34502620848924,-31.763207263163505,276779741
fw,-84.9946899414062,-50.5345764160156,64.68770325490875,-4.3895595981941335,276796408
fw,-86.0719528198242,-51.0389404296875,65.26792204440873,21.044489242044087,276813075
fw,-87.1624145507812,-52.1463546752929,66.02984977787641,42.27549716569646,276829742
fw,-88.2881088256836,-53.2388038635253,66.52409504877396,57.5413913770639,276846409
fw,-89.4677124023437,-54.1707382202148,65.93645320767085,65.89751328712464,276863076
fw,-89.2723388671875,-55.3027114868164,63.247052913068444,67.38515629199804,276879743
fw,-88.1195602416992,-56.603458404541,57.478411588754426,63.02181444429569,276896410
fw,-87.2189178466796,-57.9475173950195,47.96211759481907,54.60810977922714,276913077
fw,-86.5900421142578,-58.8130798339843,34.55006990624144,44.37268224568653,276929744
fw,-86.2562408447265,-59.1497039794921,17.714067374477892,34.51399878967149,276946411
fw,-86.1533126831054,-59.1341476440429,-1.4943877705745832,26.746032865015177,276963078
fw,-86.1998672485351,-59.093391418457,-21.624341932126033,21.986082477729724,276979745
fw,-86.9131393432617,-59.3790283203125,-41.11938614166216,20.300803796452573,276996412
fw,-88.3056945800781,-60.2065887451171,-58.66765178245417,21.136162940375193,277013079
fw,-89.4111633300781,-61.3637657165527,-73.51561966467615,23.72799828681453,277029746
fw,-87.7934494018554,-61.9148750305175,-85.63806965024706,27.492695476470914,277046413
fw,-85.8909149169921,-61.9779891967773,-95.68796680374395,32.20521581850183,277063080
fw,-83.8909301757812,-62.4283256530761,-104.72932335505229,37.89768271443545,277079747
fw,-81.3298416137695,-63.2126312255859,-113.84383552096756,44.57879982392777,277096414
fw,-78.3676834106445,-64.2598037719726,-123.74715375340328,51.96897472796141,277113081
fw,-75.5122985839843,-65.6556854248046,-134.53230945215986,59.41391699435014,277129748
fw,-72.9068298339843,-67.1707382202148,-145.59881682201015,66.02030678624378,277146415
fw,-70.4900207519531,-68.6532745361328,-155.76432509948432,70.9344551091786,277163082
fw,-67.9712295532226,-70.1020050048828,-163.51204511000896,73.62251161345007,277179749
fw,-65.2566528320312,-71.3631286621093,-167.30295159086054,74.02677354465473,277196416
fw,-62.612693786621,-72.405044555664,-165.87577865293542,72.54509963538169,277213083
fw,-60.227611541748,-73.4985427856445,-158.4716599119112,69.86651539665448,277229750
fw,-58.1311531066894,-74.7580413818359,-144.9510613583743,66.7532966095535,277246417
fw,-56.2663803100585,-76.1004486083984,-125.80617099766027,63.8640212457449,277263084
fw,-54.6354789733886,-77.4115753173828,-102.09550644095835,61.66919061128912,277279751
fw,-53.4075012207031,-78.5677719116211,-75.33046843079697,60.453079955079616,277296418
fw,-52.6407737731933,-79.5861129760742,-47.332505733084545,60.358000704869255,277313085
fw,-52.3221282958984,-80.546142578125,-20.06855816620819,61.42484392955979,277329752
fw,-52.5539894104003,-81.5738754272461,4.531387275533336,63.60555424731394,277346419
fw,-53.0203094482421,-82.7134246826171,24.770406183942203,66.74728102078606,277363086
fw,-54.1609458923339,-83.9507522583007,39.387751561525846,70.5604647554938,277379753
fw,-55.9308738708496,-85.2028579711914,47.75117905781009,74.58487244956135,277396420
fw,-57.7816047668457,-86.4102935791015,49.99596183487351,78.16721874484287,277413087
fw,-59.0211868286132,-87.5056610107421,47.046480883396875,80.46655869918077,277429754
fw,-59.6171760559082,-88.402717590332,40.47111913228527,80.5053662017517,277446421
fw,-60.2244758605957,-88.6032409667968,32.18239077111889,77.27661707716639,277463088
fw,-60.5972824096679,-87.6967544555664,24.06406624342114,69.89651747241808,277479755
fw,-60.5642929077148,-86.6899185180664,17.6357494019914,57.76752263995877,277496422
fw,-60.7468147277832,-86.0999145507812,13.842651193868582,40.70556471490714,277513089
fw,-60.8008346557617,-85.9385223388671,13.009629849455642,19.001068380524924,277529756
fw,-61.3607139587402,-86.0866394042968,14.94456952490991,-6.584883425247856,277546423
fw,-62.0104217529296,-86.4803009033203,19.12587212319284,-34.86683256816067,277563090
fw,-62.3252868652343,-87.1079483032226,24.88346862441438,-64.30833522027979,277579757
fw,-62.7338409423828,-87.8562545776367,31.50809147404473,-93.13190069523039,277596424
fw,-63.5638122558593,-87.7624435424804,38.28917925631523,-119.48930453665857,277613091
fw,-64.7217636108398,-86.0772857666015,44.53544252664521,-141.70048387399757,277629758
fw,-65.9110260009765,-83.3863372802734,49.631443952649356,-158.52862073384046,277646425
fw,-67.1494140625,-80.2512512207031,53.13830598826791,-169.41782593809788,277663092
fw,-68.3927612304687,-76.9825973510742,54.8996471431509,-174.6050319955772,277679759
fw,-69.6673355102539,-73.8485488891601,55.096620971633364,-175.04364023635517,277696426
fw,-70.9582595825195,-71.0895233154296,54.21235629571243,-172.13712102896966,277713093
fw,-72.1202316284179,-68.5800704956054,52.90298739658554,-167.35159920128459,277729760
fw,-73.1839065551757,-66.1822357177734,51.81214953678737,-161.82550865274786,277746427
fw,-74.3008575439453,-63.8202171325683,51.391905944535985,-156.0980186926753,277763094
fw,-75.4943008422851,-61.4114875793457,51.793895831663015,-150.03376474963468,277779761
fw,-76.6798324584961,-58.9755630493164,52.868163079581564,-142.9502402618423,277796428
fw,-77.8434906005859,-56.6938667297363,54.26504240126024,-133.88795249130686,277813095
fw,-78.9570922851562,-54.6478385925293,55.597126894236,-121.92799130240415,277829762
fw,-80.0377044677734,-52.9365348815918,56.599338709505545,-106.46562505100717,277846429
fw,-81.0853958129882,-51.6244392395019,57.22987576370823,-87.3822842600413,277863096
fw,-82.0792999267578,-50.7376098632812,57.678220172799534,-65.10182450154728,277879763
fw,-83.0483932495117,-50.2490005493164,58.27864792146693,-40.551302682043854,277896430
fw,-84.0938873291015,-50.1712303161621,59.35752374832077,-15.061321919595253,277913097
fw,-85.1939697265625,-50.3767738342285,61.06087290041128,9.763986450032789,277929764
fw,-86.2705993652343,-51.0396118164062,63.2123255117015,32.19445882497259,277946431
fw,-87.3210220336914,-51.8197937011718,65.24424567207738,50.543729368226636,277963098
fw,-88.3930740356445,-52.676284790039,66.2310746439697,63.37350097597136,277979765
fw,-89.4105072021484,-53.9369010925293,65.03326938192426,69.73324447864222,277996432
fw,-88.9584579467773,-55.6103019714355,60.53119957800648,69.40400374392098,278013099
fw,-87.9459533691406,-57.2268524169921,51.89684009027286,63.071974292698684,278029766
fw,-87.1452865600586,-58.4506568908691,38.83101289071312,52.334767282454244,278046433
fw,-86.7027740478515,-59.1055603027343,21.697207924945808,39.47499970152189,278063100
fw,-86.6485290527343,-59.2620429992675,1.5096647658375488,27.023127221771443,278079767
fw,-86.9592132568359,-59.2488174438476,-20.227925002926476,17.229641215985982,278096434
fw,-87.6091918945312,-59.208984375,-41.80019958051166,11.61710434591285,278113101
fw,-88.5077362060546,-59.2456359863281,-61.61596136964783,10.754586671238284,278129768
fw,-88.9766464233398,-60.1071815490722,-78.53005626170919,14.304568735971102,278146435
fw,-87.2331771850586,-60.739574432373,-92.0749886126021,21.281965206117516,278163102
fw,-84.960952758789,-60.8988151550293,-102.53339023239481,30.39487180724996,278179769
fw,-82.7142791748046,-61.383689880371,-110.81227418812377,40.34397293544516,278196436
fw,-80.0609893798828,-62.6069831848144,-118.13702982404723,50.02325325290976,278213103
fw,-76.9032974243164,-63.8782119750976,-125.64784836990543,58.62608409143038,278229770
fw,-73.8907318115234,-65.1370010375976,-134.01871543096115,65.67783249467757,278246437
fw,-71.3381576538086,-66.4575042724609,-143.21114382887507,71.0065511913215,278263104
fw,-68.9612884521484,-67.844123840332,-152.43105487029587,74.66153694256498,278279771
fw,-66.5506744384765,-69.2492218017578,-160.29539241290976,76.80154174332176,278296438
fw,-63.9577293395996,-70.5277481079101,-165.15109664798464,77.58578916229435,278313105
fw,-61.3142662048339,-71.7515563964843,-165.44489536882088,77.10262580168579,278329772
fw,-58.8574142456054,-73.0830001831054,-160.03949304750734,75.36176803257896,278346439
fw,-56.7106628417968,-74.5494308471679,-148.41046514004037,72.3565262122677,278363106
fw,-54.8866882324218,-76.0618438720703,-130.71372069313486,68.17436915785358,278379773
fw,-53.3751106262207,-77.4496841430664,-107.75466503650055,63.10799437684502,278396440
fw,-52.2207717895507,-78.5744400024414,-80.90029945277163,57.71004581578426,278413107
fw,-51.4659538269043,-79.4411926269531,-51.959074878215276,52.752183849189855,278429774
fw,-51.0477867126464,-80.1553344726562,-23.028961376321163,49.08793111346844,278446441
fw,-51.1127014160156,-80.8192367553711,3.69958484891812,47.459736409688176,278463108
fw,-51.9837989807128,-81.538101196289,26.192741950146576,48.31321910087096,278479775
fw,-53.0187683105468,-82.3999481201171,42.856477234167436,51.67577006552542,278496442
fw,-54.5963287353515,-83.4713897705078,52.8039641699438,57.12823568655539,278513109
fw,-56.3885078430175,-84.6869583129882,56.03626386287241,63.86295800130315,278529776
fw,-58.0910949707031,-85.9410781860351,53.46721151213649,70.79567899601048,278546443
fw,-59.1796836853027,-87.1548995971679,46.754302215980815,76.69281593654426,278563110
fw,-59.6942901611328,-88.3228683471679,37.9561510674981,80.28812757806404,278579777
fw,-60.130931854248,-89.0568466186523,29.10549290646525,80.38240917646287,278596444
fw,-60.4967002868652,-88.4484558105468,21.826112031204612,75.93362565999261,278613111
fw,-60.9615020751953,-87.4877548217773,17.10247720323851,66.14780379870851,278629778
fw,-61.3270606994628,-86.6992721557617,15.243729936627163,50.576636145616334,278646445
fw,-61.3890037536621,-86.2639846801757,16.012507064278722,29.220662387265087,278663112
fw,-61.9399681091308,-86.1144561767578,18.84608571398774,2.6271756782456275,278679779
fw,-62.6313591003418,-86.2635116577148,23.083449235001467,-28.042124731610446,278696446
fw,-63.0255088806152,-86.8013305664062,28.120638513158124,-61.01419084902654,278713113
fw,-63.3450050354003,-87.5996322631836,33.45489320388394,-94.0244739287948,278729780
fw,-64.1918487548828,-87.6929397583007,38.64283007217843,-124.58164305740547,278746447
fw,-65.4690628051757,-85.8700942993164,43.25122817455412,-150.3593377616818,278763114
fw,-66.7960662841796,-82.8355484008789,46.87564363140858,-169.63633021634644,278779781
fw,-68.0566711425781,-79.4055633544921,49.24140710288516,-181.6582626108525,278796448
fw,-69.4142608642578,-75.9501876831054,50.33079919707429,-186.78844651007591,278813115
fw,-70.637710571289,-72.7551803588867,50.4490375971947,-186.3672096848507,278829782
fw,-71.7617416381836,-69.9428634643554,50.1666186330847,-182.29559907727398,278846449
fw,-72.8111343383789,-67.5210800170898,50.13920403073196,-176.4614040635109,278863116
fw,-73.9053344726562,-65.2743530273437,50.87297190061743,-170.18955337533754,278879783
fw,-75.1739196777343,-62.8772735595703,52.53671956426955,-163.8961522309094,278896450
fw,-76.5123825073242,-60.2556838989257,54.90366859569068,-157.05391279199128,278913117
fw,-77.8276290893554,-57.6375160217285,57.44703892824164,-148.46463570904731,278929784
fw,-79.0627975463867,-55.2098503112793,59.546920732085105,-136.7300373813458,278946451
fw,-80.24169921875,-53.1605339050293,60.72392071618724,-120.75919500604644,278963118
fw,-81.368423461914,-51.5338516235351,60.810815103487194,-100.16308558937868,278979785
fw,-82.4022979736328,-50.3717613220214,60.000992981880756,-75.44455684056886,278996452
fw,-83.4104309082031,-49.6387252807617,58.7573770338084,-47.961660002656,279013119
fw,-84.3800201416015,-49.3973960876464,57.61314057197584,-19.69788623202737,279029786
fw,-85.3265533447265,-49.6269874572753,56.932708662013646,7.093646211552187,279046453
fw,-86.3152770996093,-50.612995147705,56.71690214919627,30.289325496342595,279063120
fw,-87.3784027099609,-51.6277389526367,56.523173085000096,48.25220244701668,279079787
fw,-88.4541473388671,-52.5761528015136,55.53331540385156,60.075062798465346,279096454
fw,-89.512222290039,-53.5595359802246,52.750104754998105,65.66994690968365,279113121
fw,-89.3586730957031,-54.8176460266113,47.260338126771025,65.70729906086024,279129788
fw,-88.5883331298828,-56.1136512756347,38.48115960323017,61.4396524415164,279146455
fw,-88.1157150268554,-57.1522521972656,26.316040199741394,54.454686301333616,279163122
fw,-87.9249114990234,-57.8583068847656,11.180900186628314,46.40116374863809,279179789
fw,-88.0608367919921,-58.2311477661132,-6.095818963906637,38.73417557582159,279196456
fw,-88.3780364990234,-58.5480880737304,-24.46058645946729,32.53271743638989,279213123
fw,-88.718391418457,-58.9777488708496,-42.85498739657075,28.436105880914184,279229790
fw,-88.3735809326171,-59.6453247070312,-60.41468161760546,26.71046080536206,279246457
fw,-87.0881881713867,-60.8221855163574,-76.60311502574851,27.397086480586903,279263124
fw,-85.2277145385742,-61.4432754516601,-91.25066222487285,30.444560119957753,279279791
fw,-83.1279067993164,-61.487247467041,-104.49055110672707,35.732680792759886,279296458
fw,-80.6126098632812,-62.0182876586914,-116.61033245773275,42.975230981534914,279313125
fw,-77.6853485107421,-62.932201385498,-127.8636460653235,51.58960670258047,279329792
fw,-74.7376022338867,-64.1737365722656,-138.29830870113122,60.661521569604204,279346459
fw,-72.2077865600586,-65.7280654907226,-147.64903850267123,69.07739928292462,279363126
fw,-69.8876876831054,-67.4073257446289,-155.3245429225779,75.79090868325905,279379793
fw,-67.46728515625,-69.0286483764648,-160.49600692145253,80.1084883033888,279396460
fw,-64.8587341308593,-70.5166091918945,-162.26599211118003,81.86673032960722,279413127
fw,-62.2307624816894,-71.7569046020507,-159.86720413371702,81.4298406069687,279429794
fw,-59.8178329467773,-72.9208602905273,-152.8267900013617,79.52174001280082,279446461
fw,-57.7215347290039,-74.2516403198242,-141.0491797123636,76.97747423221871,279463128
fw,-55.897834777832,-75.7872238159179,-124.81237557451873,74.51849591198311,279479795
fw,-54.2868766784668,-77.3654479980468,-104.71231916631092,72.62251518775639,279496462
fw,-52.9961853027343,-78.7772674560546,-81.60284621223472,71.49871938655745,279513129
fw,-52.0692977905273,-79.9776535034179,-56.561036017879196,71.1329508465168,279529796
fw,-51.6308135986328,-81.0948181152343,-30.875532701841962,71.35783591186635,279546463
fw,-51.5901412963867,-82.2402801513671,-6.028334273913893,71.92175954157858,279563130
fw,-52.0735206604003,-83.4408493041992,16.37070359613625,72.55175597865373,279579797
fw,-52.8998069763183,-84.7551803588867,34.73003468218865,73.00991672728144,279596464
fw,-54.3411674499511,-86.1563110351562,47.70950700490362,73.1323223726969,279613131
fw,-56.1424255371093,-87.502212524414,54.50231393031545,72.82936370712592,279629798
fw,-57.888557434082,-88.6012802124023,55.08211659370675,72.03169187692117,279646465
fw,-59.3178634643554,-89.2161560058593,50.313313938099846,70.59003235667267,279663132
fw,-60.2651443481445,-88.8329925537109,41.85246672157028,68.1672507592454,279679799
fw,-61.1040000915527,-87.929817199707,31.838404696449807,64.17662138770092,279696466
fw,-61.1414489746093,-86.9266815185546,22.44408481338413,57.80809192485755,279713133
fw,-60.9345626831054,-86.0354843139648,15.415095396818204,48.150649138161995,279729800
fw,-60.858959197998,-85.4473190307617,11.734765129655482,34.38438217730423,279746467
fw,-60.7877540588378,-85.195930480957,11.524561951188945,15.998127340981343,279763134
fw,-61.6553001403808,-85.2183685302734,14.203947477378998,-7.011320321665802,279779801
fw,-62.4514198303222,-85.5384063720703,18.820749338616963,-33.996972886954474,279796468
fw,-62.7590637207031,-86.2403717041015,24.388887086435698,-63.61434261986403,279813135
fw,-63.0876083374023,-87.3354568481445,30.095168402453027,-93.90735322481359,279829802
fw,-63.8130836486816,-88.271614074707,35.34505838521341,-122.55235665782354,279846469
fw,-64.9418869018554,-87.0608901977539,39.72094209833348,-147.2468904410936,279863136
fw,-66.2194519042968,-84.0227355957031,42.95056300024411,-166.17121002144887,279879803
fw,-67.4895935058593,-80.5218276977539,44.930759894425215,-178.39496532157813,279896470
fw,-68.6718673706054,-77.0660858154296,45.78084328915649,-184.08354314330302,279913137
fw,-69.8114166259765,-73.8576354980468,45.86428443083949,-184.40461078849273,279929804
fw,-70.9413833618164,-71.0262908935546,45.73141735016495,-181.13791951893975,279946471
fw,-71.9792175292968,-68.5418243408203,45.98047790111046,-176.10625542882622,279963138
fw,-72.9967880249023,-66.1578979492187,47.07966242419959,-170.61778821615852,279979805
fw,-74.071174621582,-63.6584091186523,49.21700378204501,-165.1066959028252,279996472
fw,-75.2573776245117,-60.9798622131347,52.238885544741144,-159.08253450788666,280013139
fw,-76.4986877441406,-58.2998466491699,55.70512668771802,-151.38422078724432,280029806
fw,-77.7284164428711,-55.8362197875976,59.04302813545036,-140.63210920036406,280046473
fw,-78.9346313476562,-53.7139129638671,61.74486048827182,-125.72205188505389,280063140
fw,-80.1576919555664,-51.9898834228515,63.53835784355446,-106.2182412675408,280079807
fw,-81.390151977539,-50.6731948852539,64.47052860894499,-82.555535747699,280096474
fw,-82.5641784667968,-49.7812461853027,64.87409676008637,-56.024165944843766,280113141
fw,-83.6739196777343,-49.3306732177734,65.2231914064824,-28.558444042735548,280129808
fw,-84.7923736572265,-49.3704795837402,65.92083518165278,-2.383070336064757,280146475
fw,-85.9491424560546,-50.1944160461425,67.0848632074575,20.406866238899884,280163142
fw,-87.120979309082,-51.3181419372558,68.40238194454042,38.23909094894939,280179809
fw,-88.2702560424804,-52.3700485229492,69.10457111567631,50.33432175881586,280196476
fw,-89.2930755615234,-53.3530158996582,68.0809652676339,56.78324370777444,280213143
fw,-89.1800460815429,-54.1587791442871,64.11545646443655,58.41836628089639,280229810
fw,-88.1577224731445,-54.9772033691406,56.19249205813273,56.53747553098296,280246477
fw,-87.2068405151367,-56.0975685119628,43.79655163875601,52.579427259258445,280263144
fw,-86.5224456787109,-57.0322074890136,27.117818772869274,47.850657538080824,280279811
fw,-86.1621170043945,-57.8413429260253,7.090202242326125,43.35967824444798,280296478
fw,-86.3098602294921,-58.5089988708496,-14.771652016160985,39.76711563034018,280313145
fw,-87.1173095703125,-58.850715637207,-36.708165929359815,37.427771602600494,280329812
fw,-88.1990890502929,-59.3844375610351,-57.13056531113025,36.49139785072943,280346479
fw,-88.277961730957,-60.6554336547851,-74.98294119183235,37.022065760239194,280363146
fw,-86.7999877929687,-61.6138458251953,-89.92601227628323,39.08146173344884,280379813
fw,-84.9180908203125,-61.9225425720214,-102.28232177548534,42.7205531217308,280396480
fw,-82.984016418457,-62.4262962341308,-112.77657359473783,47.86953820452547,280413147
fw,-80.4654998779296,-63.4664001464843,-122.18175346981056,54.19493991296139,280429814
fw,-77.6576461791992,-64.7805709838867,-131.0024998408556,61.03744182073999,280446481
fw,-75.0352172851562,-66.348892211914,-139.28882261552366,67.50442289812872,280463148
fw,-72.654052734375,-67.9467697143554,-146.610760182088,72.69452151832706,280479815
fw,-70.3222732543945,-69.4337768554687,-152.17607515672833,75.95178696700539,280496482
fw,-67.7955322265625,-70.8109664916992,-155.04585637643817,77.03389242865352,280513149
fw,-65.0720291137695,-71.9980316162109,-154.38331358706827,76.12959161589822,280529816
fw,-62.5077285766601,-73.1087875366211,-149.6581034870967,73.73733893760162,280546483
fw,-60.3503761291503,-74.3669891357421,-140.7401816775368,70.47641106199309,280563150
fw,-58.532657623291,-75.7282791137695,-127.86426577828671,66.91676628934108,280579817
fw,-56.9202461242675,-77.0626831054687,-111.50954793262378,63.48434877887204,280596484
fw,-55.4938621520996,-78.2570266723632,-92.27960266014871,60.44937158947013,280613151
fw,-54.3316001892089,-79.2718353271484,-70.85704444471902,57.967731262022674,280629818
fw,-53.4847145080566,-80.2063980102539,-48.053765657025174,56.136236460171865,280646485
fw,-52.9633026123046,-81.1190948486328,-24.913509353620828,55.03442397349742,280663152
fw,-52.8716659545898,-82.08349609375,-2.781839441866881,54.74223457343948,280679819
fw,-53.2386665344238,-83.0797271728515,16.743901184673902,55.331998540184344,280696486
fw,-54.0818328857421,-84.0925674438476,32.033562137775064,56.83516264077883,280713153
fw,-55.9749374389648,-85.1347045898437,41.78944380814511,59.18592522129119,280729820
fw,-58.0826263427734,-86.161865234375,45.44984492310506,62.15064901851934,280746487
fw,-59.6578979492187,-87.1385116577148,43.462576814650404,65.26267008544755,280763154
fw,-60.2249870300293,-88.1365966796875,37.27516195155685,67.7907244117408,280779821
fw,-60.4544372558593,-89.2667160034179,28.997932592421087,68.76758683636872,280796488
fw,-60.6052665710449,-89.1783752441406,20.84890116055103,67.08905612990384,280813155
fw,-60.727798461914,-88.0337753295898,14.591502305331138,61.6677385417774,280829822
fw,-61.0569076538085,-87.2289352416992,11.170712872293313,51.60737333341179,280846489
fw,-61.5241584777832,-86.7974700927734,10.656893277159964,36.36528837307445,280863156
fw,-61.9677391052246,-86.5391540527343,12.477576050985565,15.887532856693687,280879823
fw,-62.7880325317382,-86.4562454223632,15.807373466418849,-9.28883336528401,280896490
fw,-63.2192420959472,-86.7143173217773,19.93256963508235,-37.983708356344394,280913157
fw,-63.1385421752929,-87.4066390991211,24.436170847696857,-68.41158830991144,280929824
fw,-63.274299621582,-88.1000900268554,29.156893933563918,-98.35195874445506,280946491
fw,-64.0127792358398,-87.3448028564453,34.004656818592224,-125.46362056953109,280963158
fw,-65.2437438964843,-84.9166183471679,38.78304478410885,-147.69603874546283,280979825
fw,-66.6174926757812,-81.8772354125976,43.136866200953015,-163.69465878198622,280996492
fw,-67.7252578735351,-78.6985092163086,46.64705098381214,-173.07312986116756,281013159
fw,-68.8813018798828,-75.5831527709961,49.00691713916652,-176.45128685446724,281029826
fw,-70.1672744750976,-72.7084197998046,50.178200479542156,-175.2287013937097,281046493
fw,-71.3984451293945,-70.1054916381836,50.44365708796639,-171.1521217881253,281063160
fw,-72.3894805908203,-67.7214050292968,50.32559425942236,-165.8053183268336,281079827
fw,-73.3433532714843,-65.4376449584961,50.40363976051707,-160.17538808804886,281096494
fw,-74.5107879638671,-63.1491889953613,51.11339628221696,-154.4229132597455,281113161
fw,-75.8038864135742,-60.7873725891113,52.613377514390166,-147.91575654721845,281129828
fw,-77.0573654174804,-58.406982421875,54.76684033012871,-139.50240460762896,281146495
fw,-78.1815185546875,-56.1492156982421,57.22697150653334,-127.92990977066816,281163162
fw,-79.2325592041015,-54.1729049682617,59.57541508038882,-112.27687051984293,281179829
fw,-80.3100433349609,-52.6249504089355,61.45856676187159,-92.2818120634371,281196496
fw,-81.4083862304687,-51.5405044555664,62.68097892450139,-68.4922744533723,281213163
fw,-82.5121383666992,-50.9220237731933,63.23418697610049,-42.218397558091475,281229830
fw,-83.6500473022461,-50.79195022583,63.25644115378379,-15.324981129440276,281246497
fw,-84.798355102539,-51.2517166137695,62.935474555397,10.074240663492661,281263164
fw,-85.8919143676757,-52.1664314270019,62.38250920770053,31.947998441592553,281279831
fw,-86.9153594970703,-52.934772491455,61.517700969917776,48.64199683621879,281296498
fw,-87.8884506225586,-53.6188468933105,60.01012911533395,59.09811394041688,281313165
fw,-88.884780883789,-54.5853309631347,57.3044019770021,62.98960378334475,281329832
fw,-89.6225814819336,-55.8062133789062,52.739371677633386,60.78001116699448,281346499
fw,-88.8509063720703,-57.2488822937011,45.72880488792759,53.7027386032908,281363166
fw,-88.1192398071289,-58.5506782531738,35.94462206525293,43.63277875245625,281379833
fw,-87.6295852661132,-59.1776733398437,23.43698959385239,32.81697569992107,281396500
fw,-87.4211730957031,-59.1197357177734,8.647391569897339,23.470969069688113,281413167
fw,-87.5663528442382,-58.8545722961425,-7.689577795388439,17.32907911402867,281429834
fw,-87.9621200561523,-58.7360877990722,-24.720663218113582,15.297290680865412,281446501
fw,-88.2481079101562,-59.1614456176757,-41.66564932058508,17.350344901027782,281463168
fw,-87.9030532836914,-60.5126075744628,-57.9660082925606,22.713836661018608,281479835
fw,-86.8553390502929,-61.5401344299316,-73.35003713075753,30.2323718320012,281496502
fw,-85.2532348632812,-61.7928047180175,-87.80496554274146,38.74019172476773,281513169
fw,-83.0979995727539,-62.3493156433105,-101.47462945320791,47.28480427864494,281529836
fw,-80.5702743530273,-63.3383750915527,-114.51720312932723,55.174979743397316,281546503
fw,-77.8437576293945,-64.5733337402343,-126.9607854214374,61.929979255728455,281563170
fw,-75.108657836914,-66.038459777832,-138.59071090346828,67.22580329855012,281579837
fw,-72.7028503417968,-67.5608520507812,-148.89582833038978,70.88283572010914,281596504
fw,-70.5500793457031,-68.9851608276367,-157.0922309814004,72.87972779962412,281613171
fw,-68.2445449829101,-70.3112869262695,-162.22974111756156,73.35357123474328,281629838
fw,-65.6884384155273,-71.5026779174804,-163.36616256570298,72.56022606142069,281646505
fw,-63.2206954956054,-72.6184387207031,-159.76915313272534,70.80117472447324,281663172
fw,-60.6826782226562,-73.8067550659179,-151.0877430400593,68.35005573864314,281679839
fw,-58.6457595825195,-75.1121139526367,-137.44074441130223,65.4169918048003,281696506
fw,-56.8953208923339,-76.4630508422851,-119.4007933604132,62.169615927834506,281713173
fw,-55.3465194702148,-77.7361450195312,-97.89474052662644,58.797441864353274,281729840
fw,-54.2527275085449,-78.8169174194336,-74.07027217234544,55.579970969701776,281746507
fw,-53.5866355895996,-79.7188415527343,-49.18184792038881,52.91453737221977,281763174
fw,-53.24702835083,-80.5161819458007,-24.52893584244778,51.27933937189833,281779841
fw,-53.2254829406738,-81.2928161621093,-1.4453574494830574,51.13741725383639,281796508
fw,-53.5157623291015,-82.1782531738281,18.700440580078517,52.810675173798124,281813175
fw,-53.9605598449707,-83.2022323608398,34.56296721087172,56.359334705358236,281829842
fw,-55.4770164489746,-84.3017807006836,44.99708386576445,61.49445396806979,281846509
fw,-57.7373161315918,-85.4374389648437,49.35514255561389,67.54034711020066,281863176
fw,-59.8004531860351,-86.5858001708984,47.802657648841354,73.4581467414536,281879843
fw,-60.8659210205078,-87.8044738769531,41.47789552989419,77.93936597463514,281896510
fw,-61.3162002563476,-89.1551208496093,32.350133911133874,79.56945691656283,281913177
fw,-61.1617012023925,-88.9858703613281,22.769530756993337,77.03990013757753,281929844
fw,-60.7259902954101,-87.5511245727539,14.865203248494248,69.36118693719084,281946511
fw,-60.7897071838378,-86.6083526611328,10.03287978109903,56.01889903844214,281963178
fw,-61.1563606262207,-86.2537231445312,8.711867230682817,37.03761340439059,281979845
fw,-61.7805633544921,-86.2134323120117,10.51083197250867,12.963994695648102,281996512
fw,-62.833999633789,-86.3129425048828,14.578319430199258,-15.183892685883535,282013179
fw,-63.2639122009277,-86.675048828125,20.01111146501021,-45.961641582805676,282029846
fw,-63.1037368774414,-87.3292236328125,26.10631945593432,-77.54535020421841,282046513
fw,-63.3575782775878,-87.8437805175781,32.38377126970603,-107.83370806923,282063180
fw,-64.2740631103515,-87.1128311157226,38.455090491485265,-134.6627653440188,282079847
fw,-65.5005798339843,-84.6904602050781,43.893492848328115,-156.14175118594187,282096514
fw,-66.9215240478515,-81.4925689697265,48.22153380373996,-171.03982875433215,282113181
fw,-68.2375259399414,-78.0904541015625,51.029332773624844,-179.09026976760396,282129848
fw,-69.5207748413086,-74.8055801391601,52.14456289987415,-181.07267064187974,282146515
fw,-70.7923355102539,-71.8307952880859,51.747142129435105,-178.59970510603782,282163182
fw,-71.9865646362304,-69.2155380249023,50.355837759570036,-173.64606953111817,282179849
fw,-72.9767303466796,-66.7845764160156,48.68170813369076,-167.9615805684815,282196516
fw,-73.9520034790039,-64.3804702758789,47.4092367820952,-162.55997363763953,282213183
fw,-75.1199645996093,-61.9292182922363,46.999965092417256,-157.44955605702125,282229850
fw,-76.3601989746093,-59.3767013549804,47.598788180879566,-151.685546385776,282246517
fw,-77.5182418823242,-56.8911018371582,49.068604770115364,-143.71550325098409,282263184
fw,-78.5701293945312,-54.6072463989257,51.11789861598799,-131.9018861701093,282279851
fw,-79.5933837890625,-52.6372604370117,53.45181432294904,-115.06670843320343,282296518
fw,-80.6147308349609,-51.1008872985839,55.880506902231545,-92.91474762828572,282313185
fw,-81.5831985473632,-50.0165748596191,58.34672370301474,-66.23728669861066,282329852
fw,-82.5449981689453,-49.4691734313964,60.87063651895337,-36.85664106628261,282346519
fw,-83.5865631103515,-49.383689880371,63.44163383003762,-7.328139579404591,282363186
fw,-84.7153930664062,-49.964126586914,65.90517293508978,19.53503161411176,282379853
fw,-85.939094543457,-51.2532653808593,67.8921075517976,41.20951655579511,282396520
fw,-87.2156829833984,-52.5612030029296,68.81964770042337,55.95388437650328,282413187
fw,-88.4338989257812,-53.6328048706054,67.96658358977714,63.12360318317267,282429854
fw,-89.4736251831054,-54.4513854980468,64.60192615667584,63.23565694957497,282446521
fw,-89.0134506225586,-55.3049697875976,58.13262005888957,57.78724547161991,282463188
fw,-88.1496658325195,-56.4708671569824,48.23371682986717,48.90181627928667,282479855
fw,-87.5649032592773,-57.4990005493164,34.931817441484675,38.90182986682199,282496522
fw,-87.3251190185546,-58.0757827758789,18.626837711906393,29.89369986811805,282513189
fw,-87.2591171264648,-58.1719703674316,0.05237045130572471,23.429028433550588,282529856
fw,-87.3945846557617,-58.0696945190429,-19.816272771247473,20.30064317291094,282546523
fw,-87.904914855957,-58.0913009643554,-39.896235463582755,20.5273743102611,282563190
fw,-88.5454635620117,-59.0199851989746,-59.16149806257082,23.54274870758378,282579857
fw,-88.2281188964843,-60.4063987731933,-76.81338313404339,28.52075751556463,282596524
fw,-86.6303558349609,-60.8508987426757,-92.41510489531453,34.69342416917863,282613191
fw,-84.6372909545898,-60.9141273498535,-105.94179739006698,41.51448014767175,282629858
fw,-82.2451629638671,-61.6488800048828,-117.71576030437627,48.624275840530025,282646525
fw,-79.3814392089843,-62.7365989685058,-128.23424884426663,55.701166209670184,282663192
fw,-76.317153930664,-63.9999542236328,-137.93469132901186,62.34090530771554,282679859
fw,-73.5656051635742,-65.5455932617187,-146.96443340396155,68.05679870064988,282696526
fw,-71.1809158325195,-67.1403656005859,-155.02570930053054,72.39501783658322,282713193
fw,-68.8250656127929,-68.5824661254882,-161.3516520476774,75.08510545563982,282729860
fw,-66.1749954223632,-69.885269165039,-164.83345611275388,76.1324410550226,282746527
fw,-63.4058761596679,-71.0071105957031,-164.26757964993206,75.80212918244726,282763194
fw,-60.8123931884765,-72.1533432006836,-158.64715463933126,74.50965955938725,282779861
fw,-58.5583457946777,-73.4706497192382,-147.41039111096754,72.68272626379222,282796528
fw,-56.6263961791992,-74.948486328125,-130.58785549848304,70.66518213680571,282813195
fw,-54.9385643005371,-76.4457626342773,-108.83835442175886,68.69951363264674,282829862
fw,-53.5658302307128,-77.8424835205078,-83.3973698321444,66.97329534599632,282846529
fw,-52.5257911682128,-79.0154190063476,-55.96618899437193,65.67985394815258,282863196
fw,-51.896369934082,-79.9971618652343,-28.552589475178006,65.04283964696052,282879863
fw,-51.8899459838867,-80.9668426513671,-3.256582256764862,65.28333794013713,282896530
fw,-52.3450660705566,-82.0750198364257,18.003950125079566,66.54303169507475,282913197
fw,-53.9980545043945,-83.2901611328125,33.80457770024435,68.79508547931864,282929864
fw,-55.6097755432128,-84.5497894287109,43.49289045528146,71.77102619528482,282946531
fw,-56.9496726989746,-85.8156814575195,47.33202669621999,74.91950185245072,282963198
fw,-57.9165000915527,-87.0544967651367,46.42851131876129,77.40541828060687,282979865
fw,-58.7525901794433,-88.2030029296875,42.44464158347447,78.15761425962742,282996532
fw,-59.4434700012207,-88.985481262207,37.187756210801226,75.97185767184428,283013199
fw,-59.8771896362304,-88.5372695922851,32.21395285199814,69.66665325052027,283029866
fw,-60.2229461669921,-87.6558227539062,28.565090985417395,58.274180132792516,283046533
fw,-60.7371559143066,-87.0420989990234,26.698001552262564,41.236520165750896,283063200
fw,-61.409610748291,-86.7668075561523,26.593735239650975,18.574723653055347,283079867
fw,-61.9619674682617,-86.7233200073242,27.973458375635254,-8.998158126363565,283096534
fw,-62.8896713256835,-86.9320983886718,30.51322135040912,-40.048256367814275,283113201
fw,-63.2490196228027,-87.4292221069336,33.958932483047334,-72.50763991001563,283129868
fw,-63.5514488220214,-87.5639419555664,38.10229301104299,-103.90167931378599,283146535
fw,-64.5110168457031,-86.363525390625,42.66642676979969,-131.71188738691072,283163202
fw,-65.7628784179687,-84.0019073486328,47.21183954941859,-153.81839400773015,283179869
fw,-67.1861343383789,-80.9003143310546,51.15935451095717,-168.917228915245,283196536
fw,-68.6319427490234,-77.6401138305664,53.94357294067677,-176.78670540222544,283213203
fw,-69.9595947265625,-74.5006408691406,55.219886918191065,-178.3016633677648,283229870
fw,-71.1855010986328,-71.6218109130859,55.01111987607387,-175.16444140252224,283246537
fw,-72.3104782104492,-69.0335006713867,53.71329240140298,-169.4151062396281,283263204
fw,-73.3422622680664,-66.7654876708984,51.956293400826944,-162.86238075615464,283279871
fw,-74.373794555664,-64.6607131958007,50.38740764323141,-156.60710683877465,283296538
fw,-75.538818359375,-62.4361000061035,49.47571601850923,-150.80000822157842,283313205
fw,-76.7963562011718,-59.9969902038574,49.4132833123359,-144.696628414465,283329872
fw,-77.9650115966796,-57.564037322998,50.13430343793387,-136.97387941886097,283346539
fw,-78.9615325927734,-55.3346328735351,51.41991601061774,-126.19297811399208,283363206
fw,-79.9150390625,-53.4635696411132,53.029784382150496,-111.26365582021681,283379873
fw,-80.9028778076171,-51.9922332763671,54.8049018973593,-91.78936978506202,283396540
fw,-81.8905868530273,-50.915168762207,56.7064003144149,-68.22957742605008,283413207
fw,-82.9002227783203,-50.2882080078125,58.779859446601385,-41.87073620755843,283429874
fw,-83.9132766723632,-50.0602569580078,61.05906131907585,-14.633656282563061,283446541
fw,-84.9461517333984,-50.4002227783203,63.44433909418128,11.237761812748724,283463208
fw,-86.0337982177734,-51.3777275085449,65.60227623964671,33.550929434184134,283479875
fw,-87.1780471801757,-52.5936431884765,66.92958119096934,50.53558617442648,283496542
fw,-88.2488937377929,-53.8050384521484,66.60497297660221,61.13833144057791,283513209
fw,-88.9413070678711,-54.8430480957031,63.72610161531056,65.17855574936195,283529876
fw,-88.673225402832,-55.8197937011718,57.503100070122755,63.33763012901386,283546543
fw,-87.9591522216796,-56.9326057434082,47.462748273619404,56.99737517991938,283563210
fw,-87.3140182495117,-58.0914840698242,33.61015108698058,47.9756513828474,283579877
fw,-86.8810272216796,-58.9132919311523,16.49932880567695,38.21497438390098,283596544
fw,-86.814453125,-59.2823944091796,-2.8190848498018948,29.474695149896412,283613211
fw,-87.0977554321289,-59.3389282226562,-22.97633247944831,23.076536019180814,283629878
fw,-87.7490997314453,-59.3409042358398,-42.55755458458492,19.757515732046226,283646545
fw,-88.317398071289,-59.7519416809082,-60.40075828996543,19.670817008655384,283663212
fw,-87.7476272583007,-60.8398704528808,-75.83744834063204,22.525284344910578,283679879
fw,-86.2463150024414,-61.4215965270996,-88.79817042560627,27.78732956852942,283696546
fw,-84.3698806762695,-61.6657752990722,-99.74526465187014,34.83972721349252,283713213
fw,-82.1215209960937,-62.324119567871,-109.45269542706737,43.03673889211584,283729880
fw,-79.5159301757812,-63.2803230285644,-118.70385577258786,51.68262115190117,283746547
fw,-76.6217269897461,-64.4942245483398,-127.99934960786214,60.01591426643087,283763214
fw,-73.9808502197265,-65.9183044433593,-137.35304275375063,67.26423460301388,283779881
fw,-71.8384246826171,-67.4552154541015,-146.22182790616785,72.76963935900767,283796548
fw,-69.7781143188476,-68.9436416625976,-153.5820844741905,76.12721975605608,283813215
fw,-67.3988037109375,-70.2744522094726,-158.13828161160177,77.26512895882271,283829882
fw,-64.8274307250976,-71.390396118164,-158.6186363978834,76.42560406093476,283846549
fw,-62.3398284912109,-72.4801940917968,-154.0810765683738,74.06058604551512,283863216
fw,-60.1189994812011,-73.7455291748046,-144.1409946400787,70.69836165055271,283879883
fw,-58.2201423645019,-75.1658859252929,-129.05855618873647,66.84396017975494,283896550
fw,-56.5818367004394,-76.5741806030273,-109.67779030886118,62.94463307024144,283913217
fw,-55.2033805847168,-77.7919387817382,-87.26059470247826,59.40617552681895,283929884
fw,-54.1896209716796,-78.7870941162109,-63.28118609264125,56.61738659771053,283946551
fw,-53.6387557983398,-79.6216659545898,-39.23937632809004,54.94465342442904,283963218
fw,-53.476634979248,-80.4024505615234,-16.52842972345441,54.68734125720286,283979885
fw,-53.6638565063476,-81.2711639404296,3.6338841268084483,56.01333485098421,283996552
fw,-53.9931030273437,-82.2823791503906,20.2312927284459,58.9034310667596,284013219
fw,-54.5605697631835,-83.4406127929687,32.47693006174964,63.121408815893155,284029886
fw,-55.9969100952148,-84.6707916259765,39.88981048167282,68.20710646346915,284046553
fw,-57.6716194152832,-85.8861083984375,42.42749325929191,73.47978188557569,284063220
fw,-59.0625991821289,-86.9833831787109,40.6158356408221,78.04627856705902,284079887
fw,-59.697280883789,-87.9751358032226,35.574813653199314,80.82648157805956,284096554
fw,-60.072021484375,-88.6160583496093,28.86962829679661,80.62098434826991,284113221
fw,-60.2753753662109,-88.1474456787109,22.205976037006216,76.23908970550082,284129888
fw,-60.4054489135742,-87.1185302734375,17.07241438672081,66.67993335904184,284146555
fw,-60.6388969421386,-86.2633590698242,14.457123060722376,51.331899355672924,284163222
fw,-60.7566986083984,-85.7933273315429,14.726862704035216,30.14408940150508,284179889
fw,-61.5840454101562,-85.6449508666992,17.681221775428313,3.7325867699893487,284196556
fw,-62.3240509033203,-85.8155441284179,22.721060509094045,-26.599128282721388,284213223
fw,-62.6302680969238,-86.3800430297851,29.034607597157862,-58.93681725081673,284229890
fw,-63.0164718627929,-87.1725006103515,35.73329896016381,-90.93886741946558,284246557
fw,-63.9474334716796,-87.4892425537109,41.9401175593515,-120.12948305074222,284263224
fw,-65.2269668579101,-86.1965637207031,46.88147721009249,-144.28045284429498,284279891
fw,-66.6088485717773,-83.3940200805664,50.016780100796396,-161.8184496220701,284296558
fw,-67.9254302978515,-80.1027679443359,51.18013963830809,-172.15219340347596,284313225
fw,-69.1200942993164,-76.8804092407226,50.663335921154186,-175.79998415684523,284329892
fw,-70.2449874877929,-73.8310394287109,49.173858949627295,-174.23840896042796,284346559
fw,-71.3509902954101,-71.17041015625,47.652078143078924,-169.48340855020632,284363226
fw,-72.4207534790039,-68.9141998291015,46.99595435662794,-163.51670344328517,284379893
fw,-73.4572067260742,-66.8072433471679,47.78607984599073,-157.735333310282,284396560
fw,-74.58984375,-64.5888290405273,50.108494911720214,-152.5998934597795,284413227
fw,-75.8548736572265,-62.1604614257812,53.53818339364849,-147.5879518434104,284429894
fw,-77.1242980957031,-59.6987915039062,57.28850553380781,-141.45150956364282,284446561
fw,-78.3624572753906,-57.3928909301757,60.474125570211186,-132.6771539825178,284463228
fw,-79.5755844116211,-55.3373985290527,62.39809706276532,-119.99521840921447,284479895
fw,-80.6929321289062,-53.6614685058593,62.76898173949628,-102.79239755613597,284496562
fw,-81.7289657592773,-52.3964920043945,61.780285556381685,-81.33335427131439,284513229
fw,-82.7140121459961,-51.6003341674804,60.03114953010516,-56.761126719817824,284529896
fw,-83.6748275756836,-51.2251739501953,58.31753145292899,-30.90066490609628,284546563
fw,-84.6275100708007,-51.2513465881347,57.36061821859912,-5.925329360415768,284563230
fw,-85.6294174194336,-51.864818572998,57.55365457659738,16.036164624908807,284579897
fw,-86.6928100585937,-52.7642135620117,58.798328927230195,33.270450346697054,284596564
fw,-87.7509231567382,-53.6467704772949,60.47324367267633,44.75373411690402,284613231
fw,-88.7295913696289,-54.4336013793945,61.53996881963068,50.2791377987508,284629898
fw,-89.1649093627929,-55.1913185119628,60.75741370365506,50.4258577512364,284646565
fw,-88.4516220092773,-55.9897422790527,56.95062200161596,46.39980181379222,284663232
fw,-87.5743255615234,-56.9409103393554,49.269921324725786,39.798627040887254,284679899
fw,-86.9256591796875,-57.8049011230468,37.38231827137595,32.351380748798306,284696566
fw,-86.5531539916992,-58.3091888427734,21.55709502338892,25.66561621833679,284713233
fw,-86.4851989746093,-58.5562705993652,2.6342679470950627,21.004245471577633,284729900
fw,-86.7072296142578,-58.5823631286621,-18.11219059009637,19.12158222324882,284746567
fw,-87.1396026611328,-58.5714607238769,-39.19048810289484,20.20040476942847,284763234
fw,-87.8489685058593,-59.2649497985839,-59.153132397886125,23.921432723680816,284779901
fw,-88.3627853393554,-60.4901084899902,-76.8625743167776,29.648225589666254,284796568
fw,-87.1332397460937,-61.0381431579589,-91.7038660514249,36.64849697545801,284813235
fw,-85.0500259399414,-61.3867645263671,-103.67958722864441,44.25202458616368,284829902
fw,-82.7599334716796,-62.2466850280761,-113.3398784360137,51.89567706849574,284846569
fw,-80.0358581542968,-63.3372268676757,-121.55068171210402,59.08888086828051,284863236
fw,-77.0986557006836,-64.650390625,-129.1644305412431,65.37682651285333,284879903
fw,-74.3642807006836,-66.1462707519531,-136.6955447166496,70.35573798918985,284896570
fw,-71.9753265380859,-67.7019882202148,-144.10183159972803,73.73717462112378,284913237
fw,-69.7549972534179,-69.155029296875,-150.73863654730656,75.41493565131397,284929904
fw,-67.3491744995117,-70.4473266601562,-155.498562636546,75.48427982465265,284946571
fw,-64.73193359375,-71.5638275146484,-157.0898837542735,74.19523585458602,284963238
fw,-62.1834640502929,-72.6742935180664,-154.36161765464746,71.86554970580318,284979905
fw,-59.916160583496,-73.9445495605468,-146.57435977874943,68.80473792202396,284996572
fw,-57.9870910644531,-75.3501052856445,-133.5499219898991,65.29193670552498,285013239
fw,-56.3099212646484,-76.7857666015625,-115.69057487626404,61.612834918749215,285029906
fw,-54.8961372375488,-78.0588760375976,-93.90643675430069,58.119565634191915,285046573
fw,-53.8805656433105,-79.0764541625976,-69.50355216120117,55.25904747242289,285063240
fw,-53.2206726074218,-79.8937606811523,-44.06739520128187,53.531680105104925,285079907
fw,-52.8802947998046,-80.6607437133789,-19.346606100290767,53.38231915818126,285096574
fw,-53.0091323852539,-81.5343399047851,2.8812782649150845,55.063159672697275,285113241
fw,-53.4810752868652,-82.5351867675781,20.986432623620438,58.52160122663929,285129908
fw,-54.4417190551757,-83.6484375,33.71494521694776,63.351939682271755,285146575
fw,-56.2755393981933,-84.8701629638671,40.44148142458729,68.82172372333628,285163242
fw,-57.9631919860839,-86.1634521484375,41.372158657650374,73.95936250887388,285179909
fw,-59.0391311645507,-87.4440383911132,37.59517144272183,77.67808116293872,285196576
fw,-59.6779174804687,-88.6818084716796,30.90385601640821,78.91106415883583,285213243
fw,-59.9989356994628,-89.3964004516601,23.404261521152733,76.73677622966306,285229910
fw,-59.8944129943847,-88.3411788940429,17.020806053747048,70.47657690037695,285246577
fw,-60.0182380676269,-87.2900009155273,13.067319282185611,59.74996696564107,285263244
fw,-60.4412040710449,-86.6393737792968,12.028072098361097,44.48300993547375,285279911
fw,-60.6121253967285,-86.4450988769531,13.609817042126021,24.88562390336511,285296578
fw,-61.4547576904296,-86.4896621704101,17.02064822170944,1.4326867175104532,285313245
fw,-62.3757896423339,-86.6845932006836,21.346339981306965,-25.11785026767847,285329912
fw,-62.6493835449218,-87.0626907348632,25.86470677735912,-53.66933917418082,285346579
fw,-62.7849159240722,-87.5460891723632,30.18320721117714,-82.74115651296022,285363246
fw,-63.3753776550293,-87.6606674194336,34.18669998880365,-110.51199038865762,285379913
fw,-64.331787109375,-86.3959274291992,37.879138196717726,-135.0141504065367,285396580
fw,-65.6057205200195,-83.7645492553711,41.23543055790374,-154.47696160013192,285413247
fw,-66.8381958007812,-80.4911804199218,44.142584274516956,-167.7317676204792,285429914
fw,-67.9567184448242,-77.1133041381836,46.44311833015207,-174.53035464566645,285446581
fw,-69.1200714111328,-73.9165573120117,48.039012050724914,-175.63234711275095,285463248
fw,-70.3900680541992,-71.1133499145507,48.98911946829137,-172.59230308169447,285479915
fw,-71.5426025390625,-68.7320709228515,49.539335552734,-167.2917149958471,285496582
fw,-72.5267105102539,-66.5895385742187,50.05859873549534,-161.3630897088681,285513249
fw,-73.5452270507812,-64.4964065551757,50.902949875619136,-155.69901786988578,285529916
fw,-74.7331924438476,-62.3374786376953,52.27074444318703,-150.21121458397243,285546583
fw,-75.9736175537109,-60.0120697021484,54.119893522311294,-143.9161122749704,285563250
fw,-77.1643295288086,-57.6189651489257,56.18741183802679,-135.3108424367392,285579917
fw,-78.2935562133789,-55.3975753784179,58.1026643629596,-122.90955740572106,285596584
fw,-79.3855743408203,-53.5038452148437,59.54587473647643,-105.76789372085247,285613251
fw,-80.4638290405273,-52.1121788024902,60.38754541456707,-83.84305831864684,285629918
fw,-81.5502471923828,-51.233055114746,60.75236724600526,-58.1033287483148,285646585
fw,-82.6192474365234,-50.9092941284179,60.976562275960966,-30.38282014169989,285663252
fw,-83.6446456909179,-51.0653686523437,61.4633084216901,-3.044934157191673,285679919
fw,-84.6677780151367,-51.7338562011718,62.47842244941401,21.446277726521316,285696586
fw,-85.6745986938476,-52.7382469177246,63.95616234401201,40.945626444252134,285713253
fw,-86.7069931030273,-53.4920005798339,65.39064815674782,53.9602778710846,285729920
fw,-87.7682266235351,-54.2987785339355,65.86598587388814,59.85833318415844,285746587
fw,-88.7436828613281,-55.4296035766601,64.23306272214056,58.947433419860495,285763254
fw,-88.8741302490234,-56.7309494018554,59.38880239104067,52.4304914501381,285779921
fw,-88.0236511230468,-57.7557029724121,50.5742230367029,42.23685458101549,285796588
fw,-87.3283386230468,-58.4310035705566,37.59740172433062,30.723192102753934,285813255
fw,-87.0039596557617,-58.6713256835937,20.912287682688277,20.26508685377776,285829922
fw,-87.0339050292968,-58.4080848693847,1.5342381416136133,12.813310078422084,285846589
fw,-87.3317184448242,-58.1527290344238,-19.174897493874393,9.534464678680417,285863256
fw,-87.762092590332,-58.1214599609375,-39.78763922979828,10.656270703359533,285879923
fw,-88.1368103027343,-58.8568954467773,-59.08825404737454,15.574620110863709,285896590
fw,-87.7845993041992,-60.0043067932128,-76.28815603126822,23.17087222499822,285913257
fw,-86.1321334838867,-60.4581565856933,-91.1334773039073,32.19375910707841,285929924
fw,-84.0324096679687,-60.7788848876953,-103.87267603438228,41.54881682624523,285946591
fw,-81.7632293701171,-61.710105895996,-115.0799650154176,50.42044660722776,285963258
fw,-79.1426239013671,-62.9090957641601,-125.37726331570164,58.25910627597755,285979925
fw,-76.1389465332031,-64.1802291870117,-135.14173504837413,64.71781330291198,285996592
fw,-73.3354034423828,-65.601203918457,-144.2966269915897,69.6027830544715,286013259
fw,-70.9879913330078,-67.1435012817382,-152.25295568162767,72.85527121777244,286029926
fw,-68.816780090332,-68.5611114501953,-158.01911590888912,74.5465203022014,286046593
fw,-66.4060745239257,-69.8059844970703,-160.4457033014241,74.85920379353733,286063260
fw,-63.7673225402832,-70.942756652832,-158.53207821530216,74.04417015195024,286079927
fw,-61.2475776672363,-72.1416320800781,-151.6982217482554,72.36690363667428,286096594
fw,-59.0935592651367,-73.4943695068359,-139.93576213689917,70.07313500821542,286113261
fw,-57.3057441711425,-74.962890625,-123.8005951756358,67.39409584874691,286129928
fw,-55.734634399414,-76.4390869140625,-104.27470446651502,64.58471343320441,286146595
fw,-54.4186515808105,-77.7226333618164,-82.57013337903757,61.96243621975077,286163262
fw,-53.5052490234375,-78.7481231689453,-59.95188961213401,59.90925694242602,286179929
fw,-53.0279083251953,-79.6131057739257,-37.62679171765858,58.81967179071624,286196596
fw,-52.785545349121,-80.5115661621093,-16.704395686605327,59.00962246077891,286213263
fw,-52.8315238952636,-81.5214080810546,1.8007066084479542,60.6236565495371,286229930
fw,-53.0986824035644,-82.640754699707,16.98113404184861,63.575361378771525,286246597
fw,-54.2250709533691,-83.8840026855468,28.118597805544326,67.53405830510899,286263264
fw,-56.069953918457,-85.195556640625,34.84669179382813,71.94638201334904,286279931
fw,-57.7021217346191,-86.4436645507812,37.32974176648686,76.07080812797818,286296598
fw,-58.6604385375976,-87.5576019287109,36.33867603124201,79.01117350577056,286313265
fw,-59.0670738220214,-88.4850921630859,33.13115022069931,79.75418167925282,286329932
fw,-59.4072189331054,-88.7593536376953,29.147465970929474,77.23104143296945,286346599
fw,-59.6429252624511,-88.0001220703125,25.6432017370778,70.42232083387835,286363266
fw,-60.0774497985839,-87.0662841796875,23.416294602939004,58.50731432343628,286379933
fw,-60.8993415832519,-86.3866500854492,22.732722628597045,41.036785175862846,286396600
fw,-61.6486587524414,-86.0372085571289,23.452173353846455,18.0943738161877,286413267
fw,-62.3904113769531,-86.019905090332,25.261640815288764,-9.589740515058844,286429934
fw,-63.1899757385253,-86.3139038085937,27.884118857784287,-40.606143060261424,286446601
fw,-63.4534225463867,-86.9549026489257,31.15820789909316,-72.94452954845994,286463268
fw,-63.7015419006347,-87.4650344848632,34.96908163398101,-104.20446284827193,286479935
fw,-64.5807342529296,-86.7614288330078,39.10729261095711,-131.93503370200958,286496602
fw,-65.7828063964843,-84.5003585815429,43.17894513018624,-154.0565959773391,286513269
fw,-67.1632080078125,-81.3734054565429,46.65409645433119,-169.26909656336974,286529936
fw,-68.4447021484375,-78.0794448852539,49.04493363389116,-177.32258922929336,286546603
fw,-69.6078414916992,-74.8751678466796,50.118031511544764,-179.0416123986987,286563270
fw,-70.7760467529296,-72.0148773193359,50.02048660964879,-176.0640086997688,286579937
fw,-71.9008560180664,-69.5575256347656,49.246298045090825,-170.35431370471676,286596604
fw,-72.8890838623046,-67.4089889526367,48.45389839008454,-163.63867769295948,286613271
fw,-73.889175415039,-65.3218231201171,48.21972497265426,-156.9426451603705,286629938
fw,-75.03857421875,-63.0613822937011,48.83923419472805,-150.3786600917353,286646605
fw,-76.2949066162109,-60.6149711608886,50.25696420956454,-143.2397485750591,286663272
fw,-77.5150680541992,-58.1848449707031,52.14221977510275,-134.34657749299677,286679939
fw,-78.6152114868164,-55.9853477478027,54.063527920065,-122.5132660165492,286696606
fw,-79.6725997924804,-54.1365623474121,55.6822669188623,-106.97516863202283,286713273
fw,-80.7401885986328,-52.72265625,56.88986636188399,-87.66002784953187,286729940
fw,-81.7639846801757,-51.7343788146972,57.841527118758925,-65.25451331271228,286746607
fw,-82.770263671875,-51.1753005981445,58.87721339197034,-41.085526489801616,286763274
fw,-83.7758407592773,-51.0597038269043,60.357237718590724,-16.87671942818506,286779941
fw,-84.8238067626953,-51.3684959411621,62.4671321483836,5.548268933598212,286796608
fw,-85.9440155029296,-52.082462310791,65.05717638104322,24.553989947008667,286813275
fw,-87.0952529907226,-52.7884292602539,67.57229977114449,38.92929627498391,286829942
fw,-88.2681045532226,-53.6615524291992,69.10152477217524,48.04664399740238,286846609
fw,-89.2955703735351,-54.6048202514648,68.54136848490934,51.9337416632476,286863276
fw,-88.8889999389648,-55.5366821289062,64.83442505004025,51.25333818466094,286879943
fw,-87.8248062133789,-56.4442901611328,57.22125982796876,47.189788090750156,286896610
fw,-86.9333724975586,-57.4490089416503,45.437473980997,41.24853229499968,286913277
fw,-86.339859008789,-58.0520591735839,29.801444001095785,34.99197054343662,286929944
fw,-86.1548843383789,-58.3545570373535,11.168619831465222,29.75932619198862,286946611
fw,-86.3712387084961,-58.5524673461914,-9.234241252817345,26.439496120598914,286963278
fw,-86.9204406738281,-58.6684379577636,-30.04938065176598,25.369833676672364,286979945
fw,-87.7139892578125,-59.2728691101074,-50.0406315383651,26.404037609194297,286996612
fw,-88.4843139648437,-60.5521278381347,-68.29804584595936,29.124866236131457,287013279
fw,-88.0026702880859,-61.5977630615234,-84.35071198875582,33.098862460943835,287029946
fw,-86.2642974853515,-61.8041229248046,-98.16742963360554,38.037042373333726,287046613
fw,-84.1490783691406,-62.1282081604003,-110.05102670048376,43.78127035927718,287063280
fw,-81.6471786499023,-62.9818458557128,-120.4579182450261,50.1545349073115,287079947
fw,-78.7677459716796,-64.0568771362304,-129.79326456204456,56.80430314543053,287096614
fw,-76.0249481201171,-65.4578475952148,-138.23608175451335,63.161794991435634,287113281
fw,-73.50634765625,-67.0794830322265,-145.63778456533424,68.55149178155132,287129948
fw,-71.1982879638671,-68.5305786132812,-151.51803004984566,72.38743520529367,287146615
fw,-68.8880462646484,-69.8588638305664,-155.15742488626702,74.34845748317152,287163282
fw,-66.3183441162109,-71.0590667724609,-155.75998339859547,74.44885719720816,287179949
fw,-63.7243347167968,-72.1739883422851,-152.63604868006487,72.98686031013825,287196616
fw,-61.3516845703125,-73.370849609375,-145.35000078172868,70.4160924381407,287213283
fw,-59.3471374511718,-74.7082824707031,-133.79487879591548,67.21237941520161,287229950
fw,-57.6103172302246,-76.0990371704101,-118.19366375090803,63.79280998524161,287246617
fw,-56.0837440490722,-77.3955841064453,-99.06320107684681,60.50277373719509,287263284
fw,-54.8784217834472,-78.5111541748046,-77.18647954337438,57.64688206313516,287279951
fw,-54.1079139709472,-79.4569854736328,-53.61506089227166,55.522878402884984,287296618
fw,-53.5921783447265,-80.3204193115234,-29.68237500411431,54.42750023399255,287313285
fw,-53.48193359375,-81.2233200073242,-6.975361400813578,54.62616033599546,287329952
fw,-53.8824653625488,-82.2346420288086,12.79422052621879,56.29635028998383,287346619
fw,-55.0043411254882,-83.3242416381836,28.045842535110467,59.459468437342665,287363286
fw,-56.7146263122558,-84.4334564208984,37.6741066748238,63.912315392927844,287379953
fw,-58.1560974121093,-85.5715866088867,41.36808227465871,69.1682408313494,287396620
fw,-59.1114082336425,-86.7423782348632,39.764207860177706,74.42344588783571,287413287
fw,-59.7586288452148,-87.9568481445312,34.33946327704329,78.57069845981758,287429954
fw,-60.2451705932617,-89.1228561401367,27.05938954999927,80.2809774733197,287446621
fw,-60.3807563781738,-88.9908981323242,19.89975820994368,78.1587280442616,287463288
fw,-60.4673843383789,-87.7987747192382,14.40637403112731,70.95331804358202,287479955
fw,-60.6760215759277,-86.8189392089843,11.433129879810169,57.78921851646431,287496622
fw,-60.990665435791,-86.2178344726562,11.124476534665558,38.370318831892554,287513289
fw,-61.4342041015625,-85.9280700683593,13.113188221923187,13.120382810864884,287529956
fw,-62.1836471557617,-86.0108108520507,16.81937477765456,-16.767130118535803,287546623
fw,-62.510139465332,-86.5377426147461,21.70031356829633,-49.38976563551987,287563290
fw,-62.4922218322753,-87.3762512207031,27.342323922282127,-82.3225251205996,287579957
fw,-63.0336647033691,-87.9035186767578,33.393525982663526,-112.93161214211005,287596624
fw,-64.0137023925781,-86.7319412231445,39.443104746752844,-138.78629024547686,287613291
fw,-65.5126037597656,-84.0537719726562,44.980043227889865,-158.0962933602884,287629958
fw,-67.0493469238281,-80.9334106445312,49.49229089743538,-170.06441630721307,287646625
fw,-68.3508911132812,-77.7525253295898,52.65483033193927,-175.03766915341936,287663292
fw,-69.587890625,-74.6394577026367,54.48593168935302,-174.38309450036033,287679959
fw,-70.8005905151367,-71.8559951782226,55.36630375320714,-170.0973065591314,287696626
fw,-71.9123306274414,-69.4507980346679,55.894797569763554,-164.24905733450854,287713293
fw,-72.9455490112304,-67.1829681396484,56.64322984539404,-158.4146370865946,287729960
fw,-74.1522674560546,-64.89501953125,57.92430149907967,-153.27278734350426,287746627
fw,-75.6214981079101,-62.5466537475585,59.67817012107853,-148.47540369754725,287763294
fw,-77.0982131958007,-60.1559143066406,61.522926966600856,-142.82171358807477,287779961
fw,-78.4377899169921,-57.8252143859863,62.93696180516658,-134.6722422711279,287796628
fw,-79.6632690429687,-55.7407875061035,63.488494186136,-122.47803645610362,287813295
fw,-80.8179931640625,-53.965217590332,63.01936168270188,-105.28439338140377,287829962
fw,-81.8845825195312,-52.5767288208007,61.7174409602305,-83.08957314132404,287846629
fw,-82.888069152832,-51.6207733154296,60.05450519220589,-56.98029583193571,287863296
fw,-83.8366165161132,-51.1043968200683,58.60935491751943,-29.012991437160462,287879963
fw,-84.7344131469726,-51.1772117614746,57.8317536848581,-1.8580790392368105,287896630
fw,-85.675552368164,-52.1237068176269,57.823826109402994,21.724732367607515,287913297
fw,-86.6682205200195,-53.344123840332,58.214843509793354,39.462841673981316,287929964
fw,-87.6709823608398,-54.2828407287597,58.179803172660755,50.05211160209236,287946631
fw,-88.6669006347656,-55.1088409423828,56.60767043849692,53.412232763049076,287963298
fw,-89.2047576904296,-55.856761932373,52.37588901832687,50.65214764747866,287979965
fw,-88.6833038330078,-56.865737915039,44.65130204820092,43.77055288111519,287996632
fw,-88.0578155517578,-57.7549133300781,33.12756393958189,35.184320477374925,288013299
fw,-87.7261810302734,-58.2313041687011,18.129153285280655,27.203971309269967,288029966
fw,-87.6677093505859,-58.4129180908203,0.5536490388593713,21.571576555715197,288046633
fw,-87.9012756347656,-58.460334777832,-18.32948051231072,19.161619212610848,288063300
fw,-88.4554138183593,-58.4070739746093,-37.16836456249992,19.92059788323541,288079967
fw,-88.6937408447265,-58.8358917236328,-54.83017368189601,23.071065339773604,288096634
fw,-87.6106643676757,-60.2199401855468,-70.63363940837539,27.52177500601046,288113301
fw,-85.6975326538086,-61.4832878112793,-84.4457047100719,32.33151919513819,288129968
fw,-83.6990203857421,-61.8340454101562,-96.61094914473539,37.03036461419901,288146635
fw,-81.4438400268554,-62.2012748718261,-107.73540523533926,41.66259939071088,288163302
fw,-78.7474899291992,-62.9607734680175,-118.39773660032218,46.562713944001594,288179969
fw,-75.7705307006836,-63.7937622070312,-128.88393518161092,52.01369391346569,288196636
fw,-73.0249862670898,-64.9212341308593,-139.02459297013425,57.97681531335156,288213303
fw,-70.7363662719726,-66.4219665527343,-148.1715736819017,64.01565021016697,288229970
fw,-68.6957473754882,-68.0005722045898,-155.3097635008865,69.42211388893385,288246637
fw,-66.43115234375,-69.4937057495117,-159.2712069754165,73.45670310458758,288263304
fw,-63.8778839111328,-70.8028793334961,-158.99841944722704,75.5808996785744,288279971
fw,-61.3705291748046,-71.9651412963867,-153.78842835538345,75.59196676643643,288296638
fw,-59.1962242126464,-73.1573638916015,-143.44983460176977,73.63828767203674,288313305
fw,-57.3477096557617,-74.4773025512695,-128.33374434417811,70.15164114723709,288329972
fw,-55.7622985839843,-75.8992843627929,-109.24858688794214,65.75105848688104,288346639
fw,-54.4686279296875,-77.2473602294921,-87.31154204412918,61.15224212324364,288363306
fw,-53.5512771606445,-78.3218765258789,-63.80153122649986,57.08358382068862,288379973
fw,-52.9832191467285,-79.1614303588867,-40.05852269912511,54.19449054057671,288396640
fw,-52.6928062438964,-79.9257659912109,-17.43618205580823,52.953836599310314,288413307
fw,-52.7833213806152,-80.7420578002929,2.7237099705363987,53.55996647384128,288429974
fw,-53.2177009582519,-81.6909255981445,19.15179999892591,55.89405049961928,288446641
fw,-54.1732177734375,-82.7779464721679,30.799060638160324,59.53505068734298,288463308
fw,-56.1318130493164,-83.9539642333984,37.0776037034638,63.82750172394061,288479975
fw,-57.9817695617675,-85.118179321289,38.11948043761285,67.97264131218805,288496642
fw,-59.1161079406738,-86.2021789550781,34.91154336881212,71.11211818938774,288513309
fw,-59.5679244995117,-87.2273864746093,29.175474764352284,72.38942494334368,288529976
fw,-59.7798461914062,-88.2525787353515,22.970834969840684,70.99347792341409,288546643
fw,-59.6666412353515,-88.8388748168945,18.144597405160493,66.19748698850393,288563310
fw,-59.6273803710937,-88.4472045898437,15.839535649530026,57.402200495358144,288579977
fw,-60.0133399963378,-87.9093170166015,16.257135746061582,44.186334256688795,288596644
fw,-60.5229339599609,-87.6192016601562,18.76490156436011,26.36887401125538,288613311
fw,-61.53023147583,-87.5209350585937,22.293640002193847,4.093577662048622,288629978
fw,-62.6129608154296,-87.5291519165039,25.845816035062427,-22.061623896401823,288646645
fw,-62.9814834594726,-87.6804962158203,28.88754825486223,-50.977924874417454,288663312
fw,-62.951919555664,-87.7662963867187,31.45851468214769,-80.95717888881964,288679979
fw,-63.4254188537597,-87.1597213745117,33.983970147044786,-109.83038008800568,288696646
fw,-64.2029037475586,-85.2735366821289,36.926854533241034,-135.25608641066222,288713313
fw,-65.3784484863281,-82.4504928588867,40.48314478144681,-155.17227129586036,288729980
fw,-66.8025360107421,-79.1707458496093,44.47000992744472,-168.27741998389905,288746647
fw,-68.1370697021484,-75.8459701538086,48.431229724955415,-174.36937708490234,288763314
fw,-69.4229583740234,-72.6689300537109,51.86879335008996,-174.39655779998884,288779981
fw,-70.6983032226562,-69.9125213623046,54.46356417371792,-170.17130303650814,288796648
fw,-71.8462753295898,-67.5892715454101,56.180399466031886,-163.81964206374047,288813315
fw,-72.8486251831054,-65.5072021484375,57.229837980597274,-157.14285435018314,288829982
fw,-73.9634323120117,-63.4373779296875,57.93235547645404,-151.1023251758837,288846649
fw,-75.3390274047851,-61.2267913818359,58.56726143343355,-145.59516982821734,288863316
fw,-76.7670745849609,-58.8718185424804,59.27547305311838,-139.58210246581982,288879983
fw,-77.9721984863281,-56.5415153503418,60.041163345350206,-131.50596438777995,288896650
fw,-79.0189132690429,-54.4063339233398,60.736070291058134,-119.84946207581872,288913317
fw,-80.0502700805664,-52.6342506408691,61.194494360699004,-103.65451839795699,288929984
fw,-81.0966491699218,-51.3454704284668,61.290989462489726,-82.86179097710364,288946651
fw,-82.1825256347656,-50.4909362792968,60.998772850528624,-58.400879865710614,288963318
fw,-83.2855453491211,-50.1008110046386,60.40916431236429,-32.03629467159424,288979985
fw,-84.3448410034179,-50.1251487731933,59.69851958925099,-6.028531224254539,288996652
fw,-85.3850936889648,-50.7881774902343,59.044956916847454,17.30171603024749,289013319
fw,-86.4275207519531,-51.8068962097168,58.51789599293253,36.008660950279854,289029986
fw,-87.4259490966796,-52.803897857666,57.978208789922405,48.862929434450386,289046653
fw,-88.361831665039,-53.730598449707,57.02781536765311,55.528478421723044,289063320
fw,-89.1790924072265,-54.5648918151855,55.03425385348358,56.54604980558521,289079987
fw,-89.0708541870117,-55.3533821105957,51.23291698002828,53.14664515219871,289096654
fw,-88.3557510375976,-56.35298538208,44.88504647406172,46.960237057582916,289113321
fw,-87.7705078125,-57.2005348205566,35.45253168664573,39.69917012185929,289129988
fw,-87.3838653564453,-57.7888984680175,22.74732699244671,32.882351985508826,289146655
fw,-87.1609649658203,-58.28169631958,7.021414526976483,27.640886343345475,289163322
fw,-87.1575164794921,-58.5378646850585,-11.025741314562929,24.62482773627805,289179989
fw,-87.468276977539,-58.6201934814453,-30.33505968593603,24.017475099845843,289196656
fw,-88.018310546875,-59.2095184326171,-49.668659681911095,25.64724525702938,289213323
fw,-88.2475509643554,-60.4112396240234,-67.85495017237972,29.156814771315197,289229990
fw,-87.1046371459961,-60.9901542663574,-84.0373450783718,34.15544118424333,289246657
fw,-85.2022933959961,-61.2103652954101,-97.84664104492614,40.28047108020968,289263324
fw,-83.0580520629882,-61.8605041503906,-109.42946486938783,47.153190596351116,289279991
fw,-80.474365234375,-62.81982421875,-119.3118847010794,54.297063255139975,289296658
fw,-77.5740203857421,-64.1438446044921,-128.1377787286422,61.1189686784503,289313325
fw,-74.8244476318359,-65.7835464477539,-136.3668358868695,67.00356701470031,289329992
fw,-72.4085388183593,-67.3717956542968,-144.0310800335796,71.48028008557216,289346659
fw,-70.181640625,-68.7735519409179,-150.63135068740445,74.36348222653936,289363326
fw,-67.8308029174804,-70.005256652832,-155.21118582317757,75.77888980425553,289379993
fw,-65.2405776977539,-71.058967590332,-156.58499411090352,76.05882901197353,289396660
fw,-62.724250793457,-72.1616744995117,-153.64237274511288,75.56689857039976,289413327
fw,-60.4659843444824,-73.5387725830078,-145.62843973299522,74.5499290253631,289429994
fw,-58.5312919616699,-75.1124725341796,-132.32366329672857,73.09300496193154,289446661
fw,-56.8272285461425,-76.687026977539,-114.10008535244796,71.1897226519069,289463328
fw,-55.3542594909668,-78.1031723022461,-91.87934526409117,68.87564649435494,289479995
fw,-54.2366065979003,-79.2860107421875,-67.03483764279486,66.34463314964773,289496662
fw,-53.6104087829589,-80.271125793457,-41.266346672663495,63.98526843352845,289513329
fw,-53.3150634765625,-81.1832046508789,-16.451413623138095,62.319784903142086,289529996
fw,-53.4738578796386,-82.1620788574218,5.537417549532056,61.87083366521399,289546663
fw,-53.9963188171386,-83.246109008789,23.05904316779159,63.0015049993074,289563330
fw,-55.5249786376953,-84.4027328491211,34.96315372377336,65.76935495908226,289579997
fw,-57.4433670043945,-85.5742492675781,40.83286499429786,69.81993528976763,289596664
fw,-58.8663330078125,-86.6937026977539,41.12214618111521,74.33579873830901,289613331
fw,-59.7067947387695,-87.6911544799804,37.100288246453886,78.05854393836593,289629998
fw,-60.3126525878906,-88.5825271606445,30.58002687181224,79.40479359448813,289646665
fw,-60.7470397949218,-88.6937408447265,23.503178368113026,76.6860882285051,289663332
fw,-60.6859169006347,-87.6005325317382,17.52302279760918,68.41032677086167,289679999
fw,-60.6863136291503,-86.5520782470703,13.719129064016384,53.6018619743058,289696666
fw,-61.0691375732421,-86.0555801391601,12.520052704866883,32.05665394636897,289713333
fw,-61.4897193908691,-86.0295104980468,13.823800185141659,4.466172841261845,289730000
fw,-62.3551940917968,-86.3065795898437,17.22553160787242,-27.61284162655161,289746667
fw,-62.6753883361816,-86.8924713134765,22.22258657244543,-61.9276848179646,289763334
fw,-62.6159706115722,-87.5845108032226,28.300722427462357,-95.8093316228483,289780001
fw,-63.2793807983398,-87.3580322265625,34.9027679778123,-126.53418301669976,289796668
fw,-64.4372024536132,-85.4895477294921,41.37398369982457,-151.73195111435345,289813335
fw,-65.7868347167968,-82.5982971191406,46.99220519756052,-169.7793891995971,289830002
fw,-67.1761932373046,-79.3164978027343,51.116976265226604,-180.09217190158716,289846669
fw,-68.4467620849609,-75.986083984375,53.39459870016637,-183.22131832240274,289863336
fw,-69.6393356323242,-72.7810516357421,53.906416157976444,-180.69386092773965,289880003
fw,-70.8192062377929,-69.9579849243164,53.17046621858357,-174.60717170427128,289896670
fw,-71.9293136596679,-67.5967025756836,51.98003758098119,-167.0689124283569,289913337
fw,-72.9727325439453,-65.4670944213867,51.14277851917171,-159.6373978316435,289930004
fw,-74.1040115356445,-63.2599067687988,51.22935081960905,-152.9314140112996,289946671
fw,-75.3906707763671,-60.8447799682617,52.43090813632517,-146.53075004830205,289963338
fw,-76.718391418457,-58.3841094970703,54.56906386142246,-139.19253575833343,289980005
fw,-77.9199523925781,-56.1009979248046,57.23273325191951,-129.3046152904775,289996672
fw,-79.0155639648437,-54.0785255432128,59.96886504164913,-115.43085453495823,290013339
fw,-80.1352844238281,-52.4263381958007,62.445964625547134,-96.79505463425878,290030006
fw,-81.2490005493164,-51.1902618408203,64.53338589024723,-73.58773835716744,290046673
fw,-82.349136352539,-50.3979225158691,66.27710411845868,-47.03584472963521,290063340
fw,-83.4891662597656,-50.022777557373,67.78942363130564,-19.228390588420833,290080007
fw,-84.6622314453125,-50.27294921875,69.09780429783285,7.264197082273572,290096674
fw,-85.862564086914,-51.3378562927246,70.01086526073271,29.899011121440758,290113341
fw,-87.0557632446289,-52.673412322998,70.05392139089737,46.683019978211554,290130008
fw,-88.1471328735351,-53.9246597290039,68.50403397587527,56.57492516341784,290146675
fw,-88.8909378051757,-54.7626609802246,64.52305350508284,59.65481911040317,290163342
fw,-88.6130828857421,-55.4105377197265,57.356030575276364,57.02146290160185,290180009
fw,-87.8956909179687,-56.3823013305664,46.54044187743492,50.46997463649085,290196676
fw,-87.3277511596679,-57.2950859069824,32.06590516215642,42.06758778862674,290213343
fw,-87.0301513671875,-57.8517723083496,14.437165558918462,33.75176185283341,290230010
fw,-87.0902709960937,-58.3080215454101,-5.379675504225881,27.036632448065518,290246677
fw,-87.4296035766601,-58.5515518188476,-26.117107804127773,22.866164728113844,290263344
fw,-87.9975814819336,-58.7977714538574,-46.43722564646615,21.615074434140038,290280011
fw,-88.2767181396484,-59.4994583129882,-65.18366870582737,23.20640583174544,290296678
fw,-87.4881439208984,-60.5204429626464,-81.59765225622367,27.281314208235703,290313345
fw,-85.6575622558593,-60.8792037963867,-95.44232407279317,33.338297206633534,290330012
fw,-83.6569671630859,-61.1928405761718,-106.99288898870383,40.785889034313925,290346679
fw,-81.3642349243164,-62.0501251220703,-116.88161345673191,48.92525936312226,290363346
fw,-78.6657409667968,-63.2785606384277,-125.83340239632899,56.94351407033584,290380013
fw,-75.7590713500976,-64.7621459960937,-134.3695076698839,63.9933174492013,290396680
fw,-72.9917907714843,-66.3884735107421,-142.5720174109877,69.36076875328327,290413347
fw,-70.5944671630859,-67.9063415527343,-149.98367409236482,72.64473695037661,290430014
fw,-68.3636779785156,-69.2173538208007,-155.67553123572455,73.8482308053154,290446681
fw,-65.9002304077148,-70.276382446289,-158.4629127292172,73.32743589103961,290463348
fw,-63.2694511413574,-71.2507247924804,-157.2024975070515,71.6227792464341,290480015
fw,-60.7537078857421,-72.4022903442382,-151.07651816283308,69.25869620475684,290496682
fw,-58.6364707946777,-73.805191040039,-139.77885723013245,66.6086846131008,290513349
fw,-56.8679313659668,-75.2391586303711,-123.56360045913343,63.87753887695983,290530016
fw,-55.3418617248535,-76.583755493164,-103.17754745858257,61.184464227080696,290546683
fw,-54.1137084960937,-77.7521667480468,-79.73892764148948,58.68103488387401,290563350
fw,-53.3283538818359,-78.6892547607421,-54.62322419826969,56.63114622936635,290580017
fw,-52.9046325683593,-79.4758224487304,-29.38146511108116,55.41125703324558,290596684
fw,-52.8075141906738,-80.3011779785156,-5.672522130366347,55.433594111654415,290613351
fw,-53.0623092651367,-81.2504425048828,14.838009288766491,57.026646799644745,290630018
fw,-53.8602104187011,-82.3076705932617,30.65885366084831,60.31381866462923,290646685
fw,-55.7828369140625,-83.4532089233398,40.73987014580526,65.11832334896279,290663352
fw,-57.7451095581054,-84.6482238769531,44.757202430110546,70.90653023071174,290680019
fw,-59.0651130676269,-85.8244934082031,43.286130891578104,76.77557249360584,290696686
fw,-59.5830688476562,-86.9404067993164,37.73953302874442,81.49447240909475,290713353
fw,-59.9649238586425,-88.0144577026367,30.049108209573163,83.61136154188434,290730020
fw,-60.223289489746,-88.5790786743164,22.19605502087475,81.6311245995249,290746687
fw,-60.1886672973632,-87.8779144287109,15.768173011648837,74.24536850456423,290763354
fw,-60.4256172180175,-86.9127578735351,11.695430254157639,60.571659970251275,290780021
fw,-60.7975921630859,-86.3576126098632,10.228496496517328,40.35014060236146,290796688
fw,-61.191234588623,-86.1585540771484,11.125314919245888,14.06062148588382,290813355
fw,-61.923282623291,-86.2070846557617,13.933329763616761,-17.051902368114412,290830022
fw,-62.3976783752441,-86.5682983398437,18.22397934010821,-51.04358350605971,290846689
fw,-62.3054695129394,-87.1080169677734,23.672678920538974,-85.43743002599095,290863356
fw,-62.777732849121,-87.0880584716796,29.976178336555908,-117.5030559070916,290880023
fw,-63.5925102233886,-85.7022628784179,36.70578848666508,-144.64781499758683,290896690
fw,-64.8887329101562,-83.0355682373046,43.235029700654984,-164.87001669608193,290913357
fw,-66.3219909667968,-79.6869277954101,48.824015140432415,-177.16913288149613,290930024
fw,-67.6639251708984,-76.2365112304687,52.83377883574811,-181.7770425390437,290946691
fw,-68.9397964477539,-73.0337753295898,54.95819351411465,-180.09826006495882,290963358
fw,-70.1569595336914,-70.2606582641601,55.34885159356234,-174.3309890606853,290980025
fw,-71.2541732788086,-67.9335479736328,54.566801758765166,-166.85527210035121,290996692
fw,-72.2578735351562,-65.8922958374023,53.3835348419756,-159.5685848826075,291013359
fw,-73.3454971313476,-63.8689613342285,52.52281313534101,-153.37899309222277,291030026
fw,-74.6262588500976,-61.6488380432128,52.45195756507499,-148.01636635251717,291046693
fw,-75.9195709228515,-59.1454925537109,53.29382319154143,-142.21228714897205,291063360
fw,-77.0735473632812,-56.6961936950683,54.86727097902509,-134.1741138425477,291080027
fw,-78.1632766723632,-54.5533905029296,56.81302460526671,-122.18970871205771,291096694
fw,-79.2459487915039,-52.7953910827636,58.743829248527696,-105.17935860749961,291113361
fw,-80.2892837524414,-51.4699821472168,60.36679033944009,-83.05640133153257,291130028
fw,-81.2979431152343,-50.5932502746582,61.5459558955501,-56.83353739439445,291146695
fw,-82.3183517456054,-50.2050247192382,62.29568059924471,-28.4800975672707,291163362
fw,-83.3730316162109,-50.2745475769043,62.71690225651523,-0.579292184693037,291180029
fw,-84.4701843261718,-50.8950958251953,62.9045753174972,24.141853444757007,291196696
fw,-85.6112670898437,-52.0972557067871,62.85978160020174,43.321734708365184,291213363
fw,-86.7648162841796,-53.2961273193359,62.433501198008365,55.41308115617573,291230030
fw,-87.84423828125,-54.5017585754394,61.315292266132175,59.97359052761247,291246697
fw,-88.7357635498046,-55.5222511291503,59.06608822630344,57.7276291557425,291263364
fw,-89.0930252075195,-56.2775840759277,55.184895246256154,50.38273956482891,291280031
fw,-88.5961227416992,-56.9586868286132,49.19509407220596,40.24988100475391,291296698
fw,-88.0137710571289,-57.5496978759765,40.73532447484154,29.76715187306191,291313365
fw,-87.5382080078125,-57.9345054626464,29.640750538588982,21.043924259564978,291330032
fw,-87.1433639526367,-58.2054595947265,16.00157718062811,15.523733853937987,291346699
fw,-87.0322494506836,-58.4754219055175,0.18585733171331192,13.824597648748119,291363366
fw,-87.2610473632812,-58.6133041381835,-17.185479858875016,15.772397728637468,291380033
fw,-87.6712341308593,-58.8766746520996,-35.31698157083031,20.60343219528323,291396700
fw,-88.0342788696289,-59.984806060791,-53.362079742095986,27.27278090251219,291413367
fw,-87.8547897338867,-61.0098190307617,-70.56672730580928,34.76840023942506,291430034
fw,-86.5988388061523,-61.243293762207,-86.39639912414434,42.32149755802173,291446701
fw,-84.8134460449218,-61.6992301940918,-100.60748556070844,49.45191660108158,291463368
fw,-82.5624160766601,-62.6931953430175,-113.23594499271995,55.88016858935893,291480035
fw,-79.8768844604492,-63.9533004760742,-124.50034522758257,61.40850089724363,291496702
fw,-76.9628829956054,-65.4534301757812,-134.64311330380647,65.86577522245871,291513369
fw,-74.2590866088867,-66.9806213378906,-143.7530481243831,69.1394431270547,291530036
fw,-71.8743438720703,-68.3665237426757,-151.6215485764612,71.24556016136407,291546703
fw,-69.6131820678711,-69.6391448974609,-157.68287502594467,72.36354383229117,291563370
fw,-67.1454467773437,-70.7735519409179,-161.0689109619279,72.79174695897953,291580037
fw,-64.5499267578125,-71.8438339233398,-160.7710655670881,72.83548931464478,291596704
fw,-62.0512657165527,-73.0612640380859,-155.86213367791237,72.6844619118095,291613371
fw,-59.7992210388183,-74.4903945922851,-145.7129436194059,72.34632862733585,291630038
