Label,Left_Hip_q,Right_Hip_q,Left_Hip_qd,Right_Hip_qd,SampleTimeFine
iw,-82.255142211914,-48.9695320129394,45.9241142272949,-40.4603614807128,1288983318
iw,-83.1129379272461,-48.7322349548339,48.77256959698569,-23.157084049996392,1288999985
iw,-83.9930877685546,-48.8636207580566,50.1083962158364,-0.5521519647908169,1289016652
iw,-84.8509826660156,-49.4454154968261,51.02602691991069,20.034103910168984,1289033319
iw,-85.6461639404296,-50.3332366943359,51.182914505540005,36.856615867655385,1289049986
iw,-86.3587951660156,-51.2947235107421,50.27962616706018,48.81173793876167,1289066653
iw,-86.963394165039,-52.2441329956054,48.058948008352154,55.58167829867021,1289083320
iw,-87.4095077514648,-53.2450485229492,44.30038026044724,57.60580002033066,1289099987
iw,-87.676284790039,-54.2140960693359,38.817453411757946,55.91212900343478,1289116654
iw,-87.7861022949218,-55.0958061218261,31.46493071530403,51.87493152676122,1289133321
iw,-87.8143005371093,-55.9969444274902,22.16063996071843,46.96639955432107,1289149988
iw,-87.8353576660156,-57.0027198791503,10.922199712765037,42.54750292268478,1289166655
iw,-87.8569869995117,-57.8225708007812,-2.0882540329760846,39.71073425069026,1289183322
iw,-87.8042984008789,-58.5101737976074,-16.526985366541478,39.16464126763605,1289199989
iw,-87.5911636352539,-59.1512069702148,-31.861780200891026,41.14975406368974,1289216656
iw,-87.0648193359375,-59.78950881958,-47.417154698254585,45.39572815486834,1289233323
iw,-86.0540008544921,-60.5420875549316,-62.47896055491712,51.15230004425001,1289249990
iw,-84.5323410034179,-61.5920181274414,-76.4365684837051,57.32876413678131,1289266657
iw,-82.5486297607421,-63.0148620605468,-88.9092843485881,62.74473199340663,1289283324
iw,-80.3616180419921,-64.5010604858398,-99.79265100783091,66.43828936303002,1289299991
iw,-78.2418441772461,-65.7868423461914,-109.18754208054438,67.92970160935353,1289316658
iw,-76.1183853149414,-66.9361877441406,-117.23387359470229,67.33665839092293,1289333325
iw,-73.9979858398437,-67.9383850097656,-123.92765067266636,65.29107386546374,1289349992
iw,-71.9680862426757,-68.7981338500976,-129.01662786605374,62.69046465674481,1289366659
iw,-69.8700485229492,-69.706069946289,-132.03348995128587,60.38407949525277,1289383326
iw,-67.7219924926757,-70.7460174560546,-132.45749923430657,58.912502327381276,1289399993
iw,-65.5146865844726,-71.8623580932617,-129.93260850806627,58.38526781991633,1289416660
iw,-63.3587684631347,-72.9852142333984,-124.44151021190213,58.51710737702689,1289433327
iw,-61.4375267028808,-74.1279907226562,-116.35283735848078,58.783865170073895,1289449994
iw,-59.88032913208,-75.2564697265625,-106.31565778365542,58.62761844776063,1289466661
iw,-58.530704498291,-76.3057098388671,-95.04768602939555,57.640201641396864,1289483328
iw,-57.2510032653808,-77.2380065917968,-83.11720268091537,55.675018603466484,1289499995
iw,-55.9917564392089,-78.0679016113281,-70.82372314130042,52.867227663427975,1289516662
iw,-54.8882064819335,-78.821533203125,-58.23300682545838,49.57287546389583,1289533329
iw,-53.9754257202148,-79.5233078002929,-45.34363415802359,46.259941160939206,1289549996
iw,-53.3428268432617,-80.2104797363281,-32.29644599476007,43.39213458706068,1289566663
iw,-53.0694503784179,-80.9154663085937,-19.51601592707763,41.33851528270668,1289583330
iw,-53.1878395080566,-81.6576919555664,-7.703094964930478,40.32357207274247,1289599997
iw,-53.8743171691894,-82.4282455444336,2.3346716189116252,40.41228161190735,1289616664
iw,-54.7918586730957,-83.1748733520507,9.948005626252359,41.51204582704606,1289633331
iw,-55.60103225708,-83.8608474731445,14.88938806781147,43.37365545324319,1289649998
iw,-56.0726242065429,-84.543212890625,17.42105525393661,45.58493889274398,1289666665
iw,-56.4198989868164,-85.2538528442382,18.237850807826806,47.56523017674709,1289683332
iw,-56.828498840332,-86.0012969970703,18.24473674111994,48.576437506417406,1289699999
iw,-57.3466300964355,-86.6659927368164,18.29246423433338,47.76340481652381,1289716666
iw,-58.0661582946777,-87.0861663818359,18.979623600171685,44.22732018046293,1289733333
iw,-58.946979522705,-87.2127990722656,20.581282331393854,37.12955215184086,1289750000
iw,-59.8292083740234,-87.1260147094726,23.098095107592147,25.822369727233962,1289766667
iw,-60.7417259216308,-86.964370727539,26.370202006146553,10.001033670395174,1289783334
iw,-61.3290138244628,-86.7855758666992,30.18487053953985,-10.140841122218596,1289800001
iw,-61.7611541748046,-86.5556564331054,34.325900036232284,-33.79458350587043,1289816668
iw,-62.1719360351562,-86.1607971191406,38.556056966034916,-59.520359267181895,1289833335
iw,-62.9559860229492,-85.400405883789,42.57077369151114,-85.38665585979876,1289850002
iw,-64.0365753173828,-83.9467010498046,45.98385210047074,-109.27446821164838,1289866669
iw,-65.3061599731445,-81.790054321289,48.38584777869564,-129.28451230932936,1289883336
iw,-66.414306640625,-79.1534271240234,49.46449836848781,-144.1262007188438,1289900003
iw,-67.4274597167968,-76.3173217773437,49.13034341719998,-153.3549078871723,1289916670
iw,-68.4345245361328,-73.6494827270507,47.581841370983064,-157.37207991449367,1289933337
iw,-69.4296417236328,-71.2196426391601,45.27524436121952,-157.19214114592063,1289950004
iw,-70.3322067260742,-68.9785842895507,42.81034404996041,-154.07017836559803,1289966671
iw,-71.1951904296875,-66.8155364990234,40.77613088471045,-149.13258247852875,1289983338
iw,-72.1344375610351,-64.5615463256836,39.60850495011077,-143.13669973598138,1290000005
iw,-73.1234970092773,-62.2615585327148,39.49948251474994,-136.41586702658807,1290016672
iw,-74.0798950195312,-60.0980834960937,40.375000038698126,-128.98163591101914,1290033339
iw,-74.9692230224609,-58.1207656860351,41.93754056314913,-120.69859318469223,1290050006
iw,-75.8099288940429,-56.2640342712402,43.756641250331576,-111.440531884808,1290066673
iw,-76.6434860229492,-54.5022277832031,45.38428316390376,-101.1707052394942,1290083340
iw,-77.5326232910156,-53.0629196166992,46.46924078320886,-89.93731743334493,1290100007
iw,-78.4593124389648,-51.9392967224121,46.84318131648543,-77.81611051004305,1290116674
iw,-79.3379440307617,-51.0850486755371,46.55465631435506,-64.8541943497936,1290133341
iw,-80.158332824707,-50.3879127502441,45.839183603530394,-51.06736399112444,1290150008
iw,-80.9545669555664,-49.7840423583984,45.03376566102948,-36.51394346660946,1290166675
iw,-81.7309799194336,-49.2635459899902,44.4645227407066,-21.419633292919634,1290183342
iw,-82.5125350952148,-48.8509941101074,44.3457669028637,-6.283862570562477,1290200009
iw,-83.3445358276367,-49.0044593811035,44.722076199429914,8.111531338818555,1290216676
iw,-84.2153091430664,-49.7181930541992,45.465278230134814,20.830821085105516,1290233343
iw,-85.0977172851562,-50.6852951049804,46.31577789197736,31.016695290428515,1290250010
iw,-85.9489974975586,-51.5214118957519,46.94285429259432,38.13071879583137,1290266677
iw,-86.7623901367187,-52.1909675598144,46.9970269676054,42.09773655625039,1290283344
iw,-87.4939193725586,-52.9167671203613,46.138070189964935,43.301428471317216,1290300011
iw,-88.0968017578125,-53.6319694519043,44.03844050258389,42.45306854185881,1290316678
iw,-88.5174789428711,-54.304573059082,40.37626339366331,40.406188209915435,1290333345
iw,-88.7113876342773,-55.062156677246,34.838747534329585,37.99385774924274,1290350012
iw,-88.6766281127929,-55.9169464111328,27.15318295227572,35.9322332786658,1290366679
iw,-88.5308609008789,-56.8206634521484,17.149676043507927,34.78843884874703,1290383346
iw,-88.4275360107421,-57.5355796813964,4.842409535829554,34.97681275495463,1290400013
iw,-88.3789978027343,-58.2273216247558,-9.49881995331683,36.74112639821244,1290416680
iw,-88.375747680664,-58.8492126464843,-25.321880674688988,40.10363117965782,1290433347
iw,-88.2572937011718,-59.3219985961914,-41.83985354194469,44.80085351934394,1290450014
iw,-87.6461563110351,-59.97066116333,-58.161383549423284,50.25809367219704,1290466681
iw,-86.2919769287109,-61.1215667724609,-73.47802346121891,55.657421232471606,1290483348
iw,-84.3681030273437,-62.5573348999023,-87.24691213127922,60.11656088746375,1290500015
iw,-82.2564849853515,-63.9619216918945,-99.29128532894465,62.9324542678766,1290516682
iw,-80.0404739379882,-65.1463623046875,-109.76370221495445,63.79378445291756,1290533349
iw,-77.6379852294921,-66.215103149414,-118.97425443562302,62.869213947895815,1290550016
iw,-75.1569900512695,-67.2106170654296,-127.14949581510382,60.73342725889856,1290566683
iw,-72.7750091552734,-68.1074676513671,-134.22238160854585,58.16543797987582,1290583350
iw,-70.4994735717773,-69.0602111816406,-139.74313900859823,55.90213651304786,1290600017
iw,-68.206298828125,-70.0971450805664,-142.95397684786525,54.43555721715122,1290616684
iw,-65.8034515380859,-71.125991821289,-143.00704573305612,53.9115670509325,1290633351
iw,-63.342601776123,-72.1398162841796,-139.24727162255428,54.14295699113194,1290650018
iw,-60.997142791748,-73.1993179321289,-131.45137550064297,54.71367093478315,1290666685
iw,-58.9947357177734,-74.2750015258789,-119.92781667673307,55.13272541952149,1290683352
iw,-57.354923248291,-75.3272171020507,-105.43966331357589,54.992726307866185,1290700019
iw,-55.9942359924316,-76.313720703125,-88.9905521416718,54.092715561007616,1290716686
iw,-54.8027076721191,-77.1957015991211,-71.57446259095886,52.49666097583959,1290733353
iw,-53.8491897583007,-78.0011596679687,-54.000661894023295,50.516756658301276,1290750020
iw,-53.0943603515625,-78.7355499267578,-36.85990019383407,48.63083402246272,1290766687
iw,-52.5352592468261,-79.4878845214843,-20.61946079793732,47.35880539565789,1290783354
iw,-52.1599426269531,-80.286880493164,-5.761354396389642,47.12900270403121,1290800021
iw,-52.4930801391601,-81.1310729980468,7.150780831955272,48.16140954262063,1290816688
iw,-53.8530158996582,-81.9876098632812,17.54917391903343,50.38601384228819,1290833355
iw,-55.5327377319335,-82.8588333129882,25.05689457620634,53.406953466843156,1290850022
iw,-56.5123672485351,-83.7554016113281,29.677104977374558,56.51897143613065,1290866689
iw,-56.6114387512207,-84.7490234375,31.84093190529647,58.778417713963044,1290883356
iw,-56.9770011901855,-85.8338851928711,32.27097102975797,59.121638373209514,1290900023
iw,-57.7519760131835,-86.8325729370117,31.74139297018272,56.509567217859384,1290916690
iw,-58.4290580749511,-87.4121475219726,30.86987515500386,50.06743710321072,1290933357
iw,-59.4492645263671,-87.4953994750976,30.033343998815898,39.19362578405096,1290950024
iw,-60.5953216552734,-87.3319320678711,29.412727151813737,23.632607872053164,1290966691
iw,-61.3157157897949,-87.1260147094726,29.10381235064986,3.52872370063068,1290983358
iw,-61.8037109375,-86.8643798828125,29.20814435189998,-20.520591828066358,1291000025
iw,-62.0578918457031,-86.4427947998046,29.841825578301613,-47.41793734877855,1291016692
iw,-62.3948860168457,-85.7469711303711,31.059313672501663,-75.56597986874006,1291033359
iw,-63.1883468627929,-84.5815277099609,32.75244866063653,-102.9719621276219,1291050026
iw,-64.2538681030273,-82.7894515991211,34.61060029306108,-127.49327982842799,1291066693
iw,-65.3199768066406,-80.2955093383789,36.19469032323493,-147.20322270013693,1291083360
iw,-66.3374786376953,-77.2373123168945,37.10643921551337,-160.78695469613888,1291100027
iw,-67.3411865234375,-74.0142364501953,37.17260853412109,-167.83474038498994,1291116694
iw,-68.2658386230468,-70.9655075073242,36.54953454683418,-168.91240176194748,1291133361
iw,-69.1182556152343,-68.2970123291015,35.68994908512017,-165.36208046273921,1291150028
iw,-69.8215255737304,-66.1016235351562,35.17954667208352,-158.89111472655688,1291166695
iw,-70.5460128784179,-64.1592712402343,35.51226131818027,-151.09394346198113,1291183362
iw,-71.5201721191406,-62.0973815917968,36.90100231752535,-143.0769755369372,1291200029
iw,-72.5559387207031,-59.863410949707,39.200676370026336,-135.30511039868207,1291216696
iw,-73.4427947998046,-57.6462440490722,41.96466416770605,-127.68724718453285,1291233363
iw,-74.3005676269531,-55.5853195190429,44.597945068383545,-119.81963020828907,1291250030
iw,-75.2245864868164,-53.6503219604492,46.540847147086524,-111.25784215579885,1291266697
iw,-76.1496505737304,-51.9665756225585,47.42295032031549,-101.70506833190383,1291283364
iw,-77.0948638916015,-50.5508079528808,47.15069926652382,-91.06561498048116,1291300031
iw,-78.0203781127929,-49.4902610778808,45.91695975408227,-79.38368176709535,1291316698
iw,-78.8781356811523,-48.6799201965332,44.13921450458326,-66.73752214071862,1291333365
iw,-79.6728439331054,-47.9778518676757,42.346456537767885,-53.16999812868964,1291350032
iw,-80.4256820678711,-47.363109588623,41.04470140829424,-38.705618144657016,1291366699
iw,-81.1785583496093,-46.8608283996582,40.59576145510308,-23.447677001086227,1291383366
iw,-81.963150024414,-46.5970077514648,41.13991965176774,-7.6973629099683185,1291400033
iw,-82.7714309692382,-46.6811714172363,42.57898485890752,7.981620972712033,1291416700
iw,-83.613410949707,-47.2423591613769,44.61544394799324,22.80404046310276,1291433367
iw,-84.4750442504882,-48.1580200195312,46.823779705582105,35.90627789932159,1291450034
iw,-85.3124923706054,-49.1101341247558,48.720230024335706,46.53562498239984,1291466701
iw,-86.0673751831054,-49.9852752685546,49.803197456856125,54.20965904175951,1291483368
iw,-86.7348175048828,-50.8885116577148,49.55746172833081,58.79263218914631,1291500035
iw,-87.3494567871093,-51.8000679016113,47.44217490671323,60.48404339662676,1291516702
iw,-87.9010009765625,-52.7719001770019,42.90075121133026,59.75500046933915,1291533369
iw,-88.3471984863281,-53.8155441284179,35.42778832700347,57.27696396267566,1291550036
iw,-88.6420288085937,-55.020523071289,24.701349501819788,53.864856905553495,1291566703
iw,-88.6982421875,-56.2300949096679,10.747942352987385,50.421514951566884,1291583370
iw,-88.5407562255859,-56.9592132568359,-5.928434215109076,47.8490277410481,1291600037
iw,-88.3296508789062,-57.6048049926757,-24.33094871940805,46.903472961118155,1291616704
iw,-87.8943939208984,-58.1787948608398,-43.11473426881131,48.011128232749854,1291633371
iw,-86.8608856201171,-58.7682991027832,-60.8724777500463,51.111730326089905,1291650038
iw,-85.3086929321289,-59.6689414978027,-76.47057631107491,55.61486484503632,1291666705
iw,-83.4932022094726,-61.1103172302246,-89.30922528538261,60.52783762882093,1291683372
iw,-81.5878677368164,-62.6063079833984,-99.40279134100773,64.7410936982468,1291700039
iw,-79.5582046508789,-63.9698028564453,-107.25147434930402,67.37473154775853,1291716706
iw,-77.2685470581054,-65.2415542602539,-113.56412054716014,68.04783950673668,1291733373
iw,-74.7782745361328,-66.337158203125,-118.9495756177686,66.96169976778071,1291750040
iw,-72.3320159912109,-67.2503509521484,-123.69361927744858,64.7724188524587,1291766707
iw,-69.9704971313476,-68.1518936157226,-127.68785586644357,62.31978684363104,1291783374
iw,-67.5845794677734,-69.1980743408203,-130.50816387692262,60.33069880635484,1291800041
iw,-65.2610549926757,-70.3550415039062,-131.58589130807556,59.20754610024893,1291816708
iw,-63.0070533752441,-71.4492874145507,-130.39227042187756,58.95828069560324,1291833375
iw,-60.8842582702636,-72.5099868774414,-126.56801085813099,59.2609235987639,1291850042
iw,-58.9816741943359,-73.6044082641601,-119.96689006398579,59.613065624136645,1291866709
iw,-57.3185997009277,-74.6980895996093,-110.62676208887096,59.50558445400577,1291883376
iw,-55.8825035095214,-75.7140426635742,-98.71378145019891,58.569801895052876,1291900043
iw,-54.5416526794433,-76.7046203613281,-84.4919405502836,56.66645825041481,1291916710
iw,-53.2958450317382,-77.6398468017578,-68.34758663711033,53.905932470425356,1291933377
iw,-52.1962280273437,-78.5308761596679,-50.857527870686646,50.607321646019486,1291950044
iw,-51.3888397216796,-79.3663711547851,-32.850624471333894,47.21566110658014,1291966711
iw,-51.1261100769043,-80.1641693115234,-15.399640767468862,44.20065723072232,1291983378
iw,-51.19771194458,-80.9010620117187,0.296122507821581,41.95822378514056,1292000045
iw,-51.635570526123,-81.6139144897461,13.126811591788996,40.73027218681949,1292016712
iw,-52.6091842651367,-82.3154296875,22.325560467056423,40.55126763060167,1292033379
iw,-53.835765838623,-82.988655090332,27.670875380262043,41.224427769648265,1292050046
iw,-54.9031906127929,-83.6916809082031,29.555003469631686,42.327293066235576,1292066713
iw,-55.4390296936035,-84.4635238647461,28.877038236763106,43.24475011105047,1292083380
iw,-55.8259696960449,-85.2746200561523,26.788624182948507,43.224955105825714,1292100047
iw,-56.3343887329101,-86.0267486572265,24.387491568432797,41.449331810967706,1292116714
iw,-57.1233673095703,-86.6056976318359,22.478080334111226,37.10572091176176,1292133381
iw,-58.1321029663085,-86.9026947021484,21.47939728481899,29.459058649199346,1292150048
iw,-58.8593864440918,-86.8963775634765,21.482682332901316,17.92616707521582,1292166715
iw,-59.6347312927246,-86.7285919189453,22.394918778735594,2.1708237399695767,1292183382
iw,-60.2335929870605,-86.3924026489257,24.081499335607763,-17.770728770239916,1292200049
iw,-60.6009445190429,-85.8626098632812,26.44174437002062,-41.35019644368456,1292216716
iw,-60.8178749084472,-85.059700012207,29.396678880945643,-67.40570933158617,1292233383
iw,-61.4774208068847,-83.874526977539,32.81914054325719,-94.1718737605954,1292250050
iw,-62.5536384582519,-82.1846542358398,36.467867687053605,-119.4603547373888,1292266717
iw,-63.7027702331543,-79.7719192504882,39.980593147212545,-141.0147829676508,1292283384
iw,-64.6205215454101,-76.7579345703125,42.942021675641826,-156.96636773860175,1292300051
iw,-65.573501586914,-73.4953460693359,44.99954222939421,-166.25308703728464,1292316718
iw,-66.593276977539,-70.3405227661132,45.977435083697436,-168.8533073149296,1292333385
iw,-67.6295928955078,-67.5911331176757,45.94327021159985,-165.74043373678512,1292350052
iw,-68.5755157470703,-65.2490463256836,45.19941095314481,-158.56868090020458,1292366719
iw,-69.4314651489257,-63.1863822937011,44.19905339125633,-149.20231173693247,1292383386
iw,-70.3320388793945,-61.1941032409668,43.41279332606002,-139.25190390454625,1292400053
iw,-71.3454895019531,-59.1839256286621,43.189966528780246,-129.76022089094596,1292416720
iw,-72.3994979858398,-57.1953506469726,43.66106322903141,-121.10484819326892,1292433387
iw,-73.3646697998046,-55.2434959411621,44.711889315079894,-113.09689264502516,1292450054
iw,-74.2373962402343,-53.3526878356933,46.0346134404848,-105.19426596462304,1292466721
iw,-75.1059341430664,-51.6987152099609,47.23674319746352,-96.73270371717209,1292483388
iw,-76.0144271850586,-50.3152961730957,47.97308125644963,-87.10317470144514,1292500055
iw,-76.9069061279296,-49.2324905395507,48.059261497834655,-75.85171224543554,1292516722
iw,-77.7711486816406,-48.4571685791015,47.529903776473496,-62.72232648092117,1292533389
iw,-78.6001358032226,-47.9067916870117,46.62131820583225,-47.68394510693663,1292550056
iw,-79.3924713134765,-47.4770355224609,45.684577825929715,-30.96943894165194,1292566723
iw,-80.1628265380859,-47.1470336914062,45.05977647756492,-13.118873881437626,1292583390
iw,-80.9372253417968,-47.1435813903808,44.95558841691897,5.013781440655241,1292600057
iw,-81.7610092163086,-47.7153511047363,45.374202842808785,22.333992852296394,1292616724
iw,-82.6270599365234,-48.5963897705078,46.10209651753449,37.668765810642036,1292633391
iw,-83.531005859375,-49.5654869079589,46.76037292268762,49.97693629054505,1292650058
iw,-84.4148941040039,-50.5001373291015,46.88647035460319,58.54025383158448,1292666725
iw,-85.2346115112304,-51.5343589782714,46.011806043416655,63.08176829844376,1292683392
iw,-85.9571228027343,-52.6737823486328,43.71002209080566,63.79673903607844,1292700059
iw,-86.5398330688476,-53.7549133300781,39.612176763326964,61.31353174761203,1292716726
iw,-86.9659805297851,-54.8096694946289,33.407501859145405,56.61015971676653,1292733393
iw,-87.2946243286132,-55.9873466491699,24.859636297649008,50.90056890442598,1292750060
iw,-87.5364532470703,-57.0960159301757,13.860708333098463,45.4884953232814,1292766727
iw,-87.5760955810546,-57.6649322509765,0.5198331956912576,41.5815616257241,1292783394
iw,-87.4099578857421,-58.1956558227539,-14.749616329052147,40.074951024068774,1292800061
iw,-87.0292205810546,-58.740623474121,-31.199079123050566,41.347815262265776,1292816728
iw,-86.3170394897461,-59.2495689392089,-47.81644327909511,45.143286750927395,1292833395
iw,-85.0857009887695,-60.0386009216308,-63.507180102922064,50.59973036777134,1292850062
iw,-83.4046859741211,-61.2827796936035,-77.33740531943133,56.45922184100673,1292866729
iw,-81.4185409545898,-62.7420501708984,-88.75002265204091,61.41190314213353,1292883396
iw,-79.3269577026367,-64.1123046875,-97.6644413129777,64.47053389558059,1292900063
iw,-77.120132446289,-65.31298828125,-104.41659753212329,65.24398891964935,1292916730
iw,-74.801513671875,-66.407112121582,-109.56549420085142,64.01206711694448,1292933397
iw,-72.5309829711914,-67.3635940551757,-113.64664770903678,61.58251377207094,1292950064
iw,-70.4726257324218,-68.250732421875,-116.96599700859205,58.99424591525839,1292966731
iw,-68.4966964721679,-69.2087707519531,-119.5016616318119,57.17987082814908,1292983398
iw,-66.5534591674804,-70.2523651123046,-120.93490739090261,56.699557147798416,1293000065
iw,-64.521369934082,-71.3272323608398,-120.78535373816042,57.61661261973187,1293016732
iw,-62.423095703125,-72.4418716430664,-118.59160367943868,59.5282727132143,1293033399
iw,-60.4419288635253,-73.6175308227539,-114.06601788843395,61.71854394827754,1293050066
iw,-58.7198753356933,-74.8060989379882,-107.16737616505004,63.375395415404384,1293066733
iw,-57.2514419555664,-75.9597015380859,-98.07533314281723,63.8103998355096,1293083400
iw,-55.9540252685546,-77.0295944213867,-87.09916649620853,62.628799256302386,1293100067
iw,-54.7915840148925,-78.0268783569336,-74.58400586004477,59.816857232829186,1293116734
iw,-53.8146133422851,-78.9703292846679,-60.87188626942409,55.73622364376011,1293133401
iw,-53.0414543151855,-79.8454895019531,-46.33634904692952,51.03578541837882,1293150068
iw,-52.5079231262207,-80.6113815307617,-31.46094394155835,46.50577614318939,1293166735
iw,-52.2542343139648,-81.3188171386718,-16.89990306806994,42.906394717437955,1293183402
iw,-52.3234977722168,-81.9609069824218,-3.45948147136683,40.80533168485974,1293200069
iw,-53.096881866455,-82.6258926391601,8.026506130086608,40.455600289203694,1293216736
iw,-54.2100296020507,-83.339859008789,16.89562025898204,41.73583602009316,1293233403
iw,-55.2716178894043,-84.1081085205078,22.84694416341759,44.16014590876006,1293250070
iw,-55.8569908142089,-84.9112319946289,26.029913499417166,46.94749799049339,1293266737
iw,-56.1891479492187,-85.7154998779296,26.98924170309997,49.12789717589108,1293283404
iw,-56.8110656738281,-86.4224243164062,26.5029252009754,49.65955289431746,1293300071
iw,-57.7844047546386,-86.9223480224609,25.39958617353849,47.53890943893771,1293316738
iw,-58.8304138183593,-87.1569747924804,24.42515651813398,41.899527493351464,1293333405
iw,-59.7670097351074,-87.1778411865234,24.17183447519202,32.10818602120201,1293350072
iw,-60.4168891906738,-87.0653533935546,25.03988615753123,17.868284827246598,1293366739
iw,-60.9469337463378,-86.8539047241211,27.20322796817255,-0.672552075766568,1293383406
iw,-61.3598442077636,-86.5723495483398,30.576295572853756,-22.83634440183703,1293400073
iw,-61.8761863708496,-86.2113189697265,34.80383321743064,-47.3936746180299,1293416740
iw,-62.7219848632812,-85.6615371704101,39.30328077338286,-72.65029288785334,1293433407
iw,-63.8208847045898,-84.6413803100586,43.37820440407878,-96.65883563657461,1293450074
iw,-65.0729064941406,-82.9586181640625,46.39044940813001,-117.53008050452209,1293466741
iw,-66.1736145019531,-80.712661743164,47.93966123527389,-133.7735219449675,1293483408
iw,-67.035888671875,-78.0553283691406,47.978124139902825,-144.5711413924807,1293500075
iw,-67.9005126953125,-75.3020401000976,46.809248303657526,-149.89676348037585,1293516742
iw,-68.8028488159179,-72.7714157104492,44.97297248084233,-150.438622010255,1293533409
iw,-69.716079711914,-70.53662109375,43.074654124695776,-147.35041313275497,1293550076
iw,-70.6393508911132,-68.4921722412109,41.63004145387182,-141.91867767052443,1293566743
iw,-71.603286743164,-66.4482116699218,40.972740284855014,-135.26135827881447,1293583410
iw,-72.5379409790039,-64.3370742797851,41.22807775806695,-128.14790677013067,1293600077
iw,-73.3952484130859,-62.2765731811523,42.32978678420736,-120.96823639203217,1293616744
iw,-74.2532501220703,-60.3625755310058,44.055924583434894,-113.81228653525683,1293633411
iw,-75.1276931762695,-58.6062545776367,46.07630207052464,-106.58870142120243,1293650078
iw,-76.0161209106445,-56.978042602539,48.01462569838006,-99.12054001957576,1293666745
iw,-76.9282836914062,-55.4772109985351,49.524231308705765,-91.19235084057773,1293683412
iw,-77.8619918823242,-54.2222824096679,50.36316051470273,-82.56119305668244,1293700079
iw,-78.7657089233398,-53.1837005615234,50.44577187889595,-72.96632207660919,1293716746
iw,-79.6172714233398,-52.3600311279296,49.85217686247801,-62.171958576136745,1293733413
iw,-80.4534454345703,-51.6605834960937,48.79196997290598,-50.05642840626185,1293750080
iw,-81.3076705932617,-51.0045318603515,47.536372954180074,-36.72692799219376,1293766747
iw,-82.1608123779296,-50.4636840820312,46.343361159616606,-22.608013615236867,1293783414
iw,-82.9866943359375,-50.324363708496,45.39886800206984,-8.444146283435183,1293800081
iw,-83.8271179199218,-50.6959533691406,44.78588229546772,4.8148979965665655,1293816748
iw,-84.6630401611328,-51.255271911621,44.47839379115492,16.221769533379142,1293833415
iw,-85.4671936035156,-51.7837333679199,44.3459834510663,25.05922236602037,1293850082
iw,-86.2032623291015,-52.3314170837402,44.15370569274091,31.0043468628224,1293866749
iw,-86.8718185424804,-53.0172691345214,43.55263121716478,34.1797441593406,1293883416
iw,-87.4490203857421,-53.7914962768554,42.073064984260306,35.09281196409147,1293900083
iw,-87.8830795288086,-54.4959678649902,39.14366819763606,34.500322726123386,1293916750
iw,-88.1282119750976,-55.0579147338867,34.156776808920746,33.246102740778305,1293933417
iw,-88.1918182373046,-55.5789070129394,26.583100474598126,32.11372325992072,1293950084
iw,-88.1525268554687,-56.3279876708984,16.115254063878012,31.723063259010722,1293966751
iw,-88.1144638061523,-56.9654579162597,2.7992858536993293,32.48108065787381,1293983418
iw,-88.1315612792968,-57.696002960205,-12.894493132003026,34.57588573789401,1294000085
iw,-88.0470581054687,-58.4868431091308,-30.09986914221088,37.989463983780155,1294016752
iw,-87.5631332397461,-59.0667991638183,-47.69316307273508,42.50827036899204,1294033419
iw,-86.482421875,-59.6571540832519,-64.51573777704898,47.73168050312474,1294050086
iw,-84.924690246582,-60.6301956176757,-79.62078099461326,53.10127455146553,1294066753
iw,-82.967041015625,-61.8900527954101,-92.46646253902371,57.97794591277433,1294083420
iw,-80.8216400146484,-63.114501953125,-102.98541178017577,61.76951963154032,1294100087
iw,-78.592300415039,-64.3323974609375,-111.49829448369829,64.0749973290894,1294116754
iw,-76.2920684814453,-65.5810012817382,-118.49805963473646,64.79118478172175,1294133421
iw,-73.9304809570312,-66.7290878295898,-124.38671292615234,64.1375622888529,1294150088
iw,-71.646987915039,-67.7512893676757,-129.2692844990727,62.587867135953836,1294166755
iw,-69.4522018432617,-68.757568359375,-132.88608710011246,60.733509928930225,1294183422
iw,-67.2154388427734,-69.8091964721679,-134.7055349679923,59.127132370467855,1294200089
iw,-64.9232864379882,-70.898811340332,-134.13316705153764,58.15482203112298,1294216756
iw,-62.6275978088378,-72.0027999877929,-130.7460102222289,57.9666250966376,1294233423
iw,-60.502456665039,-73.102066040039,-124.45342144374811,58.471223358262215,1294250090
iw,-58.701904296875,-74.1812133789062,-115.52037337929318,59.38425581397799,1294266757
iw,-57.1541442871093,-75.2254638671875,-104.45384729121606,60.31307122429028,1294283424
iw,-55.7759628295898,-76.2945327758789,-91.81846740017116,60.8590783041603,1294300091
iw,-54.4736061096191,-77.3699722290039,-78.07996701329937,60.71793888712849,1294316758
iw,-53.2947845458984,-78.4026412963867,-63.55587616922157,59.75714657020176,1294333425
iw,-52.3248634338378,-79.3892669677734,-48.49202056388989,58.05274903947085,1294350092
iw,-51.6055183410644,-80.3374710083007,-33.21398735369466,55.87455198113458,1294366759
iw,-51.3147087097168,-81.2338180541992,-18.260271172168917,53.62099037537248,1294383426
iw,-51.3059577941894,-82.1120071411132,-4.408129798920024,51.716752430993054,1294400093
iw,-51.7649993896484,-82.958869934082,7.448533003802051,50.49447031907494,1294416760
iw,-52.8960914611816,-83.7817993164062,16.538217694834614,50.0854706331653,1294433427
iw,-54.2164039611816,-84.5838775634765,22.471235577801284,50.34450934291858,1294450094
iw,-55.1032676696777,-85.3825531005859,25.39661014922394,50.829452856254456,1294466761
iw,-55.4081954956054,-86.2348556518554,25.971885034048466,50.84717009510368,1294483428
iw,-55.8626823425293,-87.0767822265625,25.155154112450017,49.5605880586875,1294500095
iw,-56.7074089050293,-87.8250732421875,23.921413437528344,46.132720376559305,1294516762
iw,-57.6503753662109,-88.2665252685546,23.031337939204516,39.87020395251902,1294533429
iw,-58.5813255310058,-88.2964706420898,22.92827617391943,30.330074271097047,1294550096
iw,-59.2713508605957,-88.1078262329101,23.75978502971949,17.370907287471304,1294566763
iw,-60.0883712768554,-87.8676071166992,25.46920257406383,1.1548928289283562,1294583430
iw,-60.584056854248,-87.5760269165039,27.89411684499045,-17.87368443910315,1294600097
iw,-61.0777587890625,-87.2109069824218,30.827061856963354,-39.00807079242659,1294616764
iw,-61.4574546813964,-86.7059783935546,34.026673694932065,-61.29157164762373,1294633431
iw,-62.2635765075683,-85.9181289672851,37.203888154378184,-83.54577183488502,1294650098
iw,-63.3532409667968,-84.6210556030273,40.02710266919483,-104.4523278738566,1294666765
iw,-64.5399551391601,-82.7551116943359,42.176094255930366,-122.71249157959573,1294683432
iw,-65.5187454223632,-80.2654037475586,43.43567119554706,-137.2671220091788,1294700099
iw,-66.5126419067382,-77.3981323242187,43.785799581981884,-147.51187837502974,1294716766
iw,-67.5311737060546,-74.5825119018554,43.43856914384713,-153.41847977527183,1294733433
iw,-68.5733795166015,-72.0507888793945,42.794360753945625,-155.49593072080162,1294750100
iw,-69.4137954711914,-69.7476119995117,42.32463189434021,-154.59177328246162,1294766767
iw,-70.1922912597656,-67.5441055297851,42.420613882108654,-151.60848376690305,1294783434
iw,-71.1572570800781,-65.3037490844726,43.26397690128805,-147.2490749485125,1294800101
iw,-72.2869491577148,-63.0060577392578,44.76890872141393,-141.88564745620977,1294816768
iw,-73.3637084960937,-60.6981506347656,46.6157239033086,-135.57981012143998,1294833435
iw,-74.3085556030273,-58.4617881774902,48.35911161520053,-128.2134093612981,1294850102
iw,-75.2172775268554,-56.420597076416,49.570017036290494,-119.64755435995717,1294866769
iw,-76.1706161499023,-54.5808410644531,49.96742538784319,-109.83175611667005,1294883436
iw,-77.14990234375,-53.0174026489257,49.50703433900396,-98.82413608504622,1294900103
iw,-78.1106185913086,-51.700210571289,48.406869812633325,-86.73522027641538,1294916770
iw,-78.9909286499023,-50.6372528076171,47.10268040824948,-73.6473837927816,1294933437
iw,-79.8272399902343,-49.8365097045898,46.14119491253061,-59.57311669591861,1294950104
iw,-80.6681137084961,-49.212661743164,46.03602685968963,-44.4940805225396,1294966771
iw,-81.5662994384765,-48.6701583862304,47.12227377374777,-28.478301776066562,1294983438
iw,-82.5049362182617,-48.2288742065429,49.44525946016603,-11.823904689842815,1295000105
iw,-83.4749069213867,-48.1014060974121,52.70694482980159,4.850823294295036,1295016772
iw,-84.4452209472656,-48.6566581726074,56.27750783557403,20.63874485149555,1295033439
iw,-85.4015960693359,-49.6594619750976,59.26714937089952,34.50918481948765,1295050106
iw,-86.2967834472656,-50.6185569763183,60.646934430103926,45.550306968490936,1295066773
iw,-87.0990982055664,-51.4784469604492,59.40479097491878,53.192104472907836,1295083440
iw,-87.7676086425781,-52.4888954162597,54.719367564013275,57.32959648841567,1295100107
iw,-88.1907348632812,-53.464744567871,46.12782539149484,58.321026190859,1295116774
iw,-88.3013076782226,-54.3577232360839,33.6550872644947,56.88941938677717,1295133441
iw,-88.2216110229492,-55.3580780029296,17.866888100370584,53.979150926926025,1295150108
iw,-88.1848983764648,-56.5043601989746,-0.18549932274731545,50.61042836873545,1295166775
iw,-88.3390502929687,-57.4465103149414,-19.139553651866382,47.74906774528615,1295183442
iw,-88.3539657592773,-58.3113937377929,-37.58977276950564,46.18682860265131,1295200109
iw,-87.6733322143554,-59.0015029907226,-54.386013372496706,46.42502283584449,1295216776
iw,-86.3318405151367,-59.6774177551269,-68.87412042652456,48.5732887007836,1295233443
iw,-84.6172256469726,-60.4776306152343,-80.99805276396268,52.30117791367297,1295250110
iw,-82.722900390625,-61.6539611816406,-91.22306053323018,56.88839192151783,1295266777
iw,-80.6555557250976,-62.976463317871,-100.29866578891183,61.39351666818944,1295283444
iw,-78.5092849731445,-64.3800964355468,-108.93486886711766,64.90801680391412,1295300111
iw,-76.2392349243164,-65.7293548583984,-117.49583335332768,66.812949149953,1295316778
iw,-73.9039230346679,-66.9347076416015,-125.81329534399035,66.94315582736381,1295333445
iw,-71.5767440795898,-68.0273056030273,-133.18691677638157,65.59770042512898,1295350112
iw,-69.2554931640625,-68.9984893798828,-138.57853238311753,63.39800605665548,1295366779
iw,-66.9115142822265,-69.9729766845703,-140.93909009190835,61.05436299065142,1295383446
iw,-64.492935180664,-71.0340423583984,-139.5551870011354,59.13036917211589,1295400113
iw,-62.0985984802246,-72.1320571899414,-134.28819727857893,57.88503544966283,1295416780
iw,-59.8857688903808,-73.222297668457,-125.613114672532,57.234633768684816,1295433447
iw,-58.1123580932617,-74.3244094848632,-114.4396285463576,56.83121130938733,1295450114
iw,-56.6787414550781,-75.4040985107421,-101.78938460750524,56.21902816137272,1295466781
iw,-55.3481140136718,-76.4424285888671,-88.4706864067081,55.011686919645314,1295483448
iw,-53.9898300170898,-77.3932342529296,-74.8960921602212,53.03245058425293,1295500115
iw,-52.7369842529296,-78.242073059082,-61.118795138947064,50.37642033583405,1295516782
iw,-51.7000656127929,-79.0117416381836,-47.05379598500475,47.380974588454265,1295533449
iw,-51.044807434082,-79.7192153930664,-32.759844745738896,44.5210227395896,1295550116
iw,-50.775577545166,-80.4196701049804,-18.6348211312678,42.26745605475977,1295566783
iw,-50.851318359375,-81.1095428466796,-5.426358345171893,40.95363771528287,1295583450
iw,-51.5071144104003,-81.827163696289,5.950013065952767,40.68600863655527,1295600117
iw,-52.4592399597168,-82.560432434082,14.704636327740232,41.31707442459646,1295616784
iw,-53.4498252868652,-83.3178634643554,20.448791767832738,42.4798926084018,1295633451
iw,-54.0543174743652,-84.1305847167968,23.32971106993141,43.66788486048782,1295650118
iw,-54.4193649291992,-84.9943389892578,23.971959391820512,44.334042804463934,1295666785
iw,-54.8485679626464,-85.8822021484375,23.26624707294349,43.97948980823222,1295683452
iw,-55.5232009887695,-86.6897354125976,22.115014929801102,42.20406069793071,1295700119
iw,-56.4324150085449,-87.2880554199218,21.24570846678194,38.70364028386294,1295716786
iw,-57.5685157775878,-87.5816802978515,21.14231866954966,33.22109309262855,1295733453
iw,-58.3412361145019,-87.6392669677734,22.070134062827396,25.483664855233194,1295750120
iw,-59.0166206359863,-87.5784454345703,24.12844208729797,15.176308252923484,1295766787
iw,-59.4790153503418,-87.3933868408203,27.277935499234932,1.993645534476003,1295783454
iw,-59.7991676330566,-87.096206665039,31.331736193397337,-14.220068427704636,1295800121
iw,-60.0654678344726,-86.6721038818359,35.93749404392995,-33.28102060757181,1295816788
iw,-60.8460731506347,-86.1405487060546,40.5924667701271,-54.50290523773244,1295833455
iw,-61.9874763488769,-85.3501739501953,44.71921525786354,-76.64784826153146,1295850122
iw,-63.1873016357421,-84.064094543457,47.79448037258187,-98.04975122491183,1295866789
iw,-64.2253952026367,-82.1128005981445,49.48829454526779,-116.90791828724731,1295883456
iw,-65.2100448608398,-79.5690841674804,49.75691794159342,-131.67672478905072,1295900123
iw,-66.2509536743164,-76.819107055664,48.849510578001926,-141.4250573891056,1295916790
iw,-67.3372650146484,-74.1301727294921,47.22398946830744,-146.0364614849772,1295933457
iw,-68.3276138305664,-71.6623306274414,45.40395933919837,-146.1759669723713,1295950124
iw,-69.2112197875976,-69.4119720458984,43.83033962819307,-143.0398895999752,1295966791
iw,-70.1961059570312,-67.2716369628906,42.760137368519004,-137.98660679069658,1295983458
iw,-71.2531433105468,-65.0948181152343,42.241617717334925,-132.1802908662636,1296000125
iw,-72.283447265625,-62.9713325500488,42.160659987678955,-126.35488754243644,1296016792
iw,-73.2308883666992,-60.9960632324218,42.325221730993945,-120.74333158031422,1296033459
iw,-74.0441055297851,-59.1046867370605,42.54819565118879,-115.15323810680994,1296050126
iw,-74.8457717895507,-57.2948303222656,42.70323590290007,-109.13183673947196,1296066793
iw,-75.6540298461914,-55.566909790039,42.74869568265347,-102.15470941104743,1296083460
iw,-76.4661712646484,-53.9999504089355,42.72661597585799,-93.78537897507142,1296100127
iw,-77.2632904052734,-52.6290855407714,42.74381459164972,-83.77531798429484,1296116794
iw,-78.0393829345703,-51.5404624938964,42.9386545547002,-72.09935756696042,1296133461
iw,-78.8169784545898,-50.7459907531738,43.43818426244044,-58.94307376912152,1296150128
iw,-79.611831665039,-50.1970252990722,44.31613449614717,-44.66891937088572,1296166795
iw,-80.4858093261718,-49.7882461547851,45.56623251722863,-29.781832558903254,1296183462
iw,-81.4530258178711,-49.4538650512695,47.10142717836698,-14.896263536267135,1296200129
iw,-82.4277572631836,-49.4342803955078,48.77797685660161,-0.6887118582403587,1296216796
iw,-83.3808517456054,-49.8695755004882,50.43047336948214,12.18027121913924,1296233463
iw,-84.3144912719726,-50.5094833374023,51.89783318632697,23.168363448461864,1296250130
iw,-85.2146377563476,-51.1518592834472,53.02452985778774,31.943689150525664,1296266797
iw,-86.0434417724609,-51.8255043029785,53.63323801008681,38.42506581400446,1296283464
iw,-86.7819900512695,-52.6199417114257,53.479401432495834,42.75178325622649,1296300131
iw,-87.4293823242187,-53.4161148071289,52.21007962959372,45.20238201206138,1296316798
iw,-87.9103393554687,-54.1702003479003,49.35427023449267,46.10765067729422,1296333465
iw,-88.1475524902343,-55.079044342041,44.36652299225323,45.801907304029285,1296350132
iw,-88.1424865722656,-56.0293312072753,36.73010795723306,44.631292152559894,1296366799
iw,-87.9573287963867,-57.0383872985839,26.103957715785967,43.001634750229016,1296383466
iw,-87.7322082519531,-57.9147262573242,12.475215668270897,41.419426366947725,1296400133
iw,-87.5887374877929,-58.7814292907714,-3.7355305046053577,40.47374334579503,1296416800
iw,-87.6160812377929,-59.5365676879882,-21.6678681309217,40.73065899997371,1296433467
iw,-87.7330703735351,-59.8979187011718,-40.14284145505541,42.55733115288351,1296450134
iw,-87.5809555053711,-60.2735939025878,-57.89900183500291,45.94262421856251,1296466801
iw,-86.6533889770507,-61.0994453430175,-73.88162605393063,50.408899780075565,1296483468
iw,-84.9969635009765,-62.4464111328125,-87.4881133774036,55.0894340668518,1296500135
iw,-83.0045089721679,-63.8787727355957,-98.67248749083465,58.9741054131242,1296516802
iw,-81.0128784179687,-65.1791000366211,-107.85765404635369,61.23815487354373,1296533469
iw,-78.835090637207,-66.3470993041992,-115.68172792216953,61.51987150957614,1296550136
iw,-76.5087356567382,-67.3898086547851,-122.67713597049618,60.033271058560636,1296566803
iw,-74.2152252197265,-68.2990798950195,-129.00965725026697,57.47596388700662,1296583470
iw,-72.0046997070312,-69.135269165039,-134.37622706829262,54.777704988670294,1296600137
iw,-69.7439651489257,-70.0093078613281,-138.0937897001201,52.791709339258404,1296616804
iw,-67.3969955444336,-70.9751052856445,-139.3381893770116,52.03969866740962,1296633471
iw,-64.9558410644531,-71.9764175415039,-137.4383912021386,52.5878930104451,1296650138
iw,-62.6129455566406,-73.0213088989257,-132.1141033704333,54.07654984791629,1296666805
iw,-60.5328254699707,-74.1135635375976,-123.57044539172512,55.87469069990184,1296683472
iw,-58.7502479553222,-75.2253036499023,-112.42310542093941,57.29958152012975,1296700139
iw,-57.1266136169433,-76.3499298095703,-99.49712564884297,57.831010919708156,1296716806
iw,-55.6598243713378,-77.4113693237304,-85.59091608876278,57.260376627770654,1296733473
iw,-54.397647857666,-78.3927917480468,-71.30287458151733,55.73844440678546,1296750140
iw,-53.3138008117675,-79.2976837158203,-56.981744727919406,53.71616179098712,1296766807
iw,-52.3957290649414,-80.1436996459961,-42.80354628378832,51.80164422997071,1296783474
iw,-51.7736740112304,-80.9717407226562,-28.923056833602562,50.57570578230973,1296800141
iw,-51.3199958801269,-81.8397598266601,-15.616664413911673,50.41395859336976,1296816808
iw,-51.3442001342773,-82.718994140625,-3.3377904766488857,51.35664684159122,1296833475
iw,-52.2140083312988,-83.5695343017578,7.351989656437494,53.053324352601955,1296850142
iw,-53.3891792297363,-84.4050827026367,15.94659604370967,54.794069840270595,1296866809
iw,-54.1807746887207,-85.3020553588867,22.167373347028917,55.624128214198166,1296883476
iw,-54.558853149414,-86.3494491577148,26.051330013148412,54.52213107213646,1296900143
iw,-55.0264015197753,-87.4961013793945,27.920711092426956,50.6020835405456,1296916810
iw,-55.7533302307128,-88.5004119873046,28.274820044747614,43.28317510785288,1296933477
iw,-56.6710166931152,-89.0450973510742,27.678256820203284,32.37363579764873,1296950144
iw,-57.754653930664,-89.0784683227539,26.69224856535679,18.0450557776821,1296966811
iw,-58.7279472351074,-88.793098449707,25.84397103224233,0.7231803220116698,1296983478
iw,-59.12398147583,-88.2909698486328,25.598624160675648,-19.037115621363817,1297000145
iw,-59.6064872741699,-87.5522308349609,26.305421539618298,-40.61975575059462,1297016812
iw,-60.0160255432128,-86.6199111938476,28.11718175113398,-63.32478083963876,1297033479
iw,-60.5540313720703,-85.5022048950195,30.914716283930577,-86.28526116734653,1297050146
iw,-61.5119667053222,-84.0455703735351,34.28803756998016,-108.40436227844916,1297066813
iw,-62.8058586120605,-82.0276260375976,37.620526138734455,-128.39682475529844,1297083480
iw,-64.0161743164062,-79.3395462036132,40.27753980853799,-144.96774263354834,1297100147
iw,-65.0701751708984,-76.2177581787109,41.83523180605025,-157.08035896009352,1297116814
iw,-66.0356521606445,-73.1029357910156,42.24567528922364,-164.20180046149702,1297133481
iw,-66.9477844238281,-70.185546875,41.855235488340085,-166.41296772377547,1297150148
iw,-67.752700805664,-67.5393142700195,41.26350675694377,-164.3314225286448,1297166815
iw,-68.4950103759765,-65.2856521606445,41.086364402590554,-158.887053224723,1297183482
iw,-69.3837356567382,-63.1223564147949,41.72694503544469,-151.05580652876793,1297200149
iw,-70.4715423583984,-60.85986328125,43.24552303745824,-141.6617438595966,1297216816
iw,-71.5158462524414,-58.5834083557128,45.36580010398411,-131.3045610347346,1297233483
iw,-72.3999328613281,-56.4528579711914,47.59429114479929,-120.39375823710967,1297250150
iw,-73.2784347534179,-54.556224822998,49.39375917220278,-109.21777782471287,1297266817
iw,-74.2656707763671,-52.9822616577148,50.35057212144552,-97.97520221183147,1297283484
iw,-75.2981567382812,-51.6743354797363,50.294349142593056,-86.74064693528865,1297300151
iw,-76.2370223999023,-50.6314353942871,49.34756998364198,-75.39871372021375,1297316818
iw,-77.1136856079101,-49.7979316711425,47.898112994716115,-63.61800790099179,1297333485
iw,-77.939956665039,-49.0785026550293,46.50340341527095,-50.93028198978496,1297350152
iw,-78.7593460083007,-48.4374809265136,45.750891032315415,-36.92761597600069,1297366819
iw,-79.6153030395507,-47.8565330505371,46.109311610959004,-21.517421682525914,1297383486
iw,-80.5184631347656,-47.4223556518554,47.80406505674895,-5.119862874817952,1297400153
iw,-81.4436111450195,-47.6138153076171,50.74040438501209,11.308317729424157,1297416820
iw,-82.3818130493164,-48.6018676757812,54.485744163658836,26.472079319106214,1297433487
iw,-83.3778610229492,-49.8014984130859,58.31113422017016,39.097800604946116,1297450154
iw,-84.3945388793945,-50.7623710632324,61.28260358900103,48.305178294250574,1297466821
iw,-85.3345260620117,-51.5464477539062,62.386378535407765,53.83404694925162,1297483488
iw,-86.16064453125,-52.3390235900878,60.6703145849995,56.048651295599235,1297500155
iw,-86.8758239746093,-53.1187286376953,55.387769881965184,55.7542650171403,1297516822
iw,-87.4617156982421,-53.8834686279296,46.134081639920396,53.935625297881046,1297533489
iw,-87.9116516113281,-54.8639602661132,32.96178461367223,51.53101716536577,1297550156
iw,-88.2569503784179,-56.0364837646484,16.447560231968207,49.30508636374453,1297566823
iw,-88.4952011108398,-56.9537010192871,-2.328170487214384,47.81657364817053,1297583490
iw,-88.5675582885742,-57.7979888916015,-21.92292486146731,47.43215040055812,1297600157
iw,-88.1274795532226,-58.5599098205566,-40.795992068352845,48.33380927391997,1297616824
iw,-86.9229888916015,-59.351318359375,-57.64069788296914,50.497744587520295,1297633491
iw,-85.3013916015625,-60.1128158569335,-71.68153623970048,53.66299501983253,1297650158
iw,-83.5524749755859,-61.16255569458,-82.82156693340724,57.33382123322118,1297666825
iw,-81.7321243286132,-62.4505462646484,-91.57085135733429,60.85551533419555,1297683492
iw,-79.7906494140625,-63.8275718688964,-98.77259281346169,63.56786510259727,1297700159
iw,-77.6919326782226,-65.1712188720703,-105.22800592524572,64.99194216150055,1297716826
iw,-75.479751586914,-66.4032211303711,-111.36239464785768,64.97513722797895,1297733493
iw,-73.2350692749023,-67.4846496582031,-117.05617630649331,63.72863326978459,1297750160
iw,-71.0168304443359,-68.4004516601562,-121.69711934229669,61.737486561143236,1297766827
iw,-68.8348999023437,-69.2820892333984,-124.42419731920863,59.5804893107384,1297783494
iw,-66.7551574707031,-70.2789611816406,-124.4637604942768,57.734305071032935,1297800161
iw,-64.6700592041015,-71.3342742919921,-121.42989980739173,56.436369317786365,1297816828
iw,-62.5877952575683,-72.3776168823242,-115.47920387629429,55.64828982612991,1297833495
iw,-60.7749900817871,-73.4158325195312,-107.26533049807068,55.1173831752233,1297850162
iw,-59.2491455078125,-74.416519165039,-97.7125994695733,54.500639064223506,1297866829
iw,-58.0039825439453,-75.3697891235351,-87.69792511991781,53.50255456451035,1297883496
iw,-56.8625564575195,-76.2839279174804,-77.77052620853539,51.983233776888426,1297900163
iw,-55.7285499572753,-77.1752624511718,-68.02637160628132,50.00830485975952,1297916830
iw,-54.6446075439453,-78.0434875488281,-58.18752374385797,47.83069795179449,1297933497
iw,-53.71728515625,-78.8350372314453,-47.844022077401796,45.81197638698688,1297950164
iw,-53.0803298950195,-79.550910949707,-36.74410501057593,44.30604337446991,1297966831
iw,-52.8217811584472,-80.2369689941406,-25.003473011637126,43.53915550300271,1297983498
iw,-52.7734565734863,-80.9547348022461,-13.149353797768926,43.5235607457565,1298000165
iw,-53.073444366455,-81.7365646362304,-1.9920703902536419,44.03348877848577,1298016832
iw,-53.7815361022949,-82.5347671508789,7.612614666221832,44.65199798621615,1298033499
iw,-54.5029678344726,-83.351318359375,15.01002461055149,44.87268502929935,1298050166
iw,-55.0058555603027,-84.1685714721679,19.909196733676758,44.22170924569685,1298066833
iw,-55.4179878234863,-84.9603652954101,22.41753389875114,42.35950059187941,1298083500
iw,-55.9751014709472,-85.6877059936523,22.969172741215072,39.12845831896962,1298100167
iw,-56.8238258361816,-86.2866973876953,22.21087738716404,34.53002590133038,1298116834
iw,-57.8680534362793,-86.7100219726562,20.899848097869707,28.63789359778049,1298133501
iw,-58.816795349121,-86.9262924194336,19.821336679155735,21.478526347596752,1298150168
iw,-59.2807693481445,-86.9215240478515,19.69729514029487,12.928142859328922,1298166835
iw,-59.7215003967285,-86.7064590454101,21.064950792850112,2.6781999680883635,1298183502
iw,-59.9025421142578,-86.3036651611328,24.145658096740434,-9.695888462644808,1298200169
iw,-60.322395324707,-85.7702484130859,28.75889827431713,-24.563716727792226,1298216836
iw,-61.1364364624023,-85.1838760375976,34.33467513248272,-42.01099546721206,1298233503
iw,-62.2754745483398,-84.4862976074218,40.04230880625181,-61.63194382380176,1298250170
iw,-63.4673461914062,-83.4911575317382,45.006460822804165,-82.43063227582,1298266837
iw,-64.5258560180664,-82.0729370117187,48.54414146739592,-102.89202390022753,1298283504
iw,-65.4938049316406,-80.1491470336914,50.34366974367847,-121.22731114347154,1298300171
iw,-66.5200729370117,-77.6782150268554,50.52399854336951,-135.73415771675678,1298316838
iw,-67.6168594360351,-74.9197692871093,49.55684260969654,-145.16702744027478,1298333505
iw,-68.6489028930664,-72.2162628173828,48.087763595614064,-149.00491059589876,1298350172
iw,-69.5912857055664,-69.6866226196289,46.729608994118415,-147.53765205380563,1298366839
iw,-70.5845108032226,-67.4439010620117,45.90332074761887,-141.7544307999021,1298383506
iw,-71.6428146362304,-65.3933410644531,45.76906478301562,-133.08150742133125,1298400173
iw,-72.6781158447265,-63.4651489257812,46.245883599601534,-123.05402051477296,1298416840
iw,-73.6422500610351,-61.7244262695312,47.08604063369139,-113.00824233491903,1298433507
iw,-74.5424728393554,-60.2199974060058,47.9645971579638,-103.8572018682374,1298450174
iw,-75.4799652099609,-58.7603721618652,48.55984910821591,-95.98275206859357,1298466841
iw,-76.4280853271484,-57.2389183044433,48.61788791753462,-89.25109229598134,1298483508
iw,-77.3356781005859,-55.7929954528808,48.00072740102472,-83.13550899894402,1298500175
iw,-78.1864852905273,-54.4808044433593,46.713240875338286,-76.90930707401242,1298516842
iw,-78.9683990478515,-53.3576622009277,44.900902973726595,-69.8600663036605,1298533509
iw,-79.7109375,-52.4455070495605,42.815906866331325,-61.47863396979207,1298550176
iw,-80.4679794311523,-51.700885772705,40.760687523486496,-51.58853853308415,1298566843
iw,-81.2124938964843,-51.1105117797851,39.02628968292864,-40.39512068381188,1298583510
iw,-81.9211273193359,-50.5862922668457,37.84283745959763,-28.44510955444492,1298600177
iw,-82.5669479370117,-50.3270072937011,37.352121560847635,-16.500784639639875,1298616844
iw,-83.2161254882812,-50.4730033874511,37.602787548334064,-5.353716067898183,1298633511
iw,-83.8856735229492,-50.7866287231445,38.560187207425805,4.371669996463317,1298650178
iw,-84.5832290649414,-51.0935440063476,40.1176583797676,12.360220307153579,1298666845
iw,-85.2599716186523,-51.3991355895996,42.09626676680225,18.643353745411755,1298683512
iw,-85.91845703125,-51.7767219543457,44.22735149400697,23.52313308368884,1298700179
iw,-86.5698318481445,-52.2626800537109,46.12396365334419,27.42250022258688,1298716846
iw,-87.1222763061523,-52.8081436157226,47.2577044639632,30.727317023034367,1298733513
iw,-87.5058975219726,-53.4318466186523,46.9624682508266,33.68017113565849,1298750180
iw,-87.7167282104492,-54.1227416992187,44.485418073905535,36.35777613987477,1298766847
iw,-87.7394714355468,-54.8399200439453,39.0968906346844,38.72957663661736,1298783514
iw,-87.5980834960937,-55.8511962890625,30.25187959711478,40.7659726940175,1298800181
iw,-87.381851196289,-56.9853439331054,17.768168618105022,42.54495222547934,1298816848
iw,-87.2050247192382,-57.9780006408691,1.962062828066489,44.30060392933577,1298833515
iw,-87.1808242797851,-58.7454261779785,-16.32160385282873,46.374426929905646,1298850182
iw,-87.3232192993164,-59.2108917236328,-35.823855758770435,49.073892655936916,1298866849
iw,-87.4025650024414,-59.7718467712402,-55.120158648221455,52.49720333604544,1298883516
iw,-86.7982101440429,-60.7855339050293,-72.93685299071774,56.416094277644866,1298900183
iw,-85.306770324707,-62.1247024536132,-88.42959729939422,60.291672412308465,1298916850
iw,-83.3488159179687,-63.5654029846191,-101.3183281446882,63.43401778090557,1298933517
iw,-81.2779388427734,-64.8996887207031,-111.82328462345285,65.24188922916166,1298950184
iw,-78.9869232177734,-66.0716094970703,-120.42977366934304,65.41963319047083,1298966851
iw,-76.5690765380859,-67.1897354125976,-127.58402265319758,64.08333600738065,1298983518
iw,-74.2075271606445,-68.2160186767578,-133.44756487448146,61.72158953298346,1299000185
iw,-71.9141616821289,-69.1691589355468,-137.80284806818787,59.03604201387176,1299016852
iw,-69.6492919921875,-70.1346359252929,-140.13266698827667,56.7271231659897,1299033519
iw,-67.2445526123046,-71.1245498657226,-139.82646310021696,55.29998791783741,1299050186
iw,-64.8706130981445,-72.1222457885742,-136.423178014148,54.94788443619597,1299066853
iw,-62.6408805847168,-73.1635971069336,-129.7943475427806,55.53705826884103,1299083520
iw,-60.5501251220703,-74.2378387451171,-120.20138692541279,56.683501654834046,1299100187
iw,-58.7938537597656,-75.2984771728515,-108.21502631090976,57.88781247988198,1299116854
iw,-57.2640304565429,-76.3580017089843,-94.54185980096028,58.68448004872688,1299133521
iw,-55.9348564147949,-77.3821945190429,-79.84063673461955,58.765612627711704,1299150188
iw,-54.8025588989257,-78.3680572509765,-64.61244476928171,58.05247455756426,1299166855
iw,-53.8555183410644,-79.2960968017578,-49.210506860726206,56.70492540510295,1299183522
iw,-53.1252746582031,-80.235595703125,-33.95158921200404,55.07277204714412,1299200189
iw,-52.5911331176757,-81.2158432006836,-19.252257641916046,53.60067332102006,1299216856
iw,-52.6835632324218,-82.1922912597656,-5.693061016746788,52.70052621112921,1299233523
iw,-53.6267318725585,-83.0935668945312,6.048727637842003,52.60739182288996,1299250190
iw,-54.7569580078125,-83.9365692138671,15.376114518290755,53.24225354319897,1299266857
iw,-55.4933624267578,-84.7377624511718,21.96453210533041,54.116113807091025,1299283524
iw,-55.7310523986816,-85.5698699951171,25.866755877723918,54.315866107852784,1299300191
iw,-56.284080505371,-86.4276885986328,27.492662988013574,52.602476058019256,1299316858
iw,-57.282787322998,-87.2316970825195,27.503892254476334,47.623888767877645,1299333525
iw,-58.2508659362793,-87.8739471435546,26.688476781940018,38.207602283273765,1299350192
iw,-59.4022979736328,-88.1759719848632,25.84766169455802,23.665916304754393,1299366859
iw,-60.0066947937011,-88.120491027832,25.68795908644063,4.033539882531589,1299383526
iw,-60.1163139343261,-87.7809753417968,26.708049572199393,-19.831464467816165,1299400193
iw,-60.5873374938964,-87.019546508789,29.095506779090236,-46.31933394792257,1299416860
iw,-61.2921180725097,-85.8664398193359,32.66901339763123,-73.30488798531586,1299433527
iw,-62.1097030639648,-84.4395141601562,36.89902603688168,-98.50065686586744,1299450194
iw,-63.2480697631835,-82.61376953125,41.02053268258717,-119.85439825076546,1299466861
iw,-64.4159469604492,-80.3324432373046,44.225908713937265,-135.91037546375176,1299483528
iw,-65.3857650756836,-77.6414718627929,45.894981394967026,-146.057080907464,1299500195
iw,-66.3694152832031,-74.799560546875,45.79129803162772,-150.59794752607235,1299516862
iw,-67.3273239135742,-72.1222457885742,44.1501387914684,-150.6132786287905,1299533529
iw,-68.2040100097656,-69.713638305664,41.617680289100285,-147.6356711318356,1299550196
iw,-69.0059814453125,-67.6175460815429,39.058010063934816,-143.2245163217866,1299566863
iw,-69.8033294677734,-65.6897506713867,37.29597611569605,-138.56770391209133,1299583530
iw,-70.7255325317382,-63.7354927062988,36.88481794746611,-134.2332968253034,1299600197
iw,-71.7313919067382,-61.6774024963378,37.97148673784628,-130.1378201533624,1299616864
iw,-72.7145843505859,-59.5936317443847,40.291636268897726,-125.71602596116618,1299633531
iw,-73.6352844238281,-57.5053100585937,43.281773199047656,-120.20694068286967,1299650198
iw,-74.5454406738281,-55.4848289489746,46.26462478472147,-112.94108955267178,1299666865
iw,-75.4672546386718,-53.7445220947265,48.650278003180546,-103.53156812983703,1299683532
iw,-76.4252243041992,-52.3404350280761,50.09713958811793,-91.92507260101512,1299700199
iw,-77.3317184448242,-51.2837409973144,50.59022617809183,-78.33388661496191,1299716866
iw,-78.1822891235351,-50.5279197692871,50.41832719580833,-63.11774779597192,1299733533
iw,-79.0446166992187,-49.9214668273925,50.06166003585552,-46.69357808320888,1299750200
iw,-79.9509887695312,-49.4199333190918,50.027190425815434,-29.517802647531617,1299766867
iw,-80.8742446899414,-48.9941444396972,50.67895954732382,-12.129667832106,1299783534
iw,-81.7859725952148,-48.8517417907714,52.103808453301006,4.802093160201037,1299800201
iw,-82.6926345825195,-49.4282913208007,54.0374414619532,20.49334536787034,1299816868
iw,-83.610610961914,-50.3612518310546,55.86185227186587,34.144268422260105,1299833535
iw,-84.5087051391601,-51.3552284240722,56.67610581300613,45.09084976926307,1299850202
iw,-85.3409957885742,-52.3078384399414,55.435559874663994,52.9392578059835,1299866869
iw,-86.1014785766601,-53.1860618591308,51.14581542629692,57.62824347998818,1299883536
iw,-86.7850265502929,-54.0523147583007,43.08469955185315,59.41292895652188,1299900203
iw,-87.3552932739257,-55.0628967285156,31.009330127728116,58.80531087129007,1299916870
iw,-87.7852096557617,-56.1752815246582,15.292017041607147,56.51247966108251,1299933537
iw,-88.003059387207,-57.378002166748,-3.0704105757124416,53.38508953918851,1299950204
iw,-87.7109909057617,-58.5033988952636,-22.604558286484853,50.35374060526782,1299966871
iw,-86.7947845458984,-59.1320152282714,-41.648959735581606,48.31933557475563,1299983538
iw,-85.4852981567382,-59.8376541137695,-58.712606069835076,47.986660980856485,1300000205
iw,-83.7794723510742,-60.5717582702636,-72.79775506718705,49.67647161238798,1300016872
iw,-81.8986740112304,-61.3839683532714,-83.58285258859915,53.19232794322755,1300033539
iw,-79.9863815307617,-62.5044059753418,-91.40190188609311,57.82466794966764,1300050206
iw,-77.9730377197265,-63.9575500488281,-97.02350192354774,62.53077900731227,1300066873
iw,-76.036148071289,-65.437255859375,-101.30457235352361,66.24879218547673,1300083540
iw,-74.1610260009765,-66.7353591918945,-104.84484297551992,68.23026639333308,1300100207
iw,-72.3139724731445,-67.8856735229492,-107.77541815463674,68.2582107185192,1300116874
iw,-70.371597290039,-68.8450241088867,-109.76693349063278,66.66974027650194,1300133541
iw,-68.3191757202148,-69.7145462036132,-110.25092746518571,64.19170031527328,1300150208
iw,-66.3498382568359,-70.729751586914,-108.74998100714537,61.6713036798638,1300166875
iw,-64.5087585449218,-71.8329162597656,-105.15912403220321,59.808627161581875,1300183542
iw,-62.8302955627441,-72.9277648925781,-99.84507980240862,58.974087013374486,1300200209
iw,-61.355728149414,-74.0289001464843,-93.51962840082801,59.14644318076274,1300216876
iw,-60.103775024414,-75.1281204223632,-86.9513164103201,59.963234846676414,1300233543
iw,-58.8923912048339,-76.1715469360351,-80.65328443395967,60.850015452857974,1300250210
iw,-57.6262779235839,-77.1868209838867,-74.69222698347389,61.186627480557135,1300266877
iw,-56.3161315917968,-78.2397232055664,-68.70335517571364,60.47114965189842,1300283544
iw,-55.120677947998,-79.3184585571289,-62.09801074699302,58.44876698853697,1300300211
iw,-54.1837539672851,-80.3593673706054,-54.362946756925965,55.18056233147556,1300316878
iw,-53.5646591186523,-81.2769317626953,-45.31672311446174,51.03715127604948,1300333545
iw,-53.2049980163574,-82.0427322387695,-35.22151044605846,46.61703650146232,1300350212
iw,-53.0885887145996,-82.7134780883789,-24.722861901454802,42.60888120959012,1300366879
iw,-53.0884590148925,-83.327033996582,-14.662645409030473,39.63385199698595,1300383546
iw,-53.187744140625,-83.9358978271484,-5.848164959365537,38.10977172397814,1300400213
iw,-53.4248504638671,-84.6226196289062,1.1438448557327285,38.16866798479945,1300416880
iw,-53.7234535217285,-85.3449478149414,6.080802490616188,39.63746192656186,1300433547
iw,-54.1842308044433,-86.0545959472656,9.092992850679243,42.06876519894347,1300450214
iw,-54.792366027832,-86.7252349853515,10.609529004032144,44.79647240331237,1300466881
iw,-55.2024917602539,-87.3127822875976,11.237524248644334,46.99416194714444,1300483548
iw,-55.5612144470214,-87.7315216064453,11.620504566148592,47.728890606652534,1300500215
iw,-56.133201599121,-87.9141845703125,12.318130062360735,46.018722058099634,1300516882
iw,-57.1130256652832,-87.8660507202148,13.739564227969055,40.910502363490124,1300533549
iw,-57.7636947631835,-87.6952209472656,16.13244027607025,31.591441813527414,1300550216
iw,-58.2166938781738,-87.5792541503906,19.598357000115275,17.53515998004165,1300566883
iw,-58.6577186584472,-87.5353469848632,24.10182396013531,-1.3362255049621983,1300583550
iw,-59.0833168029785,-87.5430603027343,29.4636269297729,-24.51238855399088,1300600217
iw,-59.7489852905273,-87.5875091552734,35.356091073954616,-50.829321482008105,1300616884
iw,-60.7972030639648,-87.3805770874023,41.32502594811776,-78.52710888379296,1300633551
iw,-62.0765762329101,-86.3751831054687,46.85014496235466,-105.45397502486561,1300650218
iw,-63.240177154541,-84.4886474609375,51.4346905194115,-129.39455303577532,1300666885
iw,-64.2749252319336,-81.9891052246093,54.699742245038635,-148.45294379172515,1300683552
iw,-65.3035736083984,-79.0130538940429,56.45662648503054,-161.39241639270028,1300700219
iw,-66.4303894042968,-75.9017105102539,56.73994869252047,-167.83701975657075,1300716886
iw,-67.5963363647461,-73.0275039672851,55.79673327337826,-168.27701241174805,1300733553
iw,-68.6721725463867,-70.4588012695312,54.03752975423038,-163.8798193789309,1300750220
iw,-69.7144088745117,-68.2433853149414,51.960495268965175,-156.17086683992906,1300766887
iw,-70.798843383789,-66.1596984863281,50.06060848322858,-146.6873445425721,1300783554
iw,-71.8956451416015,-64.0327072143554,48.73657080290684,-136.70324415842612,1300800221
iw,-72.9375610351562,-61.9563407897949,48.21028446439997,-127.07933809440023,1300816888
iw,-73.9023895263671,-60.0044212341308,48.4777305979331,-118.23383175018348,1300833555
iw,-74.8570785522461,-58.1549644470214,49.31087031465464,-110.19018227597599,1300850222
iw,-75.8759307861328,-56.382640838623,50.321181130910546,-102.653533578417,1300866889
iw,-76.9379348754882,-54.7995452880859,51.075036018390236,-95.08898189268206,1300883556
iw,-77.9759902954101,-53.48628616333,51.22776190103645,-86.80437969084993,1300900223
iw,-78.9478454589843,-52.4457473754882,50.631009170152595,-77.06013761197855,1300916890
iw,-79.8327407836914,-51.5833435058593,49.375978751237156,-65.22691838476142,1300933557
iw,-80.6448516845703,-50.7256317138671,47.75954486330176,-50.984879874642395,1300950224
iw,-81.4381713867187,-49.8046340942382,46.188202763080135,-34.514064452420435,1300966891
iw,-82.174087524414,-49.2929153442382,45.05306717692281,-16.591118929640416,1300983558
iw,-82.9000473022461,-49.5445137023925,44.61268304617989,1.483998719410711,1301000225
iw,-83.6622238159179,-50.255744934082,44.91176963448722,18.144423293133197,1301016892
iw,-84.4500274658203,-50.9780197143554,45.7489154197732,31.92203470448828,1301033559
iw,-85.1969909667968,-51.6646919250488,46.690852916055896,41.79488776146783,1301050226
iw,-85.8852462768554,-52.5263786315918,47.121429046309025,47.4028985523253,1301066893
iw,-86.4923400878906,-53.4191207885742,46.31317756683439,49.08258826555856,1301083560
iw,-86.9704971313476,-54.2325630187988,43.51557132874535,47.74098437046989,1301100227
iw,-87.3076858520507,-55.0301437377929,38.05879499808007,44.6307443951989,1301116894
iw,-87.5117111206054,-55.7803955078125,29.469081503220604,41.09719890812628,1301133561
iw,-87.6493988037109,-56.7093811035156,17.581624961062353,38.35171119262256,1301150228
iw,-87.7504959106445,-57.2180709838867,2.6258246807566485,37.29856985361805,1301166895
iw,-87.7611389160156,-57.7627410888671,-14.74761850304376,38.421586897409895,1301183562
iw,-87.5884857177734,-58.4813575744628,-33.52288296163684,41.732064601795344,1301200229
iw,-87.0786590576171,-59.1628723144531,-52.4665402353198,46.78630160131153,1301216896
iw,-86.005859375,-59.913230895996,-70.34679814605241,52.78358952184637,1301233563
iw,-84.3423080444336,-61.0937881469726,-86.17214999590536,58.744352292498824,1301250230
iw,-82.2817916870117,-62.5544853210449,-99.37403614476155,63.74151276828048,1301266897
iw,-80.0433349609375,-63.9106330871582,-109.86452751254629,67.12632825722756,1301283564
iw,-77.5513916015625,-65.1261749267578,-117.94306981521072,68.67478894336791,1301300231
iw,-74.9470977783203,-66.3052673339843,-124.08740716497346,68.60118216573015,1301316898
iw,-72.5750274658203,-67.4037094116211,-128.71050715889643,67.43619926060906,1301333565
iw,-70.4215698242187,-68.4288787841796,-131.97642310284877,65.81995430484997,1301350232
iw,-68.2550888061523,-69.5149536132812,-133.7426137950934,64.28819347316605,1301366899
iw,-65.9704284667968,-70.6594696044921,-133.64478821231603,63.123369586328636,1301383566
iw,-63.5913925170898,-71.8267211914062,-131.28006833595424,62.30973007258841,1301400233
iw,-61.3213691711425,-72.982192993164,-126.40085726704976,61.59141037696969,1301416900
iw,-59.3460121154785,-74.1349105834961,-119.0301323640732,60.60178623049776,1301433567
iw,-57.7072982788085,-75.2902374267578,-109.45360315083792,59.017962510942525,1301450234
iw,-56.1967811584472,-76.3863677978515,-98.11116532668521,56.69361539764771,1301466901
iw,-54.7886657714843,-77.3659133911132,-85.46015557057524,53.732293097860854,1301483568
iw,-53.5367965698242,-78.2420959472656,-71.88831329514126,50.480525600355286,1301500235
iw,-52.4599990844726,-79.0021591186523,-57.71677153575576,47.4439293179539,1301516902
iw,-51.5719757080078,-79.7122344970703,-43.27848605233196,45.1533464944238,1301533569
iw,-51.0299491882324,-80.4516906738281,-29.01466550257661,44.02251367665424,1301550236
iw,-50.8444328308105,-81.233528137207,-15.519714044627891,44.23771706748719,1301566903
iw,-50.9560585021972,-82.0714035034179,-3.48837527106317,45.70502008977582,1301583570
iw,-51.6981315612793,-82.9198913574218,6.432590749137655,48.06039057514447,1301600237
iw,-52.713451385498,-83.7914199829101,13.832799299907242,50.7317945576149,1301616904
iw,-53.5983047485351,-84.6975860595703,18.679877110890786,53.034214398320934,1301633571
iw,-54.0038185119628,-85.6489562988281,21.339790383645767,54.27642380764724,1301650238
iw,-54.3899040222168,-86.6430511474609,22.45929307308982,53.85805862704426,1301666905
iw,-55.0446510314941,-87.6589965820312,22.76600746431811,51.335871046266135,1301683572
iw,-55.8989753723144,-88.5211715698242,22.878850729611056,46.44220755749241,1301700239
iw,-56.8381958007812,-89.0300521850586,23.200711357286334,39.05153929010216,1301716906
iw,-57.8207626342773,-89.0252227783203,23.910338015080622,29.113215367275707,1301733573
iw,-58.7293472290039,-88.7623596191406,25.02362080411878,16.591971342427282,1301750240
iw,-59.393871307373,-88.4262924194336,26.476540167931844,1.465100162498882,1301766907
iw,-59.893009185791,-88.0687255859375,28.187583018414976,-16.19722106142954,1301783574
iw,-60.1290054321289,-87.6810836791992,30.076548699522228,-36.08986730623192,1301800241
iw,-60.3869934082031,-87.1904907226562,32.04485146473621,-57.53860942859526,1301816908
iw,-61.2937965393066,-86.406867980957,33.94966765998767,-79.4608323866276,1301833575
iw,-62.5019569396972,-85.0103759765625,35.61071326790311,-100.47801745386705,1301850242
iw,-63.5844230651855,-82.9604034423828,36.863647988267815,-119.16911581921785,1301866909
iw,-64.4411849975586,-80.3927307128906,37.63599063047145,-134.38113938267668,1301883576
iw,-65.3570709228515,-77.6811218261718,38.00155352658761,-145.4750768828331,1301900243
iw,-66.3698959350586,-75.1474609375,38.180157956982164,-152.40629695794877,1301916910
iw,-67.3139114379882,-72.7552337646484,38.47718246643685,-155.61219708139615,1301933577
iw,-68.1788635253906,-70.4209518432617,39.183849213822405,-155.7681309450709,1301950244
iw,-69.0822677612304,-68.1347732543945,40.47477349191576,-153.52742787028097,1301966911
iw,-70.1008529663086,-65.7876281738281,42.3405591500644,-149.35454528306337,1301983578
iw,-71.1245727539062,-63.3586463928222,44.57941087609013,-143.50092415836963,1302000245
iw,-72.1176605224609,-60.9917602539062,46.848961027312875,-136.09709602485955,1302016912
iw,-73.0831069946289,-58.7593879699707,48.75935843364428,-127.28147333047642,1302033579
iw,-74.0581130981445,-56.8166732788085,49.97921651529348,-117.27948035605483,1302050246
iw,-75.0478897094726,-55.190013885498,50.32680995716549,-106.3857173360045,1302066913
iw,-76.0437088012695,-53.8335075378418,49.8251023650467,-94.86421166710782,1302083580
iw,-77.0119247436523,-52.6098480224609,48.70755826676542,-82.83364721836631,1302100247
iw,-77.9074249267578,-51.5183639526367,47.37191956341724,-70.21732330566957,1302116914
iw,-78.7701644897461,-50.5669975280761,46.291246492915555,-56.804463280436934,1302133581
iw,-79.6345825195312,-49.7963333129882,45.903141935877606,-42.409413999621385,1302150248
iw,-80.5349807739257,-49.2295532226562,46.50431648396639,-27.06144949119392,1302166915
iw,-81.476318359375,-48.9084777832031,48.17469599083704,-11.137911912906814,1302183582
iw,-82.4416809082031,-49.0223922729492,50.74420270570876,4.624026119057644,1302200249
iw,-83.4295578002929,-49.6090660095214,53.80190566623639,19.248566486304572,1302216916
iw,-84.3994750976562,-50.2685775756835,56.73786561792441,31.73000344506469,1302233583
iw,-85.3604583740234,-50.8998832702636,58.80591406855572,41.25211653843179,1302250250
iw,-86.3136367797851,-51.6051597595214,59.19956939742358,47.350551557273725,1302266917
iw,-87.2219467163086,-52.4660720825195,57.139005357034655,49.988220768436335,1302283584
iw,-88.0499725341796,-53.3087043762207,51.96976458487856,49.55111442086493,1302300251
iw,-88.7176284790039,-54.0566596984863,43.27077749256031,46.788379832431815,1302316918
iw,-89.0945358276367,-54.9000930786132,30.959812275309776,42.71653231660808,1302333585
iw,-89.1128692626953,-55.809959411621,15.371748919668779,38.49513140345156,1302350252
iw,-89.0681228637695,-56.5030632019043,-2.723885346437684,35.2718606459545,1302366919
iw,-89.1045303344726,-57.1235008239746,-22.195721896500668,33.998095386616896,1302383586
iw,-88.8356781005859,-57.5403289794921,-41.72092784148815,35.23633491996397,1302400253
iw,-87.6779632568359,-57.9480972290039,-60.023787522975894,39.0105615733462,1302416920
iw,-86.0693588256836,-58.7194862365722,-76.11770368459554,44.767793005496465,1302433587
iw,-84.2232818603515,-59.975112915039,-89.47220061893745,51.49968077183337,1302450254
iw,-82.2533645629882,-61.3148078918457,-100.04748026778695,58.012430356337774,1302466921
iw,-80.1189346313476,-62.6070098876953,-108.18812037332509,63.26078053288698,1302483588
iw,-77.8335723876953,-63.8673858642578,-114.42097349990793,66.62410007370512,1302500255
iw,-75.3454513549804,-65.0473556518554,-119.23494299456986,68.02582391521776,1302516922
iw,-72.8140716552734,-66.1442260742187,-122.9192972295878,67.86651191748831,1302533589
iw,-70.4112930297851,-67.1892852783203,-125.50638609738624,66.81626614763516,1302550256
iw,-68.0992050170898,-68.2881317138671,-126.82041031708752,65.55864650572055,1302566923
iw,-65.8933715820312,-69.4427490234375,-126.59567890787687,64.58067655797274,1302583590
iw,-63.6072387695312,-70.6178359985351,-124.60807353331158,64.06967367632039,1302600257
iw,-61.2961883544921,-71.8221206665039,-120.76484914832521,63.92923395622128,1302616924
iw,-59.2553558349609,-73.0667114257812,-115.11807950020452,63.88547420931797,1302633591
iw,-57.5000762939453,-74.3022232055664,-107.80234903152034,63.63204505036682,1302650258
iw,-55.999340057373,-75.4861145019531,-98.93796958605887,62.95973696386144,1302666925
iw,-54.5603942871093,-76.5988388061523,-88.56629693959404,61.83010122914974,1302683592
iw,-53.1315422058105,-77.5828399658203,-76.67205261578405,60.3767260252941,1302700259
iw,-51.8358345031738,-78.5155258178711,-63.29783385630219,58.84466605143048,1302716926
iw,-50.8206672668457,-79.4381942749023,-48.69598570022623,57.498591931570104,1302733593
iw,-50.2540588378906,-80.3905944824218,-33.431746772686274,56.536154860290296,1302750260
iw,-50.0811958312988,-81.3705139160156,-18.370132050100075,56.03371641077841,1302766927
iw,-50.1251487731933,-82.3603057861328,-4.535049544900353,55.93320525735717,1302783594
iw,-50.6589126586914,-83.3313217163086,7.111800054923042,56.061389807641696,1302800261
iw,-51.4398040771484,-84.2839279174804,15.892581795457282,56.16403296907095,1302816928
iw,-52.3049049377441,-85.2151260375976,21.559930697652383,55.938906649153644,1302833595
iw,-53.0195426940918,-86.1270294189453,24.326026595198226,55.05949595798133,1302850262
iw,-53.6453132629394,-87.033706665039,24.77936032209072,53.18917523289753,1302866929
iw,-54.3137512207031,-87.9552230834961,23.73609299868268,49.98911189342982,1302883596
iw,-55.1587905883789,-88.7300491333007,22.087160503116138,45.12187361471967,1302900263
iw,-56.1546440124511,-89.0029907226562,20.681954819227897,38.25128842290879,1302916930
iw,-57.1480369567871,-88.8503952026367,20.25104639304077,29.043694783156724,1302933597
iw,-57.9366416931152,-88.5676956176757,21.343183945830898,17.186446481876853,1302950264
iw,-58.4029388427734,-88.2332077026367,24.253926569439113,2.446014742916417,1302966931
iw,-58.769187927246,-87.8848342895507,28.94889080976811,-15.223090223549574,1302983598
iw,-59.1170501708984,-87.5380477905273,35.0132945226192,-35.53787845599131,1303000265
iw,-59.8704414367675,-87.1746444702148,41.673327963180704,-57.769049450356555,1303016932
iw,-61.1022720336914,-86.549575805664,47.924000880075596,-80.71623236165969,1303033599
iw,-62.5153770446777,-85.3099822998046,52.75988374925318,-102.82823941914269,1303050266
iw,-63.729621887207,-83.4101257324218,55.45101294884051,-122.46746352951702,1303066933
iw,-64.8093109130859,-80.8829269409179,55.76569503225248,-138.2511584993314,1303083600
iw,-65.8906936645507,-78.0679397583007,54.04596402785446,-149.35537875563116,1303100267
iw,-66.9767837524414,-75.324348449707,51.09618820797292,-155.66772276190096,1303116934
iw,-68.0160751342773,-72.7625045776367,47.924229380385135,-157.72883229969622,1303133601
iw,-68.9971542358398,-70.4446792602539,45.43560895216968,-156.4879119081611,1303150268
iw,-70.0592422485351,-68.2154083251953,44.19326591923487,-152.97309361615987,1303166935
iw,-71.23388671875,-65.9020080566406,44.31607270754935,-148.0049531265453,1303183602
iw,-72.3523406982421,-63.5392990112304,45.52399499651673,-142.04872674675465,1303200269
iw,-73.3780136108398,-61.2380638122558,47.28363685161524,-135.22901710768372,1303216936
iw,-74.3496322631836,-59.0439071655273,48.988870025430245,-127.46004709640535,1303233603
iw,-75.3295440673828,-56.991111755371,50.12420753630075,-118.60808085142544,1303250270
iw,-76.3312530517578,-55.0905418395996,50.38217803438578,-108.60971148167104,1303266937
iw,-77.3393783569336,-53.5114974975585,49.72247983866381,-97.50768365956039,1303283604
iw,-78.2682266235351,-52.2308120727539,48.36830824415749,-85.41364124630152,1303300271
iw,-79.1014251708984,-51.2196655273437,46.74197293799385,-72.4445149009642,1303316938
iw,-79.8973846435546,-50.4010887145996,45.35282271810039,-58.69025742984241,1303333605
iw,-80.6968002319336,-49.6659240722656,44.66222000851163,-44.24829707733355,1303350272
iw,-81.4851684570312,-48.9627799987793,44.95620927518525,-29.313318234316156,1303366939
iw,-82.2997894287109,-48.4161949157714,46.254139563035196,-14.265404648652138,1303383606
iw,-83.192626953125,-48.5645141601562,48.273162962857604,0.31360772151665695,1303400273
iw,-84.1120147705078,-49.2232666015625,50.45684003820989,13.730437564462594,1303416940
iw,-85.031623840332,-50.0357818603515,52.062394894777455,25.346057514959735,1303433607
iw,-85.9504928588867,-50.6742439270019,52.287665179033056,34.735257522548544,1303450274
iw,-86.7936859130859,-51.2565460205078,50.40896488374292,41.76384027617285,1303466941
iw,-87.4846420288086,-52.0122261047363,45.89826802865623,46.56331275921425,1303483608
iw,-87.936164855957,-52.806957244873,38.494657665831774,49.44445526158009,1303500275
iw,-88.1723327636718,-53.7289657592773,28.220601734098107,50.81423734636992,1303516942
iw,-88.3186798095703,-54.8970642089843,15.352994771635872,51.13680162581605,1303533609
iw,-88.3825149536132,-56.0943756103515,0.37233957181323984,50.93264887356076,1303550276
iw,-88.2354202270507,-57.2503395080566,-16.08756082645316,50.77343257766364,1303566943
iw,-87.7961120605468,-58.0956230163574,-33.28308261947324,51.22536980722502,1303583610
iw,-87.0370712280273,-58.7747955322265,-50.41200264973328,52.725850637523706,1303600277
iw,-85.8144149780273,-59.4248733520507,-66.69513315666381,55.42890685079479,1303616944
iw,-84.0600051879882,-60.3391761779785,-81.49253289097256,59.09565091338607,1303633611
iw,-81.9333038330078,-61.6178436279296,-94.41907109511578,63.106661463709536,1303650278
iw,-79.7638626098632,-63.1018447875976,-105.39425874303147,66.62546214795644,1303666945
iw,-77.6029815673828,-64.6208343505859,-114.57499419327101,68.86730205580695,1303683612
iw,-75.3979034423828,-65.9601135253906,-122.18038365727264,69.36820376746796,1303700279
iw,-73.1714324951171,-67.1806488037109,-128.28699382288846,68.14198852676564,1303716946
iw,-71.0461196899414,-68.2322921752929,-132.70126313538807,65.66246295522305,1303733613
iw,-68.9218444824218,-69.1161193847656,-134.98252735841024,62.6855947852568,1303750280
iw,-66.7501983642578,-70.0950393676757,-134.61510692211812,59.99093098751701,1303766947
iw,-64.4925994873046,-71.2417678833007,-131.25273943564832,58.143250456100745,1303783614
iw,-62.2135925292968,-72.4078674316406,-124.9204529734664,57.351109029860005,1303800281
iw,-60.1630516052246,-73.5201721191406,-116.07482834783237,57.44963476169057,1303816948
iw,-58.4979057312011,-74.6139373779296,-105.48682129793161,57.989734802258965,1303833615
iw,-57.1114845275878,-75.6576690673828,-93.99484308630761,58.39176289034702,1303850282
iw,-55.7525825500488,-76.6448287963867,-82.24036793013563,58.11765047712054,1303866949
iw,-54.4354019165039,-77.5653839111328,-70.50893159218172,56.82243532636498,1303883616
iw,-53.2985496520996,-78.512710571289,-58.74771616215866,54.45669372501471,1303900283
iw,-52.3928298950195,-79.4793167114257,-46.74506666456875,51.30152966522312,1303916950
iw,-51.7073745727539,-80.4188766479492,-34.38317206569987,47.926301015962295,1303933617
iw,-51.3675956726074,-81.2632904052734,-21.84584540850931,45.06884298364345,1303950284
iw,-51.2886619567871,-81.9790954589843,-9.685530124830306,43.45279874464192,1303966951
iw,-51.6869316101074,-82.6520156860351,1.28567922168554,43.57644383981193,1303983618
iw,-52.5743865966796,-83.3065490722656,10.240467286072143,45.52439610695426,1304000285
iw,-53.557014465332,-84.0186386108398,16.614298611741866,48.857423438549,1304016952
iw,-54.1595039367675,-84.8617248535156,20.298037476009945,52.62052521049351,1304033619
iw,-54.4431953430175,-85.8362808227539,21.66865376477016,55.47823007037677,1304050286
iw,-54.9197845458984,-86.8679962158203,21.464235388297013,55.94844756340742,1304066953
iw,-55.6627502441406,-87.7253189086914,20.58052829140485,52.676084462609644,1304083620
iw,-56.5851135253906,-88.0858306884765,19.87959785082827,44.67822127926344,1304100287
iw,-57.3313026428222,-87.9916305541992,20.05962135353062,31.509526696033397,1304116954
iw,-57.8580284118652,-87.7334213256836,21.582994622189783,13.331391277408796,1304133621
iw,-58.1761932373046,-87.4239807128906,24.636986460866083,-9.099573435867805,1304150288
iw,-58.5645065307617,-87.0397872924804,29.110691682287058,-34.49792495520885,1304166955
iw,-59.026195526123,-86.5060424804687,34.59479421395836,-61.1594286287446,1304183622
iw,-59.9370346069335,-85.6358337402343,40.427618469040894,-87.12504213910849,1304200289
iw,-61.1738929748535,-84.1406784057617,45.80922954736821,-110.41315835293966,1304216956
iw,-62.362449645996,-82.0269088745117,49.97927318992497,-129.30863463834785,1304233623
iw,-63.4169006347656,-79.4200973510742,52.41423920077481,-142.6532509405398,1304250290
iw,-64.4091796875,-76.5848388671875,52.97302405542043,-150.05039667193074,1304266957
iw,-65.4230804443359,-73.8412704467773,51.92970064998439,-151.9045601260231,1304283624
iw,-66.4522705078125,-71.4002456665039,49.877504308113366,-149.2682065287478,1304300291
iw,-67.3931655883789,-69.2928848266601,47.541912578097524,-143.54212535604864,1304316958
iw,-68.293830871582,-67.2965469360351,45.573760372190826,-136.13249874249456,1304333625
iw,-69.271255493164,-65.2344284057617,44.39252263168822,-128.17735844754085,1304350292
iw,-70.3271560668945,-63.1846542358398,44.121837839731086,-120.41190280522702,1304366959
iw,-71.3814392089843,-61.2273330688476,44.620874048302205,-113.17302158383603,1304383626
iw,-72.4152526855468,-59.3760032653808,45.583004586430256,-106.48861682997632,1304400293
iw,-73.3814315795898,-57.6740493774414,46.65787065306627,-100.18281281264584,1304416960
iw,-74.2879638671875,-56.1448631286621,47.55581538237964,-93.95166352035278,1304433627
iw,-75.1677322387695,-54.8315773010253,48.10915935091113,-87.40398791111255,1304450294
iw,-76.0039520263671,-53.6892929077148,48.28418713742145,-80.09472623272022,1304466961
iw,-76.8506546020507,-52.7099342346191,48.153483439865326,-71.58770141210738,1304483628
iw,-77.7267150878906,-51.8004302978515,47.846386906873185,-61.56592704062645,1304500295
iw,-78.6145782470703,-50.9856414794921,47.49602090179129,-49.96888287274607,1304516962
iw,-79.4809417724609,-50.2258529663085,47.1977807868149,-37.09854165849761,1304533629
iw,-80.3330383300781,-49.7917366027832,46.989346747444586,-23.62533789577065,1304550296
iw,-81.1941833496093,-49.942771911621,46.85626291969293,-10.45750975587203,1304566963
iw,-82.071174621582,-50.3766746520996,46.75797548013129,1.4968933662824564,1304583630
iw,-82.9541091918945,-50.8229446411132,46.65802112931885,11.583059777436105,1304600297
iw,-83.7927856445312,-51.1615753173828,46.53508954521532,19.558330483525317,1304616964
iw,-84.5589294433593,-51.5721092224121,46.356123437100734,25.5926015261078,1304633631
iw,-85.2377395629882,-52.0903930664062,46.01004159499343,30.12476332688061,1304650298
iw,-85.8551864624023,-52.6303787231445,45.22478375924682,33.6543645948194,1304666965
iw,-86.4148864746093,-53.2854690551757,43.5099382545517,36.56628274039196,1304683632
iw,-86.9110488891601,-54.1068420410156,40.17099987576157,39.05864797345583,1304700299
iw,-87.3445053100586,-55.0584487915039,34.42284602261621,41.19010757573499,1304716966
iw,-87.6007766723632,-56.2317466735839,25.591758332275877,43.00525759975425,1304733633
iw,-87.5903549194336,-57.4615287780761,13.350886459338973,44.65861090400029,1304750300
iw,-87.4051284790039,-58.3337364196777,-2.095347029244786,46.45560683002615,1304766967
iw,-87.1447372436523,-58.959716796875,-19.958956541786108,48.770206107968654,1304783634
iw,-86.7842941284179,-59.4799575805664,-38.98971353127542,51.867667698080005,1304800301
iw,-86.1304702758789,-60.1550064086914,-57.74916443997684,55.72233493875504,1304816968
iw,-85.0078964233398,-61.2687377929687,-74.95444816955666,59.93565280797539,1304833635
iw,-83.3305282592773,-62.7577171325683,-89.77280740803607,63.81536789541634,1304850302
iw,-81.3282165527343,-64.2431106567382,-101.95691422830839,66.59561664211334,1304866969
iw,-79.2310104370117,-65.5963592529296,-111.76954066834786,67.70597680710544,1304883636
iw,-76.9627075195312,-66.8356399536132,-119.7329161453187,66.97538727016061,1304900303
iw,-74.4916839599609,-67.9617004394531,-126.31214345101928,64.69127686767851,1304916970
iw,-72.0611190795898,-68.9271392822265,-131.66463737057384,61.50024504851834,1304933637
iw,-69.7726440429687,-69.8289794921875,-135.54987681508317,58.19904347935743,1304950304
iw,-67.5473327636718,-70.7751998901367,-137.4212021837493,55.498132130838975,1304966971
iw,-65.3034744262695,-71.7858963012695,-136.65032897584095,53.83684781293399,1304983638
iw,-63.0318946838378,-72.7952041625976,-132.79008431442324,53.298328725128165,1305000305
iw,-60.8462142944335,-73.8050994873046,-125.77140212390077,53.632885955451684,1305016972
iw,-58.918830871582,-74.8289566040039,-115.95845523124811,54.367234375893645,1305033639
iw,-57.313621520996,-75.8480148315429,-104.04386202761417,54.960041749574245,1305050306
iw,-55.9246864318847,-76.8147811889648,-90.83394137704427,54.95982710022751,1305066973
iw,-54.6554069519043,-77.7553253173828,-77.02216655727722,54.12639965073085,1305083640
iw,-53.5472145080566,-78.6406097412109,-63.05261944927112,52.48965048421794,1305100307
iw,-52.6318931579589,-79.4700622558593,-49.13076757277816,50.33643875500627,1305116974
iw,-51.9048194885253,-80.2757492065429,-35.36672014358403,48.133121972502494,1305133641
iw,-51.4265365600585,-81.0969314575195,-21.969026503656707,46.403903265093916,1305150308
iw,-51.2054328918457,-81.9127960205078,-9.375763753223497,45.59142971059397,1305166975
iw,-51.7417030334472,-82.6900253295898,1.7665292863644,45.92660958452693,1305183642
iw,-52.9610366821289,-83.4630432128906,10.788067545162633,47.33207119141769,1305200309
iw,-54.1098251342773,-84.2791595458984,17.259786902410454,49.37958896904914,1305216976
iw,-54.6909675598144,-85.1415100097656,21.19406893215132,51.31463550064609,1305233643
iw,-54.9243049621582,-86.0320739746093,23.07171970399099,52.148913689897725,1305250310
iw,-55.4437255859375,-86.9336929321289,23.68799442408687,50.80559202747669,1305266977
iw,-56.2917022705078,-87.7141571044921,23.908678739891897,46.28745731090327,1305283644
iw,-57.0531997680664,-88.1338653564453,24.45248083242798,37.832574655714005,1305300311
iw,-57.8823089599609,-88.1723327636718,25.77001269360356,25.03040777330024,1305316978
iw,-58.5877380371093,-88.0118026733398,28.02600275617847,7.891175114589459,1305333645
iw,-59.0727844238281,-87.7140655517578,31.152330562221113,-13.120264920695087,1305350312
iw,-59.6358299255371,-87.2711486816406,34.928890553749596,-37.07315793595095,1305366979
iw,-60.2608757019043,-86.6492385864257,39.055513081680274,-62.58901754178235,1305383646
iw,-60.9402465820312,-85.6919784545898,43.19627876606749,-87.92191142152888,1305400313
iw,-61.9903526306152,-84.1263427734375,47.003520873734566,-111.1396618947568,1305416980
iw,-63.263801574707,-81.8927688598632,50.14722285128278,-130.41318447648982,1305433647
iw,-64.4177856445312,-79.1076736450195,52.368970097855346,-144.36045806236928,1305450314
iw,-65.5670013427734,-76.1191177368164,53.5512972827692,-152.33747121872904,1305466981
iw,-66.7563323974609,-73.2956390380859,53.7682079403535,-154.56150951023668,1305483648
iw,-67.8551330566406,-70.7548294067382,53.28211733556567,-152.00706743984455,1305500315
iw,-68.8556747436523,-68.5324554443359,52.47583894370095,-146.10648921671688,1305516982
iw,-69.7737274169921,-66.4740600585937,51.73951401469427,-138.3662602406011,1305533649
iw,-70.7587127685546,-64.4476623535156,51.354314339484795,-130.03352028420989,1305550316
iw,-71.9009094238281,-62.4078292846679,51.41659140934982,-121.90794214423869,1305566983
iw,-73.070556640625,-60.4391708374023,51.8274317941198,-114.31989339498107,1305583650
iw,-74.1421813964843,-58.573143005371,52.34388485844371,-107.22940072323907,1305600317
iw,-75.0927963256836,-56.8403549194335,52.66553530298014,-100.37132997806829,1305616984
iw,-75.9555053710937,-55.2853202819824,52.52434254717162,-93.38349017436646,1305633651
iw,-76.8523635864257,-53.9742698669433,51.754653976821814,-85.88934452158873,1305650318
iw,-77.7299575805664,-52.854621887207,50.3330526232961,-77.5436699525608,1305666985
iw,-78.5609970092773,-51.9539718627929,48.385863183777,-68.07028828358503,1305683652
iw,-79.4023132324218,-51.1493377685546,46.16582708252897,-57.31702003378629,1305700319
iw,-80.2583999633789,-50.4768447875976,44.002631478133814,-45.327559133419975,1305716986
iw,-81.0715942382812,-49.8540458679199,42.23618662976264,-32.39924478832376,1305733653
iw,-81.7989807128906,-49.5129089355468,41.14550944199402,-19.081810729118597,1305750320
iw,-82.5053253173828,-49.5618858337402,40.88769881822242,-6.089475154019765,1305766987
iw,-83.222541809082,-49.9443778991699,41.458610175205145,5.858032308950404,1305783654
iw,-83.9452438354492,-50.4496459960937,42.67909793421473,16.206166706648293,1305800321
iw,-84.6728897094726,-50.866714477539,44.20205328899844,24.67528188037565,1305816988
iw,-85.4071350097656,-51.2242012023925,45.532081759470756,31.266978224843637,1305833655
iw,-86.1231307983398,-51.7684440612793,46.054044881222936,36.18097617052956,1305850322
iw,-86.8122406005859,-52.6303329467773,45.075106392667635,39.70071364132599,1305866989
iw,-87.4034652709961,-53.5518989562988,41.890499892488336,42.109931478620446,1305883656
iw,-87.7786026000976,-54.2991218566894,35.880557638972604,43.670363675519475,1305900323
iw,-87.8959732055664,-55.150894165039,26.634341558703063,44.650457461818235,1305916990
iw,-87.8300323486328,-56.274242401123,14.07700894974303,45.369781006640075,1305933657
iw,-87.7107391357421,-57.2647056579589,-1.438365232006309,46.21686676147075,1305950324
iw,-87.6080474853515,-58.1887168884277,-19.11829493870756,47.606707058181144,1305966991
iw,-87.4441146850586,-58.8983078002929,-37.82468653506795,49.870052990280996,1305983658
iw,-86.9450759887695,-59.5104293823242,-56.2748567650708,53.107406318015215,1306000325
iw,-85.8669662475586,-60.2559700012207,-73.30110827806779,57.07734409047447,1306016992
iw,-84.2098236083984,-61.4436721801757,-88.09306528284962,61.194354225756776,1306033659
iw,-82.166015625,-62.9123878479003,-100.33816184813824,64.67113052264621,1306050326
iw,-80.0456848144531,-64.3714752197265,-110.20264576629316,66.769378004823,1306066993
iw,-77.8109130859375,-65.6797103881836,-118.15397374213103,67.06232813884269,1306083660
iw,-75.4034347534179,-66.8838348388671,-124.69212681048211,65.59932006323552,1306100327
iw,-72.9548950195312,-67.9762420654296,-130.09704698181943,62.9044834663194,1306116994
iw,-70.6375122070312,-68.8822555541992,-134.28970750175293,59.81181721521761,1306133661
iw,-68.3691253662109,-69.7513961791992,-136.8528612480033,57.20201072307312,1306150328
iw,-66.1368789672851,-70.7208175659179,-137.19254447086584,55.73701094179754,1306166995
iw,-63.8199958801269,-71.7867813110351,-134.76987389550658,55.67910900132409,1306183662
iw,-61.5124320983886,-72.8866958618164,-129.30979639655027,56.84209640442447,1306200329
iw,-59.4343109130859,-74.0338516235351,-120.90540590111753,58.673910398956394,1306216996
iw,-57.732925415039,-75.1815185546875,-109.98163591016525,60.432714337900805,1306233663
iw,-56.249900817871,-76.3052902221679,-97.14604762080252,61.39982539998277,1306250330
iw,-54.8954925537109,-77.3787231445312,-83.00775402560396,61.07191125002885,1306266997
iw,-53.6730690002441,-78.3765563964843,-68.05742818723874,59.287024488501544,1306283664
iw,-52.6989517211914,-79.327392578125,-52.66269402135675,56.25944792973775,1306300331
iw,-51.953311920166,-80.2213134765625,-37.16630083138455,52.521056129933335,1306316998
iw,-51.5269699096679,-81.0499191284179,-22.017136683521276,48.78624038119324,1306333665
iw,-51.3799934387207,-81.8142013549804,-7.84465649366824,45.7705703101542,1306350332
iw,-51.6390113830566,-82.5211563110351,4.587024316270387,44.00077816344539,1306366999
iw,-52.6439895629882,-83.1736679077148,14.549025691693892,43.656517076134776,1306383666
iw,-53.8348083496093,-83.8424072265625,21.57525262440435,44.4816908506527,1306400333
iw,-54.7578926086425,-84.5770034790039,25.637738917256918,45.79197332258095,1306417000
iw,-55.0694541931152,-85.4030456542968,27.17700794525575,46.58367798758414,1306433667
iw,-55.4700622558593,-86.2994842529296,26.972415427432153,45.720926273299845,1306450334
iw,-56.1847801208496,-87.1002502441406,25.925230781919474,42.15295738014397,1306467001
iw,-57.0783958435058,-87.6095199584961,24.860040878541636,35.103716751132325,1306483668
iw,-58.0051574707031,-87.7549362182617,24.41030059203054,24.188892704125795,1306500335
iw,-58.7131385803222,-87.6670379638671,24.98567884599905,9.447145548613467,1306517002
iw,-59.0937118530273,-87.3942108154296,26.77835751716754,-8.6935614553724,1306533669
iw,-59.421157836914,-86.8646240234375,29.77001358709569,-29.47582362138961,1306550336
iw,-59.8960266113281,-86.1204071044921,33.72996991592222,-51.86841794464772,1306567003
iw,-60.5050964355468,-85.2625274658203,38.22142211689191,-74.61575578330162,1306583670
iw,-61.5001182556152,-84.0950164794921,42.64433197131626,-96.30931798760722,1306600337
iw,-62.6865692138671,-82.4129486083984,46.337112121146674,-115.51817931883514,1306617004
iw,-63.744327545166,-80.1527633666992,48.73333683956793,-130.98998406325805,1306633671
iw,-64.7866134643554,-77.4271926879882,49.5326120364574,-141.8824349933131,1306650338
iw,-65.8854675292968,-74.6053466796875,48.818764508872704,-147.94097906816015,1306667005
iw,-66.9702453613281,-71.9942245483398,47.06515864146679,-149.53651619199798,1306683672
iw,-67.9145584106445,-69.6568222045898,45.00801380638053,-147.52842328926582,1306700339
iw,-68.7530364990234,-67.530647277832,43.424563423513874,-142.99705377155396,1306717006
iw,-69.5991134643554,-65.536262512207,42.89560779342006,-136.9495543555393,1306733673
iw,-70.6643829345703,-63.5117835998535,43.63939721267108,-130.10864621389513,1306750340
iw,-71.8265533447265,-61.4155578613281,45.471470407558755,-122.8457206866136,1306767007
iw,-72.8643264770507,-59.3729705810546,47.89082847905281,-115.24777054689142,1306783674
iw,-73.785888671875,-57.5062713623046,50.247043999135556,-107.25166661927452,1306800341
iw,-74.7179718017578,-55.851707458496,51.92697074283066,-98.76481867016376,1306817008
iw,-75.6891632080078,-54.4249877929687,52.511011770978,-89.7191887286332,1306833675
iw,-76.6621551513671,-53.23237991333,51.86937902452346,-80.05544214251117,1306850342
iw,-77.5773544311523,-52.2331466674804,50.185735221102,-69.67787651877583,1306867009
iw,-78.4297485351562,-51.4324264526367,47.908953883349085,-58.43766815042177,1306883676
iw,-79.2920455932617,-50.7380180358886,45.646379472344165,-46.184987371415716,1306900343
iw,-80.1659851074218,-50.141056060791,44.02207404781139,-32.88790882985165,1306917010
iw,-80.9818878173828,-49.6965293884277,43.5281637451501,-18.768612784046425,1306933677
iw,-81.7582397460937,-49.4347267150878,44.39772407066414,-4.381192757271433,1306950344
iw,-82.5697784423828,-49.6567726135253,46.52595551522933,9.430823254498767,1306967011
iw,-83.4206771850586,-50.323070526123,49.46064896001227,21.70671161715887,1306983678
iw,-84.2938766479492,-51.1194686889648,52.46910718253999,31.61450536433202,1307000345
iw,-85.1454620361328,-51.8605194091796,54.66813501564303,38.67409600607261,1307017012
iw,-85.9321060180664,-52.5896034240722,55.184676094954135,42.870977886895844,1307033679
iw,-86.5649337768554,-53.3880424499511,53.30639101922009,44.62746099596519,1307050346
iw,-86.9898147583007,-54.1783218383789,48.588153972730446,44.66053997231761,1307067013
iw,-87.2107696533203,-55.0155067443847,40.898861812988955,43.79351552714984,1307083680
iw,-87.239761352539,-55.8634185791015,30.41327619197847,42.790016242757694,1307100347
iw,-87.2352981567382,-56.7538185119628,17.56513655043511,42.252581774287485,1307117014
iw,-87.351448059082,-57.7743988037109,2.9774849761940567,42.590375777164084,1307133681
iw,-87.5268630981445,-58.5706024169921,-12.619488020279253,44.02958737847435,1307150348
iw,-87.5352630615234,-59.3906326293945,-28.47642159301673,46.62932739002502,1307167015
iw,-87.2428894042968,-60.2569198608398,-43.91274648099871,50.278891510464156,1307183682
iw,-86.5654983520507,-60.9580459594726,-58.39858847779444,54.67983215577047,1307200349
iw,-85.4304809570312,-61.7227478027343,-71.6213373581161,59.3421121403408,1307217016
iw,-83.8872756958007,-62.9229202270507,-83.51890542924916,63.632434785027094,1307233683
iw,-81.9854583740234,-64.3325653076171,-94.25401920773163,66.89496481936702,1307250350
iw,-79.9997787475586,-65.7144699096679,-104.11185265946868,68.62388962826668,1307267017
iw,-77.8005294799804,-67.0488510131836,-113.33416943245236,68.62663601068911,1307283684
iw,-75.3508224487304,-68.275634765625,-121.94282702501322,67.1047762519637,1307300351
iw,-72.8615036010742,-69.3671188354492,-129.62594265858007,64.60744818585724,1307317018
iw,-70.5511932373046,-70.3327865600586,-135.74408254442181,61.86496467632955,1307333685
iw,-68.3199844360351,-71.257080078125,-139.46969057829557,59.56092152518843,1307350352
iw,-66.0112609863281,-72.2577896118164,-140.02229226579607,58.12558728567005,1307367019
iw,-63.5250701904296,-73.3377456665039,-136.9220587466956,57.6219996942253,1307383686
iw,-61.1118469238281,-74.4666061401367,-130.16676124557944,57.75715876398897,1307400353
iw,-59.0598526000976,-75.601333618164,-120.25414421568799,58.00400442145797,1307417020
iw,-57.4576568603515,-76.6846694946289,-108.02878116308946,57.785213558851886,1307433687
iw,-56.0883903503418,-77.7091217041015,-94.41211332724995,56.65734763501254,1307450354
iw,-54.7571678161621,-78.6219100952148,-80.13524933342667,54.44277160524573,1307467021
iw,-53.5545578002929,-79.437255859375,-65.59669720329559,51.27957408508288,1307483688
iw,-52.5424346923828,-80.1850204467773,-50.905637566241914,47.586556507656326,1307500355
iw,-51.6937828063964,-80.9002075195312,-36.07896978120863,43.96183808727455,1307517022
iw,-51.1133575439453,-81.631721496582,-21.284970054037068,41.04383634327818,1307533689
iw,-50.923110961914,-82.3427047729492,-7.002852592406021,39.36262977394953,1307550356
iw,-51.5593223571777,-83.0190505981445,5.992976931807084,39.203974463521625,1307567023
iw,-52.7713966369628,-83.6869583129882,16.827329021510714,40.50421842878935,1307583690
iw,-54.066837310791,-84.3728332519531,24.806259278919043,42.79379624401691,1307600357
iw,-54.7258262634277,-85.1043548583984,29.65050021273736,45.20591551774516,1307617024
iw,-55.1470146179199,-85.8888626098632,31.58035412134783,46.56041160840488,1307633691
iw,-55.8635749816894,-86.6410675048828,31.24341683838931,45.519467243610826,1307650358
iw,-56.9136428833007,-87.2067031860351,29.551689870108422,40.795907780916124,1307667025
iw,-57.8928489685058,-87.4441909790039,27.50312993754308,31.382252101045143,1307683692
iw,-58.7504043579101,-87.3693161010742,26.022098655198484,16.76372865417145,1307700359
iw,-59.117317199707,-87.1363830566406,25.819776121039798,-2.919832019970746,1307717026
iw,-59.2783851623535,-86.7466506958007,27.277522465767795,-26.79447054659175,1307733693
iw,-59.6230392456054,-86.1019821166992,30.374602237299705,-53.282773431940996,1307750360
iw,-60.2431449890136,-85.1540222167968,34.68857840388623,-80.26572628832993,1307767027
iw,-61.3497352600097,-83.7985687255859,39.48525965327767,-105.37831736955701,1307783694
iw,-62.7017250061035,-81.8479690551757,43.89204295435274,-126.40711155356568,1307800361
iw,-63.9040565490722,-79.2885131835937,47.11939750071233,-141.7137854659515,1307817028
iw,-64.8668823242187,-76.3316574096679,48.66908544351429,-150.57249628118925,1307833695
iw,-65.8609771728515,-73.3922958374023,48.461609575153034,-153.30568509969888,1307850362
iw,-66.9325332641601,-70.8008193969726,46.84008300386402,-151.15022865833663,1307867029
iw,-67.941421508789,-68.5480422973632,44.453073330348836,-145.87652851283505,1307883696
iw,-68.8692932128906,-66.624153137207,42.06126619718318,-139.27914478478087,1307900363
iw,-69.7993774414062,-64.8283462524414,40.33324925339157,-132.70939838899858,1307917030
iw,-70.8154373168945,-62.9771194458007,39.689677185919855,-126.79984839398256,1307933697
iw,-71.8648071289062,-61.0071754455566,40.2300529648718,-121.44924251051683,1307950364
iw,-72.8712158203125,-59.0019836425781,41.746324181353614,-116.03547031821832,1307967031
iw,-73.8053894042968,-57.0790634155273,43.805533063645925,-109.7478164643266,1307983698
iw,-74.6432723999023,-55.2750282287597,45.87483624993766,-101.90505273893555,1308000365
iw,-75.4596405029296,-53.7409858703613,47.46171235682704,-92.15402039172145,1308017032
iw,-76.3233337402343,-52.5062751770019,48.24242301437121,-80.50599029377386,1308033699
iw,-77.1649932861328,-51.6143188476562,48.15050106487804,-67.23803701428812,1308050366
iw,-77.9655990600586,-51.0724411010742,47.39951547609944,-52.7375085318502,1308067033
iw,-78.7568054199218,-50.7064704895019,46.42703859756099,-37.38083447914222,1308083700
iw,-79.5685119628906,-50.4343070983886,45.76858362944623,-21.5081782527428,1308100367
iw,-80.4137420654296,-50.068733215332,45.89206570796539,-5.494852514967286,1308117034
iw,-81.2639694213867,-49.9475212097168,47.035624854805036,10.14185695227506,1308133701
iw,-82.1045989990234,-50.4535408020019,49.09124141080974,24.689224367214443,1308150368
iw,-82.974853515625,-51.4713096618652,51.56529845686984,37.29881356312747,1308167035
iw,-83.8817291259765,-52.4546394348144,53.628350928963364,47.15011723743451,1308183702
iw,-84.7460708618164,-53.3327293395996,54.24459305533986,53.648298691895576,1308200369
iw,-85.5070419311523,-54.3022537231445,52.35406930991809,56.575694135921935,1308217036
iw,-86.1832504272461,-55.2653045654296,47.073445123154535,56.15336441196067,1308233703
iw,-86.8042678833007,-56.1344451904296,37.882719554404105,53.015060053064836,1308250370
iw,-87.3428115844726,-57.1100921630859,24.76761798076987,48.119503876525,1308267037
iw,-87.7248001098632,-57.9550437927246,8.285653389645002,42.6242347273732,1308283704
iw,-87.8374328613281,-58.7503509521484,-10.475732115431912,37.73074711402401,1308300371
iw,-87.5200653076171,-59.3729209899902,-30.06532288751219,34.503501162085904,1308317038
iw,-86.7336120605468,-59.6991119384765,-48.9405324836414,33.67463242940241,1308333705
iw,-85.5090026855468,-59.947525024414,-65.78633738403852,35.4714484453939,1308350372
iw,-83.8477630615234,-60.4567184448242,-79.79256041147954,39.53081621045036,1308367039
iw,-81.8569793701171,-61.5034217834472,-90.80068482765907,44.96605470467663,1308383706
iw,-79.6832122802734,-62.772834777832,-99.26229999810748,50.60594125097624,1308400373
iw,-77.4660568237304,-64.0832977294921,-106.00888697963217,55.34429364708498,1308417040
iw,-75.1515884399414,-65.2706146240234,-111.90150623007426,58.47192941486093,1308433707
iw,-72.7352828979492,-66.359390258789,-117.48086009077356,59.858879603344654,1308450374
iw,-70.4307250976562,-67.3389434814453,-122.74436965658158,59.91955058697086,1308467041
iw,-68.2123641967773,-68.1821594238281,-127.12987515375362,59.389269714407725,1308483708
iw,-66.0676727294921,-69.1440811157226,-129.70707209961085,59.0161182985318,1308500375
iw,-63.88130569458,-70.3016967773437,-129.50281956779034,59.293042254422346,1308517042
iw,-61.5950241088867,-71.4760208129882,-125.84193062651153,60.3196837145301,1308533709
iw,-59.4434852600097,-72.6494750976562,-118.5825617648126,61.818176660150655,1308550376
iw,-57.6452674865722,-73.8649063110351,-108.16497598285731,63.26889665590183,1308567043
iw,-56.1570930480957,-75.0788192749023,-95.46387360597323,64.10263958486775,1308583710
iw,-54.9068946838378,-76.266372680664,-81.5128809884039,63.88429156504622,1308600377
iw,-53.8274116516113,-77.3327484130859,-67.22045095054511,62.43880711266919,1308617044
iw,-52.8773460388183,-78.3306427001953,-53.19340672297036,59.894124655922916,1308633711
iw,-51.9748649597168,-79.2895050048828,-39.72809568578611,56.64084264733166,1308650378
iw,-51.2919921875,-80.2061996459961,-26.946865700957662,53.22838069879015,1308667045
iw,-50.8652458190918,-81.0508880615234,-14.989055250711006,50.227750789192484,1308683712
iw,-50.806785583496,-81.8411331176757,-4.144424425848413,48.09302184622957,1308700379
iw,-51.4744033813476,-82.6103439331054,5.145926903461383,47.05075223574559,1308717046
iw,-52.4311828613281,-83.4135818481445,12.419358846018199,47.040652922321044,1308733713
iw,-53.2297134399414,-84.2793273925781,17.376565962367778,47.720385509978854,1308750380
iw,-53.5626258850097,-85.2125091552734,20.01997743218104,48.53218808636831,1308767047
iw,-53.9333305358886,-86.1771545410156,20.682135734040322,48.811867508342345,1308783714
iw,-54.4813537597656,-87.1419982910156,19.951531531307417,47.90756544623535,1308800381
iw,-55.1902313232421,-88.0321884155273,18.553004110835662,45.272745477297995,1308817048
iw,-56.0499649047851,-88.7072982788086,17.23796851014509,40.508166886393084,1308833715
iw,-56.9536437988281,-88.9797134399414,16.702087785845933,33.34939872047983,1308850382
iw,-57.5712432861328,-88.8556823730468,17.51359411831296,23.622461141936974,1308867049
iw,-58.0390396118164,-88.5737152099609,20.03140142188047,11.208772629959961,1308883716
iw,-58.4235954284668,-88.2721786499023,24.316494288825105,-3.9402683899725375,1308900383
iw,-58.6470298767089,-87.9560852050781,30.069346317738436,-21.72364534553725,1308917050
iw,-59.1503067016601,-87.5242538452148,36.63686553607977,-41.77050318126725,1308933717
iw,-60.2743644714355,-86.8522186279296,43.116067572833174,-63.33811571791827,1308950384
iw,-61.5202941894531,-85.7688598632812,48.54484490113988,-85.29483224444417,1308967051
iw,-62.5853652954101,-84.2331314086914,52.13031415897483,-106.22883680969957,1308983718
iw,-63.589241027832,-82.2173233032226,53.44388802305299,-124.67403295681618,1309000385
iw,-64.6066131591796,-79.6454086303711,52.52112856791971,-139.39345945727385,1309017052
iw,-65.7483673095703,-76.7711791992187,49.83767771140771,-149.63022569106408,1309033719
iw,-66.9162673950195,-73.9968338012695,46.17414404324452,-155.23959299798025,1309050386
iw,-67.8898239135742,-71.4072265625,42.4167945047066,-156.65548604578444,1309067053
iw,-68.8109817504882,-68.992202758789,39.35588427788275,-154.70664232470548,1309083720
iw,-69.8258514404296,-66.7191085815429,37.53540665297057,-150.35328688878795,1309100387
iw,-70.8669891357421,-64.5197296142578,37.182129366709425,-144.43716481247884,1309117054
iw,-71.8050003051757,-62.4130821228027,38.21187466485234,-137.5191123047619,1309133721
iw,-72.6837463378906,-60.4244918823242,40.29304854392544,-129.83516411761292,1309150388
iw,-73.5803527832031,-58.4950523376464,42.94659471550626,-121.35783904104392,1309167055
iw,-74.5533752441406,-56.574592590332,45.66703582818185,-111.91908452306956,1309183722
iw,-75.5845947265625,-54.8323249816894,48.047172303833854,-101.34031994047814,1309200389
iw,-76.5865859985351,-53.3247032165527,49.87888269458002,-89.52338114271492,1309217056
iw,-77.4943542480468,-52.1110038757324,51.19749264923325,-76.48160012680228,1309233723
iw,-78.3802032470703,-51.2519760131835,52.24924575155145,-62.32369069428008,1309250390
iw,-79.2800827026367,-50.6857604980468,53.38820070423865,-47.2282067539802,1309267057
iw,-80.2061996459961,-50.3289031982421,54.93549863359424,-31.44759232813578,1309283724
iw,-81.2022171020507,-49.9823875427246,57.045826182637654,-15.354136317131765,1309300391
iw,-82.2574462890625,-49.7177047729492,59.619193868274024,0.5013300162946721,1309317058
iw,-83.3456878662109,-50.0129013061523,62.27741758100916,15.37576148750078,1309333725
iw,-84.4165802001953,-50.784008026123,64.40418595200785,28.412805707351215,1309350392
iw,-85.4146499633789,-51.6652870178222,65.23327853893566,38.81244104276855,1309367059
iw,-86.3147506713867,-52.5363883972168,63.9641832182044,46.03350877264237,1309383726
iw,-87.0449523925781,-53.5374412536621,59.88581745959965,49.948411453996165,1309400393
iw,-87.5161209106445,-54.4279289245605,52.49269897251952,50.89162745666131,1309417060
iw,-87.7006683349609,-55.1462440490722,41.58026074621298,49.59141807684146,1309433727
iw,-87.6776275634765,-55.8750495910644,27.306327566047692,47.018235143429955,1309450394
iw,-87.6272735595703,-56.6944732666015,10.20544205377267,44.20444105672193,1309467061
iw,-87.6397628784179,-57.5667686462402,-8.85575013009261,42.082470544958355,1309483728
iw,-87.5862121582031,-58.3419342041015,-28.7875349079587,41.36186343639837,1309500395
iw,-87.2156143188476,-59.0637550354003,-48.442980898094106,42.44084428480407,1309517062
iw,-86.3260879516601,-59.7037506103515,-66.8139039572685,45.344865961547676,1309533729
iw,-84.7673721313476,-60.3824310302734,-83.20968624204058,49.70437981113218,1309550396
iw,-82.7646713256836,-61.4631919860839,-97.35901261482296,54.80550454931766,1309567063
iw,-80.6547546386718,-62.8068351745605,-109.38324647513014,59.740418885470554,1309583730
iw,-78.5205154418945,-64.2018203735351,-119.62961567799641,63.640128808986766,1309600397
iw,-76.2620849609375,-65.4957580566406,-128.41394187867488,65.91790080308543,1309617064
iw,-74.0272750854492,-66.7237930297851,-135.7757158115413,66.42944978548239,1309633731
iw,-71.7958908081054,-67.8505020141601,-141.35831423183149,65.48536706935637,1309650398
iw,-69.5754623413086,-68.8620223999023,-144.48135190876027,63.71448000967653,1309667065
iw,-67.2956314086914,-69.9028778076171,-144.38920062296978,61.83720139899806,1309683732
iw,-64.7584686279296,-71.0068969726562,-140.577240708838,60.43623675921142,1309700399
iw,-62.1593399047851,-72.125747680664,-133.052738986645,59.80059894412449,1309717066
iw,-60.0106010437011,-73.2349548339843,-122.40436436230551,59.88085123702823,1309733733
iw,-58.323127746582,-74.3582458496093,-109.63532250798272,60.350949830808425,1309750400
iw,-56.9542922973632,-75.4739456176757,-95.83012207457084,60.741537689325746,1309767067
iw,-55.7053451538085,-76.5528259277343,-81.81465726752569,60.59623779006374,1309783734
iw,-54.4944343566894,-77.5261688232421,-67.97657889087945,59.60470613216111,1309800401
iw,-53.3255729675293,-78.4356460571289,-54.32657649337481,57.68038743853246,1309817068
iw,-52.3041801452636,-79.3178405761718,-40.74854384562276,54.97152446055668,1309833735
iw,-51.5727424621582,-80.1730499267578,-27.283999117117084,51.81308168304745,1309850402
iw,-51.6872329711914,-81.0009078979492,-14.283120305821136,48.6384423448769,1309867069
iw,-52.5459098815918,-81.7791137695312,-2.340206791275239,45.87235355633183,1309883736
iw,-53.5953140258789,-82.5063781738281,7.934839162094837,43.82481120705364,1309900403
iw,-54.2790412902832,-83.1918792724609,16.159963677410488,42.60351496921442,1309917070
iw,-54.3928108215332,-83.9010238647461,22.294264725085707,42.06047238887385,1309933737
iw,-54.6372375488281,-84.666633605957,26.57563256774576,41.78338106338759,1309950404
iw,-55.2376823425293,-85.4200439453125,29.355554416955265,41.13289695922485,1309967071
iw,-56.2831230163574,-86.0639877319336,30.954948544181942,39.316232149986405,1309983738
iw,-57.3568840026855,-86.5697784423828,31.623549936617167,35.482390355766306,1310000405
iw,-58.475040435791,-86.9646224975586,31.59897176677932,28.827841055110667,1310017072
iw,-59.6221084594726,-87.2486419677734,31.196787591468755,18.708952602128342,1310033739
iw,-60.1061706542968,-87.3140182495117,30.85136025165283,4.760547549647805,1310050406
iw,-60.4879989624023,-87.0610885620117,31.060055406368978,-12.986421975417135,1310067073
iw,-60.7937316894531,-86.5363235473632,32.237474333297556,-34.008703491822324,1310083740
iw,-61.1783599853515,-85.8050231933593,34.53817680504377,-57.25034157960849,1310100407
iw,-62.1013717651367,-84.7540206909179,37.73470950175264,-81.17684778344379,1310117074
iw,-63.2902565002441,-83.2182846069336,41.22658080782192,-103.94964519177876,1310133741
iw,-64.4517745971679,-81.1998443603515,44.20329053806143,-123.71243811496352,1310150408
iw,-65.4069213867187,-78.7045135498046,45.911999763785445,-138.93470395108295,1310167075
iw,-66.3666229248046,-75.9019317626953,45.92668192969765,-148.7195390136514,1310183742
iw,-67.3992614746093,-73.0747604370117,44.310835317617894,-152.97642257640837,1310200409
iw,-68.357307434082,-70.4321899414062,41.61014765956419,-152.39451505723022,1310217076
iw,-69.1463546752929,-68.0450897216796,38.67974696866382,-148.21870866303348,1310233743
iw,-69.9238052368164,-65.9423904418945,36.412128087469505,-141.9007130091618,1310250410
iw,-70.827522277832,-63.9607810974121,35.46376480558928,-134.7386810584771,1310267077
iw,-71.7855072021484,-61.9156036376953,36.07143240559667,-127.61283650276098,1310283744
iw,-72.7037277221679,-59.8987922668457,38.01023078869223,-120.87714226334249,1310300411
iw,-73.5902709960937,-58.04683303833,40.694068234863146,-114.40430463286775,1310317078
iw,-74.5109329223632,-56.2811393737793,43.37662620212795,-107.73359521587201,1310333745
iw,-75.5073776245117,-54.694351196289,45.38692703166961,-100.25488242163634,1310350412
iw,-76.5034713745117,-53.2630043029785,46.32901034894567,-91.37481654647388,1310367079
iw,-77.425666809082,-52.0263786315918,46.188172671906635,-80.63766309607783,1310383746
iw,-78.2155151367187,-51.0236930847168,45.315587261857466,-67.7992816154824,1310400413
iw,-78.9657211303711,-50.2768058776855,44.302884689599814,-52.86873290978124,1310417080
iw,-79.7557373046875,-49.7902679443359,43.79375724182614,-36.133825784122315,1310433747
iw,-80.5922241210937,-49.5277137756347,44.29448377643067,-18.17586045174043,1310450414
iw,-81.4547958374023,-49.4439125061035,46.03420988967857,0.13827023697593585,1310467081
iw,-82.3284683227539,-49.6528587341308,48.89904350826616,17.710401757156532,1310483748
iw,-83.2499160766601,-50.314208984375,52.43797475867853,33.331192014615326,1310500415
iw,-84.1897201538086,-51.2523040771484,55.924052735719535,45.86151509542523,1310517082
iw,-85.1049880981445,-52.2339897155761,58.45237653532127,54.439183237595415,1310533749
iw,-86.0173950195312,-53.1668624877929,59.061934458051255,58.65674753726586,1310550416
iw,-86.8878173828125,-54.1804580688476,56.87326766174006,58.663376289087836,1310567083
iw,-87.6000366210937,-55.21773147583,51.23234172844785,55.16873993862732,1310583750
iw,-88.0793991088867,-56.0241508483886,41.8430129236093,49.35101804205609,1310600417
iw,-88.3404693603515,-56.8818588256835,28.861824771465038,42.68444135433451,1310617084
iw,-88.4221954345703,-57.5859069824218,12.925554830024241,36.70807835901053,1310633751
iw,-88.500015258789,-57.9450798034668,-4.912690506257546,32.76551465517274,1310650418
iw,-88.4971466064453,-58.5057144165039,-23.346633152303884,31.757699775688195,1310667085
iw,-88.1666641235351,-59.0273971557617,-41.059320380956244,33.962680797950135,1310683752
iw,-87.2984008789062,-59.469871520996,-56.99235967499016,38.9761206594494,1310700419
iw,-85.9389495849609,-60.3148002624511,-70.56496514498303,45.80818336379524,1310717086
iw,-84.3752822875976,-61.669075012207,-81.76508904962768,53.13286732330876,1310733753
iw,-82.5899505615234,-62.9732322692871,-91.06731692661725,59.63099505297315,1310750420
iw,-80.6795120239257,-64.2124633789062,-99.19284245627892,64.3219206245541,1310767087
iw,-78.6642913818359,-65.4262771606445,-106.7915989312179,66.77478222606689,1310783754
iw,-76.4284591674804,-66.5571365356445,-114.16278798899307,67.13778683068684,1310800421
iw,-74.1372909545898,-67.6286315917968,-121.11667119678917,65.99690450918526,1310817088
iw,-71.9249801635742,-68.7150039672851,-127.02271201545321,64.13406803196918,1310833755
iw,-69.7806167602539,-69.8272399902343,-131.01607188700982,62.27600539543952,1310850422
iw,-67.6391830444336,-70.9264068603515,-132.2802849526308,60.90865589559691,1310867089
iw,-65.294189453125,-72.0171127319336,-130.30625026541676,60.19573543496509,1310883756
iw,-62.9073829650878,-73.1453170776367,-125.04289588745229,60.00311889533329,1310900423
iw,-60.8194694519043,-74.3242492675781,-116.89209600519945,60.0037919765329,1310917090
iw,-59.064655303955,-75.4893264770507,-106.55253405225758,59.82210629610969,1310933757
iw,-57.5722045898437,-76.5858459472656,-94.77443689353606,59.170662324766724,1310950424
iw,-56.2022514343261,-77.5999145507812,-82.1273829036347,57.94043522176889,1310967091
iw,-54.9769134521484,-78.5098800659179,-68.8817689013742,56.224165364066025,1310983758
iw,-53.920482635498,-79.3673324584961,-55.05539992299205,54.27729458547135,1311000425
iw,-53.0091667175293,-80.1980972290039,-40.60150300685304,52.43932022166767,1311017092
iw,-52.3217048645019,-81.0541152954101,-25.647779503142687,51.044161455678825,1311033759
iw,-51.976806640625,-81.9588012695312,-10.667726135986532,50.34085808787329,1311050426
iw,-52.407371520996,-82.8791961669921,3.5090299741630266,50.43214004919168,1311067093
iw,-53.4341316223144,-83.7681045532226,15.866822598869334,51.22756245705742,1311083760
iw,-54.5166053771972,-84.5861587524414,25.485039263610844,52.40695770474677,1311100427
iw,-55.1791038513183,-85.3586883544921,31.80827074673414,53.39881821768678,1311117094
iw,-55.738224029541,-86.1105346679687,34.80119971199648,53.38953415380326,1311133761
iw,-56.6514739990234,-86.7845382690429,34.95369214755165,51.383773472521625,1311150428
iw,-57.5388603210449,-87.2800521850586,33.166998888311134,46.3288714263233,1311167095
iw,-58.4830856323242,-87.5918197631836,30.573523264975357,37.29867330291963,1311183762
iw,-59.45894241333,-87.74658203125,28.329660270814486,23.7101402077258,1311200429
iw,-59.7898788452148,-87.7851257324218,27.406501653799936,5.525349106304034,1311217096
iw,-60.093276977539,-87.6747665405273,28.403357700920438,-16.619878370426605,1311233763
iw,-60.4851150512695,-87.2986145019531,31.417677623770135,-41.413094144432975,1311250430
iw,-61.1240272521972,-86.6012573242187,36.00959674628911,-67.01360997358839,1311267097
iw,-62.2936820983886,-85.5012893676757,41.29238760437299,-91.33814073663171,1311283764
iw,-63.6924705505371,-83.8770904541015,46.155081159813044,-112.4305038788519,1311300431
iw,-64.8430709838867,-81.724624633789,49.576534997280945,-128.8330024586857,1311317098
iw,-65.8624801635742,-79.1019821166992,50.93727537058254,-139.86391468713052,1311333765
iw,-66.9370498657226,-76.3200149536132,50.21396519135243,-145.71557581799127,1311350432
iw,-68.0044784545898,-73.744873046875,47.9765247636634,-147.3282979224406,1311367099
iw,-68.9490966796875,-71.450439453125,45.18559381321512,-146.0642296638238,1311383766
iw,-69.7977142333984,-69.430419921875,42.86788809993813,-143.28030891456783,1311400433
iw,-70.6891708374023,-67.4716873168945,41.791858794901906,-139.94436447398274,1311417100
iw,-71.7736892700195,-65.3363494873046,42.25812067344526,-136.42426731047536,1311433767
iw,-72.939697265625,-63.0775337219238,44.06471438259152,-132.50822083880826,1311450434
iw,-74.0197067260742,-60.8649024963378,46.63433517249648,-127.61944644717659,1311467101
iw,-75.0006790161132,-58.7660255432128,49.23473100753467,-121.11747183727863,1311483768
iw,-75.9367294311523,-56.7486114501953,51.20650917390392,-112.56111206749058,1311500435
iw,-76.8585052490234,-55.0260124206543,52.1314859131659,-101.84411157481158,1311517102
iw,-77.7647018432617,-53.6725578308105,51.90968219616389,-89.17964135364895,1311533769
iw,-78.6346893310546,-52.6619720458984,50.745345225200374,-74.97536648207542,1311550436
iw,-79.4832077026367,-51.9450225830078,49.0636235036506,-59.68194296890072,1311567103
iw,-80.3561859130859,-51.3409881591796,47.38928148666429,-43.698452441492044,1311583770
iw,-81.2031707763671,-50.8632926940918,46.21908481576567,-27.377623345937447,1311600437
iw,-82.0316619873046,-50.3220329284668,45.91291628894456,-11.110961536429599,1311617104
iw,-82.8849029541015,-50.1325950622558,46.61886227340774,4.577703936799384,1311633771
