Label,Left_Hip_q,Right_Hip_q,Left_Hip_qd,Right_Hip_qd,SampleTimeFine
fw,-78.6491241455078,-73.1908569335937,-86.6102142333984,29.5487957000732,252441099
fw,-80.6715469360351,-74.5158767700195,-86.8020858764648,67.7206954956054,252457766
fw,-82.9026794433593,-75.9368591308593,-87.4734344482421,73.6329498291015,252474433
fw,-85.6047973632812,-77.0426864624023,-121.316513061523,60.9424743652343,252491100
fw,-87.9246292114257,-78.3028030395507,-163.750274658203,73.2692260742187,252507767
fw,-86.3245391845703,-80.0171203613281,-180.978149414062,100.859176635742,252524434
fw,-83.6511001586914,-81.7905883789062,-159.729263305664,104.717147827148,252541101
fw,-81.0858612060546,-83.3954391479492,-152.929901123046,94.4186401367187,252557768
fw,-78.2914276123046,-84.7808380126953,-171.777297973632,80.9889678955078,252574435
fw,-75.1885528564453,-86.0792388916015,-190.996826171875,77.8630752563476,252591102
fw,-72.230712890625,-87.2965850830078,-174.566757202148,83.9813766479492,252607769
fw,-69.8197937011718,-88.1287384033203,-130.000534057617,81.0050888061523,252624436
fw,-67.9031448364257,-88.3638687133789,-90.8485336303711,74.4647064208984,252641103
fw,-66.2510528564453,-87.8087539672851,-73.9151763916015,68.4830627441406,252657770
fw,-64.9108428955078,-86.7908172607421,-57.7924118041992,66.2506027221679,252674437
fw,-63.809097290039,-85.5672607421875,-47.0864143371582,68.2555313110351,252691104
fw,-62.8418540954589,-84.3455276489257,-44.7679138183593,66.9711227416992,252707771
fw,-62.0235633850097,-83.2181777954101,-47.948387145996,66.2957534790039,252724438
fw,-61.2908058166503,-82.2360076904296,-57.437084197998,59.3335266113281,252741105
fw,-60.7834167480468,-81.2063674926757,-50.5082740783691,63.3714332580566,252757772
fw,-60.8002738952636,-80.135383605957,-13.5941448211669,64.9455490112304,252774439
fw,-61.0598907470703,-79.0733337402343,1.13453578948974,63.0949249267578,252791106
fw,-61.5842018127441,-78.0129623413086,14.5530738830566,62.4110946655273,252807773
fw,-62.5402107238769,-77.0848922729492,36.67329788208,53.5415229797363,252824440
fw,-63.9207077026367,-76.271614074707,59.2323913574218,46.5454139709472,252841107
fw,-65.9726104736328,-75.5119552612304,109.159042358398,43.7217941284179,252857774
fw,-67.8880767822265,-74.9199142456054,98.8114700317382,33.889835357666,252874441
fw,-69.3251419067382,-74.3652191162109,73.5933151245117,32.0328788757324,252891108
fw,-70.5591964721679,-74.0565872192382,58.1250114440918,17.0620059967041,252907775
fw,-71.5215606689453,-74.2494277954101,38.5612258911132,-14.4270830154418,252924442
fw,-72.0419540405273,-74.8070907592773,14.8707237243652,-38.8667564392089,252941109
fw,-72.8634033203125,-75.5325317382812,25.323652267456,-50.0335044860839,252957776
fw,-74.4709091186523,-76.6143798828125,92.4928588867187,-70.4498672485351,252974443
fw,-75.5974807739257,-78.193130493164,63.2037963867187,-99.5703125,252991110
fw,-76.0672836303711,-80.4175033569336,9.20164489746093,-138.905975341796,253007777
fw,-76.5222244262695,-83.5380783081054,7.72385644912719,-191.904891967773,253024444
fw,-77.2686996459961,-87.3599548339843,0.0381828993558883,-247.887725830078,253041111
fw,-78.3682250976562,-87.1163558959961,7.80605506896972,-262.80859375,253057778
fw,-79.7127914428711,-83.1907806396484,43.0628623962402,-244.092361450195,253074445
fw,-80.7287521362304,-80.0690002441406,27.8773765563964,-188.671813964843,253091112
fw,-81.718032836914,-77.2667160034179,24.597333908081,-170.619766235351,253107779
fw,-83.2205734252929,-73.9296188354492,66.2303314208984,-203.157333374023,253124446
fw,-84.7934646606445,-70.5994110107421,72.6723098754882,-202.130981445312,253141113
fw,-85.8025970458984,-68.114013671875,35.734016418457,-150.638885498046,253157780
fw,-86.5972290039062,-66.4115982055664,29.8604679107666,-102.470703125,253174447
fw,-87.6553192138671,-64.6852416992187,57.0587005615234,-102.60545349121,253191114
fw,-88.6695404052734,-63.1801986694335,73.7670516967773,-88.9512557983398,253207781
fw,-88.6056289672851,-61.6281776428222,70.8562316894531,-92.9315414428711,253224448
fw,-87.6735076904296,-60.2223396301269,60.6538619995117,-86.2157135009765,253241115
fw,-86.6005096435546,-59.1846504211425,51.1397476196289,-65.3093643188476,253257782
fw,-85.5110549926757,-58.6144561767578,49.8562240600585,-37.9469146728515,253274449
fw,-84.4248657226562,-58.0653038024902,51.9376945495605,-37.6429557800293,253291116
fw,-83.3021850585937,-57.5531425476074,58.8512687683105,-35.9063606262207,253307783
fw,-82.1630859375,-57.3930435180664,62.2918167114257,-13.3552780151367,253324450
fw,-81.0065841674804,-58.446361541748,62.3225936889648,61.6266746520996,253341117
fw,-79.8066711425781,-59.9003562927246,63.3263130187988,82.9131164550781,253357784
fw,-78.5916519165039,-61.7446632385253,61.2118339538574,106.98656463623,253374451
fw,-77.2548217773437,-62.823917388916,67.265869140625,59.5278396606445,253391118
fw,-76.0895462036132,-63.8379135131835,53.5343017578125,54.4071083068847,253407785
fw,-75.3149948120117,-64.8489608764648,28.0463371276855,54.7884254455566,253424452
fw,-74.7950820922851,-66.0934143066406,16.0749683380126,71.2312545776367,253441119
fw,-74.3163986206054,-67.084228515625,19.762861251831,59.8577995300293,253457786
fw,-73.9201354980468,-68.1577529907226,20.6346073150634,66.5950622558593,253474453
fw,-73.8120422363281,-69.7965393066406,4.5677261352539,99.6445617675781,253491120
fw,-74.3081893920898,-71.1607971191406,-32.8754577636718,86.6649551391601,253507787
fw,-75.4853897094726,-71.7725524902343,-74.396987915039,43.6707496643066,253524454
fw,-76.9515533447265,-71.7886047363281,-87.4338073730468,4.35016584396362,253541121
fw,-78.5542678833007,-72.3462982177734,-87.6632537841796,26.6826114654541,253557788
fw,-80.4558334350586,-73.4061279296875,-95.5184555053711,49.7910957336425,253574455
fw,-82.594985961914,-74.8493499755859,-92.6769485473632,71.5148620605468,253591122
fw,-85.1980895996093,-76.2720947265625,-110.548591613769,75.1415023803711,253607789
fw,-88.258186340332,-77.5109558105468,-167.467620849609,69.412353515625,253624456
fw,-87.0059814453125,-78.9206924438476,-186.453369140625,81.3034210205078,253641123
fw,-83.8754196166992,-80.5416107177734,-174.054824829101,95.9231796264648,253657790
fw,-81.1311340332031,-82.2197952270507,-155.321380615234,100.105834960937,253674457
fw,-78.3572082519531,-83.7035903930664,-164.317398071289,86.0989990234375,253691124
fw,-75.1764678955078,-85.01025390625,-194.191055297851,73.2357711791992,253707791
fw,-71.9456787109375,-86.3622894287109,-192.460617065429,79.9911956787109,253724458
fw,-69.386604309082,-87.7177581787109,-139.324401855468,90.2836990356445,253741125
fw,-67.3804779052734,-88.7323608398437,-94.0106353759765,86.2572479248046,253757792
fw,-65.7412490844726,-88.6517257690429,-68.9514007568359,79.4620361328125,253774459
fw,-64.3457336425781,-87.7715606689453,-59.0910491943359,63.4585990905761,253791126
fw,-63.1628494262695,-86.7672348022461,-52.2218322753906,56.0167770385742,253807793
fw,-62.2539176940918,-85.659683227539,-39.3913459777832,61.0917205810546,253824460
fw,-61.3899269104003,-84.5887603759765,-47.5214691162109,59.9550514221191,253841127
fw,-60.6419868469238,-83.5276489257812,-55.7491989135742,62.5081520080566,253857794
fw,-59.9776344299316,-82.4629516601562,-60.5772476196289,64.7970733642578,253874461
fw,-59.7256813049316,-81.3908615112304,-35.0624198913574,64.9653701782226,253891128
fw,-59.8106231689453,-80.3027572631836,-15.009967803955,65.2051162719726,253907795
fw,-60.2523384094238,-79.2218933105468,7.76183366775512,64.2026290893554,253924462
fw,-61.2695236206054,-78.2484512329101,43.6746673583984,57.2496109008789,253941129
fw,-62.7439422607421,-77.3925018310546,69.7647933959961,49.7185173034668,253957796
fw,-64.5185317993164,-76.6475219726562,89.0962905883789,42.9380493164062,253974463
fw,-66.3593673706054,-76.0302047729492,88.9334869384765,35.4837417602539,253991130
fw,-67.9532012939453,-75.4639892578125,78.3148956298828,32.5383987426757,254007797
fw,-69.3573303222656,-75.0415649414062,72.1122207641601,23.7578372955322,254024464
fw,-70.749526977539,-74.8864135742187,70.0709762573242,7.53857231140136,254041131
fw,-71.7886734008789,-75.11767578125,41.9372253417968,-15.8287162780761,254057798
fw,-72.6225357055664,-75.7236022949218,20.4423446655273,-38.5653114318847,254074465
fw,-74.0307540893554,-76.6886367797851,67.5445861816406,-60.1804962158203,254091132
fw,-75.5338439941406,-78.1765670776367,93.6576614379882,-91.3930435180664,254107799
fw,-76.1564788818359,-80.1734085083007,25.8640613555908,-121.540420532226,254124466
fw,-76.4685974121093,-82.8498229980468,-3.39896273612976,-161.777221679687,254141133
fw,-77.0252990722656,-86.6043701171875,-3.88666105270385,-224.529998779296,254157800
fw,-77.7216873168945,-89.0022048950195,-19.1266975402832,-259.080017089843,254174467
fw,-78.7239227294921,-84.5823211669921,8.69993019104003,-261.33657836914,254191134
fw,-79.803955078125,-81.0073928833007,29.8026523590087,-217.116622924804,254207801
fw,-80.6744613647461,-78.5343780517578,18.4499797821044,-154.416946411132,254224468
fw,-81.5255584716796,-75.7567672729492,21.9300823211669,-170.720077514648,254241135
fw,-82.8023300170898,-72.0154495239257,54.7230339050293,-229.00845336914,254257802
fw,-84.1670608520507,-68.6879501342773,66.336685180664,-202.999740600585,254274469
fw,-84.9705581665039,-66.2648773193359,38.2160987854003,-147.050567626953,254291136
fw,-85.4978485107421,-64.4732971191406,30.5823402404785,-107.995246887207,254307803
fw,-86.0829849243164,-62.9928817749023,45.353157043457,-88.4452667236328,254324470
fw,-86.6861953735351,-61.6779060363769,59.2251434326171,-78.1997833251953,254341137
fw,-87.0112838745117,-60.5196838378906,64.9448547363281,-69.8209762573242,254357804
fw,-86.7900848388671,-59.4455337524414,58.3806686401367,-66.1799545288086,254374471
fw,-86.1733627319336,-59.0397682189941,43.3567543029785,-26.3255767822265,254391138
fw,-85.3684921264648,-58.8677330017089,47.8501663208007,-13.4529285430908,254407805
fw,-84.4591751098632,-58.6098136901855,56.7699317932128,-19.3494148254394,254424472
fw,-83.4977264404296,-58.2178955078125,61.631248474121,-29.3412780761718,254441139
fw,-82.4296493530273,-58.1266403198242,66.0442504882812,-11.3600139617919,254457806
fw,-81.340705871582,-59.0104446411132,62.1284446716308,45.6156272888183,254474473
fw,-80.263671875,-60.4720306396484,56.286823272705,81.1734390258789,254491140
fw,-79.1553421020507,-62.1178131103515,55.3035621643066,91.599739074707,254507807
fw,-78.0637283325195,-63.2955703735351,51.9075164794921,62.2158508300781,254524474
fw,-77.1176147460937,-64.3422698974609,41.4943008422851,56.4152374267578,254541141
fw,-76.4134902954101,-65.2381515502929,27.8419570922851,50.0874938964843,254557808
fw,-75.8429183959961,-65.6744537353515,25.0387420654296,24.0403366088867,254574475
fw,-75.3087005615234,-65.6407699584961,29.4552516937255,-3.11713886260986,254591142
fw,-74.7893371582031,-65.9126510620117,32.8480415344238,15.596658706665,254607809
fw,-74.4351654052734,-67.0523071289062,19.714937210083,65.5935821533203,254624476
fw,-74.3932647705078,-69.2162475585937,-3.83406138420105,126.30492401123,254641143
fw,-74.7528686523437,-71.2091827392578,-29.1145286560058,119.158485412597,254657810
fw,-75.4991989135742,-72.2148208618164,-49.798900604248,64.656021118164,254674477
fw,-76.4870986938476,-72.4352111816406,-56.1841621398925,19.0890979766845,254691144
fw,-77.7867965698242,-72.655029296875,-58.9539985656738,10.8322887420654,254707811
fw,-79.5442657470703,-73.6451950073242,-67.977554321289,49.0569458007812,254724478
fw,-81.5771331787109,-74.9123458862304,-68.693618774414,59.5605125427246,254741145
fw,-84.2254867553711,-75.9044570922851,-103.184173583984,45.8397140502929,254757812
fw,-87.5038528442382,-77.1087112426757,-170.24185180664,67.2557601928711,254774479
fw,-86.9954071044921,-78.616096496582,-187.852905273437,88.2656478881836,254791146
fw,-83.882568359375,-80.2700729370117,-182.661254882812,97.5221328735351,254807813
fw,-80.9135360717773,-82.0613098144531,-178.989532470703,106.065513610839,254824480
fw,-77.9065475463867,-83.4006118774414,-185.934539794921,80.3632583618164,254841147
fw,-74.5299072265625,-84.3229446411132,-211.28237915039,59.0577163696289,254857814
fw,-71.0415496826171,-85.1875305175781,-211.962615966796,63.2053565979003,254874481
fw,-68.0453567504882,-86.1661605834961,-169.677200317382,78.9171752929687,254891148
fw,-65.7650909423828,-87.1597900390625,-115.690032958984,86.5497589111328,254907815
fw,-64.0046691894531,-87.8042984008789,-81.148696899414,82.4025421142578,254924482
fw,-62.634407043457,-87.5139923095703,-57.7520561218261,70.3843536376953,254941149
fw,-61.603702545166,-86.6213607788086,-39.5264129638671,62.6840553283691,254957816
fw,-60.8036155700683,-85.4948043823242,-29.8262310028076,69.0444717407226,254974483
fw,-60.1975517272949,-84.4527816772461,-30.4741802215576,64.8973770141601,254991150
fw,-59.6719894409179,-83.5519561767578,-42.7152481079101,58.7281036376953,255007817
fw,-59.3861236572265,-82.6347274780273,-37.103702545166,59.3339080810546,255024484
fw,-59.3297958374023,-81.650146484375,-26.9019622802734,60.7375183105468,255041151
fw,-59.485969543457,-80.5872955322265,-14.171175956726,63.9330787658691,255057818
fw,-60.3254470825195,-79.5560913085937,35.5800323486328,61.0996971130371,255074485
fw,-61.8619728088378,-78.6324920654296,80.1783142089843,53.6051902770996,255091152
fw,-63.4973945617675,-77.7459106445312,75.9178390502929,50.3575782775878,255107819
fw,-65.4408187866211,-76.94873046875,96.4189147949218,45.1260604858398,255124486
fw,-67.2345428466796,-76.2684707641601,86.6224594116211,38.8776321411132,255141153
fw,-68.6579666137695,-75.7608566284179,62.9019927978515,29.4342803955078,255157820
fw,-70.1551513671875,-75.4320755004882,75.5673522949218,19.4040355682373,255174487
fw,-71.1000442504882,-75.3077926635742,45.4776382446289,6.77986335754394,255191154
fw,-71.2904739379882,-75.4305191040039,-1.29391348361969,-9.56974601745605,255207821
fw,-71.9004974365234,-75.817138671875,13.4902114868164,-26.9361724853515,255224488
fw,-73.4191513061523,-76.5774917602539,62.9991645812988,-50.2664794921875,255241155
fw,-75.2528228759765,-77.8239212036132,100.884208679199,-79.2570037841796,255257822
fw,-76.2560958862304,-79.5864105224609,41.9986572265625,-109.279396057128,255274489
fw,-76.8630142211914,-82.063606262207,21.7733249664306,-152.088287353515,255291156
fw,-77.4831619262695,-85.5620880126953,20.0820960998535,-216.890670776367,255307823
fw,-78.2890167236328,-88.5535507202148,5.86045217514038,-260.232269287109,255324490
fw,-79.4449005126953,-85.1341323852539,12.8265857696533,-261.790496826171,255341157
fw,-80.7684783935546,-81.4973068237304,41.7895774841308,-215.8984375,255357824
fw,-81.8095779418945,-79.0608444213867,26.4106941223144,-148.690505981445,255374491
fw,-82.9710006713867,-76.4197463989257,39.6652450561523,-161.789398193359,255391158
fw,-84.4189300537109,-72.8419570922851,63.4898872375488,-218.46809387207,255407825
fw,-85.7771987915039,-69.433967590332,61.5988883972168,-207.322387695312,255424492
fw,-86.61962890625,-66.925796508789,33.1875228881835,-151.966827392578,255441159
fw,-87.2833633422851,-65.1968307495117,30.9429054260253,-103.871803283691,255457826
fw,-87.943000793457,-63.8020324707031,45.277229309082,-82.6068267822265,255474493
fw,-88.2768325805664,-62.4116058349609,51.9674758911132,-82.1174240112304,255491160
fw,-87.9493865966796,-61.0693855285644,45.1050109863281,-80.6070556640625,255507827
fw,-87.2243423461914,-59.865421295166,36.566535949707,-74.2649383544921,255524494
fw,-86.407730102539,-59.1534271240234,32.1298751831054,-45.6199417114257,255541161
fw,-85.5513305664062,-58.7170829772949,38.3782806396484,-30.1952972412109,255557828
fw,-84.6469421386718,-58.4484825134277,48.2706451416015,-22.023868560791,255574495
fw,-83.7216796875,-58.0417251586914,51.1630592346191,-31.8158168792724,255591162
fw,-82.711799621582,-57.9722480773925,56.4908180236816,-10.6712055206298,255607829
fw,-81.6891326904296,-58.940631866455,53.4991188049316,51.3063430786132,255624496
fw,-80.6510696411132,-60.1095924377441,49.9645195007324,61.7391052246093,255641163
fw,-79.4960556030273,-61.4750442504882,56.4188652038574,74.2573547363281,255657830
fw,-78.2844619750976,-62.6451721191406,59.02827835083,61.1000366210937,255674497
fw,-77.1642837524414,-63.7310829162597,53.6403160095214,57.3141059875488,255691164
fw,-76.2394332885742,-64.638916015625,42.453025817871,50.2087020874023,255707831
fw,-75.4970550537109,-65.684585571289,34.3406028747558,60.3811950683593,255724498
fw,-74.875747680664,-66.2898254394531,30.6370830535888,34.6969604492187,255741165
fw,-74.3504562377929,-66.7720794677734,28.2873458862304,27.6040439605712,255757832
fw,-73.9161682128906,-67.8393859863281,24.0024394989013,61.8060760498046,255774499
fw,-73.7774963378906,-69.8987808227539,3.33331227302551,120.490562438964,255791166
fw,-74.0644836425781,-71.7668914794921,-23.3628253936767,111.95166015625,255807833
fw,-74.96728515625,-72.594253540039,-60.5644569396972,54.2904815673828,255824500
fw,-76.1937408447265,-72.6929168701171,-75.0715103149414,9.28377056121826,255841167
fw,-77.6097946166992,-73.0499572753906,-72.9830932617187,16.7038097381591,255857834
fw,-79.3785324096679,-74.0384750366211,-76.1295089721679,50.3298530578613,255874501
fw,-81.4320297241211,-75.2316513061523,-75.1483840942382,58.8080444335937,255891168
fw,-84.0870285034179,-76.3546829223632,-102.473403930664,56.8362274169921,255907835
fw,-87.4021072387695,-77.8143844604492,-162.368240356445,83.9326629638671,255924502
fw,-87.6630935668945,-79.4045944213867,-186.061386108398,93.3832244873046,255941169
fw,-84.5622406005859,-81.0573272705078,-184.523880004882,97.5201263427734,255957836
fw,-81.4305801391601,-82.6077194213867,-177.996536254882,91.8535766601562,255974503
fw,-78.3289260864257,-83.8251800537109,-183.784881591796,74.2837753295898,255991170
fw,-74.8824386596679,-84.9355392456054,-209.342849731445,74.5350036621093,256007837
fw,-71.5659713745117,-86.0431900024414,-194.865005493164,84.4479904174804,256024504
fw,-68.7500305175781,-87.032844543457,-148.751693725585,88.3798141479492,256041171
fw,-66.6230087280273,-87.6581573486328,-96.6163558959961,84.5645599365234,256057838
fw,-65.0837173461914,-87.516357421875,-59.5896224975585,71.072525024414,256074505
fw,-63.8067474365234,-86.7301483154296,-46.5712814331054,70.0775375366211,256091172
fw,-62.7723846435546,-85.6218490600586,-35.3560180664062,68.1553955078125,256107839
fw,-61.8261489868164,-84.4765701293945,-39.7327766418457,67.4403762817382,256124506
fw,-61.0414352416992,-83.4114151000976,-44.0926437377929,64.6169128417968,256141173
fw,-60.3502731323242,-82.4284057617187,-56.3158950805664,61.4701614379882,256157840
fw,-59.84468460083,-81.4004287719726,-55.7801971435546,63.3338584899902,256174507
fw,-59.770767211914,-80.3102874755859,-27.6937732696533,64.8882522583007,256191174
fw,-60.0515098571777,-79.2340774536132,-4.12013721466064,63.2382164001464,256207841
fw,-61.0229721069335,-78.2275314331054,44.268871307373,58.6885986328125,256224508
fw,-62.6569747924804,-77.3072509765625,87.8921508789062,52.712230682373,256241175
fw,-64.3539428710937,-76.4514770507812,77.5799102783203,48.7405052185058,256257842
fw,-66.3905334472656,-75.7999954223632,97.1363449096679,36.8356475830078,256274509
fw,-68.3330078125,-75.2951354980468,92.2992172241211,29.210744857788,256291176
fw,-69.8508987426757,-74.9419555664062,68.0563812255859,20.721694946289,256307843
fw,-71.2529678344726,-74.8184051513671,65.1081085205078,6.43590116500854,256324510
fw,-71.4807205200195,-75.0487823486328,4.99871778488159,-16.9614200592041,256341177
fw,-71.3711853027343,-75.5598602294921,-11.0648412704467,-35.904052734375,256357844
fw,-72.2654190063476,-76.4443435668945,29.417236328125,-58.3462028503418,256374511
fw,-74.1997375488281,-77.763801574707,82.9597625732421,-83.1456298828125,256391178
fw,-75.8128204345703,-79.5443801879882,86.3179321289062,-109.422096252441,256407845
fw,-76.2163848876953,-81.8895416259765,8.70211029052734,-142.332626342773,256424512
fw,-76.4110107421875,-85.242805480957,7.14308881759643,-202.123245239257,256441179
fw,-76.8213882446289,-88.9770355224609,-4.168954372406,-249.404464721679,256457846
fw,-77.6108245849609,-85.5547637939453,-13.8421335220336,-267.175384521484,256474513
fw,-78.6030197143554,-81.5802764892578,5.4630799293518,-234.748214721679,256491180
fw,-79.5697250366211,-78.9240341186523,19.6232776641845,-164.178146362304,256507847
fw,-80.4994125366211,-76.5551147460937,18.5177478790283,-145.451446533203,256524514
fw,-81.7907257080078,-72.8749389648437,49.1824798583984,-225.807876586914,256541181
fw,-83.2017974853515,-69.4341049194336,64.8427429199218,-211.306915283203,256557848
fw,-84.3502502441406,-66.7322540283203,54.1975135803222,-164.99624633789,256574515
fw,-85.2758636474609,-64.9408721923828,45.4269905090332,-108.917129516601,256591182
fw,-86.2425079345703,-63.5076675415039,53.9919090270996,-86.2555236816406,256607849
fw,-87.2159652709961,-62.2711296081543,65.096076965332,-72.9093399047851,256624516
fw,-87.8187789916992,-61.1570587158203,62.7629432678222,-65.7281188964843,256641183
fw,-87.7284088134765,-60.1238822937011,48.7277908325195,-62.3576736450195,256657850
fw,-87.1783905029296,-59.3918685913085,39.2560806274414,-45.203197479248,256674517
fw,-86.4743041992187,-59.0765075683593,43.0589065551757,-21.4787101745605,256691184
fw,-85.7033538818359,-58.7811470031738,49.4351425170898,-22.1740131378173,256707851
fw,-84.8574600219726,-58.2684211730957,58.8465538024902,-37.0612449645996,256724518
fw,-83.9408721923828,-58.2259445190429,59.1112632751464,-8.18416118621826,256741185
fw,-82.9387283325195,-58.8611030578613,58.8995628356933,29.6919021606445,256757852
fw,-81.8521347045898,-59.8814849853515,58.4031257629394,53.3931655883789,256774519
fw,-80.7029037475586,-61.8816528320312,57.1605186462402,115.578987121582,256791186
fw,-79.4772262573242,-63.2433853149414,60.308609008789,75.5827407836914,256807853
fw,-78.3182525634765,-64.300422668457,54.7789154052734,56.8190650939941,256824520
fw,-77.3687210083007,-65.2102966308593,41.4794235229492,49.4976806640625,256841187
fw,-76.6506729125976,-66.3464126586914,30.8896369934082,64.8965225219726,256857854
fw,-76.0943450927734,-67.2621002197265,25.9362831115722,53.4020118713378,256874521
fw,-75.6980895996093,-67.8755493164062,19.2860527038574,36.9760971069335,256891188
fw,-75.503791809082,-68.9276123046875,8.9770860671997,63.3410835266113,256907855
fw,-75.6377868652343,-70.5811233520507,-11.8138875961303,101.516548156738,256924522
fw,-76.3392868041992,-71.883544921875,-49.5477027893066,84.4358825683593,256941189
fw,-77.5105285644531,-72.4329299926757,-74.7037582397461,38.0431480407714,256957856
fw,-78.9405059814453,-72.395637512207,-78.9230575561523,-3.18698239326477,256974523
fw,-80.6901702880859,-72.7252197265625,-85.0240173339843,10.4101600646972,256991190
fw,-82.7660064697265,-73.8017272949218,-87.8195190429687,48.5210647583007,257007857
fw,-85.2513732910156,-75.3065719604492,-94.6197128295898,74.145637512207,257024524
fw,-88.3232192993164,-76.6855773925781,-151.296310424804,73.6445541381836,257041191
fw,-86.780158996582,-78.1586990356445,-178.461029052734,84.8322601318359,257057858
fw,-83.4713897705078,-79.7868881225586,-174.440628051757,95.0243759155273,257074525
fw,-80.7393569946289,-81.6275253295898,-156.906341552734,108.154167175292,257091192
fw,-78.0390014648437,-83.5105209350586,-164.260147094726,110.677070617675,257107859
fw,-75.0353393554687,-84.8914031982421,-182.911483764648,81.3150787353515,257124526
fw,-71.5971527099609,-86.0922927856445,-210.441513061523,74.3989562988281,257141193
fw,-68.4791564941406,-87.1005859375,-186.90168762207,77.7452239990234,257157860
fw,-66.2276916503906,-87.6917495727539,-120.758758544921,80.1314086914062,257174527
fw,-64.5962829589843,-87.8295822143554,-76.902099609375,71.7805862426757,257191194
fw,-63.4092636108398,-87.5927124023437,-50.2158813476562,62.2196159362793,257207861
fw,-62.3941955566406,-86.9111709594726,-42.6876792907714,59.6323051452636,257224528
fw,-61.6086883544921,-85.8262252807617,-31.4973049163818,69.6263351440429,257241195
fw,-60.9356613159179,-84.6762008666992,-33.5851821899414,69.0118331909179,257257862
fw,-60.4771728515625,-83.6747894287109,-34.6199073791503,60.1155281066894,257274529
fw,-60.0333747863769,-82.8122863769531,-47.5971603393554,52.1624107360839,257291196
fw,-60.00825881958,-81.9374694824218,-21.8177871704101,52.7726974487304,257307863
fw,-60.3359985351562,-80.8981246948242,2.73380899429321,62.0359916687011,257324530
fw,-60.8315162658691,-79.8236465454101,10.3232851028442,62.9920349121093,257341197
fw,-62.1788330078125,-78.8636245727539,71.398323059082,55.3108367919921,257357864
fw,-63.7358894348144,-77.989631652832,75.402847290039,49.5533866882324,257374531
fw,-65.5262832641601,-77.1659774780273,85.5800476074218,47.3229293823242,257391198
fw,-67.4657211303711,-76.4218139648437,96.6128540039062,44.0348777770996,257407865
fw,-69.0233764648437,-75.9239883422851,68.7226867675781,29.9181308746337,257424532
fw,-70.660285949707,-75.6310577392578,84.0174942016601,17.4854717254638,257441199
fw,-71.6128921508789,-75.500129699707,42.9482460021972,7.15747642517089,257457866
fw,-71.7249221801757,-75.6564025878906,-2.19489049911499,-11.3892774581909,257474533
fw,-72.110969543457,-76.0457534790039,6.67815971374511,-26.5964832305908,257491200
fw,-73.2775344848632,-76.7026824951171,46.2803192138671,-43.0535469055175,257507867
fw,-74.875732421875,-77.8278045654296,86.6820983886718,-70.9640274047851,257524534
fw,-75.7003021240234,-79.5038986206054,35.9306106567382,-103.676002502441,257541201
fw,-76.0049057006836,-81.9192581176757,-3.21944713592529,-147.614593505859,257557868
fw,-76.5766677856445,-85.3380126953125,4.20566654205322,-206.769424438476,257574535
fw,-77.3888473510742,-89.0144424438476,-8.69539260864257,-253.15965270996,257591202
fw,-78.4969787597656,-85.7856979370117,10.048147201538,-256.807495117187,257607869
fw,-79.6944808959961,-81.8146057128906,37.2673072814941,-235.060150146484,257624536
fw,-80.6770706176757,-78.7892913818359,29.8482780456542,-185.182632446289,257641203
fw,-81.9399261474609,-75.6592941284179,53.8453102111816,-193.485687255859,257657870
fw,-83.438606262207,-72.087776184082,72.3656768798828,-220.108428955078,257674537
fw,-84.5373992919921,-68.8611907958984,45.8215370178222,-196.998107910156,257691204
fw,-85.1680374145507,-66.6480102539062,21.1260032653808,-134.073760986328,257707871
fw,-86.107307434082,-65.0477981567382,48.8138847351074,-94.8568496704101,257724538
fw,-87.2362899780273,-63.5228576660156,68.253433227539,-89.2800064086914,257741205
fw,-88.0243453979492,-62.1241989135742,63.1052856445312,-81.6276779174804,257757872
fw,-88.099365234375,-60.7775230407714,49.7584342956543,-79.6143722534179,257774539
fw,-87.5634536743164,-59.4930725097656,38.1763610839843,-77.7876281738281,257791206
fw,-86.7576751708984,-58.527603149414,34.347728729248,-60.5277709960937,257807873
fw,-85.8945922851562,-57.8106880187988,42.8065185546875,-46.8893165588378,257824540
fw,-84.9612960815429,-57.3993797302246,55.1994323730468,-29.8325958251953,257841207
fw,-83.9458923339843,-57.1475715637207,62.3771820068359,-21.2708301544189,257857874
fw,-82.8881759643554,-57.0185546875,60.0118522644043,-14.4500761032104,257874541
fw,-81.8159027099609,-58.0609245300293,55.7307395935058,56.8343811035156,257891208
fw,-80.7204284667968,-59.391918182373,55.8908462524414,73.3274536132812,257907875
fw,-79.6261978149414,-61.1722679138183,54.7831153869628,100.49552154541,257924542
fw,-78.5392532348632,-62.7318954467773,53.2108421325683,85.8833923339843,257941209
fw,-77.4992980957031,-64.008316040039,50.1011276245117,69.829963684082,257957876
fw,-76.6079864501953,-65.0759735107421,42.60888671875,60.1852989196777,257974543
fw,-75.832046508789,-65.891731262207,38.0429382324218,46.5045661926269,257991210
fw,-75.2029876708984,-65.9315490722656,32.0984115600585,0.830854535102844,258007877
fw,-74.6840362548828,-66.1295852661132,31.1216030120849,11.4771728515625,258024544
fw,-74.3332901000976,-67.1631164550781,21.6839656829834,59.0591354370117,258041211
fw,-74.2661361694336,-69.2886505126953,2.12918543815612,123.694725036621,258057878
fw,-74.6285400390625,-71.1864929199218,-26.6813278198242,114.232864379882,258074545
fw,-75.6268768310546,-72.1582107543945,-66.7435684204101,63.9539566040039,258091212
fw,-77.0394973754882,-72.1043930053711,-83.9574890136718,3.29249882698059,258107879
fw,-78.6661071777343,-72.2474670410156,-80.2666244506836,5.70702791213989,258124546
fw,-80.5921630859375,-73.2939529418945,-81.3304824829101,50.2760391235351,258141213
fw,-82.7439880371093,-74.7835693359375,-82.4550247192382,71.9055099487304,258157880
fw,-85.5933151245117,-75.9888687133789,-133.730163574218,57.5876884460449,258174547
fw,-87.5621719360351,-77.3194198608398,-176.391372680664,74.8655700683593,258191214
fw,-85.6032409667968,-78.9822082519531,-183.773681640625,97.4701995849609,258207881
fw,-82.9443435668945,-80.7863616943359,-173.469253540039,105.91258239746,258224548
fw,-80.4014892578125,-82.5779953002929,-167.032821655273,105.687385559082,258241215
fw,-77.5558242797851,-84.1475372314453,-183.205673217773,93.3876113891601,258257882
fw,-74.0689086914062,-85.1962127685546,-221.373062133789,64.9691314697265,258274549
fw,-70.7033615112304,-86.0932540893554,-208.377624511718,63.592601776123,258291216
fw,-68.0551300048828,-87.0888595581054,-149.718276977539,82.3603286743164,258307883
fw,-66.1137161254882,-87.8464202880859,-94.7014846801757,85.8242874145507,258324550
fw,-64.6490249633789,-87.9508209228515,-65.3558273315429,72.6742858886718,258341217
fw,-63.4932670593261,-87.392105102539,-49.843635559082,55.6718368530273,258357884
fw,-62.6601982116699,-86.4572372436523,-30.307933807373,59.28999710083,258374551
fw,-61.9346733093261,-85.3720474243164,-26.5024623870849,64.4160766601562,258391218
fw,-61.2986946105957,-84.315071105957,-36.342113494873,64.8221588134765,258407885
fw,-60.6995506286621,-83.2981491088867,-53.3626327514648,64.5105895996093,258424552
fw,-60.2668113708496,-82.3402023315429,-53.7122154235839,59.2560310363769,258441219
fw,-60.1583824157714,-81.3520584106445,-31.3475914001464,58.7324485778808,258457886
fw,-60.3850555419921,-80.3436203002929,-5.19443273544311,58.125560760498,258474553
fw,-61.0416412353515,-79.3868179321289,22.1903018951416,54.0892219543457,258491220
fw,-62.6399192810058,-78.5388946533203,82.2736511230468,47.0958366394043,258507887
fw,-64.4568099975586,-77.6958236694336,91.4254989624023,46.8546714782714,258524554
fw,-66.4878005981445,-76.9512710571289,107.847953796386,41.312156677246,258541221
fw,-68.3706588745117,-76.3368759155273,96.7201766967773,34.4958381652832,258557888
fw,-69.8164291381836,-75.9974212646484,64.9274215698242,19.3425502777099,258574555
fw,-71.0876388549804,-75.9227676391601,61.9899291992187,3.50150847434997,258591222
fw,-71.1752853393554,-76.0945739746093,0.846583545207977,-13.4352350234985,258607889
fw,-70.8774719238281,-76.4818878173828,-13.299446105957,-28.8958091735839,258624556
fw,-71.5037231445312,-77.1629028320312,23.6457462310791,-47.358715057373,258641223
fw,-73.3145446777343,-78.1691741943359,71.4932098388671,-65.4236907958984,258657890
fw,-75.3563385009765,-79.6848754882812,102.477966308593,-94.4803695678711,258674557
fw,-76.2720031738281,-81.8830795288086,34.4196052551269,-136.50242614746,258691224
fw,-76.6112823486328,-84.9327239990234,6.95444059371948,-190.654251098632,258707891
fw,-77.1051712036132,-88.2191925048828,18.4716739654541,-243.539001464843,258724558
fw,-77.8619003295898,-86.0710525512695,-3.80895614624023,-251.592422485351,258741225
fw,-78.8789291381836,-82.0057144165039,-12.070044517517,-242.336776733398,258757892
fw,-80.0720138549804,-79.183609008789,26.6288814544677,-171.550384521484,258774559
fw,-81.1833724975586,-77.012092590332,33.7346000671386,-132.788284301757,258791226
fw,-82.1755447387695,-73.6286849975586,19.9035949707031,-204.899459838867,258807893
fw,-83.4960632324218,-69.5863952636718,49.8636054992675,-244.764892578125,258824560
fw,-84.8643188476562,-66.435302734375,66.7994995117187,-191.092498779296,258841227
fw,-85.9336471557617,-64.21728515625,55.2920570373535,-134.873382568359,258857894
fw,-86.6267013549804,-62.5889320373535,33.7106399536132,-99.0224533081054,258874561
fw,-87.3314895629882,-61.0924034118652,40.5720100402832,-90.0467987060546,258891228
fw,-87.8788299560546,-59.9733848571777,43.9108085632324,-66.5469284057617,258907895
fw,-88.1060714721679,-59.0634613037109,49.963623046875,-54.8460845947265,258924562
fw,-87.7439804077148,-58.3447608947753,45.3357925415039,-44.4222679138183,258941229
fw,-87.0498504638671,-58.1666145324707,40.0820693969726,-13.3525190353393,258957896
fw,-86.269546508789,-57.9123764038085,42.1746749877929,-20.102912902832,258974563
fw,-85.4664688110351,-57.5618553161621,46.3692207336425,-26.2966785430908,258991230
fw,-84.593505859375,-57.0549430847168,51.8008995056152,-35.9412651062011,259007897
fw,-83.6380081176757,-57.0881729125976,52.4711875915527,-4.10877132415771,259024564
fw,-82.6320419311523,-58.0998916625976,50.9583435058593,51.5333938598632,259041231
fw,-81.5001678466796,-59.9092979431152,58.7813110351562,103.180549621582,259057898
fw,-80.2706146240234,-61.8973541259765,64.0115661621093,113.35984802246,259074565
fw,-79.0882110595703,-63.0143280029296,57.8647346496582,60.7071266174316,259091232
fw,-78.0968933105468,-64.1231918334961,42.9244232177734,62.248779296875,259107899
fw,-77.3458862304687,-65.16162109375,27.859224319458,59.5130996704101,259124566
fw,-76.7639846801757,-66.003303527832,22.7839565277099,48.6275329589843,259141233
fw,-76.2894287109375,-66.5967559814453,22.7544593811035,35.0056419372558,259157900
fw,-75.8093872070312,-67.2357864379882,29.4750118255615,39.2501144409179,259174567
fw,-75.4120941162109,-68.6432647705078,24.5408115386962,83.4994964599609,259191234
fw,-75.2944641113281,-70.4958114624023,2.76751971244812,111.982322692871,259207901
fw,-75.6303024291992,-71.6347274780273,-28.0988597869873,73.3823547363281,259224568
fw,-76.4054565429687,-72.1339263916015,-56.5805130004882,35.1190757751464,259241235
fw,-77.5515975952148,-72.4542083740234,-74.2166595458984,19.6319961547851,259257902
fw,-79.1046600341796,-73.2627868652343,-83.9098892211914,41.2836303710937,259274569
fw,-81.0571899414062,-74.5306243896484,-85.1154479980468,62.379051208496,259291236
fw,-83.3579559326171,-75.8731536865234,-84.3683929443359,65.732925415039,259307903
fw,-86.3842620849609,-77.0477828979492,-122.808647155761,63.0973892211914,259324570
fw,-88.995361328125,-78.2996597290039,-164.361267089843,71.700942993164,259341237
fw,-85.8952102661132,-79.9507522583007,-181.479293823242,96.4965362548828,259357904
fw,-82.8408966064453,-81.6349105834961,-160.879791259765,99.3041458129882,259374571
fw,-80.0802993774414,-83.2059783935546,-156.906921386718,92.3826370239257,259391238
fw,-77.0865631103515,-84.4826049804687,-177.24559020996,74.1326217651367,259407905
fw,-73.7659301757812,-85.6258850097656,-199.839889526367,67.0493011474609,259424572
fw,-70.5088653564453,-86.8496780395507,-191.586883544921,79.2176895141601,259441239
fw,-67.8451690673828,-87.8990478515625,-144.022506713867,83.7600021362304,259457906
fw,-65.8516845703125,-88.518928527832,-96.1639709472656,79.7510681152343,259474573
fw,-64.23876953125,-88.3297729492187,-73.3984222412109,63.3316993713378,259491240
fw,-62.9632110595703,-87.4944610595703,-54.5743904113769,63.3258476257324,259507907
fw,-61.8999824523925,-86.3823165893554,-44.3099708557128,64.4656143188476,259524574
fw,-61.1151733398437,-85.3311691284179,-30.4579887390136,57.4496383666992,259541241
fw,-60.4580879211425,-84.38037109375,-33.6762008666992,53.74800491333,259557908
fw,-59.961669921875,-83.4002609252929,-36.7136688232421,59.6675148010253,259574575
fw,-59.6143341064453,-82.3512725830078,-38.0497703552246,63.2770538330078,259591242
fw,-59.6440963745117,-81.2639389038086,-15.3855285644531,63.5240669250488,259607909
fw,-60.0893898010253,-80.1417465209961,12.9895401000976,65.1149368286132,259624576
fw,-61.0192718505859,-79.1111755371093,42.441104888916,59.8651809692382,259641243
fw,-62.8071212768554,-78.1802520751953,95.6008377075195,54.1160469055175,259657910
fw,-64.6701889038086,-77.3308029174804,90.1544189453125,48.7927474975585,259674577
fw,-66.9744338989257,-76.5702819824218,116.792098999023,43.1481742858886,259691244
fw,-68.9491729736328,-75.9282531738281,98.5006942749023,36.1679229736328,259707911
fw,-70.4810180664062,-75.5515899658203,71.0685958862304,21.0771942138671,259724578
fw,-71.6674194335937,-75.4326934814453,59.1577568054199,5.77945470809936,259741245
fw,-71.3854751586914,-75.6445083618164,-20.3330993652343,-15.4343643188476,259757912
fw,-71.218017578125,-76.0964660644531,-9.70264339447021,-31.7026653289794,259774579
fw,-72.1124954223632,-76.7739868164062,39.6068077087402,-46.4853477478027,259791246
fw,-73.9244766235351,-77.7206878662109,89.0628356933593,-62.9462127685546,259807913
fw,-75.1089553833007,-79.2383880615234,55.2921829223632,-96.660888671875,259824580
fw,-75.5803833007812,-81.4827423095703,8.03988456726074,-140.087432861328,259841247
fw,-76.1157150268554,-84.5604400634765,13.9630842208862,-193.558715820312,259857914
fw,-76.8602523803711,-87.8613739013671,1.30533182621002,-251.647964477539,259874581
fw,-77.9119110107421,-86.0657272338867,5.77856826782226,-255.912963867187,259891248
fw,-79.2393951416015,-82.0524368286132,35.7413711547851,-243.696624755859,259907915
fw,-80.3757553100586,-79.2616806030273,33.8497581481933,-167.953826904296,259924582
fw,-81.5503158569336,-76.8723831176757,38.3209114074707,-145.96435546875,259941249
fw,-83.1291961669921,-73.7533264160156,69.5528182983398,-190.255294799804,259957916
fw,-84.7136154174804,-70.5133972167968,72.3205032348632,-196.842468261718,259974583
fw,-85.9070510864257,-67.8478012084961,52.1124572753906,-161.692321777343,259991250
fw,-86.6806411743164,-65.72509765625,32.250919342041,-128.435028076171,260007917
fw,-87.4190444946289,-63.9663696289062,38.0590171813964,-106.013374328613,260024584
fw,-88.1352310180664,-62.463207244873,48.50927734375,-90.3341827392578,260041251
fw,-88.5268783569336,-61.1244277954101,53.0518455505371,-80.5741806030273,260057918
fw,-88.1830673217773,-59.9384002685546,48.5691375732421,-72.2211380004882,260074585
fw,-87.3759460449218,-58.9781646728515,39.909797668457,-59.8480567932128,260091252
fw,-86.4340515136718,-58.4280014038085,42.3183975219726,-35.4927635192871,260107919
fw,-85.4105529785156,-58.0858154296875,53.3556861877441,-23.6373634338378,260124586
fw,-84.4017868041992,-57.9059829711914,56.2021293640136,-14.3960838317871,260141253
fw,-83.3919143676757,-57.7105178833007,56.5616874694824,-15.9979934692382,260157920
fw,-82.3360443115234,-58.1739845275878,57.9025115966796,24.4289035797119,260174587
fw,-81.2554931640625,-59.4519424438476,55.8377418518066,70.7712707519531,260191254
fw,-80.1278533935546,-61.112018585205,55.9030494689941,94.1110305786132,260207921
fw,-78.9561233520507,-63.2691230773925,57.1577224731445,123.259056091308,260224588
fw,-77.8006744384765,-64.5121994018554,55.6100845336914,67.5290603637695,260241255
fw,-76.8241348266601,-65.3787460327148,43.6648406982421,47.3775367736816,260257922
fw,-76.1080474853515,-66.4100570678711,28.1551265716552,59.4968070983886,260274589
fw,-75.5727844238281,-67.2109909057617,22.3717575073242,46.9031791687011,260291256
fw,-75.1847457885742,-67.9141235351562,19.3958835601806,42.6084861755371,260307923
fw,-74.8787994384765,-69.2102127075195,20.4569206237792,78.1373138427734,260324590
fw,-74.8865966796875,-70.7298202514648,0.236439302563667,91.1942138671875,260341257
fw,-75.4878005981445,-71.5879211425781,-38.4727592468261,55.0559883117675,260357924
fw,-76.6453781127929,-72.004150390625,-71.5696716308593,28.408670425415,260374591
fw,-78.0336456298828,-72.2747955322265,-79.0829162597656,9.65043926239013,260391258
fw,-79.7567367553711,-73.0652847290039,-86.8894500732421,32.4465827941894,260407925
fw,-81.7951736450195,-74.079605102539,-85.5891799926757,48.8635025024414,260424592
fw,-84.0286331176757,-75.2543716430664,-81.8619384765625,63.1555480957031,260441259
fw,-86.7742080688476,-76.5277099609375,-134.115753173828,73.4172973632812,260457926
fw,-87.5436172485351,-77.9031600952148,-168.699111938476,80.9772872924804,260474593
fw,-84.8180923461914,-79.5248413085937,-187.10546875,95.9497680664062,260491260
fw,-82.0691680908203,-81.2197341918945,-160.596115112304,99.8474807739257,260507927
fw,-79.3985290527343,-82.7477493286132,-163.306228637695,90.1148986816406,260524594
fw,-76.3290481567382,-84.1046524047851,-193.007751464843,82.9594268798828,260541261
fw,-73.1057815551757,-85.3407897949218,-197.655807495117,80.972541809082,260557928
fw,-70.3826065063476,-86.6292572021484,-152.193923950195,90.5592498779296,260574595
fw,-68.1513519287109,-87.8644866943359,-106.889686584472,97.9881896972656,260591262
fw,-66.3196411132812,-88.334114074707,-74.8703460693359,89.5613479614257,260607929
fw,-64.7582550048828,-87.6839599609375,-59.4928550720214,74.1423645019531,260624596
fw,-63.4559288024902,-86.6792907714843,-53.4652709960937,62.4163055419921,260641263
fw,-62.3482208251953,-85.4633102416992,-50.6021041870117,67.6380920410156,260657930
fw,-61.3519973754882,-84.1497116088867,-52.2153434753418,73.5762329101562,260674597
fw,-60.5034828186035,-82.9063262939453,-56.2892379760742,73.5708770751953,260691264
fw,-59.8764991760253,-81.7217254638671,-52.1984748840332,73.0963592529296,260707931
fw,-59.4601097106933,-80.5209121704101,-48.7298202514648,74.6016159057617,260724598
fw,-59.4739189147949,-79.3212280273437,-24.3497772216796,72.9811477661132,260741265
fw,-59.9580383300781,-78.2373809814453,6.07645750045776,64.5663833618164,260757932
fw,-61.1175231933593,-77.2615203857421,45.7224311828613,57.7191696166992,260774599
fw,-63.5497550964355,-76.4417953491211,134.072341918945,47.6283149719238,260791266
fw,-65.3597106933593,-75.7575759887695,77.8592910766601,38.8318901062011,260807933
fw,-67.4405517578125,-75.1098861694336,92.9210128784179,36.6138343811035,260824600
fw,-69.1105804443359,-74.5792160034179,66.4603652954101,30.0541954040527,260841267
fw,-70.7217025756836,-74.1853256225586,67.4736022949218,22.2962837219238,260857934
fw,-71.6817398071289,-74.1306533813476,38.9279823303222,1.47795093059539,260874601
fw,-71.3901214599609,-74.4523239135742,-23.1270313262939,-22.6367893218994,260891268
fw,-71.5187911987304,-75.0826416015625,-2.30952429771423,-42.1239700317382,260907935
fw,-72.9567794799804,-76.1307983398437,53.798656463623,-66.669189453125,260924602
fw,-74.880744934082,-77.6502227783203,104.79694366455,-93.0857696533203,260941269
fw,-75.6006774902343,-79.7636566162109,33.1814346313476,-127.087867736816,260957936
fw,-75.7394256591796,-82.5770950317382,-4.54306602478027,-166.648010253906,260974603
fw,-76.0939407348632,-86.5375671386718,-9.19973468780517,-230.768981933593,260991270
fw,-76.5449523925781,-88.9055023193359,-40.0797233581543,-248.138427734375,261007937
fw,-77.2484741210937,-84.594123840332,-17.4657115936279,-257.4111328125,261024604
fw,-78.2373580932617,-81.2597351074218,27.9839668273925,-209.605773925781,261041271
fw,-78.7609176635742,-78.8406143188476,-0.686096012592315,-154.214218139648,261057938
fw,-79.5957641601562,-75.7022628784179,23.8745155334472,-193.675094604492,261074605
fw,-80.9266281127929,-71.4655609130859,59.0293083190918,-259.56201171875,261091272
fw,-82.3227920532226,-68.0402069091796,69.9531021118164,-209.647735595703,261107939
fw,-83.3387374877929,-65.1925659179687,50.4369392395019,-173.62303161621,261124606
fw,-84.2449645996093,-63.2033004760742,47.8839035034179,-120.840515136718,261141273
fw,-85.2732925415039,-61.7702102661132,61.4321899414062,-85.6714096069336,261157940
fw,-86.4091033935546,-60.732982635498,76.5171279907226,-60.1482315063476,261174607
fw,-87.1615142822265,-59.81538772583,68.880989074707,-52.5799522399902,261191274
fw,-87.1577911376953,-58.8015632629394,46.592975616455,-60.5704116821289,261207941
fw,-86.7196807861328,-58.0386390686035,41.4352684020996,-46.9494400024414,261224608
fw,-86.117431640625,-57.4671821594238,48.7860984802246,-38.2983894348144,261241275
fw,-85.4338684082031,-56.9064826965332,55.7131996154785,-40.5798873901367,261257942
fw,-84.6509017944336,-56.2976760864257,56.7658195495605,-46.167739868164,261274609
fw,-83.7917404174804,-55.5968208312988,53.5883140563964,-53.0426445007324,261291276
fw,-82.8805389404296,-55.7676963806152,51.3233299255371,1.01179385185241,261307943
fw,-81.9129180908203,-57.0454177856445,51.1496467590332,67.961555480957,261324610
fw,-80.8641052246093,-59.3778076171875,54.9427604675293,136.248840332031,261341277
fw,-79.7315292358398,-61.640266418457,58.8417930603027,131.610382080078,261357944
fw,-78.6207733154296,-62.960636138916,54.3132705688476,71.251594543457,261374611
fw,-77.6017303466796,-64.3397903442382,47.3844261169433,76.3044357299804,261391278
fw,-76.7833023071289,-65.5577850341796,34.529067993164,68.5404052734375,261407945
fw,-76.1737747192382,-66.4625854492187,25.1600685119628,51.3011779785156,261424612
fw,-75.6283874511718,-67.0625686645507,27.3862609863281,35.2383995056152,261441279
fw,-75.1243515014648,-67.8090362548828,29.3833198547363,44.758186340332,261457946
fw,-74.7485809326171,-69.3871078491211,21.8707942962646,91.7282104492187,261474613
fw,-74.736083984375,-71.2616882324218,-3.9501097202301,111.632675170898,261491280
fw,-75.2294158935546,-72.2815322875976,-37.8348236083984,65.2628555297851,261507947
fw,-76.1481475830078,-72.6661758422851,-62.9236373901367,29.984899520874,261524614
fw,-77.4132843017578,-72.954231262207,-78.2198257446289,21.7869396209716,261541281
fw,-79.0459671020507,-73.7598190307617,-86.292724609375,42.8288497924804,261557948
fw,-81.0164642333984,-75.0390243530273,-86.0553436279296,64.6085968017578,261574615
fw,-83.3067245483398,-76.5329284667968,-84.9413070678711,75.9858932495117,261591282
fw,-86.3433380126953,-77.9228591918945,-125.028991699218,76.0106048583984,261607949
fw,-88.9099807739257,-79.3933715820312,-167.028091430664,86.1600265502929,261624616
fw,-85.971923828125,-81.0169448852539,-181.608291625976,95.7409744262695,261641283
fw,-83.0492706298828,-82.9039230346679,-159.044448852539,111.883056640625,261657950
fw,-80.3383483886718,-84.8529205322265,-156.86701965332,115.315368652343,261674617
fw,-77.3417510986328,-86.3330764770507,-178.785751342773,85.4310531616211,261691284
fw,-73.9948501586914,-87.4551620483398,-201.670547485351,63.73046875,261707951
fw,-70.6774291992187,-88.4234390258789,-196.558273315429,58.6102142333984,261724618
fw,-67.9422836303711,-89.2231750488281,-149.283874511718,68.8347396850586,261741285
fw,-65.8323974609375,-88.8183288574218,-107.087547302246,67.3013458251953,261757952
fw,-64.1809844970703,-87.8654022216796,-79.0377349853515,62.1480407714843,261774619
fw,-62.8399391174316,-86.9041442871093,-62.3442802429199,54.4231948852539,261791286
fw,-61.7924766540527,-85.8089065551757,-43.4655227661132,58.9570999145507,261807953
fw,-60.912727355957,-84.5741882324218,-36.1050910949707,68.6942672729492,261824620
fw,-60.2053260803222,-83.3968734741211,-35.8182525634765,68.3782272338867,261841287
fw,-59.6670188903808,-82.3504028320312,-38.0462837219238,63.2991256713867,261857954
fw,-59.3341407775878,-81.3905715942382,-36.7856063842773,58.6224632263183,261874621
fw,-59.3175315856933,-80.401985168457,-22.4032325744628,58.4734268188476,261891288
fw,-59.7973098754882,-79.2642288208007,10.6145610809326,65.7468490600586,261907955
fw,-60.8796348571777,-78.075569152832,47.3499031066894,68.3478698730468,261924622
fw,-62.880573272705,-77.1587982177734,104.51838684082,52.0181121826171,261941289
fw,-64.7576141357421,-76.422134399414,87.3150558471679,41.5390357971191,261957956
fw,-66.9322738647461,-75.7861785888671,107.459320068359,35.6675338745117,261974623
fw,-68.8181762695312,-75.2077178955078,93.3880538940429,32.5799713134765,261991290
fw,-70.3014068603515,-74.8090286254882,69.786506652832,22.3152179718017,262007957
fw,-71.4121322631836,-74.6643524169921,56.0864562988281,7.06061267852783,262024624
fw,-71.4011535644531,-74.8713455200195,-2.67904305458068,-15.1237106323242,262041291
fw,-71.5447998046875,-75.3643341064453,-0.472714781761169,-33.4516410827636,262057958
fw,-72.4841232299804,-76.1531982421875,45.965461730957,-51.6433143615722,262074625
fw,-73.9745864868164,-77.2681198120117,87.4803771972656,-71.4175872802734,262091292
fw,-74.8906173706054,-78.8513793945312,40.6689567565918,-99.9251480102539,262107959
fw,-75.4439697265625,-81.2083511352539,11.2894678115844,-147.150680541992,262124626
fw,-76.0730361938476,-84.7138366699218,12.42467212677,-219.797622680664,262141293
fw,-76.9232864379882,-88.1475524902343,0.642741978168487,-271.081512451171,262157960
fw,-78.0805282592773,-85.4105529785156,9.66764640808105,-277.28921508789,262174627
fw,-79.43115234375,-81.5835723876953,43.8462905883789,-232.213516235351,262191294
fw,-80.5105895996093,-79.0255126953125,34.666748046875,-155.06069946289,262207961
fw,-81.5088806152343,-76.2295303344726,29.8698005676269,-170.41160583496,262224628
fw,-83.1007308959961,-72.7627563476562,73.97119140625,-211.215988159179,262241295
fw,-84.6338958740234,-69.4363479614257,73.1705932617187,-201.718170166015,262257962
fw,-85.5894012451171,-67.1495819091796,40.11958694458,-137.863616943359,262274629
fw,-86.2836456298828,-65.4882583618164,30.8185176849365,-98.8365325927734,262291296
fw,-87.0887222290039,-63.9202499389648,47.9685859680175,-92.6880111694336,262307963
fw,-87.799575805664,-62.4379692077636,58.4530181884765,-88.0521392822265,262324630
fw,-88.0078659057617,-60.7624435424804,56.4542732238769,-101.228851318359,262341297
fw,-87.5490417480468,-59.1810913085937,41.6959342956543,-97.3722610473632,262357964
fw,-86.7908782958984,-58.0555152893066,38.6701965332031,-70.8438186645507,262374631
fw,-85.9124679565429,-57.4547462463378,41.6811752319335,-39.5175094604492,262391298
fw,-84.9758605957031,-57.124412536621,51.4061584472656,-23.2795810699462,262407965
fw,-83.9909057617187,-56.938190460205,60.2222366333007,-14.6818866729736,262424632
fw,-82.9869766235351,-57.1298141479492,59.9305191040039,9.19622230529785,262441299
fw,-81.9472351074218,-58.2819786071777,58.0514297485351,65.9375457763671,262457966
fw,-80.852798461914,-59.7892036437988,57.2264251708984,85.2896881103515,262474633
fw,-79.6843185424804,-61.6271705627441,59.6353607177734,104.964553833007,262491300
fw,-78.5057373046875,-62.8401718139648,58.3073844909668,65.2588348388671,262507967
fw,-77.508674621582,-63.8831443786621,44.907543182373,56.2024154663085,262524634
fw,-76.7026443481445,-64.7120742797851,34.4700508117675,46.8891677856445,262541301
fw,-76.0441818237304,-65.7062683105468,29.6775817871093,57.9945640563964,262557968
fw,-75.4762344360351,-66.0050201416015,30.4999637603759,16.7453517913818,262574635
fw,-74.9750289916992,-66.5685806274414,30.5645771026611,33.4560928344726,262591302
fw,-74.6613388061523,-67.7669677734375,17.4718608856201,70.175796508789,262607969
fw,-74.696044921875,-69.819351196289,-6.70821714401245,121.2314453125,262624636
fw,-75.2035446166992,-71.4009094238281,-36.8997497558593,96.9217758178711,262641303
fw,-76.1501388549804,-72.0330657958984,-62.5273704528808,43.5783462524414,262657970
fw,-77.3055953979492,-72.1902236938476,-66.2855529785156,13.1155595779418,262674637
fw,-78.7906799316406,-72.7915802001953,-70.8315353393554,29.5839881896972,262691304
fw,-80.6451873779296,-73.8415222167968,-75.2360000610351,48.4938125610351,262707971
fw,-82.7549743652343,-75.0384216308593,-73.3325881958007,58.0883750915527,262724638
fw,-85.4850387573242,-76.0778198242187,-112.843544006347,55.5766410827636,262741305
fw,-87.7504959106445,-77.3389663696289,-162.167663574218,73.2796554565429,262757972
fw,-85.882583618164,-78.9418563842773,-186.245620727539,94.1856002807617,262774639
fw,-83.0225601196289,-80.6781692504882,-177.961944580078,102.182640075683,262791306
fw,-80.3109588623046,-82.4387969970703,-170.792037963867,103.707778930664,262807973
fw,-77.3793640136718,-83.8440322875976,-182.498703002929,82.7914199829101,262824640
fw,-73.8809585571289,-85.0206756591796,-217.729598999023,72.7445907592773,262841307
fw,-70.4349594116211,-86.0824356079101,-210.012268066406,74.821044921875,262857974
fw,-67.6315536499023,-87.1422729492187,-154.651870727539,82.3685607910156,262874641
fw,-65.5123291015625,-88.083984375,-101.457328796386,81.6253128051757,262891308
fw,-63.823932647705,-88.2906265258789,-75.1886520385742,65.1872100830078,262907975
fw,-62.4253196716308,-87.6476516723632,-61.184772491455,62.4527931213378,262924642
fw,-61.3419380187988,-86.5223922729492,-41.9862976074218,68.705825805664,262941309
fw,-60.4817886352539,-85.2477493286132,-30.1495342254638,74.159194946289,262957976
fw,-59.8019485473632,-84.0838088989257,-31.6238784790039,69.5706787109375,262974643
fw,-59.2888412475585,-83.0037536621093,-36.5498809814453,66.6007614135742,262991310
fw,-58.9747924804687,-81.9668884277343,-36.938362121582,63.977481842041,263007977
fw,-58.9209632873535,-80.8905792236328,-26.982006072998,65.0053100585937,263024644
fw,-59.1629753112793,-79.7947540283203,-10.7106924057006,64.0318527221679,263041311
fw,-59.966136932373,-78.6704025268554,24.954698562622,64.6694030761718,263057978
fw,-62.0702476501464,-77.6267852783203,110.824401855468,59.8024940490722,263074645
fw,-64.1735076904296,-76.6851272583007,101.863716125488,53.8279876708984,263091312
fw,-66.1478500366211,-75.9111328125,89.5147018432617,44.5420761108398,263107979
fw,-67.7382278442382,-75.2809219360351,68.2722396850586,36.6341171264648,263124646
fw,-68.780029296875,-74.8215103149414,39.1059646606445,26.9456634521484,263141313
fw,-69.728889465332,-74.5813293457031,42.0624961853027,13.6058769226074,263157980
fw,-69.7601547241211,-74.7533721923828,-10.25009059906,-12.9827299118042,263174647
fw,-69.8716201782226,-75.0956115722656,1.43381452560424,-25.5101432800292,263191314
fw,-70.7653656005859,-75.512451171875,29.612060546875,-30.5296306610107,263207981
fw,-72.7462844848632,-76.1608810424804,72.6498107910156,-42.3714637756347,263224648
fw,-74.8872375488281,-77.3764877319336,115.267013549804,-73.7697830200195,263241315
fw,-75.8025207519531,-79.2429122924804,47.7613716125488,-111.461868286132,263257982
fw,-76.1700210571289,-81.8717727661132,23.4905624389648,-156.079330444335,263274649
fw,-76.7185974121093,-85.6376266479492,17.6179904937744,-222.75389099121,263291316
fw,-77.5398864746093,-89.7609710693359,-10.0691928863525,-261.408508300781,263307983
fw,-78.7453536987304,-85.0504684448242,5.23634815216064,-282.14712524414,263324650
fw,-80.4179077148437,-81.3096389770507,59.9238662719726,-226.690505981445,263341317
fw,-81.5583419799804,-78.9429779052734,36.6843032836914,-147.314147949218,263357984
fw,-82.6242904663086,-76.0838775634765,33.3431930541992,-175.549438476562,263374651
fw,-83.9777069091796,-72.0631027221679,54.4752044677734,-246.34309387207,263391318
fw,-85.1943817138671,-68.6750946044921,56.0715446472168,-206.861572265625,263407985
fw,-85.9071578979492,-66.1663589477539,31.8740310668945,-152.640655517578,263424652
fw,-86.3468246459961,-64.2820358276367,19.4905014038085,-113.766227722167,263441319
fw,-86.8224487304687,-62.7624855041503,28.3416080474853,-90.1878814697265,263457986
fw,-87.3375854492187,-61.6136207580566,42.8040771484375,-67.0139541625976,263474653
fw,-87.6750183105468,-60.5098419189453,55.0001182556152,-64.9193496704101,263491320
fw,-87.4901733398437,-59.4117813110351,54.8782844543457,-66.9024505615234,263507987
fw,-86.8198699951171,-58.720401763916,44.6584129333496,-43.7693481445312,263524654
fw,-85.9498138427734,-58.1941223144531,46.937400817871,-35.2372856140136,263541321
fw,-84.9949645996093,-57.8387870788574,54.4881362915039,-25.9533100128173,263557988
fw,-83.9998168945312,-57.3420219421386,59.1622238159179,-36.0651779174804,263574655
fw,-82.9661483764648,-56.801700592041,60.6843948364257,-39.4225883483886,263591322
fw,-81.9082336425781,-57.4094810485839,58.3282737731933,28.7228374481201,263607989
fw,-80.8150863647461,-58.9184761047363,56.2684631347656,83.5905380249023,263624656
fw,-79.7204055786132,-60.8117218017578,52.857810974121,108.8257522583,263641323
fw,-78.5929870605468,-62.3389854431152,54.3764877319335,85.0926055908203,263657990
fw,-77.5982208251953,-63.5510940551757,44.7618675231933,65.8675918579101,263674657
fw,-76.7401504516601,-64.4823989868164,36.3472023010253,51.7796936035156,263691324
fw,-76.0603942871093,-65.4318161010742,27.3336467742919,54.5926284790039,263707991
fw,-75.5769653320312,-65.9264450073242,21.0455951690673,28.0976905822753,263724658
fw,-75.119270324707,-66.2042999267578,25.6348037719726,16.6426277160644,263741325
fw,-74.7031478881836,-67.0080871582031,25.6423625946044,47.7130317687988,263757992
fw,-74.4460983276367,-68.8566665649414,14.3838357925415,108.215835571289,263774659
fw,-74.5773468017578,-70.7675628662109,-12.7091360092163,113.938255310058,263791326
fw,-75.2554550170898,-71.7457580566406,-47.1390838623046,61.9662017822265,263807993
fw,-76.2874679565429,-71.9629440307617,-64.0242233276367,19.0137462615966,263824660
fw,-77.5938644409179,-72.1697463989257,-70.8178482055664,11.9350299835205,263841327
fw,-79.3258361816406,-72.9817733764648,-79.6574478149414,35.9324188232421,263857994
fw,-81.4136810302734,-74.2357025146484,-81.7066497802734,58.6418724060058,263874661
fw,-83.876480102539,-75.4134216308593,-89.8506164550781,56.8906440734863,263891328
fw,-87.0229721069336,-76.6330108642578,-147.389221191406,67.9216079711914,263907995
fw,-87.5851593017578,-78.1595458984375,-187.275939941406,89.2519302368164,263924662
fw,-84.3633728027343,-79.9278793334961,-186.699569702148,104.093940734863,263941329
fw,-81.4087219238281,-81.7651824951171,-172.849578857421,108.426452636718,263957996
fw,-78.6502609252929,-83.388442993164,-167.57534790039,95.4157638549804,263974663
fw,-75.4775390625,-84.5568389892578,-198.096008300781,69.1100616455078,263991330
fw,-71.8197021484375,-85.5536270141601,-224.560440063476,63.5369529724121,264007997
fw,-68.542236328125,-86.6561965942382,-190.995162963867,81.4216003417968,264024664
fw,-66.0624542236328,-87.710220336914,-129.434631347656,96.6495742797851,264041331
fw,-64.1897583007812,-88.1790924072265,-85.3771820068359,89.1621017456054,264057998
fw,-62.7040672302246,-87.7079162597656,-63.599868774414,70.114387512207,264074665
fw,-61.5544509887695,-86.7300872802734,-46.0617980957031,66.8112030029296,264091332
fw,-60.6666030883789,-85.5566177368164,-32.2672805786132,65.9146041870117,264107999
fw,-59.9464607238769,-84.3709259033203,-30.2697257995605,65.3081512451171,264124666
fw,-59.3821296691894,-83.2921524047851,-33.4848556518554,61.7255134582519,264141333
fw,-58.9530792236328,-82.2914123535156,-37.7672500610351,59.4447631835937,264158000
fw,-58.6893844604492,-81.2903366088867,-36.2296714782714,61.0669250488281,264174667
fw,-58.7440872192382,-80.2062835693359,-19.051040649414,64.8902816772461,264191334
fw,-59.2943077087402,-79.0716705322265,13.1810283660888,66.5053253173828,264208001
fw,-60.4694480895996,-77.9339752197265,50.3428153991699,66.7792892456054,264224668
fw,-62.9212341308593,-77.0363235473632,136.727874755859,51.8741226196289,264241335
fw,-64.9369430541992,-76.2833251953125,92.1292877197265,42.6639785766601,264258002
fw,-67.3816375732421,-75.6744079589843,121.422485351562,33.4512329101562,264274669
fw,-69.2762832641601,-75.1890182495117,77.1616592407226,26.7932529449462,264291336
fw,-70.9569854736328,-74.8368301391601,80.7025909423828,19.786506652832,264308003
fw,-70.9639663696289,-74.7855606079101,-6.8195309638977,0.947870731353759,264324670
fw,-70.1732025146484,-74.9930191040039,-43.4875373840332,-16.7092819213867,264341337
fw,-70.3741455078125,-75.4043197631836,7.90573072433471,-30.7246704101562,264358004
fw,-72.0259780883789,-76.1334838867187,54.1933517456054,-50.0096740722656,264374671
fw,-74.1970901489257,-77.3607635498046,104.81721496582,-77.9090805053711,264391338
fw,-75.1442108154296,-79.2633819580078,43.4474220275878,-117.076133728027,264408005
fw,-75.3341979980468,-81.8468322753906,2.84015130996704,-156.97216796875,264424672
fw,-75.8622817993164,-85.3874740600586,14.7057828903198,-214.810714721679,264441339
fw,-76.6530227661132,-88.8048324584961,-12.8862743377685,-261.003051757812,264458006
fw,-77.754280090332,-84.9495697021484,-4.53565835952758,-278.955078125,264474673
fw,-79.1399993896484,-80.692642211914,41.0591430664062,-250.192291259765,264491340
fw,-80.4309844970703,-77.6978302001953,37.2649803161621,-182.730606079101,264508007
fw,-81.8446960449218,-74.7544403076171,49.469123840332,-180.704483032226,264524674
fw,-83.154670715332,-71.1955490112304,49.7892799377441,-217.347625732421,264541341
fw,-84.4070434570312,-67.9496994018554,54.6357154846191,-197.623107910156,264558008
fw,-85.2438354492187,-65.3820114135742,32.834300994873,-155.882095336914,264574675
fw,-85.7868118286132,-63.2206344604492,19.5217761993408,-130.252288818359,264591342
fw,-86.3302459716796,-61.4343681335449,27.8223361968994,-106.431762695312,264608009
fw,-87.0761184692382,-60.0112113952636,50.5942611694335,-83.5447540283203,264624676
fw,-87.7958450317382,-58.9134826660156,64.8570251464843,-64.4394149780273,264641343
fw,-87.8010025024414,-57.9776992797851,48.8823890686035,-57.3079109191894,264658010
fw,-87.2884902954101,-57.4178085327148,42.3895187377929,-36.142951965332,264674677
fw,-86.5648727416992,-57.0839233398437,43.5679588317871,-24.7360515594482,264691344
fw,-85.7368087768554,-56.7888298034668,47.9081306457519,-23.8558368682861,264708011
fw,-84.7823333740234,-56.4633598327636,57.2540321350097,-26.2365493774414,264724678
fw,-83.7164077758789,-56.2051086425781,60.6357841491699,-22.9482727050781,264741345
fw,-82.5494689941406,-56.6925048828125,61.9911727905273,19.3803539276123,264758012
fw,-81.3592300415039,-57.9621543884277,61.7691459655761,64.5311431884765,264774679
fw,-80.1730651855468,-59.8801612854003,58.936782836914,107.457023620605,264791346
fw,-78.9295806884765,-61.8388175964355,62.0926361083984,110.774665832519,264808013
fw,-77.8650436401367,-63.2481613159179,49.1647644042968,77.8092575073242,264824680
fw,-77.0321044921875,-64.3332595825195,34.240623474121,60.980598449707,264841347
fw,-76.3803405761718,-65.7789611816406,25.2724781036376,84.3134536743164,264858014
fw,-75.8766479492187,-67.1546096801757,18.7605876922607,81.1935577392578,264874681
fw,-75.4454116821289,-68.0206222534179,18.2438945770263,51.0963287353515,264891348
fw,-75.1294174194336,-69.2247467041015,16.4265804290771,71.0182952880859,264908015
fw,-74.9715957641601,-71.025390625,8.30284309387207,106.90005493164,264924682
fw,-75.2255477905273,-72.1682510375976,-20.1571636199951,71.5252609252929,264941349
fw,-75.9942321777343,-72.4554824829101,-53.4872016906738,21.9662208557128,264958016
fw,-76.9778823852539,-72.5212478637695,-61.9729919433593,5.6394829750061,264974683
fw,-78.2537689208984,-73.1286087036132,-72.6575622558593,27.0919857025146,264991350
fw,-79.9676895141601,-74.2077178955078,-85.3144836425781,48.8841972351074,265008017
fw,-82.0623703002929,-75.4185562133789,-81.4129638671875,60.4040222167968,265024684
fw,-84.7443161010742,-76.6845397949218,-97.5543060302734,69.8030624389648,265041351
fw,-87.9465255737304,-78.0267868041992,-140.794342041015,78.3336868286132,265058018
fw,-87.7743759155273,-79.4286422729492,-172.987365722656,82.3920211791992,265074685
fw,-84.5533828735351,-81.0541152954101,-176.024490356445,95.8294296264648,265091352
fw,-81.6033554077148,-82.7607498168945,-162.623748779296,100.530891418457,265108019
fw,-78.5147018432617,-84.081787109375,-179.008377075195,76.6800994873046,265124686
fw,-74.9825897216796,-85.4550247192382,-207.84912109375,82.1109466552734,265141353
fw,-71.4683151245117,-86.7864303588867,-199.855087280273,88.500617980957,265158020
fw,-68.5824279785156,-88.0508728027343,-151.686584472656,95.0855560302734,265174687
fw,-66.3661499023437,-88.8140335083007,-101.731369018554,86.0238876342773,265191354
fw,-64.5867843627929,-88.3559875488281,-75.446533203125,65.9677200317382,265208021
fw,-63.1287956237793,-87.2493591308593,-56.1584129333496,69.4608764648437,265224688
fw,-61.9552688598632,-86.0518646240234,-40.1119804382324,65.8444900512695,265241355
fw,-61.0765991210937,-84.8066864013671,-27.6598854064941,68.6627731323242,265258022
fw,-60.3207130432128,-83.5598373413086,-33.049388885498,72.2193756103515,265274689
fw,-59.6407203674316,-82.3282852172851,-43.8151359558105,73.4091567993164,265291356
fw,-59.1044883728027,-81.1362991333007,-48.5761985778808,71.1852798461914,265308023
fw,-58.7512588500976,-79.9684982299804,-46.7587585449218,69.1036834716796,265324690
fw,-58.9200553894043,-78.8657150268554,-12.8999004364013,63.9019737243652,265341357
fw,-59.7227783203125,-77.7429122924804,28.3003883361816,64.8976516723632,265358024
fw,-61.4513511657714,-76.6920013427734,86.3344802856445,60.7983703613281,265374691
fw,-63.9055786132812,-75.7910003662109,133.239151000976,51.9065246582031,265391358
fw,-65.617446899414,-75.0872802734375,66.576904296875,40.4393005371093,265408025
fw,-67.6643600463867,-74.5273818969726,92.1926193237304,32.2357101440429,265424692
fw,-69.0550842285156,-74.0444259643554,48.7202491760253,27.838695526123,265441359
fw,-70.5869064331054,-73.6850814819336,70.8658218383789,20.3360996246337,265458026
fw,-70.9237518310546,-73.6622543334961,10.5557231903076,-0.549150586128234,265474693
fw,-70.6068267822265,-73.9779968261718,-21.7017288208007,-21.6892108917236,265491360
fw,-71.2066268920898,-74.5379257202148,19.8668518066406,-36.6893501281738,265508027
fw,-73.0676956176757,-75.4200668334961,67.8040390014648,-55.5387496948242,265524694
fw,-75.0355377197265,-76.8073120117187,101.489288330078,-84.7620010375976,265541361
fw,-75.7298431396484,-78.7619552612304,31.1718368530273,-117.723693847656,265558028
fw,-75.9360961914062,-81.3915710449218,7.33825731277465,-156.693389892578,265574695
fw,-76.5826110839843,-85.2505111694336,12.2402629852294,-228.788818359375,265591362
fw,-77.5304718017578,-89.3934860229492,-10.0809249877929,-272.306640625,265608029
fw,-78.7767181396484,-85.1516036987304,12.7738494873046,-289.431762695312,265624696
fw,-80.2686386108398,-81.1947174072265,52.7139816284179,-244.813323974609,265641363
fw,-81.3684005737304,-78.7295455932617,28.4705219268798,-154.520431518554,265658030
fw,-82.6194839477539,-75.5914230346679,45.8027572631835,-193.4970703125,265674697
fw,-84.000373840332,-71.3120193481445,61.2499618530273,-262.793518066406,265691364
fw,-85.2157440185546,-67.8445968627929,56.8564186096191,-212.089645385742,265708031
fw,-85.7208938598632,-65.1677017211914,16.3756694793701,-162.645050048828,265724698
fw,-86.1425323486328,-63.2526130676269,18.6197395324707,-115.610061645507,265741365
fw,-86.7462844848632,-61.7659835815429,38.9101676940918,-88.2811203002929,265758032
fw,-87.4169998168945,-60.6297721862793,57.0791854858398,-66.5835571289062,265774699
fw,-87.6033020019531,-59.6208038330078,52.4238243103027,-60.0367164611816,265791366
fw,-87.2024307250976,-58.733657836914,41.4634742736816,-54.12105178833,265808033
fw,-86.5025177001953,-58.167251586914,39.7359390258789,-35.9199295043945,265824700
fw,-85.677001953125,-57.7241020202636,49.5934600830078,-30.3968143463134,265841367
fw,-84.7919540405273,-57.3905982971191,55.9552497863769,-25.2788372039794,265858034
fw,-83.8405990600586,-56.9753875732421,58.6691665649414,-31.8403587341308,265874701
fw,-82.8281326293945,-57.0305862426757,57.8781013488769,-4.413423538208,265891368
fw,-81.7440338134765,-58.1228256225585,56.1587333679199,55.9717826843261,265908035
fw,-80.6096649169921,-59.7011756896972,56.8807487487793,86.473030090332,265924702
fw,-79.4183120727539,-61.8100280761718,60.7877159118652,119.964431762695,265941369
fw,-78.2811508178711,-63.0428657531738,57.3906364440918,67.8393478393554,265958036
fw,-77.3922348022461,-64.0823440551757,38.994815826416,58.228416442871,265974703
fw,-76.7431488037109,-65.1504287719726,23.5129165649414,61.7433891296386,265991370
fw,-76.227783203125,-66.390266418457,18.4677696228027,72.8428878784179,266008037
fw,-75.7918014526367,-67.0392761230468,18.6078453063964,37.878562927246,266024704
fw,-75.3798446655273,-67.7179641723632,22.9065895080566,40.2711219787597,266041371
fw,-75.1053924560546,-69.2199478149414,14.2218427658081,89.2090530395507,266058038
fw,-75.1094589233398,-71.0692062377929,-6.20263767242431,111.718070983886,266074705
fw,-75.5868682861328,-72.0309906005859,-37.9012374877929,61.7758178710937,266091372
fw,-76.518310546875,-72.3952560424804,-64.2496948242187,25.3489913940429,266108039
fw,-77.6987075805664,-72.7454223632812,-68.7518844604492,20.7488555908203,266124706
fw,-79.3138961791992,-73.5801086425781,-77.8075637817382,40.5576820373535,266141373
fw,-81.399787902832,-74.8013000488281,-82.794204711914,59.8545188903808,266158040
fw,-83.900405883789,-76.2432556152343,-86.0736999511718,76.7159118652343,266174707
fw,-87.0387954711914,-77.5384826660156,-127.635612487792,73.7848510742187,266191374
fw,-88.4490966796875,-78.8957290649414,-160.034072875976,79.0147171020507,266208041
fw,-85.4109802246093,-80.4585494995117,-175.663696289062,91.7792510986328,266224708
fw,-82.4892425537109,-82.2314834594726,-162.184799194335,104.916221618652,266241375
fw,-79.5528869628906,-83.8625335693359,-167.720275878906,95.9990692138671,266258042
fw,-76.2665252685546,-85.0566482543945,-194.653228759765,69.4724426269531,266274709
fw,-72.7551803588867,-86.2532043457031,-207.246673583984,73.7615280151367,266291376
fw,-69.6199264526367,-87.5308990478515,-175.630004882812,88.4234161376953,266308043
fw,-67.1920928955078,-88.616340637207,-121.258384704589,94.9023284912109,266324710
fw,-65.2350997924804,-88.5185317993164,-88.8327102661132,83.645034790039,266341377
fw,-63.64839553833,-87.5221939086914,-64.8329696655273,71.4356842041015,266358044
fw,-62.3957748413085,-86.3524551391601,-46.7521247863769,64.7951049804687,266374711
fw,-61.4298057556152,-85.1921768188476,-31.4949836730957,61.2321815490722,266391378
fw,-60.603660583496,-84.0388259887695,-32.1617469787597,63.8740463256835,266408045
fw,-59.8893241882324,-82.9142150878906,-39.0171661376953,65.9813461303711,266424712
fw,-59.3356437683105,-81.8427200317382,-43.3345069885253,65.0389099121093,266441379
fw,-58.9754180908203,-80.7122344970703,-40.8909721374511,68.9599990844726,266458046
fw,-58.9836311340332,-79.5526657104492,-22.4409751892089,69.6168518066406,266474713
fw,-59.5902862548828,-78.3896942138671,18.4242706298828,68.6993103027343,266491380
fw,-60.7995452880859,-77.2973098754882,51.9511795043945,63.6127700805664,266508047
fw,-63.3383255004882,-76.2843246459961,144.009841918945,58.8644409179687,266524714
fw,-65.2350463867187,-75.5462036132812,82.4067230224609,42.0922966003418,266541381
fw,-67.5350799560546,-74.9338607788086,111.462028503417,34.5542602539062,266558048
fw,-69.2862777709961,-74.4280548095703,81.9403381347656,28.3326225280761,266574715
fw,-70.6500473022461,-74.1278762817382,53.2976112365722,16.3721714019775,266591382
fw,-71.5150451660156,-74.1201019287109,38.5656852722168,-1.57867062091827,266608049
fw,-71.110366821289,-74.521614074707,-25.7402992248535,-27.6720237731933,266624716
fw,-71.2513809204101,-75.2051086425781,-1.90369498729705,-45.8050422668457,266641383
fw,-72.8467407226562,-76.2133636474609,70.9628372192382,-65.447280883789,266658050
fw,-74.3798599243164,-77.6809463500976,89.5321426391601,-92.3334655761718,266674717
fw,-74.8416061401367,-79.7032165527343,19.2813396453857,-124.798759460449,266691384
fw,-75.100830078125,-82.4471893310546,3.33432364463806,-166.893768310546,266708051
fw,-75.7918930053711,-86.3451080322265,7.83356094360351,-237.365768432617,266724718
fw,-76.7324142456054,-88.5913848876953,-19.26145362854,-266.035461425781,266741385
fw,-78.0208206176757,-83.966812133789,7.33399152755737,-285.461120605468,266758052
fw,-79.4286193847656,-80.3777847290039,45.8389205932617,-215.142471313476,266774719
fw,-80.4855194091796,-77.8634567260742,23.7475852966308,-154.116287231445,266791386
fw,-81.7870941162109,-74.8451309204101,45.8699340820312,-184.485366821289,266808053
fw,-83.4277725219726,-71.2990798950195,75.2284317016601,-215.484542846679,266824720
fw,-84.9095382690429,-68.2215576171875,69.4503479003906,-186.407562255859,266841387
fw,-85.7661743164062,-65.807258605957,31.337116241455,-146.337982177734,266858054
fw,-86.504638671875,-63.9172172546386,28.7364120483398,-114.2173538208,266874721
fw,-87.3178100585937,-62.2279014587402,43.5768890380859,-101.17797088623,266891388
fw,-88.1842575073242,-60.8058700561523,60.0211563110351,-84.4541091918945,266908055
fw,-88.4894943237304,-59.5731086730957,56.6356887817382,-73.7899169921875,266924722
fw,-87.9699172973632,-58.508201599121,43.2488670349121,-65.1568908691406,266941389
fw,-87.1535263061523,-57.9223136901855,40.0872840881347,-36.6558761596679,266958056
fw,-86.221565246582,-57.6342239379882,49.4149017333984,-19.5014419555664,266974723
fw,-85.2322311401367,-57.476936340332,56.5324020385742,-12.5578317642211,266991390
fw,-84.2275924682617,-57.0990562438964,54.2360610961914,-27.7475566864013,267008057
fw,-83.1582870483398,-57.214672088623,56.6926193237304,2.36681509017944,267024724
fw,-82.0455245971679,-58.3698768615722,56.8805236816406,61.4598388671875,267041391
fw,-80.8671417236328,-60.0822601318359,58.21968460083,96.5983276367187,267058058
fw,-79.6157302856445,-62.2490615844726,61.9816932678222,124.874000549316,267074725
fw,-78.4462966918945,-63.6359634399414,55.9197692871093,76.4892578125,267091392
fw,-77.5426635742187,-64.6714935302734,37.7807960510253,56.8244667053222,267108059
fw,-76.9388580322265,-65.8105697631836,20.8938007354736,65.5988693237304,267124726
fw,-76.4281845092773,-66.8413696289062,21.3654651641845,60.5581588745117,267141393
fw,-75.9829483032226,-67.2915344238281,22.659776687622,26.7894401550292,267158060
fw,-75.6287765502929,-67.8785934448242,21.5760021209716,36.4928703308105,267174727
fw,-75.4454956054687,-69.3004760742187,10.935546875,84.4509201049804,267191394
fw,-75.6440887451171,-71.0729598999023,-17.0829048156738,106.901466369628,267208061
fw,-76.340591430664,-72.1107101440429,-49.5066604614257,66.2278137207031,267224728
fw,-77.4216842651367,-72.5172805786132,-71.0873336791992,29.3256454467773,267241395
fw,-78.7632598876953,-72.7038803100586,-77.4411315917968,13.3248605728149,267258062
fw,-80.4548721313476,-73.5029678344726,-81.2957687377929,37.7095489501953,267274729
fw,-82.5833129882812,-74.844009399414,-87.9521179199218,64.2953186035156,267291396
fw,-85.2162780761718,-76.2944259643554,-98.5204925537109,73.5601806640625,267308063
fw,-88.3668594360351,-77.5552368164062,-148.250183105468,70.2401351928711,267324730
fw,-86.8871231079101,-78.9613342285156,-174.931747436523,82.1729125976562,267341397
fw,-83.6386947631836,-80.6119918823242,-167.665725708007,96.6690063476562,267358064
fw,-80.8348617553711,-82.4633407592773,-157.992294311523,109.031463623046,267374731
fw,-78.0687637329101,-84.3812713623046,-163.62173461914,112.883476257324,267391398
fw,-75.0311584472656,-85.7156372070312,-184.056869506835,77.5311813354492,267408065
fw,-71.4587631225586,-86.8242416381836,-213.319458007812,66.5105895996093,267424732
fw,-68.1891021728515,-87.8893814086914,-188.70376586914,76.5198440551757,267441399
fw,-65.8729019165039,-88.5708389282226,-120.845474243164,88.0771026611328,267458066
fw,-64.1168746948242,-88.2933807373046,-85.7289047241211,77.0762939453125,267474733
fw,-62.6636543273925,-87.5314559936523,-65.1809844970703,63.4679641723632,267491400
fw,-61.4749946594238,-86.5384140014648,-48.7098884582519,59.4236373901367,267508067
fw,-60.6375923156738,-85.3499221801757,-26.7215003967285,65.1016082763671,267524734
fw,-60.0388107299804,-84.0404052734375,-19.3151245117187,74.0749130249023,267541401
fw,-59.6293296813964,-82.8955993652343,-19.1758804321289,66.4996185302734,267558068
fw,-59.3513259887695,-81.9258651733398,-25.0949020385742,57.1376495361328,267574735
fw,-59.2298316955566,-80.9440841674804,-24.9591808319091,59.3375701904296,267591402
fw,-59.4181861877441,-79.8688278198242,-6.9162745475769,64.264289855957,267608069
fw,-59.8327941894531,-78.7081832885742,0.0635136663913726,68.0360260009765,267624736
fw,-61.3588752746582,-77.5959014892578,73.2138900756836,64.0818328857421,267641403
fw,-63.6733932495117,-76.7379684448242,125.194541931152,48.3571662902832,267658070
fw,-65.7512817382812,-76.1334838867187,97.8081970214843,33.1603050231933,267674737
fw,-67.9307632446289,-75.6787643432617,107.819526672363,24.4688644409179,267691404
fw,-69.4366760253906,-75.2557601928711,62.6985130310058,23.673692703247,267708071
fw,-70.7486724853515,-74.9539489746093,62.3477020263671,17.1710510253906,267724738
fw,-70.6244888305664,-75.0571365356445,-14.3078804016113,-8.1439094543457,267741405
fw,-70.2525405883789,-75.4556808471679,-20.1060638427734,-27.7443695068359,267758072
fw,-70.8002777099609,-76.0888214111328,15.649598121643,-42.7667503356933,267774739
fw,-72.7831954956054,-77.0096435546875,80.2698440551757,-58.9894828796386,267791406
fw,-74.5637283325195,-78.3783416748046,92.6204452514648,-84.62744140625,267808073
fw,-75.1465454101562,-80.3866271972656,18.7121238708496,-122.177261352539,267824740
fw,-75.4610061645507,-83.1630477905273,9.1946153640747,-167.983825683593,267841407
fw,-76.1237106323242,-87.047866821289,9.92332553863525,-237.712738037109,267858074
fw,-77.0546798706054,-88.0311965942382,-14.0532684326171,-264.55517578125,267874741
fw,-78.1826095581054,-83.470962524414,0.913243353366851,-274.71353149414,267891408
fw,-79.557014465332,-79.880126953125,44.7309188842773,-215.765716552734,267908075
fw,-80.8427963256836,-77.3785018920898,37.7927207946777,-153.534454345703,267924742
fw,-82.3016815185546,-74.2187881469726,53.7467193603515,-192.898513793945,267941409
fw,-83.7786788940429,-70.3445663452148,66.1737060546875,-235.268981933593,267958076
fw,-85.1075592041015,-67.2758331298828,63.9310913085937,-186.105667114257,267974743
fw,-85.8957366943359,-64.8673858642578,31.6064987182617,-145.9921875,267991410
fw,-86.5413589477539,-62.9217262268066,26.3884124755859,-117.203094482421,268008077
fw,-87.1206436157226,-61.4852333068847,31.2042388916015,-85.250259399414,268024744
fw,-87.7936248779296,-60.337230682373,51.2189826965332,-66.889289855957,268041411
fw,-88.0942306518554,-59.4417037963867,57.4245223999023,-52.9880104064941,268058078
fw,-87.6660232543945,-58.5798416137695,48.0178794860839,-52.7174568176269,268074745
fw,-86.8895797729492,-58.1578788757324,47.6550331115722,-27.1440086364746,268091412
fw,-85.9714889526367,-57.7715911865234,56.0415611267089,-26.7966232299804,268108079
fw,-84.9825744628906,-57.4350128173828,59.6596755981445,-23.5661315917968,268124746
fw,-83.9564514160156,-57.1024894714355,56.7823791503906,-24.1875553131103,268141413
fw,-82.8800506591796,-56.8039360046386,55.8415985107421,-24.7248802185058,268158080
fw,-81.7010192871093,-57.6144142150878,60.9882621765136,39.6852531433105,268174747
fw,-80.4530334472656,-59.02827835083,63.8651809692382,76.9614486694336,268191414
fw,-79.1221389770507,-61.333152770996,67.8296127319336,131.700653076171,268208081
fw,-77.8445816040039,-62.967658996582,62.3410415649414,90.5822448730468,268224748
fw,-76.7862472534179,-64.1849517822265,48.1142616271972,67.2203063964843,268241415
fw,-76.0302047729492,-65.292251586914,29.9633407592773,63.7485122680664,268258082
fw,-75.4761505126953,-66.6115264892578,20.8171005249023,77.7578353881836,268274749
fw,-75.0023651123046,-67.3084487915039,20.7341079711914,40.8428688049316,268291416
fw,-74.6336364746093,-67.9895782470703,19.4017601013183,40.3729133605957,268308083
fw,-74.3926467895507,-69.3852462768554,14.3839530944824,81.7043151855468,268324750
fw,-74.4455490112304,-71.2058868408203,-6.94689559936523,108.210578918457,268341417
fw,-74.990493774414,-72.1999969482421,-40.9784965515136,63.081729888916,268358084
fw,-75.9813003540039,-72.4843139648437,-67.9695892333984,22.421724319458,268374751
fw,-77.1879196166992,-72.655776977539,-74.8590545654296,11.8352899551391,268391418
fw,-78.7420654296875,-73.4085006713867,-83.4937973022461,34.7925872802734,268408085
fw,-80.6501007080078,-74.5120162963867,-84.1103744506836,51.7257347106933,268424752
fw,-82.9297866821289,-75.7126235961914,-84.6747665405273,59.8968887329101,268441419
fw,-85.9556198120117,-76.8795700073242,-123.531707763671,64.9039077758789,268458086
fw,-88.7500839233398,-78.1574630737304,-167.849960327148,74.742073059082,268474753
fw,-86.1957473754882,-79.7137298583984,-186.032043457031,91.4705123901367,268491420
fw,-83.1637878417968,-81.3474655151367,-166.470504760742,96.1888351440429,268508087
fw,-80.3256530761718,-82.8922348022461,-162.291351318359,90.6210784912109,268524754
fw,-77.1794662475586,-84.1099166870117,-186.710998535156,70.5014419555664,268541421
fw,-73.7399749755859,-85.3299102783203,-202.827178955078,72.6373901367187,268558088
fw,-70.5108261108398,-86.717529296875,-181.713790893554,88.0579833984375,268574755
fw,-67.9703292846679,-88.0501708984375,-129.12417602539,90.9540557861328,268591422
fw,-66.0374679565429,-88.9654312133789,-85.5192718505859,84.2530670166015,268608089
fw,-64.4703063964843,-88.5812835693359,-64.0186157226562,68.0164642333984,268624756
fw,-63.2273368835449,-87.5456085205078,-47.6579513549804,66.0985488891601,268641423
fw,-62.2224426269531,-86.3051452636718,-39.1930618286132,69.9496383666992,268658090
fw,-61.4168434143066,-85.0247650146484,-33.4751777648925,71.2307434082031,268674757
fw,-60.7125358581543,-83.8334045410156,-38.8190536499023,68.3597640991211,268691424
fw,-60.1154861450195,-82.689224243164,-43.0496101379394,68.1565628051757,268708091
fw,-59.662010192871,-81.5240707397461,-45.530174255371,70.3948135375976,268724758
fw,-59.4735260009765,-80.3045425415039,-35.0085067749023,72.7447280883789,268741425
fw,-59.8727416992187,-79.0459442138671,4.90546321868896,73.9515838623046,268758092
fw,-60.8537902832031,-77.7626876831054,39.9632301330566,75.0594863891601,268774759
fw,-63.1711235046386,-76.7000198364257,130.061462402343,61.2606239318847,268791426
fw,-65.0102081298828,-75.9468688964843,85.4280624389648,42.4793663024902,268808093
fw,-67.1299362182617,-75.3364105224609,102.352043151855,34.1411628723144,268824760
fw,-68.9407730102539,-74.8520431518554,80.400161743164,27.0537433624267,268841427
fw,-70.4703750610351,-74.421401977539,65.4753875732421,24.4805641174316,268858094
fw,-71.527587890625,-74.2578353881836,49.4295692443847,8.29335021972656,268874761
fw,-71.297119140625,-74.4761734008789,-16.7691707611084,-15.5817518234252,268891428
fw,-71.4728469848632,-74.9848098754882,5.42055416107177,-33.8868255615234,268908095
fw,-72.8677444458007,-75.8427505493164,63.8113899230957,-55.00581741333,268924762
fw,-74.5751037597656,-77.0942764282226,94.9662780761718,-78.252815246582,268941429
fw,-75.3028717041015,-78.7771224975586,36.8839416503906,-103.118965148925,268958096
fw,-75.7014541625976,-81.1356124877929,9.75282096862793,-142.234024047851,268974763
fw,-76.4100341796875,-84.6788482666015,21.9598846435546,-212.002578735351,268991430
fw,-77.423957824707,-88.9288177490234,2.77361559867858,-257.129089355468,269008097
fw,-78.8243408203125,-86.2409973144531,18.1900081634521,-275.070037841796,269024764
fw,-80.4678039550781,-82.3092041015625,57.9406051635742,-234.675216674804,269041431
fw,-81.7016677856445,-79.7842712402343,39.4248237609863,-155.73533630371,269058098
fw,-82.973876953125,-77.1802673339843,43.7486991882324,-159.785186767578,269074765
fw,-84.6533203125,-73.5710372924804,75.8574447631836,-219.505767822265,269091432
fw,-86.1269760131836,-70.1992568969726,67.7959289550781,-204.09260559082,269108099
fw,-86.9656524658203,-67.7615203857421,26.5945701599121,-147.837707519531,269124766
fw,-87.5975952148437,-65.9655380249023,19.5778656005859,-108.712493896484,269141433
fw,-88.3556289672851,-64.4861297607421,38.6417732238769,-88.7769088745117,269158100
fw,-88.9688339233398,-63.1808280944824,50.0937194824218,-77.5758209228515,269174767
fw,-88.7191619873046,-61.8582801818847,46.6504211425781,-78.8848571777343,269191434
fw,-87.9380645751953,-60.6190032958984,42.0953292846679,-75.8303604125976,269208101
fw,-87.0217208862304,-59.7785148620605,42.4172019958496,-53.1425743103027,269224768
fw,-85.9362030029296,-59.2442207336425,55.1062049865722,-35.617202758789,269241435
fw,-84.8349533081054,-58.6190185546875,56.0285148620605,-42.5410499572753,269258102
fw,-83.7429504394531,-57.7858581542968,55.5675430297851,-57.0408630371093,269274769
fw,-82.6444396972656,-57.3674621582031,55.8236541748046,-32.1215133666992,269291436
fw,-81.512954711914,-58.1014213562011,56.9316329956054,37.3854522705078,269308103
fw,-80.2985076904296,-59.6424751281738,61.8444213867187,87.1814727783203,269324770
fw,-79.0988388061523,-61.8687133789062,58.8658828735351,128.345504760742,269341437
fw,-77.9175033569336,-63.4466438293457,56.9195098876953,88.6019287109375,269358104
fw,-76.8736419677734,-64.5761947631836,49.1118927001953,61.3353996276855,269374771
fw,-76.0468063354492,-65.4443054199218,36.7533340454101,48.1031837463378,269391438
fw,-75.2862930297851,-66.7120208740234,36.6109428405761,74.4677810668945,269408105
fw,-74.6804962158203,-67.6398468017578,29.8890857696533,55.2755622863769,269424772
fw,-74.3144989013671,-68.5139999389648,17.618553161621,52.2712478637695,269441439
fw,-74.2106781005859,-69.9692230224609,4.28397941589355,86.2999877929687,269458106
fw,-74.4370193481445,-71.5202331542968,-16.0228366851806,93.816047668457,269474773
fw,-75.2769241333007,-72.3432388305664,-53.9825706481933,55.3536262512207,269491440
fw,-76.6133346557617,-72.5725784301757,-82.9154815673828,19.2828578948974,269508107
fw,-78.1174926757812,-72.7330017089843,-85.5494689941406,5.38422393798828,269524774
fw,-79.8310546875,-73.4558181762695,-84.5345611572265,28.5683116912841,269541441
fw,-81.8935852050781,-74.5309829711914,-86.189956665039,52.1647720336914,269558108
fw,-84.4527816772461,-75.7064971923828,-104.335235595703,63.351318359375,269574775
fw,-87.3981170654296,-76.9087829589843,-155.927108764648,69.2578582763671,269591442
fw,-87.0103683471679,-78.1745223999023,-191.396713256835,73.8873443603515,269608109
fw,-83.901626586914,-79.7616348266601,-187.141891479492,93.3356170654296,269624776
fw,-81.1223526000976,-81.5544357299804,-163.722061157226,105.741561889648,269641443
fw,-78.2351989746093,-83.2841110229492,-174.526260375976,102.208198547363,269658110
fw,-74.964241027832,-84.7321014404296,-199.404220581054,87.0089035034179,269674777
fw,-71.4030532836914,-85.9886322021484,-211.010787963867,81.7764434814453,269691444
fw,-68.3843078613281,-87.2764587402343,-167.678802490234,95.5776062011718,269708111
fw,-66.1601104736328,-88.2547149658203,-110.711082458496,100.722282409667,269724778
fw,-64.3828125,-88.1321945190429,-82.6348495483398,91.4918823242187,269741445
fw,-62.8712348937988,-87.2994079589843,-71.0678100585937,68.1876678466796,269758112
fw,-61.6691017150878,-86.3370285034179,-54.1932487487793,57.3734817504882,269774779
fw,-60.6932182312011,-85.1748123168945,-44.4483833312988,64.9662017822265,269791446
fw,-59.9047355651855,-83.8808059692382,-41.3235816955566,73.7340774536132,269808113
fw,-59.3169212341308,-82.5451278686523,-39.8266258239746,77.5449600219726,269824780
fw,-58.8934898376464,-81.3369369506836,-39.872760772705,70.9219207763671,269841447
fw,-58.6813049316406,-80.2199020385742,-33.5051689147949,65.5337295532226,269858114
fw,-58.6943855285644,-79.1297454833984,-24.0455665588378,63.3400268554687,269874781
fw,-59.4500350952148,-78.0821838378906,24.3780460357666,60.2516593933105,269891448
fw,-61.3008460998535,-77.105728149414,99.8745040893554,55.3099899291992,269908115
fw,-63.3994026184082,-76.1707458496093,106.176551818847,52.4656944274902,269924782
fw,-65.1764678955078,-75.4413223266601,74.3157958984375,40.2808151245117,269941449
fw,-67.2858352661132,-74.9751892089843,94.1964645385742,24.9850482940673,269958116
fw,-69.1123886108398,-74.5900344848632,75.8842468261718,22.0555095672607,269974783
fw,-70.5216979980468,-74.4156646728515,65.3380813598632,9.45411014556884,269991450
fw,-70.3844299316406,-74.5143966674804,-12.3433189392089,-9.02645301818847,270008117
fw,-70.1406097412109,-74.9073333740234,-8.03151130676269,-29.216999053955,270024784
fw,-70.8358001708984,-75.6500473022461,24.3741245269775,-51.7398567199707,270041451
fw,-72.7450408935546,-76.7117843627929,75.2061996459961,-70.2088928222656,270058118
fw,-74.4323348999023,-78.2022094726562,87.4014739990234,-94.116470336914,270074785
fw,-75.0685653686523,-80.3612899780273,22.6338539123535,-134.794921875,270091452
fw,-75.5040283203125,-83.3608245849609,22.5448894500732,-185.523315429687,270108119
fw,-76.0891418457031,-87.1772842407226,11.2438058853149,-247.993194580078,270124786
fw,-76.9652481079101,-87.1868667602539,-1.04177474975585,-263.700134277343,270141453
fw,-78.1017684936523,-82.7604217529296,12.820499420166,-267.226379394531,270158120
fw,-79.3973922729492,-79.4475479125976,40.6643295288085,-198.004608154296,270174787
fw,-80.3897247314453,-76.8567657470703,23.3647327423095,-158.459869384765,270191454
fw,-81.8039855957031,-73.4996337890625,56.6213035583496,-205.887283325195,270208121
fw,-83.5691986083984,-69.8789596557617,85.7021255493164,-220.863494873046,270224788
fw,-85.1062774658203,-66.8830108642578,76.9835357666015,-181.989471435546,270241455
fw,-86.2946701049804,-64.6442794799804,59.4522132873535,-136.095016479492,270258122
fw,-87.2870483398437,-62.9895896911621,52.3962173461914,-100.421745300292,270274789
fw,-87.9502487182617,-61.5069198608398,43.2996215820312,-89.6393585205078,270291456
fw,-88.3301239013671,-60.0148849487304,46.3308563232421,-90.0198211669921,270308123
fw,-88.1709365844726,-58.640625,47.4096031188964,-83.9337158203125,270324790
fw,-87.5237731933593,-57.652904510498,45.032958984375,-61.2691078186035,270341457
fw,-86.6863708496093,-57.1366386413574,45.2559852600097,-33.2935142517089,270358124
fw,-85.7686767578125,-56.8547668457031,53.7684822082519,-19.5908832550048,270374791
fw,-84.854866027832,-56.8462257385253,55.7599143981933,-3.5968062877655,270391458
fw,-83.9623641967773,-56.9390335083007,51.1516647338867,2.30140995979309,270408125
fw,-83.053108215332,-57.3982391357421,48.2756462097168,22.4448699951171,270424792
fw,-82.0714797973632,-58.557861328125,49.9569244384765,61.2673988342285,270441459
fw,-80.9397430419921,-60.2733459472656,57.6670265197753,95.5257415771484,270458126
fw,-79.6694946289062,-62.235050201416,64.2124557495117,112.24925994873,270474793
fw,-78.523078918457,-63.4751548767089,53.5617599487304,68.7552261352539,270491460
fw,-77.663703918457,-64.4827346801757,34.1930923461914,55.6910285949707,270508127
fw,-77.0424423217773,-65.63720703125,20.4913063049316,66.5835571289062,270524794
fw,-76.5735931396484,-67.0202178955078,18.344871520996,81.4390335083007,270541461
fw,-76.1937408447265,-67.9563827514648,18.8869018554687,55.153507232666,270558128
fw,-75.9786529541015,-69.1194610595703,12.4095249176025,69.2643203735351,270574795
fw,-75.9190063476562,-70.7704238891601,5.40320968627929,99.0233535766601,270591462
fw,-76.3330383300781,-71.9845123291015,-26.3424930572509,75.9212188720703,270608129
fw,-77.2742309570312,-72.3667526245117,-60.0035934448242,27.4776077270507,270624796
fw,-78.5066146850586,-72.61083984375,-73.3841323852539,15.0362176895141,270641463
fw,-79.9330596923828,-73.0775985717773,-76.2530441284179,19.3730888366699,270658130
fw,-81.7235107421875,-73.9680938720703,-82.9535293579101,41.1880455017089,270674797
fw,-83.8844528198242,-75.1309509277343,-82.7585067749023,60.382152557373,270691464
fw,-86.7613067626953,-76.4222335815429,-124.866691589355,72.4838333129882,270708131
fw,-88.2481079101562,-77.7479858398437,-167.512619018554,77.1762924194336,270724798
fw,-85.0995101928711,-79.2349319458007,-188.405990600585,87.5640335083007,270741465
fw,-82.1608581542968,-81.0044021606445,-162.057434082031,104.773338317871,270758132
fw,-79.5318145751953,-82.8437118530273,-156.855316162109,108.503883361816,270774799
fw,-76.5783004760742,-84.3298873901367,-178.681991577148,87.6283416748046,270791466
fw,-73.1526184082031,-85.6019439697265,-203.939376831054,79.2710189819336,270808133
fw,-69.7357101440429,-86.7020568847656,-197.454177856445,77.484130859375,270824800
fw,-67.0615692138671,-87.8811416625976,-142.870330810546,93.7593841552734,270841467
fw,-65.0943832397461,-88.5087890625,-92.8519210815429,89.407730102539,270858134
fw,-63.5412559509277,-88.051773071289,-68.3357620239257,67.2307434082031,270874801
fw,-62.2594566345214,-87.1749954223632,-55.8796157836914,55.5806503295898,270891468
fw,-61.2473258972168,-86.1050491333007,-41.1838340759277,58.8925743103027,270908135
fw,-60.4340057373046,-84.8412933349609,-34.3192062377929,72.8023223876953,270924802
fw,-59.7889442443847,-83.4897918701171,-36.0386848449707,81.4175796508789,270941469
fw,-59.3026123046875,-82.2064819335937,-39.8019981384277,77.7232894897461,270958136
fw,-58.9218215942382,-81.0443649291992,-43.096206665039,69.1318435668945,270974803
fw,-58.800724029541,-80.0036544799804,-31.4894943237304,59.9622192382812,270991470
fw,-59.0433540344238,-79.0056076049804,-10.0529632568359,56.2873306274414,271008137
fw,-60.0571556091308,-77.961196899414,39.3655891418457,59.7750434875488,271024804
fw,-62.316104888916,-77.0097045898437,126.411788940429,54.562271118164,271041471
fw,-63.9512176513671,-76.2479400634765,68.2811050415039,42.5880622863769,271058138
fw,-65.7994232177734,-75.6786651611328,80.3587036132812,30.8897762298584,271074805
fw,-67.4522628784179,-75.2799072265625,70.4868469238281,20.8480587005615,271091472
fw,-69.0245819091796,-75.0070648193359,67.6572265625,14.3781547546386,271108139
fw,-70.2013702392578,-74.8632278442382,56.8092422485351,7.0178484916687,271124806
fw,-70.3279571533203,-74.901496887207,5.35604524612426,-5.03058099746704,271141473
fw,-70.5176773071289,-75.1828079223632,4.88763236999511,-21.0530204772949,271158140
fw,-71.7783432006836,-75.9058761596679,44.1826171875,-48.1576843261718,271174807
fw,-73.9576339721679,-77.0422973632812,105.172225952148,-71.9000625610351,271191474
fw,-75.2442550659179,-78.6555404663086,70.7586212158203,-99.6845703125,271208141
fw,-75.4692993164062,-80.8951950073242,4.03905534744262,-136.556655883789,271224808
fw,-75.8800811767578,-84.0977783203125,14.561408996582,-193.607162475585,271241475
fw,-76.553955078125,-88.0008087158203,-4.90772104263305,-248.212158203125,271258142
fw,-77.5434417724609,-86.5983810424804,-7.92671537399292,-274.790985107421,271274809
fw,-78.7360000610351,-82.1227416992187,23.2259788513183,-264.507385253906,271291476
fw,-79.8546981811523,-79.0933303833007,30.7517147064209,-183.514389038085,271308143
fw,-80.9871826171875,-76.4831008911132,30.0203208923339,-160.046722412109,271324810
fw,-82.3329467773437,-72.8780288696289,51.9446830749511,-221.320419311523,271341477
fw,-83.7132492065429,-69.0697860717773,61.3674201965332,-233.096984863281,271358144
fw,-84.8649673461914,-65.7854232788086,53.2346801757812,-200.130599975585,271374811
fw,-85.5536270141601,-63.5970115661621,29.6785221099853,-132.931076049804,271391478
fw,-86.2166976928711,-62.0026359558105,36.8954544067382,-95.7989196777343,271408145
fw,-86.8954391479492,-60.7162704467773,49.6314353942871,-76.3816299438476,271424812
fw,-87.5602493286132,-59.7712860107421,65.7753143310546,-55.9156799316406,271441479
fw,-87.6401748657226,-58.7363700866699,66.2456970214843,-62.1883888244628,271458146
fw,-87.0003662109375,-57.892463684082,51.3729057312011,-51.7859535217285,271474813
fw,-86.0710525512695,-57.319766998291,50.2376289367675,-36.8557624816894,271491480
fw,-85.0617218017578,-56.9310607910156,54.9926033020019,-27.6677856445312,271508147
fw,-84.0120849609375,-56.7830123901367,64.0535812377929,-14.5478439331054,271524814
fw,-82.9218063354492,-56.6307563781738,65.7428207397461,-14.626329421997,271541481
fw,-81.8440856933593,-57.3790473937988,57.6616401672363,40.2679824829101,271558148
fw,-80.7317657470703,-58.6827239990234,54.891616821289,72.9912490844726,271574815
fw,-79.5956726074218,-60.7948036193847,54.6793708801269,121.794212341308,271591482
fw,-78.390640258789,-62.7520103454589,58.9251136779785,112.055282592773,271608149
fw,-77.3171234130859,-64.2110443115234,49.1415634155273,80.8984756469726,271624816
fw,-76.569709777832,-65.2655868530273,26.1729259490966,58.8958206176757,271641483
fw,-76.0282897949218,-66.4952545166015,16.8067836761474,71.6929168701171,271658150
fw,-75.6275253295898,-67.2077178955078,13.5609798431396,42.1740951538085,271674817
fw,-75.2514877319336,-67.6086654663086,17.9766998291015,25.5879936218261,271691484
fw,-74.9421234130859,-68.6295471191406,17.3169288635253,62.0886611938476,271708151
fw,-74.8915786743164,-70.3478240966796,-1.48105871677398,102.391555786132,271724818
fw,-75.2873306274414,-71.6451644897461,-32.1230697631835,79.8309020996093,271741485
fw,-76.1142272949218,-72.2330780029296,-59.6693115234375,38.659381866455,271758152
fw,-77.1833419799804,-72.556396484375,-71.0690994262695,23.0732707977294,271774819
fw,-78.6105270385742,-73.1860275268554,-81.9960708618164,32.9864273071289,271791486
fw,-80.4955596923828,-74.3335342407226,-87.1982727050781,55.7758712768554,271808153
fw,-82.7599334716796,-75.7041778564453,-83.9662094116211,68.3340454101562,271824820
fw,-85.7638168334961,-76.8509979248046,-113.854179382324,60.5425376892089,271841487
fw,-89.4773559570312,-78.1317977905273,-156.125732421875,73.7781982421875,271858154
fw,-86.5879211425781,-79.8063430786132,-178.933456420898,98.6335983276367,271874821
fw,-83.3094482421875,-81.6775360107421,-160.024032592773,111.17667388916,271891488
fw,-80.4617080688476,-83.5697174072265,-152.642578125,112.544204711914,271908155
fw,-77.4458541870117,-85.1105194091796,-172.127822875976,89.6541442871093,271924822
fw,-74.1187744140625,-86.3736114501953,-195.95327758789,71.2693862915039,271941489
fw,-70.7199478149414,-87.6756057739257,-196.908752441406,76.9322128295898,271958156
fw,-67.7803192138671,-88.9115982055664,-159.152526855468,86.3964767456054,271974823
fw,-65.4973983764648,-89.0262222290039,-108.309059143066,87.9775009155273,271991490
fw,-63.6843643188476,-87.9809417724609,-81.8933486938476,73.6962585449218,272008157
fw,-62.1901779174804,-86.8628158569336,-63.8629531860351,65.3793869018554,272024824
fw,-60.9856605529785,-85.7552261352539,-47.2618331909179,60.2984046936035,272041491
fw,-60.0412101745605,-84.5281143188476,-37.0777320861816,67.2104110717773,272058158
fw,-59.3357543945312,-83.3219757080078,-32.4511222839355,68.0909423828125,272074825
fw,-58.8151969909668,-82.1780319213867,-33.6056938171386,67.0331268310546,272091492
fw,-58.4958229064941,-81.0616302490234,-30.1327247619628,66.6865005493164,272108159
fw,-58.4255142211914,-79.9786224365234,-22.5305652618408,64.0936431884765,272124826
fw,-58.8634948730468,-78.8586044311523,8.58407974243164,65.4073410034179,272141493
fw,-59.8177795410156,-77.744514465332,37.9674034118652,64.6867980957031,272158160
fw,-61.8911247253418,-76.8244400024414,111.554862976074,52.8176727294921,272174827
fw,-64.1010589599609,-76.1715316772461,113.20238494873,36.3337020874023,272191494
fw,-66.4375457763671,-75.6964492797851,116.291687011718,25.7413311004638,272208161
fw,-68.8856506347656,-75.3578872680664,124.571968078613,18.0889949798584,272224828
fw,-70.9169616699218,-75.1743774414062,94.5782623291015,9.48496913909912,272241495
fw,-72.173095703125,-75.1614990234375,60.002155303955,-0.615641057491302,272258162
fw,-72.0641555786132,-75.466079711914,-11.1111640930175,-20.3989830017089,272274829
fw,-71.9713287353515,-76.0998001098632,-13.8960609436035,-40.5394020080566,272291496
fw,-73.058364868164,-77.1391906738281,51.5440864562988,-64.8716812133789,272308163
fw,-74.856689453125,-78.5434494018554,101.885772705078,-86.7490005493164,272324830
fw,-75.6937179565429,-80.4558486938476,34.2816352844238,-116.680122375488,272341497
fw,-75.9800415039062,-83.2149963378906,-1.92843866348266,-167.340408325195,272358164
fw,-76.4920501708984,-87.1925811767578,13.5392818450927,-242.049728393554,272374831
fw,-77.2173538208007,-88.0750198364257,-7.6319580078125,-265.869323730468,272391498
fw,-78.1352233886718,-83.22216796875,-12.0679597854614,-284.906188964843,272408165
fw,-79.2654953002929,-79.9547500610351,18.5210247039794,-194.050323486328,272424832
fw,-80.6390991210937,-77.7076797485351,56.428295135498,-139.860290527343,272441499
fw,-81.8542556762695,-74.9482345581054,49.047077178955,-170.366165161132,272458166
fw,-83.2439880371093,-71.0411148071289,63.3744659423828,-239.222106933593,272474833
fw,-84.5882873535156,-67.6718826293945,68.5282287597656,-205.73484802246,272491500
fw,-85.5578536987304,-65.1912536621093,53.2655296325683,-151.100952148437,272508167
fw,-86.0071792602539,-63.4031715393066,26.8394622802734,-108.603889465332,272524834
fw,-86.3540725708007,-61.839988708496,26.7712898254394,-93.933479309082,272541501
fw,-86.7218322753906,-60.4057579040527,36.6452255249023,-85.7827682495117,272558168
fw,-87.0584259033203,-59.2598762512207,51.7524642944335,-69.5350799560546,272574835
fw,-87.0303421020507,-58.3857765197753,62.4063072204589,-54.2330131530761,272591502
fw,-86.4985961914062,-58.1132774353027,58.4895553588867,-18.599416732788,272608169
fw,-85.7296447753906,-58.127815246582,56.0894470214843,-2.23324131965637,272624836
fw,-84.8518600463867,-58.1978378295898,58.7552223205566,1.20658814907073,272641503
fw,-83.934211730957,-58.064208984375,59.2784461975097,-12.5525360107421,272658170
fw,-83.0001907348632,-58.3278007507324,56.78369140625,8.77426147460937,272674837
fw,-82.0394821166992,-59.2470436096191,54.2813301086425,45.6183891296386,272691504
fw,-81.046630859375,-61.0398254394531,52.1295166015625,99.7755966186523,272708171
fw,-79.9967651367187,-62.903938293457,53.9738044738769,105.537536621093,272724838
fw,-78.9990921020507,-64.0331420898437,49.0890426635742,61.7365646362304,272741505
fw,-78.1471862792968,-64.959602355957,40.9066276550293,51.7559356689453,272758172
fw,-77.4254150390625,-66.0447463989257,35.3556022644043,63.1355438232421,272774839
fw,-76.8280639648437,-66.8485260009765,30.3734149932861,46.5891189575195,272791506
fw,-76.3477935791015,-67.0920715332031,27.5917129516601,13.3509197235107,272808173
fw,-76.0296630859375,-67.6982803344726,20.5717658996582,35.3550453186035,272824840
fw,-75.9124526977539,-69.3681411743164,7.30202722549438,97.8471603393554,272841507
fw,-76.178726196289,-71.4491577148437,-17.7445011138916,123.591209411621,272858174
fw,-76.9854049682617,-72.5902099609375,-50.2153244018554,70.8013381958007,272874841
fw,-78.0765838623046,-72.8157958984375,-62.5134582519531,18.1221885681152,272891508
fw,-79.3187637329101,-72.8313293457031,-62.0505485534668,1.03843832015991,272908175
fw,-80.8114318847656,-73.3810195922851,-61.4907531738281,21.7633934020996,272924842
fw,-82.6688537597656,-74.508071899414,-66.2550888061523,52.339729309082,272941509
fw,-84.9584579467773,-75.6958389282226,-85.1643524169921,60.3094253540039,272958176
fw,-87.295425415039,-76.9324340820312,-139.104858398437,70.4896697998046,272974843
fw,-86.1788482666015,-78.3751907348632,-178.737640380859,84.8764724731445,272991510
fw,-83.1692504882812,-79.9084854125976,-184.95310974121,90.4277267456054,273008177
fw,-80.3054580688476,-81.6356658935546,-187.220138549804,102.757804870605,273024844
fw,-77.5206604003906,-83.4094772338867,-182.508758544921,107.550552368164,273041511
fw,-74.35400390625,-84.3563232421875,-202.837936401367,60.5699882507324,273058178
fw,-70.6111526489257,-85.1079177856445,-234.43537902832,55.0157241821289,273074845
fw,-67.4075546264648,-85.9921951293945,-194.149581909179,79.996109008789,273091512
fw,-65.1505813598632,-86.8273773193359,-126.2769241333,100.005432128906,273108179
fw,-63.4810028076171,-87.3059387207031,-85.0136337280273,90.5570526123046,273124846
fw,-62.0685729980468,-87.1669692993164,-69.5149459838867,66.0871353149414,273141513
fw,-60.9449653625488,-86.4339981079101,-51.1830978393554,62.1929016113281,273158180
fw,-60.0394821166992,-85.3537521362304,-36.9363288879394,63.9502143859863,273174847
fw,-59.3701286315918,-84.2278289794921,-29.1944618225097,66.6547470092773,273191514
fw,-58.8429565429687,-83.1917343139648,-33.6027946472168,67.0935516357421,273208181
fw,-58.4412384033203,-82.2849502563476,-40.9071998596191,60.4189872741699,273224848
fw,-58.2849769592285,-81.2971038818359,-31.7478942871093,63.5704498291015,273241515
fw,-58.3622665405273,-80.1581573486328,-21.0836963653564,69.9804992675781,273258182
fw,-59.1871261596679,-79.0512313842773,30.4258670806884,65.1200866699218,273274849
fw,-61.1214981079101,-78.1743469238281,109.78751373291,49.0797004699707,273291516
fw,-63.107177734375,-77.4959182739257,101.484909057617,36.6272659301757,273308183
fw,-65.0425033569336,-76.8155975341796,95.3223571777343,37.562400817871,273324850
fw,-66.84912109375,-76.184585571289,88.4206237792968,35.2640914916992,273341517
fw,-68.5999450683593,-75.7181015014648,82.8278198242187,25.6792430877685,273358184
fw,-70.3961715698242,-75.5258026123046,95.0909957885742,9.83457374572753,273374851
fw,-71.4542999267578,-75.6703567504882,52.7359237670898,-10.7040901184082,273391518
fw,-71.7735824584961,-76.0565109252929,9.43005847930908,-26.7948093414306,273408185
fw,-72.5540237426757,-76.6208724975586,33.0073509216308,-38.4987182617187,273424852
fw,-73.9662399291992,-77.5358581542968,83.2070770263671,-60.5544509887695,273441519
fw,-74.9683074951171,-78.9508361816406,60.3684844970703,-92.2937240600586,273458186
fw,-75.5014419555664,-80.944839477539,13.1802721023559,-128.606079101562,273474853
fw,-76.1073608398437,-83.7248992919921,11.4665813446044,-182.473419189453,273491520
fw,-76.9795532226562,-86.7759704589843,2.49090909957885,-251.011260986328,273508187
fw,-78.1547241210937,-86.0049209594726,9.50946617126464,-262.265319824218,273524854
fw,-79.6366500854492,-82.3232498168945,50.4304313659668,-249.095779418945,273541521
fw,-80.8550949096679,-79.5595016479492,40.6765518188476,-165.656066894531,273558188
fw,-81.9183273315429,-76.9835662841796,27.550874710083,-156.040451049804,273574855
fw,-83.3048782348632,-73.9623184204101,55.8437881469726,-184.251037597656,273591522
fw,-84.8401489257812,-70.8420639038086,71.6555099487304,-189.428924560546,273608189
fw,-86.0030670166015,-68.2198486328125,46.4502525329589,-158.704544067382,273624856
fw,-86.8294830322265,-66.1305923461914,26.541748046875,-125.632369995117,273641523
fw,-87.6831130981445,-64.4231185913086,36.6088638305664,-102.077140808105,273658190
fw,-88.5983505249023,-62.7174682617187,51.7975196838378,-102.140899658203,273674857
fw,-89.0670776367187,-61.084129333496,56.1784858703613,-98.1668853759765,273691524
fw,-88.4644317626953,-59.6687850952148,48.330955505371,-86.4609603881836,273708191
fw,-87.5842742919921,-58.5082969665527,38.2859840393066,-72.6423645019531,273724858
fw,-86.6086349487304,-57.9683265686035,42.2949485778808,-35.4251518249511,273741525
fw,-85.5596160888671,-57.6536903381347,50.8333778381347,-23.0031757354736,273758192
fw,-84.4836349487304,-57.3956031799316,55.9468040466308,-19.592134475708,273774859
fw,-83.3404159545898,-57.4943962097168,62.7091407775878,3.27688074111938,273791526
fw,-82.2078399658203,-57.7702445983886,59.4808464050293,13.0818347930908,273808193
fw,-81.0822067260742,-58.7623329162597,56.4894142150878,53.7623977661132,273824860
fw,-79.9234466552734,-60.4748497009277,57.7360000610351,96.3877258300781,273841527
fw,-78.7627334594726,-62.2634735107421,57.7025604248046,101.116027832031,273858194
fw,-77.678482055664,-63.6400756835937,52.668830871582,76.6327285766601,273874861
fw,-76.8685760498046,-64.5573348999023,34.7200813293457,50.1111297607421,273891528
fw,-76.2133026123046,-65.6106643676757,27.9000568389892,60.2381362915039,273908195
fw,-75.6390838623046,-66.5914611816406,26.2678241729736,57.3255958557128,273924862
fw,-75.1338348388671,-67.0802612304687,25.7767581939697,28.8552207946777,273941529
fw,-74.6605377197265,-67.9273223876953,27.7440013885498,51.0437698364257,273958196
fw,-74.3667755126953,-69.6058959960937,16.8118057250976,99.1358184814453,273974863
fw,-74.4580078125,-71.3969039916992,-7.85012102127075,107.908012390136,273991530
fw,-75.1024703979492,-72.3075408935546,-42.814453125,59.7911949157714,274008197
fw,-76.1489639282226,-72.5778121948242,-65.0506210327148,22.3643779754638,274024864
fw,-77.4604797363281,-72.938003540039,-73.7266769409179,21.3082103729248,274041531
fw,-79.2082366943359,-73.828872680664,-87.1874389648437,39.5758323669433,274058198
fw,-81.292251586914,-75.0853729248046,-90.1496963500976,59.5205078125,274074865
fw,-83.5345840454101,-76.2688293457031,-85.806526184082,60.3229866027832,274091532
fw,-86.3551406860351,-77.3952102661132,-136.942153930664,63.8319625854492,274108199
fw,-87.5176162719726,-78.7442169189453,-190.165344238281,78.6725692749023,274124866
fw,-84.7138748168945,-80.5323257446289,-192.795776367187,105.456199645996,274141533
fw,-81.8490982055664,-82.3205947875976,-175.026107788085,105.6435546875,274158200
fw,-79.1397094726562,-83.9336013793945,-167.458236694335,93.5150451660156,274174867
fw,-75.9795532226562,-85.1600875854492,-196.346771240234,69.9165115356445,274191534
fw,-72.2679443359375,-86.3232650756836,-227.380935668945,69.658935546875,274208201
fw,-68.8694915771484,-87.532485961914,-200.618835449218,85.4188232421875,274224868
fw,-66.2997360229492,-88.483154296875,-135.713012695312,90.2442550659179,274241535
fw,-64.3905868530273,-88.6166152954101,-90.8232803344726,75.8334274291992,274258202
fw,-62.7725181579589,-87.8619232177734,-72.5911331176757,66.3509826660156,274274869
fw,-61.4649200439453,-86.7215957641601,-52.450927734375,67.1260604858398,274291536
fw,-60.4677124023437,-85.3717498779296,-33.8164367675781,72.8785400390625,274308203
fw,-59.7460708618164,-84.0491867065429,-21.4810981750488,72.2686157226562,274324870
fw,-59.1961441040039,-82.8891220092773,-24.2673797607421,66.9455184936523,274341537
fw,-58.8431930541992,-81.7291107177734,-25.7090244293212,70.1891098022461,274358204
fw,-58.6235160827636,-80.5556259155273,-30.4821472167968,70.8667449951171,274374871
fw,-58.7497634887695,-79.3774032592773,-11.9112691879272,69.507583618164,274391538
fw,-59.2178306579589,-78.1907958984375,6.57476568222045,68.9295425415039,274408205
fw,-60.5962829589843,-77.1576309204101,64.1148681640625,59.1397590637207,274424872
fw,-63.1110496520996,-76.3150405883789,140.807647705078,47.3861808776855,274441539
fw,-65.1536560058593,-75.62548828125,96.1202392578125,37.9814758300781,274458206
fw,-67.5028610229492,-74.9524154663086,120.954116821289,37.6321067810058,274474873
fw,-69.1176986694336,-74.3901748657226,64.6001052856445,32.0973014831543,274491540
fw,-70.5299606323242,-73.9922866821289,65.0948028564453,23.1435985565185,274508207
fw,-71.0418395996093,-73.8342590332031,26.4563980102539,8.16349124908447,274524874
fw,-70.4928970336914,-73.9844589233398,-25.9059772491455,-11.7879438400268,274541541
fw,-70.658203125,-74.4233245849609,0.148680388927459,-30.2838439941406,274558208
fw,-72.1584091186523,-75.1462326049804,54.1251945495605,-47.5860176086425,274574875
fw,-74.0988540649414,-76.3427352905273,101.494483947753,-75.2487869262695,274591542
fw,-74.9529495239257,-78.2834701538086,45.5596618652343,-119.180519104003,274608209
fw,-75.2105178833007,-81.0090103149414,2.71539282798767,-166.675964355468,274624876
fw,-75.8243255615234,-84.5537109375,11.8017683029174,-214.360046386718,274641543
fw,-76.7363586425781,-88.6555023193359,-18.7017498016357,-266.191833496093,274658210
fw,-77.8573837280273,-86.0437850952148,-14.4856243133544,-274.195373535156,274674877
fw,-79.1330795288086,-81.7489318847656,31.7058067321777,-255.247756958007,274691544
fw,-80.3297576904296,-78.688980102539,31.1168899536132,-185.742248535156,274708211
fw,-81.8294906616211,-75.637580871582,57.2485237121582,-186.55076599121,274724878
fw,-83.3349380493164,-71.9259033203125,66.9746627807617,-225.749877929687,274741545
fw,-84.8556671142578,-68.517593383789,74.1479110717773,-206.474243164062,274758212
fw,-85.9662399291992,-65.7175979614257,43.4175987243652,-169.413711547851,274774879
fw,-86.8696899414062,-63.4944839477539,31.5147552490234,-133.873077392578,274791546
fw,-87.7676086425781,-61.4286727905273,41.7808990478515,-123.26985168457,274808213
fw,-88.8475036621093,-59.5406303405761,70.9425888061523,-112.026786804199,274824880
fw,-88.8084335327148,-58.2137489318847,64.7877502441406,-79.6282730102539,274841547
fw,-87.8404312133789,-57.1298675537109,52.5233345031738,-66.931526184082,274858214
fw,-86.7700805664062,-56.6872596740722,49.6270332336425,-28.7867641448974,274874881
fw,-85.6545867919921,-56.570384979248,55.1070327758789,-10.5303382873535,274891548
fw,-84.5323410034179,-56.4304656982421,57.3804283142089,-11.9795589447021,274908215
fw,-83.388557434082,-56.3465309143066,58.0746459960937,-8.09437942504882,274924882
fw,-82.192268371582,-57.0473594665527,61.1763381958007,36.275634765625,274941549
fw,-81.0081787109375,-58.3071136474609,58.5464630126953,65.3052749633789,274958216
fw,-79.7492904663086,-60.2586059570312,60.9925842285156,108.784683227539,274974883
fw,-78.4996719360351,-62.0216445922851,60.0638999938964,100.662078857421,274991550
fw,-77.5494842529296,-63.1714515686035,39.5618782043457,63.4197883605957,275008217
fw,-76.920539855957,-64.0979690551757,17.9577178955078,51.5756912231445,275024884
fw,-76.484634399414,-65.4225921630859,9.17207908630371,77.8893432617187,275041551
fw,-76.0986328125,-66.5585784912109,11.618703842163,68.7703552246093,275058218
fw,-75.7166061401367,-67.197395324707,16.7981224060058,39.659065246582,275074885
fw,-75.3389587402343,-68.2550888061523,21.412389755249,63.8139114379882,275091552
fw,-75.1324081420898,-69.9805755615234,9.309326171875,102.644889831542,275108219
fw,-75.3191146850586,-71.3751449584961,-19.4733924865722,87.957534790039,275124886
fw,-75.9834213256836,-71.8246002197265,-50.4186706542968,34.0726432800293,275141553
fw,-76.9464874267578,-71.9041290283203,-65.8676528930664,10.2549104690551,275158220
fw,-78.1855392456054,-72.3114395141601,-76.8863830566406,18.9565525054931,275174887
fw,-79.9071655273437,-73.4635314941406,-91.7144775390625,53.3359413146972,275191554
fw,-82.021987915039,-75.0592803955078,-90.7622756958007,77.4590606689453,275208221
fw,-84.5560455322265,-76.4063186645507,-92.3583297729492,69.4506301879882,275224888
fw,-87.8107223510742,-77.7556457519531,-134.078369140625,77.3306655883789,275241555
fw,-87.9900665283203,-79.4911956787109,-173.516204833984,102.563201904296,275258222
fw,-84.3478546142578,-81.3515548706054,-184.742218017578,112.457687377929,275274889
fw,-81.2583923339843,-82.9776458740234,-159.462203979492,100.278923034667,275291556
fw,-78.3493423461914,-84.2966613769531,-162.276336669921,78.7267074584961,275308223
fw,-75.0596466064453,-85.6348419189453,-194.408264160156,74.9319610595703,275324890
fw,-71.4904327392578,-87.1955795288086,-214.628631591796,84.205451965332,275341557
fw,-68.3418655395507,-88.8278045654296,-176.798690795898,91.5629501342773,275358224
fw,-65.9185562133789,-89.6678009033203,-121.945571899414,82.2133026123046,275374891
fw,-63.9592018127441,-88.7095718383789,-94.2847824096679,59.3805122375488,275391558
fw,-62.3221435546875,-87.6466522216796,-73.8474197387695,62.6810417175293,275408225
fw,-61.0367279052734,-86.4277420043945,-51.4179573059082,70.6515960693359,275424892
fw,-60.1612510681152,-85.2233276367187,-29.5175914764404,67.9708480834961,275441559
fw,-59.5295372009277,-84.0987091064453,-22.1761894226074,63.479377746582,275458226
fw,-59.0789375305175,-82.9880676269531,-23.9939556121826,63.7621726989746,275474893
fw,-58.7870445251464,-81.9098815917968,-28.4413356781005,62.8842468261718,275491560
fw,-58.7455139160156,-80.8308944702148,-21.6945495605468,63.2966690063476,275508227
fw,-59.0708427429199,-79.7726898193359,-1.84692585468292,61.7963981628418,275524894
fw,-59.8663825988769,-78.7179870605468,25.6731872558593,61.3079147338867,275541561
fw,-61.677490234375,-77.7506256103515,91.4604187011718,55.816665649414,275558228
fw,-64.0128479003906,-76.8922271728515,121.671936035156,49.3400001525878,275574895
fw,-66.0485458374023,-76.1753921508789,92.1424026489257,40.9293556213378,275591562
fw,-68.148941040039,-75.6027069091796,100.28172302246,32.5643730163574,275608229
fw,-69.6936340332031,-75.0884475708007,70.5207443237304,29.3695755004882,275624896
fw,-71.1421966552734,-74.7331924438476,70.5712280273437,19.9121017456054,275641563
fw,-71.3006820678711,-74.8225631713867,0.0162322558462619,-6.96511793136596,275658230
fw,-71.0785751342773,-75.270881652832,-14.4024448394775,-28.7380447387695,275674897
fw,-71.7616729736328,-75.8907775878906,28.4645652770996,-39.3726539611816,275691564
fw,-73.4769592285156,-76.8177413940429,79.1878890991211,-57.966983795166,275708231
fw,-74.9405136108398,-78.2895584106445,70.41845703125,-90.3037033081054,275724898
fw,-75.4830551147461,-80.4539413452148,13.7883243560791,-131.159912109375,275741565
fw,-75.7937545776367,-83.4841079711914,11.5973997116088,-181.882507324218,275758232
fw,-76.2688980102539,-87.6004486083984,1.81734383106231,-245.838806152343,275774899
fw,-77.0127944946289,-87.8777236938476,-11.1149377822875,-265.013793945312,275791566
fw,-77.9522705078125,-83.2430648803711,-7.2079381942749,-272.200744628906,275808233
fw,-79.2159729003906,-79.8439407348632,39.3990478515625,-205.598754882812,275824900
fw,-80.4418182373046,-77.5406036376953,46.1117210388183,-143.925537109375,275841567
fw,-81.6214065551757,-74.6336212158203,37.5880050659179,-179.539001464843,275858234
fw,-83.0962371826171,-70.9972991943359,60.9416923522949,-222.815567016601,275874901
fw,-84.5559387207031,-67.8116378784179,71.2333831787109,-193.985900878906,275891568
fw,-85.6475143432617,-65.5537414550781,57.58056640625,-137.347946166992,275908235
fw,-86.3010101318359,-63.8968315124511,35.7940864562988,-100.567947387695,275924902
fw,-86.6848907470703,-62.3672218322753,26.5263118743896,-91.9880752563476,275941569
fw,-87.0173187255859,-60.9828720092773,33.7524490356445,-82.9080734252929,275958236
fw,-87.2856063842773,-60.018756866455,45.5894737243652,-58.5056953430175,275974903
fw,-87.2256927490234,-59.2060661315918,51.867130279541,-50.8932380676269,275991570
fw,-86.7465286254882,-58.868350982666,50.3558006286621,-22.9499797821044,276008237
fw,-85.9866333007812,-58.6393661499023,52.16796875,-18.1567211151123,276024904
fw,-85.1191864013671,-58.4823837280273,57.8416404724121,-14.8391714096069,276041571
fw,-84.2028579711914,-58.2156410217285,62.0576019287109,-21.6171588897705,276058238
fw,-83.2449493408203,-58.7175788879394,60.9999847412109,25.0277271270751,276074905
fw,-82.2441711425781,-59.871238708496,56.6562271118164,61.5932884216308,276091572
fw,-81.2007369995117,-61.3816146850585,52.4569511413574,83.3715591430664,276108239
fw,-80.1074752807617,-63.279010772705,52.3940200805664,107.415481567382,276124906
fw,-79.0522537231445,-64.559341430664,48.9765739440918,69.5061798095703,276141573
fw,-78.1474533081054,-65.4019012451171,38.5339279174804,45.4398231506347,276158240
fw,-77.3591995239257,-66.2783432006836,34.0286407470703,49.6084556579589,276174907
fw,-76.7398147583007,-66.9267425537109,28.6606788635253,37.3205375671386,276191574
fw,-76.2293014526367,-67.2069015502929,28.5850009918212,16.2522201538085,276208241
fw,-75.8119964599609,-67.9603271484375,27.3600254058837,44.6534576416015,276224908
fw,-75.5694122314453,-69.581558227539,15.9378519058227,94.9761657714843,276241575
fw,-75.674934387207,-71.3552932739257,-8.25851535797119,105.850112915039,276258242
fw,-76.327651977539,-72.2822494506836,-44.0112495422363,58.6343116760253,276274909
fw,-77.3739166259765,-72.5937957763671,-66.0300598144531,22.8866519927978,276291576
fw,-78.6483383178711,-72.8589096069336,-70.7007064819336,12.4895944595336,276308243
fw,-80.3609619140625,-73.6569213867187,-79.8385009765625,34.7927093505859,276324910
fw,-82.4599838256836,-74.8038711547851,-81.8471527099609,55.4175071716308,276341577
fw,-84.9036102294921,-75.8367462158203,-85.5936050415039,53.6236152648925,276358244
fw,-87.6955642700195,-76.893569946289,-132.640853881835,60.3026428222656,276374911
fw,-87.0564956665039,-78.2399520874023,-172.116455078125,78.9747543334961,276391578
fw,-83.8191223144531,-79.8961410522461,-179.615280151367,97.6606826782226,276408245
