Label,Left_Hip_q,Right_Hip_q,Left_Hip_qd,Right_Hip_qd,SampleTimeFine
fw,-80.8646697998046,-80.8676605224609,-184.099990844726,81.5439987182617,1157942542
fw,-77.8681411743164,-82.2614517211914,-183.663681030273,84.369514465332,1157959209
fw,-74.4111785888671,-83.758674621582,-211.160247802734,87.5179443359375,1157975876
fw,-70.6683883666992,-85.3405380249023,-227.038131713867,89.4403457641601,1157992543
fw,-67.8593597412109,-86.8123626708984,-161.231750488281,82.4775466918945,1158009210
fw,-66.0491027832031,-88.1084518432617,-83.2147979736328,74.7709350585937,1158025877
fw,-64.6529083251953,-89.2514038085937,-53.4790115356445,67.4819641113281,1158042544
fw,-63.2898941040039,-89.642822265625,-57.2264060974121,60.8521499633789,1158059211
fw,-62.045555114746,-88.6345596313476,-55.4076194763183,60.4321212768554,1158075878
fw,-60.7520065307617,-87.7291030883789,-67.624771118164,50.4043846130371,1158092545
fw,-59.6336517333984,-86.8810272216796,-63.9023284912109,44.6989059448242,1158109212
fw,-58.559226989746,-85.976936340332,-75.6936874389648,48.4934883117675,1158125879
fw,-57.7921981811523,-85.0056228637695,-65.9448013305664,54.5182800292968,1158142546
fw,-57.3815689086914,-84.0790405273437,-49.9706001281738,53.2081222534179,1158159213
fw,-57.3481864929199,-83.1900405883789,-31.4625129699707,51.5404434204101,1158175880
fw,-57.9395751953125,-82.2750854492187,6.96504545211792,53.2717781066894,1158192547
fw,-59.7695388793945,-81.373291015625,90.269302368164,51.8849334716796,1158209214
fw,-61.5568008422851,-80.4818649291992,71.0232162475586,50.2588729858398,1158225881
fw,-63.5733642578125,-79.6586608886718,93.8814392089843,45.583641052246,1158242548
fw,-65.2950439453125,-78.7637481689453,77.4698181152343,50.7506217956543,1158259215
fw,-66.1439743041992,-77.8798294067382,8.43809413909912,51.4987716674804,1158275882
fw,-67.1031951904296,-77.1068496704101,27.7915420532226,45.8202514648437,1158292549
fw,-67.784194946289,-76.5664749145507,28.1453189849853,31.9078845977783,1158309216
fw,-68.0851898193359,-76.3668518066406,16.5719985961914,10.4554805755615,1158325883
fw,-68.8061370849609,-76.7325820922851,32.1910934448242,-24.8117809295654,1158342550
fw,-70.5577697753906,-77.5453033447265,74.6161499023437,-52.3746757507324,1158359217
fw,-72.2971496582031,-78.8172225952148,103.941688537597,-79.3755569458007,1158375884
fw,-73.3210144042968,-80.6228332519531,59.5762710571289,-109.7915725708,1158392551
fw,-73.9824066162109,-83.0458526611328,30.0821437835693,-144.729217529296,1158409218
fw,-74.9943161010742,-85.9828262329101,39.8496856689453,-173.953872680664,1158425885
fw,-76.411994934082,-88.8678894042968,53.1521644592285,-191.675186157226,1158442552
fw,-78.0629348754882,-86.1579437255859,61.3272094726562,-257.96255493164,1158459219
fw,-79.7180786132812,-81.2356796264648,66.1469116210937,-298.441436767578,1158475886
fw,-81.6117630004882,-77.088150024414,80.8469619750976,-255.580703735351,1158492553
fw,-83.5725173950195,-74.0095672607421,96.1267166137695,-193.533493041992,1158509220
fw,-85.1953964233398,-71.5657577514648,82.2173309326171,-154.52310180664,1158525887
fw,-86.6055831909179,-68.3918151855468,68.1226196289062,-198.570343017578,1158542554
fw,-87.8122482299804,-64.8330459594726,51.225357055664,-221.69107055664,1158559221
fw,-88.7694931030273,-61.7879257202148,37.0289802551269,-186.229400634765,1158575888
fw,-89.6935424804687,-59.1952819824218,39.5896415710449,-155.205596923828,1158592555
fw,-89.2944564819336,-57.4340705871582,47.1282119750976,-104.138778686523,1158609222
fw,-88.1638946533203,-55.9032897949218,53.360740661621,-90.1542587280273,1158625889
fw,-87.0343017578125,-54.6300811767578,51.8858413696289,-75.7799758911132,1158642556
fw,-85.9439239501953,-53.3274269104003,49.3265266418457,-80.3679275512695,1158659223
fw,-84.8962020874023,-51.8737258911132,47.4801597595214,-92.0096969604492,1158675890
fw,-83.9015350341796,-50.5757980346679,46.6433563232421,-83.5288543701171,1158692557
fw,-82.9231338500976,-49.8239784240722,46.0370483398437,-50.2535247802734,1158709224
fw,-81.9442367553711,-49.8476829528808,46.0454559326171,-4.16492843627929,1158725891
fw,-80.9894027709961,-50.6962203979492,43.6469383239746,46.710823059082,1158742558
fw,-80.0146255493164,-52.9219245910644,44.178367614746,127.880714416503,1158759225
fw,-79.1196594238281,-56.2989921569824,39.2395095825195,197.276138305664,1158775892
fw,-78.3583908081054,-59.7345733642578,29.9496765136718,198.899505615234,1158792559
fw,-77.7460556030273,-62.449405670166,18.5885887145996,157.495452880859,1158809226
fw,-77.193618774414,-64.5222015380859,13.7495746612548,120.126472473144,1158825893
fw,-76.6095428466796,-66.0399398803711,17.857343673706,86.075439453125,1158842560
fw,-75.9841766357421,-67.8441619873046,24.4697704315185,104.163825988769,1158859227
fw,-75.4436645507812,-68.6358871459961,23.5111446380615,43.1430206298828,1158875894
fw,-75.1996307373046,-69.1264190673828,9.22841358184814,25.6722927093505,1158892561
fw,-75.2987670898437,-69.9091796875,-9.59193134307861,44.0719871520996,1158909228
fw,-75.6542358398437,-71.6693115234375,-22.0028743743896,104.993072509765,1158925895
fw,-76.4322891235351,-72.987808227539,-43.8488159179687,80.7216186523437,1158942562
fw,-77.6991958618164,-72.8913116455078,-69.9251174926757,-1.71912968158721,1158959229
fw,-79.5416870117187,-72.7728652954101,-97.49853515625,-4.97173118591308,1158975896
fw,-82.0425415039062,-73.1797714233398,-125.256874084472,15.6052951812744,1158992563
fw,-84.8493423461914,-74.1487197875976,-127.29231262207,43.342300415039,1159009230
fw,-87.852424621582,-75.4737854003906,-137.843536376953,68.2208557128906,1159025897
fw,-88.1099014282226,-76.6517105102539,-125.230491638183,65.9611129760742,1159042564
fw,-85.504165649414,-78.0362167358398,-129.8740234375,80.4788742065429,1159059231
fw,-82.5680618286132,-79.5208053588867,-174.580154418945,87.0560836791992,1159075898
fw,-79.6067581176757,-81.1251373291015,-181.242034912109,95.5614318847656,1159092565
fw,-76.4336013793945,-82.9338684082031,-195.293350219726,107.674743652343,1159109232
fw,-72.6148071289062,-84.5916595458984,-235.996704101562,97.0430450439453,1159125899
fw,-68.9927368164062,-86.0374526977539,-218.117614746093,83.9619140625,1159142566
fw,-66.5806427001953,-87.2268829345703,-130.75047302246,73.6758651733398,1159159233
fw,-64.9932403564453,-88.2284469604492,-67.4955444335937,64.8267059326171,1159175900
fw,-63.6470565795898,-89.0369338989257,-53.0709266662597,53.3747329711914,1159192567
fw,-62.4383659362793,-89.2229232788086,-46.165657043457,53.6032409667968,1159209234
fw,-61.2490272521972,-88.5535507202148,-51.570327758789,47.8900146484375,1159225901
fw,-60.0078697204589,-87.817886352539,-63.6429443359375,36.2789764404296,1159242568
fw,-58.9167671203613,-86.9932632446289,-63.9071655273437,44.0089569091796,1159259235
fw,-57.8926773071289,-86.0862350463867,-74.6033630371093,53.8942642211914,1159275902
fw,-57.1574020385742,-85.1429595947265,-66.790771484375,58.2667999267578,1159292569
fw,-56.7024269104003,-84.2131805419921,-56.9927406311035,56.8116035461425,1159309236
fw,-56.7462043762207,-83.3334732055664,-31.1996459960937,52.5521163940429,1159325903
fw,-58.2418212890625,-82.4601135253906,65.4398956298828,51.3728561401367,1159342570
fw,-60.1690826416015,-81.6039352416992,81.7025070190429,49.3909873962402,1159359237
fw,-62.077766418457,-80.7861022949218,75.0258865356445,46.0141639709472,1159375904
fw,-64.3288879394531,-79.930305480957,107.743797302246,48.0449523925781,1159392571
fw,-65.707405090332,-79.1816024780273,52.7350692749023,41.8220558166503,1159409238
fw,-66.9551696777343,-78.4796447753906,37.9157409667968,40.5873184204101,1159425905
fw,-68.1938858032226,-78.0176162719726,50.0164642333984,27.2834186553955,1159442572
fw,-68.4900131225586,-77.8990783691406,13.5120630264282,6.1783537864685,1159459239
fw,-68.8947830200195,-78.3333740234375,31.0484142303466,-29.124132156372,1159475906
fw,-70.2738876342773,-79.2613525390625,66.4641723632812,-60.1530609130859,1159492573
fw,-71.9192810058593,-80.4726943969726,82.8977584838867,-76.3778610229492,1159509240
fw,-72.8671875,-82.0803909301757,54.0828018188476,-98.4649200439453,1159525907
fw,-73.5052261352539,-84.19677734375,34.44775390625,-129.831115722656,1159542574
fw,-74.3545989990234,-86.8481826782226,36.1553573608398,-165.435409545898,1159559241
fw,-75.5846786499023,-88.8025360107421,35.9065589904785,-211.978759765625,1159575908
fw,-77.2776870727539,-84.6298370361328,66.4063339233398,-279.326934814453,1159592575
fw,-78.8939056396484,-79.4003448486328,78.0959014892578,-309.241516113281,1159609242
fw,-80.5180511474609,-75.2236633300781,72.0675811767578,-248.74754333496,1159625909
fw,-82.2217330932617,-72.3046722412109,78.3817520141601,-179.002578735351,1159642576
fw,-83.9862747192382,-70.1509170532226,89.3571014404296,-133.642639160156,1159659243
fw,-85.6103744506836,-66.9818115234375,84.3378829956054,-195.200790405273,1159675910
fw,-87.1889572143554,-63.1319503784179,78.5439834594726,-237.96141052246,1159692577
fw,-88.6005859375,-60.05855178833,61.2934303283691,-188.621704101562,1159709244
fw,-89.7489929199218,-57.4501075744628,52.735496520996,-157.231643676757,1159725911
fw,-88.9492874145507,-55.7421493530273,48.1180229187011,-101.267135620117,1159742578
fw,-87.9870529174804,-54.6256217956543,45.3641204833984,-64.5370712280273,1159759245
fw,-87.1165618896484,-53.5618858337402,36.9237785339355,-61.2237815856933,1159775912
fw,-86.3348922729492,-52.7751426696777,28.0504302978515,-46.4792175292968,1159792579
fw,-85.5920639038086,-51.8203887939453,25.2952442169189,-58.2845916748046,1159809246
fw,-84.7533493041992,-50.9097480773925,30.3019905090332,-57.6309585571289,1159825913
fw,-83.8633651733398,-49.9721946716308,36.5874328613281,-59.8907127380371,1159842580
fw,-82.9408950805664,-49.5991287231445,43.369773864746,-26.0001602172851,1159859247
fw,-82.0136260986328,-50.2988243103027,46.7415313720703,36.9172058105468,1159875914
fw,-81.1348114013671,-52.7329711914062,44.2040634155273,140.481857299804,1159892581
fw,-80.3325271606445,-56.0694999694824,37.7068099975585,193.551528930664,1159909248
fw,-79.7053146362304,-59.9301033020019,23.6249809265136,225.136611938476,1159925915
fw,-79.2106781005859,-63.03169631958,10.4887895584106,181.399719238281,1159942582
fw,-78.7052993774414,-65.0499038696289,9.96257495880127,115.296066284179,1159959249
fw,-78.2050018310546,-66.660903930664,12.9378337860107,89.7784576416015,1159975916
fw,-77.6424789428711,-68.0814666748046,21.7327537536621,82.5213394165039,1159992583
fw,-77.1699295043945,-68.5448684692382,22.8954372406005,25.3005084991455,1160009250
fw,-76.9608459472656,-68.8058700561523,11.2678155899047,13.6470127105712,1160025917
fw,-77.0012435913086,-69.2328186035156,-3.22055268287658,23.831558227539,1160042584
fw,-77.1928558349609,-70.7414855957031,-11.2885599136352,89.1286697387695,1160059251
fw,-77.672622680664,-72.522705078125,-26.8303833007812,106.444984436035,1160075918
fw,-78.5362472534179,-72.6941528320312,-46.5779685974121,12.6305437088012,1160092585
fw,-79.9625244140625,-72.351333618164,-75.3829803466796,-14.3004922866821,1160109252
fw,-82.0226745605468,-72.3155670166015,-104.028861999511,-2.85310792922973,1160125919
fw,-84.6108932495117,-73.0373306274414,-124.243545532226,32.4075317382812,1160142586
fw,-87.5255126953125,-74.4015960693359,-131.48728942871,69.767707824707,1160159253
fw,-88.8306503295898,-75.8511734008789,-134.906066894531,78.2968215942382,1160175920
fw,-86.080337524414,-77.0145111083984,-106.693977355957,65.5880813598632,1160192587
fw,-83.3394165039062,-78.4330749511718,-128.16763305664,82.7204666137695,1160209254
fw,-80.6148986816406,-80.0679168701171,-158.921173095703,96.0129318237304,1160225921
fw,-77.9624404907226,-81.8944320678711,-161.497344970703,109.746574401855,1160242588
fw,-75.1779708862304,-83.4522857666015,-171.383712768554,93.5854034423828,1160259255
fw,-72.0361251831054,-84.8956222534179,-194.137634277343,84.458984375,1160275922
fw,-68.7564620971679,-86.3592834472656,-201.973663330078,83.3805084228515,1160292589
fw,-66.2217712402343,-87.617805480957,-150.13426208496,71.5883178710937,1160309256
fw,-64.4826354980468,-88.6483917236328,-94.9685363769531,61.1097717285156,1160325923
fw,-63.1482009887695,-89.5306091308593,-69.7727432250976,52.146427154541,1160342590
fw,-62.2045364379882,-89.6960983276367,-43.529010772705,39.5999069213867,1160359257
fw,-61.264591217041,-89.0304565429687,-44.9442291259765,39.2343597412109,1160375924
fw,-60.3561706542968,-88.1846923828125,-49.7912139892578,47.394432067871,1160392591
fw,-59.7422790527343,-87.078125,-37.1234130859375,63.5499114990234,1160409258
fw,-59.1332702636718,-85.9156799316406,-44.9702949523925,68.011489868164,1160425925
fw,-58.7055587768554,-84.9752349853515,-39.1984367370605,55.0973434448242,1160442592
fw,-58.6077423095703,-84.3535079956054,-26.3743724822998,35.9456214904785,1160459259
fw,-58.9290428161621,-83.7592086791992,-8.41584014892578,34.1420631408691,1160475926
fw,-59.7186889648437,-82.9586181640625,18.1073017120361,46.4683952331543,1160492593
fw,-61.171760559082,-81.9729995727539,56.8356170654296,57.3441047668457,1160509260
fw,-62.99409866333,-81.0400314331054,79.1516876220703,53.7752227783203,1160525927
fw,-65.0599288940429,-80.272476196289,106.694580078125,43.2803802490234,1160542594
fw,-66.5770950317382,-79.5955047607421,70.0336380004882,37.7915916442871,1160559261
fw,-67.5297241210937,-78.9556045532226,22.727518081665,36.3076553344726,1160575928
fw,-68.6543273925781,-78.2865753173828,36.7192611694335,39.0448913574218,1160592595
fw,-69.348388671875,-77.7750167846679,17.8220252990722,29.6994380950927,1160609262
fw,-69.9300842285156,-77.7146530151367,24.0065650939941,2.15668749809265,1160625929
fw,-70.8019561767578,-78.3135910034179,44.1270713806152,-37.6681671142578,1160642596
fw,-72.1219863891601,-79.3502960205078,71.2460632324218,-63.9618606567382,1160659263
fw,-73.1315155029296,-80.6230316162109,55.0981140136718,-78.0580902099609,1160675930
fw,-74.0248565673828,-82.3617935180664,43.4950866699218,-105.711753845214,1160692597
fw,-75.1713409423828,-84.6547088623046,49.8296356201171,-138.725921630859,1160709264
fw,-76.7444152832031,-87.4399032592773,55.2017211914062,-168.33837890625,1160725931
fw,-78.6073760986328,-88.6736679077148,79.0056610107421,-231.359085083007,1160742598
fw,-80.3647308349609,-84.0025329589843,87.1845169067382,-280.88427734375,1160759265
fw,-82.0238571166992,-79.1533508300781,75.0613250732421,-289.433380126953,1160775932
fw,-83.8561477661132,-75.5194931030273,88.0145874023437,-220.099304199218,1160792599
fw,-85.7871322631836,-72.7821884155273,106.153228759765,-169.998138427734,1160809266
fw,-87.4358520507812,-69.9411544799804,94.838020324707,-177.162872314453,1160825933
fw,-88.7521209716796,-67.0504684448242,67.0212631225586,-179.941955566406,1160842600
fw,-89.1108932495117,-64.4254760742187,59.8846130371093,-160.545257568359,1160859267
fw,-88.2066040039062,-61.9542274475097,50.2835121154785,-147.019332885742,1160875934
fw,-87.3498992919921,-59.8988418579101,38.6522521972656,-119.801216125488,1160892601
fw,-86.5489501953125,-58.1424560546875,32.4119224548339,-101.939399719238,1160909268
fw,-85.6962509155273,-56.4013137817382,31.8060493469238,-102.297714233398,1160925935
fw,-84.797981262207,-54.6900100708007,33.7789764404296,-102.394432067871,1160942602
fw,-83.9422302246093,-53.2050437927246,31.1667137145996,-91.4738159179687,1160959269
fw,-83.0548858642578,-51.8500747680664,35.1011314392089,-85.2821578979492,1160975936
fw,-82.184455871582,-50.5162734985351,36.616886138916,-85.2127685546875,1160992603
fw,-81.2734832763671,-49.8355827331543,41.5124206542968,-46.4983558654785,1161009270
fw,-80.3847122192382,-50.3282432556152,42.1359062194824,24.0919761657714,1161025937
fw,-79.4979019165039,-52.489875793457,42.0285911560058,126.884765625,1161042604
fw,-78.6438674926757,-54.9316520690918,39.2980194091796,143.117553710937,1161059271
fw,-77.9505767822265,-58.2314529418945,28.1442756652832,191.931991577148,1161075938
fw,-77.4632110595703,-61.3905792236328,13.6969470977783,183.009017944335,1161092605
fw,-77.0456161499023,-63.8789558410644,9.205904006958,141.691986083984,1161109272
fw,-76.561538696289,-65.3719406127929,16.8945941925048,82.1007614135742,1161125939
fw,-75.9494323730468,-67.2176437377929,28.4347248077392,104.043060302734,1161142606
fw,-75.2848968505859,-68.7134323120117,34.1801567077636,87.0563354492187,1161159273
fw,-74.7941360473632,-69.3267822265625,26.5962677001953,34.3366966247558,1161175940
fw,-74.6192855834961,-69.9955596923828,8.92823982238769,37.4701271057128,1161192607
fw,-74.7683639526367,-71.2170944213867,-8.75587272644043,70.8199157714843,1161209274
fw,-75.2834167480468,-73.0005111694336,-26.7715950012207,106.63516998291,1161225941
fw,-76.2713470458984,-73.643814086914,-51.2843513488769,41.641845703125,1161242608
fw,-77.8139038085937,-73.3658752441406,-82.1533889770507,-10.7382612228393,1161259275
fw,-80.0572662353515,-73.4161605834961,-116.129608154296,1.01575326919555,1161275942
fw,-82.7919006347656,-74.1982727050781,-133.553497314453,32.7807350158691,1161292609
fw,-85.4516220092773,-75.4816055297851,-124.849304199218,60.6009101867675,1161309276
fw,-87.4945449829101,-76.6839141845703,-136.575561523437,62.3515129089355,1161325943
fw,-86.5289840698242,-77.8030166625976,-123.947647094726,63.6368446350097,1161342610
fw,-84.2560119628906,-79.2806091308593,-157.73908996582,86.0291671752929,1161359277
fw,-81.3561859130859,-80.7845916748046,-194.462631225585,88.8173522949218,1161375944
fw,-78.5027084350586,-82.2726211547851,-180.48811340332,89.1325454711914,1161392611
fw,-75.3990020751953,-83.8281021118164,-198.407196044921,91.6457138061523,1161409278
fw,-71.6383666992187,-85.3830184936523,-238.113067626953,89.62109375,1161425945
fw,-68.1380004882812,-86.6810607910156,-215.719772338867,76.8182144165039,1161442612
fw,-65.9751586914062,-87.6246337890625,-116.607383728027,63.1709518432617,1161459279
fw,-64.5854873657226,-88.4603652954101,-58.6201248168945,59.0999412536621,1161475946
fw,-63.4404182434082,-89.0810241699218,-46.7764205932617,52.2263031005859,1161492613
fw,-62.447280883789,-88.9148330688476,-40.1482124328613,49.2598724365234,1161509280
fw,-61.2808952331543,-88.134292602539,-57.9185638427734,46.6849899291992,1161525947
fw,-60.2289505004882,-87.2433090209961,-58.9882926940918,44.7514839172363,1161542614
fw,-59.3361434936523,-86.3739929199218,-57.5079460144043,47.062744140625,1161559281
fw,-58.4943161010742,-85.5889587402343,-65.0383148193359,46.9636688232421,1161575948
fw,-57.9119720458984,-84.8166580200195,-56.2566604614257,49.6508979797363,1161592615
fw,-57.5537147521972,-84.0142135620117,-50.9210586547851,51.2808074951171,1161609282
fw,-57.5529556274414,-83.1871261596679,-32.5234985351562,50.2764167785644,1161625949
fw,-58.460594177246,-82.2784957885742,28.434663772583,53.4706153869628,1161642616
fw,-59.9231071472168,-81.3822937011718,56.9289474487304,51.7178955078125,1161659283
fw,-61.5965576171875,-80.5391159057617,75.9375610351562,47.9434700012207,1161675950
fw,-63.3825988769531,-79.7123184204101,89.6753234863281,46.984992980957,1161692617
fw,-64.4234848022461,-78.8395919799804,29.6062469482421,50.3224716186523,1161709284
fw,-65.394905090332,-78.0083541870117,16.5450859069824,48.9715156555175,1161725951
fw,-66.653579711914,-77.3528213500976,45.9168968200683,39.0334205627441,1161742618
fw,-67.2256622314453,-76.9822387695312,15.6018886566162,21.2976169586181,1161759285
fw,-67.5640411376953,-77.0524978637695,11.6698064804077,-6.39821672439575,1161775952
fw,-68.6430969238281,-77.6262588500976,47.6762809753418,-37.6702423095703,1161792619
fw,-70.398208618164,-78.5392074584961,88.5514678955078,-57.7811813354492,1161809286
fw,-71.7553558349609,-79.764533996582,73.5666732788086,-74.8329315185546,1161825953
fw,-72.6402816772461,-81.4004516601562,47.2595825195312,-98.3646621704101,1161842620
fw,-73.5035934448242,-83.6398620605468,48.7766494750976,-135.074295043945,1161859287
fw,-74.7879257202148,-86.4945755004882,47.2731895446777,-171.409515380859,1161875954
fw,-76.6478424072265,-89.6363067626953,68.5703353881836,-226.848434448242,1161892621
fw,-78.8140487670898,-84.6874771118164,102.901702880859,-293.441925048828,1161909288
fw,-80.9679336547851,-79.8990783691406,105.110366821289,-283.249298095703,1161925955
fw,-83.0293197631836,-76.4198303222656,94.4714965820312,-212.093536376953,1161942622
fw,-85.1617889404296,-73.9597549438476,108.470726013183,-153.743209838867,1161959289
fw,-86.9732131958007,-71.6747817993164,102.265113830566,-142.413665771484,1161975956
fw,-88.222053527832,-68.4108657836914,66.5626754760742,-201.582885742187,1161992623
fw,-89.244888305664,-65.1449966430664,42.9350776672363,-201.306228637695,1162009290
fw,-89.5878829956054,-62.4211692810058,29.8777542114257,-165.749649047851,1162025957
fw,-88.8677139282226,-60.2047653198242,29.1991138458251,-132.949478149414,1162042624
fw,-88.0216751098632,-58.71533203125,36.9730491638183,-88.1511535644531,1162059291
fw,-87.0877914428711,-57.3264083862304,42.2589683532714,-82.1541519165039,1162075958
fw,-86.1391296386718,-55.8998336791992,40.8196487426757,-85.6362915039062,1162092625
fw,-85.2063751220703,-54.8061599731445,39.483543395996,-68.1449584960937,1162109292
fw,-84.2579956054687,-53.8062210083007,41.3418655395507,-65.0508956909179,1162125959
fw,-83.3750457763671,-52.6453552246093,39.786262512207,-75.531997680664,1162142626
fw,-82.5641250610351,-51.5327949523925,37.6076507568359,-71.2301483154296,1162159293
fw,-81.7526016235351,-51.1087265014648,38.6429252624511,-30.0632286071777,1162175960
fw,-80.9490051269531,-51.9770126342773,37.8345680236816,47.8448219299316,1162192627
fw,-80.0915603637695,-53.9569702148437,40.4674224853515,112.497611999511,1162209294
fw,-79.269546508789,-57.5967254638671,37.4631309509277,213.434677124023,1162225961
fw,-78.5993957519531,-61.1389083862304,27.0491352081298,205.287673950195,1162242628
fw,-78.0497360229492,-63.9639778137207,19.6230945587158,163.241500854492,1162259295
fw,-77.5424041748046,-66.1258773803711,17.7936897277832,122.767013549804,1162275962
fw,-76.9891586303711,-67.392578125,22.4193305969238,69.8991241455078,1162292629
fw,-76.4183807373046,-68.4563903808593,26.1476726531982,58.6327018737793,1162309296
fw,-75.8831558227539,-68.7723388671875,27.9263935089111,15.1097698211669,1162325963
fw,-75.5604476928711,-69.0304718017578,16.3463459014892,13.4101600646972,1162342630
fw,-75.5304489135742,-69.5792007446289,-1.04959976673126,31.0851707458496,1162359297
fw,-75.7803649902343,-71.3645095825195,-14.9874191284179,104.663299560546,1162375964
fw,-76.3452835083007,-72.9897079467773,-27.7287654876709,96.8073501586914,1162392631
fw,-77.3603286743164,-73.0902938842773,-52.6234169006347,10.8021545410156,1162409298
fw,-78.9605636596679,-73.0096359252929,-82.7088165283203,0.941344022750854,1162425965
fw,-81.2422943115234,-73.6332168579101,-110.978393554687,29.1845626831054,1162442632
fw,-83.9043579101562,-75.0371627807617,-123.573371887207,68.5183944702148,1162459299
fw,-86.6863098144531,-76.4621505737304,-130.23469543457,73.2078781127929,1162475966
fw,-88.1109390258789,-77.4904632568359,-128.437194824218,55.9187049865722,1162492633
fw,-86.3042526245117,-78.6883468627929,-131.256210327148,69.390884399414,1162509300
fw,-83.4237747192382,-80.1455154418945,-185.920486450195,85.9757461547851,1162525967
fw,-80.3507843017578,-81.5952224731445,-192.071975708007,86.291145324707,1162542634
fw,-77.2768478393554,-83.1665115356445,-190.859481811523,93.4029312133789,1162559301
fw,-73.758674621582,-84.675796508789,-217.089950561523,88.2292938232421,1162575968
fw,-69.9611358642578,-86.2338180541992,-232.035079956054,91.198616027832,1162592635
fw,-67.1953582763671,-87.5328826904296,-156.733154296875,80.0083236694336,1162609302
fw,-65.339859008789,-88.6125259399414,-80.8286972045898,72.179573059082,1162625969
fw,-63.8679046630859,-89.3623428344726,-51.5106048583984,61.6008567810058,1162642636
fw,-62.5584564208984,-89.005744934082,-44.4867248535156,55.2229690551757,1162659303
fw,-61.2946243286132,-88.1434326171875,-44.8106613159179,51.0329437255859,1162675970
fw,-60.0307655334472,-87.3123474121093,-52.459861755371,43.0805435180664,1162692637
fw,-58.9116134643554,-86.4927368164062,-54.9160766601562,41.039566040039,1162709304
fw,-57.8560676574707,-85.5760116577148,-67.5306167602539,49.1836585998535,1162725971
fw,-57.0541267395019,-84.5258255004882,-62.7706604003906,60.847110748291,1162742638
fw,-56.5584068298339,-83.5166320800781,-52.3836708068847,60.241584777832,1162759305
fw,-56.3899192810058,-82.6671752929687,-40.6360473632812,50.7874908447265,1162775972
fw,-57.2533340454101,-81.8348770141601,27.1035804748535,49.7167358398437,1162792639
fw,-59.1927146911621,-80.9301834106445,97.6371536254882,53.3279418945312,1162809306
fw,-60.8083152770996,-80.0342330932617,61.9786109924316,51.6094284057617,1162825973
fw,-62.7540168762207,-79.1932601928711,87.6704864501953,47.6485748291015,1162842640
fw,-64.5035247802734,-78.3440780639648,81.2639999389648,48.1482467651367,1162859307
fw,-65.6503143310546,-77.5387649536132,26.6948204040527,46.2510375976562,1162875974
fw,-66.9974670410156,-76.8425674438476,44.3066673278808,41.0327835083007,1162892641
fw,-67.6704177856445,-76.4269180297851,22.0483894348144,24.4971885681152,1162909308
fw,-68.0227355957031,-76.4343109130859,19.5610122680664,-1.65504455566406,1162925975
fw,-68.9117202758789,-76.9841156005859,44.0293846130371,-35.184513092041,1162942642
fw,-70.5118560791015,-77.9407806396484,74.7986450195312,-59.6804389953613,1162959309
fw,-71.8339157104492,-79.2185668945312,74.0678634643554,-78.3669509887695,1162975976
fw,-72.6036529541015,-80.9630813598632,45.258560180664,-105.897338867187,1162992643
fw,-73.3818206787109,-83.278564453125,43.7154121398925,-140.345642089843,1163009310
fw,-74.5165328979492,-86.124397277832,37.9751052856445,-170.40364074707,1163025977
fw,-76.2177124023437,-89.7237548828125,51.8317832946777,-220.629013061523,1163042644
fw,-78.1029434204101,-85.0690231323242,83.5326309204101,-300.065765380859,1163059311
fw,-79.7328720092773,-80.1093673706054,73.1279144287109,-294.874145507812,1163075978
fw,-81.5656509399414,-76.4443283081054,85.4506072998046,-223.467590332031,1163092645
fw,-83.627082824707,-73.7253875732421,109.471160888671,-168.92039489746,1163109312
fw,-85.4805297851562,-71.4696655273437,110.446228027343,-140.377853393554,1163125979
fw,-86.9320983886718,-68.0639953613281,83.576919555664,-209.746170043945,1163142646
fw,-88.1747970581054,-64.4354782104492,65.3811798095703,-222.672546386718,1163159313
fw,-88.6968917846679,-61.4075889587402,54.4199142456054,-183.196517944335,1163175980
fw,-88.3111267089843,-58.9470138549804,44.9680709838867,-146.597915649414,1163192647
fw,-87.728157043457,-57.2660675048828,33.5748901367187,-98.2897872924804,1163209314
fw,-87.0399856567382,-55.6044807434082,30.8690681457519,-97.0034866333007,1163225981
fw,-86.1625823974609,-54.298656463623,37.9722633361816,-76.3148040771484,1163242648
fw,-85.2654266357421,-53.1934509277343,36.293830871582,-66.4436798095703,1163259315
fw,-84.3417205810546,-52.2060012817382,37.0725860595703,-60.7646141052246,1163275982
fw,-83.4641189575195,-51.1671142578125,36.0178680419921,-65.2503280639648,1163292649
fw,-82.5987472534179,-50.4407310485839,37.5131340026855,-46.2838401794433,1163309316
fw,-81.7536926269531,-50.5863723754882,38.2884674072265,5.46789407730102,1163325983
fw,-80.9366836547851,-51.9676399230957,37.1079216003418,78.7663421630859,1163342650
fw,-80.1112518310546,-54.9992179870605,36.8566589355468,175.328399658203,1163359317
fw,-79.385498046875,-58.5057144165039,28.7207450866699,203.412048339843,1163375984
fw,-78.821418762207,-61.8889923095703,15.8585929870605,197.505737304687,1163392651
fw,-78.2738342285156,-64.4320220947265,14.0502109527587,148.883590698242,1163409318
fw,-77.7047424316406,-66.1018142700195,17.9413833618164,94.8339080810546,1163425985
fw,-77.0739212036132,-67.7593994140625,25.2667217254638,95.2893524169921,1163442652
fw,-76.4615936279296,-68.8644180297851,29.2484951019287,64.5992431640625,1163459319
fw,-76.0694580078125,-69.2676849365234,19.9445133209228,22.5753269195556,1163475986
fw,-75.9735870361328,-69.7154693603515,2.83482360839843,24.6226119995117,1163492653
fw,-76.1126480102539,-70.8712615966796,-10.3631725311279,68.3644714355468,1163509320
fw,-76.5503692626953,-72.4691467285156,-26.3227977752685,97.017578125,1163525987
fw,-77.3940963745117,-72.8707122802734,-48.5150909423828,27.1468563079834,1163542654
fw,-78.7215194702148,-72.4479446411132,-72.9484786987304,-18.360933303833,1163559321
fw,-80.750617980957,-72.3299102783203,-108.625289916992,-6.91445636749267,1163575988
fw,-83.4132308959961,-73.0851211547851,-134.113464355468,30.1664428710937,1163592655
fw,-86.3099746704101,-74.5929718017578,-137.026962280273,73.5841522216796,1163609322
fw,-89.2608642578125,-76.1486740112304,-148.804656982421,81.9632110595703,1163625989
fw,-87.1046371459961,-77.4796142578125,-133.837310791015,75.9812393188476,1163642656
fw,-84.2331314086914,-79.0559463500976,-133.37971496582,92.0092620849609,1163659323
fw,-81.2392654418945,-80.632942199707,-173.382247924804,93.3192520141601,1163675990
fw,-78.4254608154296,-82.087661743164,-167.548965454101,91.2373962402343,1163692657
fw,-75.3784790039062,-83.4071197509765,-182.970703125,82.0453262329101,1163709324
fw,-71.8102035522461,-84.8367385864257,-213.80989074707,84.9926528930664,1163725991
fw,-68.2966156005859,-86.255142211914,-208.23777770996,77.9244842529296,1163742658
fw,-65.8253555297851,-87.544807434082,-133.610565185546,67.7338638305664,1163759325
fw,-64.1749038696289,-88.6493988037109,-73.1667785644531,61.7436141967773,1163775992
fw,-62.7670402526855,-89.4205474853515,-58.8935203552246,53.8627433776855,1163792659
fw,-61.4699821472168,-89.2997512817382,-54.3701820373535,48.4525184631347,1163809326
fw,-60.3387336730957,-88.6170501708984,-46.8312377929687,47.3941993713378,1163825993
fw,-59.2337455749511,-87.8718338012695,-52.2584762573242,45.4257011413574,1163842660
fw,-58.3971214294433,-87.0435562133789,-41.9993095397949,47.0293998718261,1163859327
fw,-57.7118225097656,-86.1851043701171,-44.6422996520996,47.29296875,1163875994
fw,-57.348331451416,-85.3560256958007,-33.4239807128906,46.2959976196289,1163892661
fw,-57.3252868652343,-84.6040649414062,-19.6172046661376,43.2064323425293,1163909328
fw,-57.5260467529296,-83.8719635009765,-14.9073810577392,42.4614562988281,1163925995
fw,-58.2812347412109,-82.9769439697265,16.1813812255859,52.0300369262695,1163942662
fw,-60.0117721557617,-82.0075073242187,74.5753326416015,55.9431343078613,1163959329
fw,-61.7197608947753,-81.1234054565429,70.7295150756836,50.3349609375,1163975996
fw,-63.7345848083496,-80.2529678344726,90.507698059082,49.5953941345214,1163992663
fw,-65.3209686279296,-79.362922668457,68.3395767211914,51.2546081542968,1164009330
fw,-66.54638671875,-78.5437240600586,38.781639099121,47.4418029785156,1164025997
fw,-67.5416107177734,-77.8743591308593,37.6938209533691,39.0092544555664,1164042664
fw,-67.808120727539,-77.4638366699218,9.16020488739013,23.3584671020507,1164059331
fw,-68.2674789428711,-77.5367736816406,30.1063137054443,-6.09789705276489,1164075998
fw,-69.3781509399414,-78.1943130493164,54.0536804199218,-41.4874687194824,1164092665
fw,-70.9661788940429,-79.1244354248046,81.2504501342773,-57.9021644592285,1164109332
fw,-72.1317596435546,-80.3048934936523,64.6746368408203,-72.5283508300781,1164125999
fw,-72.8295288085937,-81.9858245849609,41.7985229492187,-102.08097076416,1164142666
fw,-73.6274261474609,-84.2353057861328,43.9174003601074,-136.055587768554,1164159333
fw,-74.9031906127929,-86.96533203125,45.0562591552734,-164.044448852539,1164176000
fw,-76.7103042602539,-89.2023010253906,64.786750793457,-225.426040649414,1164192667
fw,-78.7125244140625,-84.3248748779296,97.4023132324218,-292.979614257812,1164209334
fw,-80.6798934936523,-79.3565597534179,98.8699951171875,-294.807250976562,1164226001
fw,-82.5623550415039,-75.8648147583007,86.3925247192382,-211.129776000976,1164242668
fw,-84.5327072143554,-73.5253143310546,104.759292602539,-145.807800292968,1164259335
fw,-86.2702865600586,-71.5752182006836,108.286003112792,-121.648200988769,1164276002
fw,-87.3748245239257,-68.4913711547851,82.9060363769531,-189.754898071289,1164292669
fw,-88.0031585693359,-65.1056365966796,56.8938217163085,-208.245956420898,1164309336
fw,-88.2993469238281,-62.3446769714355,35.5457954406738,-167.924179077148,1164326003
fw,-88.1238250732421,-60.1383399963378,33.1040000915527,-131.766494750976,1164342670
fw,-87.5791702270507,-58.423770904541,35.5981292724609,-101.477737426757,1164359337
fw,-86.8115615844726,-56.8955383300781,41.5698318481445,-90.4810562133789,1164376004
fw,-85.9500122070312,-55.5144882202148,43.1055335998535,-82.8801116943359,1164392671
fw,-85.0712890625,-54.3332710266113,41.0382614135742,-72.3261260986328,1164409338
fw,-84.2366638183593,-53.1618576049804,36.3340950012207,-72.8377380371093,1164426005
fw,-83.506477355957,-52.0578918457031,29.2418613433837,-70.0529556274414,1164442672
fw,-82.844482421875,-51.1015319824218,25.2724647521972,-60.2439956665039,1164459339
fw,-82.1537780761718,-50.7443771362304,27.7269611358642,-24.9725437164306,1164476006
fw,-81.449722290039,-51.5156784057617,28.4132766723632,43.7182540893554,1164492673
fw,-80.6546249389648,-53.6642570495605,33.4464416503906,126.216407775878,1164509340
fw,-79.8277282714843,-57.111213684082,35.2571029663085,205.213256835937,1164526007
fw,-79.0671691894531,-60.6700592041015,30.7159786224365,210.334564208984,1164542674
fw,-78.39697265625,-63.5565032958984,25.1155548095703,169.728149414062,1164559341
fw,-77.760498046875,-65.7476959228515,23.1365509033203,125.696708679199,1164576008
fw,-77.1160125732421,-67.4514846801757,24.3443813323974,93.9825744628906,1164592675
fw,-76.4826126098632,-68.6376953125,26.5749835968017,64.9132843017578,1164609342
fw,-75.9072875976562,-69.025894165039,28.807107925415,19.4538345336914,1164626009
fw,-75.5918350219726,-69.3344802856445,16.702745437622,17.7976665496826,1164642676
fw,-75.6101684570312,-70.1206665039062,-1.75147092342376,46.1885299682617,1164659343
fw,-75.9768753051757,-71.7882080078125,-18.7582626342773,99.4011077880859,1164676010
fw,-76.8003540039062,-72.6410217285156,-42.5389938354492,53.2944831848144,1164692677
fw,-78.0402297973632,-72.5423736572265,-64.9031372070312,0.344472080469131,1164709344
fw,-79.9017868041992,-72.4825286865234,-95.6735610961914,-2.39005303382873,1164726011
fw,-82.4836807250976,-73.1264419555664,-130.137771606445,25.4789905548095,1164742678
fw,-85.3179321289062,-74.3793258666992,-138.366577148437,58.0881309509277,1164759345
fw,-88.1081466674804,-75.6324920654296,-148.059768676757,63.4312629699707,1164776012
fw,-87.5519943237304,-76.7199096679687,-138.743560791015,60.4953155517578,1164792679
fw,-84.9304809570312,-78.0908203125,-135.530319213867,79.7106628417968,1164809346
fw,-81.9770355224609,-79.6247940063476,-175.577316284179,89.9885940551757,1164826013
fw,-79.1553421020507,-81.0529327392578,-171.024490356445,86.3280258178711,1164842680
fw,-76.2845611572265,-82.5625991821289,-176.429275512695,90.590347290039,1164859347
fw,-72.8822860717773,-84.2951126098632,-207.709655761718,102.97654724121,1164876014
fw,-69.2885665893554,-85.9003677368164,-214.092330932617,91.5219573974609,1164892681
fw,-66.652359008789,-87.4461822509765,-142.299331665039,86.8471984863281,1164909348
fw,-64.8953323364257,-88.8546524047851,-74.9318923950195,82.2546005249023,1164926015
fw,-63.4598350524902,-89.8392868041992,-54.8660697937011,66.8348770141601,1164942682
fw,-62.0906829833984,-89.237922668457,-53.5931510925293,41.1562957763671,1164959349
fw,-60.7779197692871,-88.6244201660156,-53.0507583618164,36.7051391601562,1164976016
fw,-59.5975875854492,-87.8994140625,-51.8765487670898,39.6527557373046,1164992683
fw,-58.6276397705078,-87.0523071289062,-48.4393768310546,42.7644653320312,1165009350
fw,-57.798038482666,-86.1106796264648,-53.7889213562011,48.884536743164,1165026017
fw,-57.2843894958496,-85.0872192382812,-43.8412895202636,58.2765083312988,1165042684
fw,-57.1161651611328,-84.1019287109375,-28.7653179168701,59.058364868164,1165059351
fw,-57.1568489074707,-83.1756210327148,-24.6276988983154,55.9410743713378,1165076018
fw,-58.0388717651367,-82.2578811645507,26.6306591033935,54.7974853515625,1165092685
fw,-59.8672447204589,-81.3309783935546,78.7123489379882,54.1836776733398,1165109352
fw,-61.5355262756347,-80.4100952148437,65.6936264038086,52.7700576782226,1165126019
fw,-63.616226196289,-79.48291015625,101.691886901855,52.6403541564941,1165142686
fw,-65.2341918945312,-78.5837707519531,62.5967597961425,51.4045906066894,1165159353
fw,-66.4281692504882,-77.7363739013671,30.4838237762451,49.1450843811035,1165176020
fw,-67.3284301757812,-77.0112075805664,31.9923152923584,42.7795867919921,1165192687
fw,-67.4794311523437,-76.5831832885742,5.68941831588745,24.7339496612548,1165209354
fw,-67.9499893188476,-76.6049423217773,33.7420501708984,-3.09444379806518,1165226021
fw,-69.098159790039,-77.2135543823242,51.3646049499511,-38.8169937133789,1165242688
fw,-70.725341796875,-78.2360305786132,79.7203216552734,-63.4310264587402,1165259355
fw,-71.7394256591796,-79.6560897827148,57.1141014099121,-86.8981857299804,1165276022
fw,-72.4557876586914,-81.572639465332,40.128173828125,-116.608978271484,1165292689
fw,-73.4135131835937,-83.9923400878906,42.032657623291,-146.553955078125,1165309356
fw,-74.9083023071289,-86.9130783081054,38.3744621276855,-174.532760620117,1165326023
fw,-76.8307495117187,-88.9837493896484,75.629150390625,-241.786788940429,1165342690
fw,-78.5235214233398,-83.8452453613281,79.9085311889648,-307.46743774414,1165359357
fw,-80.2711639404296,-79.1208572387695,79.9712219238281,-283.363220214843,1165376024
fw,-82.2083206176757,-75.8519287109375,98.1665878295898,-200.040740966796,1165392691
fw,-84.2481002807617,-73.5243682861328,119.763664245605,-144.159606933593,1165409358
fw,-85.8094177246093,-70.8854904174804,103.955894470214,-162.26528930664,1165426025
fw,-86.9266128540039,-67.3111724853515,62.7387237548828,-219.595611572265,1165442692
fw,-87.8017120361328,-63.9904441833496,48.1793212890625,-202.48469543457,1165459359
fw,-88.142593383789,-61.2607879638671,46.2490005493164,-163.098449707031,1165476026
fw,-87.937873840332,-59.2816696166992,39.2291183471679,-115.975982666015,1165492693
fw,-87.4836349487304,-57.5920753479003,34.2444763183593,-98.1378021240234,1165509360
fw,-86.8394393920898,-55.9404678344726,35.948558807373,-95.8259963989257,1165526027
fw,-85.9981689453125,-54.6638031005859,40.6463508605957,-74.5531997680664,1165542694
fw,-85.0873794555664,-53.3675727844238,41.7064056396484,-77.9626998901367,1165559361
fw,-84.2013397216796,-52.3471336364746,39.1105842590332,-63.8003273010253,1165576028
fw,-83.3460159301757,-51.309886932373,36.7153282165527,-65.7670974731445,1165592695
fw,-82.470947265625,-50.6861877441406,38.0090827941894,-40.5777969360351,1165609362
fw,-81.5585708618164,-50.9688415527343,40.8536415100097,13.2570638656616,1165626029
fw,-80.6636962890625,-52.9791030883789,40.1104316711425,116.758522033691,1165642696
fw,-79.799087524414,-55.9073104858398,38.1250457763671,170.97314453125,1165659363
fw,-79.1274261474609,-59.4123268127441,25.9212265014648,204.310577392578,1165676030
fw,-78.6744613647461,-62.1662864685058,10.4604701995849,160.391143798828,1165692697
fw,-78.2141952514648,-63.8856353759765,10.6100883483886,99.5500564575195,1165709364
fw,-77.6994094848632,-65.1607818603515,15.6000871658325,69.834243774414,1165726031
fw,-77.1474151611328,-66.8855285644531,21.0817146301269,99.7232894897461,1165742698
fw,-76.6564178466796,-67.9926071166992,22.4838161468505,65.2670059204101,1165759365
fw,-76.3671646118164,-68.6559600830078,14.9816303253173,38.0347824096679,1165776032
fw,-76.3795623779296,-69.3551788330078,-1.34572482109069,38.4152908325195,1165792699
fw,-76.6286010742187,-70.7527313232421,-13.6379442214965,83.1378021240234,1165809366
fw,-77.1961898803711,-72.3084106445312,-29.5976657867431,95.8163299560546,1165826033
fw,-78.1904296875,-72.3888244628906,-52.1598625183105,9.29615497589111,1165842700
fw,-79.739501953125,-71.8902130126953,-82.5862731933593,-25.7400665283203,1165859367
fw,-82.0706787109375,-71.7212982177734,-125.231864929199,-15.6200675964355,1165876034
fw,-84.8897171020507,-72.3117218017578,-145.915893554687,19.3359241485595,1165892701
fw,-87.7551956176757,-73.629409790039,-148.331390380859,62.7883377075195,1165909368
fw,-87.9861755371093,-75.1113052368164,-153.905685424804,78.8956298828125,1165926035
fw,-85.1539840698242,-76.4376754760742,-121.83186340332,77.2534866333007,1165942702
fw,-82.4421997070312,-78.0894012451171,-144.71597290039,96.760627746582,1165959369
fw,-79.7494201660156,-79.6831741333007,-165.140365600585,92.5028915405273,1165976036
fw,-77.3133697509765,-81.1564712524414,-152.655944824218,89.0401840209961,1165992703
fw,-74.5928421020507,-82.5127182006836,-170.510375976562,80.9853897094726,1166009370
fw,-71.5139617919921,-83.9253387451171,-186.200759887695,82.3229064941406,1166026037
fw,-68.1730270385742,-85.3961868286132,-198.809432983398,82.5816268920898,1166042704
fw,-65.5203781127929,-86.8288040161132,-151.285659790039,79.0124740600586,1166059371
fw,-63.8066101074218,-88.1413345336914,-85.6845703125,77.0430068969726,1166076038
fw,-62.4819374084472,-89.0469436645507,-62.0545768737793,54.4201889038085,1166092705
fw,-61.4056129455566,-89.5360641479492,-46.7374000549316,29.6074810028076,1166109372
fw,-60.335952758789,-89.5510711669921,-47.9406967163085,37.0296211242675,1166126039
fw,-59.2665481567382,-88.7332916259765,-54.6076927185058,48.4740333557128,1166142706
fw,-58.6042175292968,-87.7924728393554,-31.4459552764892,52.2527542114257,1166159373
fw,-58.0778656005859,-86.8046951293945,-33.8425407409668,56.4057121276855,1166176040
fw,-57.8237686157226,-85.8771133422851,-26.3482513427734,54.7791748046875,1166192707
fw,-57.8858947753906,-85.0533142089843,-17.6382598876953,49.4763832092285,1166209374
fw,-58.1106338500976,-84.3165969848632,-19.8662128448486,43.8179588317871,1166226041
fw,-59.0458793640136,-83.4819030761718,23.3083305358886,48.7457771301269,1166242708
fw,-60.5668678283691,-82.5064544677734,59.0390701293945,56.4875946044921,1166259375
fw,-62.069107055664,-81.5795822143554,57.1202163696289,53.1310997009277,1166276042
fw,-63.9196243286132,-80.6786346435546,85.0618438720703,51.4099617004394,1166292709
fw,-65.091064453125,-79.8003997802734,42.5142517089843,50.6138458251953,1166309376
fw,-66.2203292846679,-78.9827346801757,30.7648658752441,47.9345207214355,1166326043
fw,-67.1712036132812,-78.2301712036132,33.6849822998046,44.5754661560058,1166342710
fw,-67.4876937866211,-77.6124496459961,7.58810710906982,36.008186340332,1166359377
fw,-67.9680023193359,-77.3488464355468,23.7380714416503,14.2312746047973,1166376044
fw,-69.1399765014648,-77.603759765625,52.8706855773925,-17.0337352752685,1166392711
fw,-70.6654281616211,-78.222541809082,76.9505157470703,-38.814395904541,1166409378
fw,-71.6856155395507,-79.2458343505859,55.8083000183105,-62.9465675354003,1166426045
fw,-72.3610076904296,-80.8189010620117,33.6100311279296,-95.8450622558593,1166442712
fw,-73.2927169799804,-83.0862197875976,41.7870712280273,-137.35122680664,1166459379
fw,-74.6758422851562,-85.8248672485351,42.0359573364257,-165.330764770507,1166476046
fw,-76.2579727172851,-89.0595474243164,55.3221206665039,-202.69416809082,1166492713
fw,-77.8571090698242,-86.2157135009765,75.0803451538086,-269.045532226562,1166509380
fw,-79.3960418701171,-81.2864761352539,71.396614074707,-296.639587402343,1166526047
fw,-81.0314407348632,-77.2964630126953,75.5198440551757,-241.766891479492,1166542714
fw,-82.8069381713867,-74.6243286132812,91.4688873291015,-165.082427978515,1166559381
fw,-84.5659942626953,-72.0438079833984,96.2718353271484,-160.562911987304,1166576048
fw,-86.2436065673828,-68.7382354736328,91.0423431396484,-205.110290527343,1166592715
fw,-87.8212051391601,-65.6208419799804,73.8765029907226,-192.295227050781,1166609382
fw,-89.2264556884765,-62.9538879394531,70.1694793701171,-160.611343383789,1166626049
fw,-88.8618545532226,-60.6173477172851,65.4952163696289,-136.988861083984,1166642716
fw,-87.7900848388671,-58.6781883239746,53.5176086425781,-112.116012573242,1166659383
fw,-86.8363418579101,-57.0000038146972,44.8765335083007,-97.1793899536132,1166676050
fw,-85.9665756225586,-55.3528594970703,35.9231910705566,-95.9894714355468,1166692717
fw,-85.1707916259765,-53.9431114196777,27.0287227630615,-84.2429962158203,1166709384
fw,-84.3669204711914,-52.7126083374023,25.9505920410156,-75.9810028076171,1166726051
fw,-83.5524749755859,-51.3816108703613,27.0848159790039,-83.988655090332,1166742718
fw,-82.6805038452148,-50.4185523986816,33.3629455566406,-61.6721000671386,1166759385
fw,-81.7742919921875,-50.3369979858398,40.6857414245605,-10.0936374664306,1166776052
fw,-80.869888305664,-51.5057792663574,43.5566864013671,64.7863540649414,1166792719
fw,-79.9852600097656,-54.3037185668945,42.0882835388183,162.630325317382,1166809386
fw,-79.229507446289,-57.8273658752441,32.1843185424804,205.60122680664,1166826053
fw,-78.679084777832,-61.0923881530761,16.3548412322998,189.861373901367,1166842720
fw,-78.2221298217773,-63.9344100952148,7.74603557586669,164.496963500976,1166859387
fw,-77.7294921875,-65.8109970092773,10.1752471923828,105.757690429687,1166876054
fw,-77.1739730834961,-67.2006454467773,16.9885997772216,77.2564926147461,1166892721
fw,-76.5401992797851,-68.2872619628906,28.6296825408935,61.7634620666503,1166909388
fw,-75.953140258789,-68.5953750610351,32.808910369873,15.6743755340576,1166926055
fw,-75.6511917114257,-68.9492263793945,18.4444866180419,19.2363224029541,1166942722
fw,-75.6877975463867,-69.9341583251953,-1.23925507068634,56.9704360961914,1166959389
fw,-76.0314178466796,-71.7578430175781,-16.8199138641357,108.705291748046,1166976056
fw,-76.7963790893554,-72.7503433227539,-38.7385063171386,61.7314567565918,1166992723
fw,-78.0120239257812,-72.4553680419921,-64.5052490234375,-11.1417140960693,1167009390
fw,-79.8759155273437,-72.4214630126953,-97.3671188354492,-0.448829770088195,1167026057
fw,-82.3998184204101,-73.2169418334961,-126.072982788085,36.9316329956054,1167042724
fw,-85.2522048950195,-74.5930252075195,-134.17512512207,66.4766845703125,1167059391
fw,-88.1797409057617,-76.0101470947265,-140.623672485351,73.4253311157226,1167076058
fw,-87.7533645629882,-77.1166534423828,-126.856971740722,61.8639869689941,1167092725
fw,-85.1047134399414,-78.5421447753906,-125.493225097656,83.0581588745117,1167109392
fw,-82.1531295776367,-80.0907516479492,-172.011413574218,90.7188949584961,1167126059
fw,-79.2899475097656,-81.5405120849609,-171.807144165039,86.905288696289,1167142726
fw,-76.4029998779296,-82.9816055297851,-179.134780883789,86.5318908691406,1167159393
fw,-72.9274444580078,-84.5256805419921,-215.326828002929,90.8174438476562,1167176060
fw,-69.1773223876953,-86.0194091796875,-228.138839721679,85.624526977539,1167192727
fw,-66.3106613159179,-87.4039916992187,-163.583450317382,78.3239135742187,1167209394
fw,-64.4979248046875,-88.6281280517578,-85.6244430541992,74.6025009155273,1167226061
fw,-63.0711975097656,-89.5607604980468,-61.5790252685546,63.933494567871,1167242728
fw,-61.7982597351074,-89.3769302368164,-51.797996520996,44.8348350524902,1167259395
fw,-60.5719909667968,-88.5807342529296,-50.0970764160156,47.8880805969238,1167276062
fw,-59.357795715332,-87.6788940429687,-53.9996452331543,49.648094177246,1167292729
fw,-58.3189888000488,-86.8005294799804,-49.8608131408691,45.892219543457,1167309396
fw,-57.4079322814941,-85.9930343627929,-55.474136352539,41.6622352600097,1167326063
fw,-56.8020820617675,-85.1277770996093,-47.1024284362793,48.3517684936523,1167342730
fw,-56.5195198059082,-84.2548522949218,-36.1034774780273,51.298728942871,1167359397
fw,-56.5731468200683,-83.3840866088867,-23.5480213165283,51.0996055603027,1167376064
fw,-57.2271575927734,-82.4288101196289,7.67494010925293,55.5052528381347,1167392731
fw,-59.1551971435546,-81.4377822875976,93.9301681518554,57.4739112854003,1167409398
fw,-60.8261413574218,-80.5099258422851,64.4418716430664,53.4771270751953,1167426065
fw,-62.925666809082,-79.5733871459961,98.9345703125,53.9892768859863,1167442732
fw,-64.6479949951171,-78.6151657104492,79.4196014404296,55.2269477844238,1167459399
fw,-66.0460739135742,-77.8236923217773,44.7037391662597,45.4970703125,1167476066
fw,-67.3671646118164,-77.2664031982421,56.7317733764648,32.2128677368164,1167492733
fw,-67.9552841186523,-77.1184005737304,24.5859546661376,7.81572818756103,1167509400
fw,-68.7156219482421,-77.5187301635742,48.0275764465332,-26.035982131958,1167526067
fw,-69.9448699951171,-78.4613647460937,68.277717590332,-59.3730812072753,1167542734
fw,-71.1381912231445,-79.7978363037109,68.2414245605468,-82.7794952392578,1167559401
fw,-71.9186248779296,-81.55908203125,43.0981483459472,-108.109329223632,1167576068
fw,-72.8587646484375,-83.8412017822265,43.6305885314941,-140.452102661132,1167592735
fw,-74.1981353759765,-86.546401977539,44.2530250549316,-167.40151977539,1167609402
fw,-76.0739517211914,-89.0383605957031,58.372444152832,-221.916793823242,1167626069
fw,-78.0211868286132,-84.4535980224609,92.7665863037109,-305.851287841796,1167642736
fw,-79.7913055419921,-79.0839691162109,92.5020523071289,-321.219543457031,1167659403
fw,-81.5523834228515,-75.0761260986328,79.9496841430664,-240.181640625,1167676070
fw,-83.4209671020507,-72.280044555664,99.1766586303711,-170.662734985351,1167692737
fw,-85.1201095581054,-70.0843429565429,121.323738098144,-134.741653442382,1167709404
fw,-86.1597290039062,-67.2762908935546,75.3606185913086,-171.637908935546,1167726071
fw,-87.0578231811523,-64.0660095214843,36.7221794128418,-195.417129516601,1167742738
fw,-87.7175903320312,-61.187442779541,37.8390159606933,-172.914154052734,1167759405
fw,-87.8294830322265,-58.9071731567382,37.9742240905761,-135.310440063476,1167776072
fw,-87.4766387939453,-57.0705223083496,40.444408416748,-108.341857910156,1167792739
fw,-86.8756942749023,-55.4461288452148,41.8725051879882,-96.3412094116211,1167809406
fw,-86.1744918823242,-54.0873794555664,39.380500793457,-81.4077911376953,1167826073
fw,-85.3912963867187,-53.0039367675781,38.4533958435058,-66.6454696655273,1167842740
fw,-84.6405410766601,-52.1312065124511,33.3375129699707,-55.3068695068359,1167859407
fw,-83.9333038330078,-51.242317199707,30.1142063140869,-57.0660552978515,1167876074
fw,-83.2018280029296,-50.5929641723632,31.7928295135498,-41.4390869140625,1167892741
fw,-82.4404373168945,-50.8930931091308,33.0179214477539,15.7915525436401,1167909408
fw,-81.6391448974609,-52.9825248718261,34.5147972106933,123.702049255371,1167926075
fw,-80.8743286132812,-55.696907043457,31.379259109497,158.536636352539,1167942742
fw,-80.2005462646484,-59.4876098632812,25.0978679656982,221.639465332031,1167959409
fw,-79.6850051879882,-63.0219917297363,14.3301429748535,207.892181396484,1167976076
fw,-79.1935272216796,-65.0998458862304,12.102873802185,120.920547485351,1167992743
fw,-78.6284027099609,-66.5160293579101,18.5871467590332,78.4813842773437,1168009410
fw,-78.0224304199218,-68.0201797485351,24.9304122924804,86.1121368408203,1168026077
fw,-77.4404220581054,-69.0445098876953,28.4804420471191,59.7399978637695,1168042744
fw,-77.0347366333007,-69.5312957763671,22.1786365509033,27.4269638061523,1168059411
fw,-76.9334640502929,-69.9388351440429,4.60462093353271,23.4192008972167,1168076078
fw,-77.1009902954101,-71.1103973388671,-11.0857686996459,70.028205871582,1168092745
fw,-77.6071395874023,-72.6190185546875,-28.9589443206787,91.1506958007812,1168109412
fw,-78.5174331665039,-72.773452758789,-49.9953727722168,12.4421529769897,1168126079
fw,-79.9249877929687,-72.5121002197265,-74.8812866210937,-11.7642230987548,1168142746
fw,-82.0383911132812,-72.7218704223632,-110.020233154296,4.3063850402832,1168159413
fw,-84.7018356323242,-73.7091674804687,-132.44270324707,42.0201110839843,1168176080
fw,-87.5273361206054,-75.0840454101562,-138.004135131835,68.3892059326171,1168192747
fw,-88.4580764770507,-76.3344573974609,-139.308013916015,68.0298385620117,1168209414
fw,-85.8447113037109,-77.6282501220703,-108.048820495605,75.0837020874023,1168226081
fw,-83.1373901367187,-79.1198272705078,-135.361618041992,87.2413864135742,1168242748
fw,-80.4267578125,-80.4814071655273,-163.341003417968,80.7839584350586,1168259415
fw,-77.9066390991211,-81.7358474731445,-157.091094970703,75.6224899291992,1168276082
fw,-75.0170364379882,-83.175910949707,-181.701354980468,85.3954849243164,1168292749
fw,-71.5585708618164,-84.6361541748046,-211.738616943359,84.8144226074218,1168309416
fw,-68.350471496582,-86.1230392456054,-190.643768310546,84.398323059082,1168326083
fw,-66.059326171875,-87.5124969482421,-123.3189163208,81.7872314453125,1168342750
fw,-64.4698333740234,-88.765998840332,-68.4119033813476,79.3357467651367,1168359417
fw,-63.1779060363769,-89.565689086914,-50.7951164245605,62.286880493164,1168376084
fw,-61.9832038879394,-89.1642074584961,-47.8336868286132,45.1971054077148,1168392751
fw,-60.8572044372558,-88.3866271972656,-46.5278396606445,45.38228225708,1168409418
fw,-59.7574005126953,-87.5840301513671,-50.3245697021484,43.0126266479492,1168426085
fw,-58.8935661315918,-86.7409973144531,-42.370361328125,42.7747688293457,1168442752
fw,-58.1127319335937,-85.7708435058593,-51.4192543029785,51.1354789733886,1168459419
fw,-57.5894584655761,-84.746223449707,-45.7282524108886,58.2603187561035,1168476086
fw,-57.3576393127441,-83.74755859375,-35.5079116821289,60.0060539245605,1168492753
fw,-57.3494300842285,-82.807258605957,-30.0493774414062,57.1647911071777,1168509420
fw,-58.1290092468261,-81.8004608154296,16.0245475769042,60.4464035034179,1168526087
fw,-60.1572685241699,-80.765625,92.4092254638671,61.1588668823242,1168542754
fw,-61.8453369140625,-79.823860168457,64.6256408691406,54.6080169677734,1168559421
fw,-63.7218208312988,-78.9434051513671,84.6995773315429,50.2861175537109,1168576088
fw,-65.1087493896484,-78.072509765625,46.311466217041,50.0000877380371,1168592755
fw,-66.3354034423828,-77.3041687011718,28.0186042785644,44.5537910461425,1168609422
fw,-67.2509231567382,-76.6584243774414,30.1487083435058,37.7029380798339,1168626089
fw,-67.3765106201171,-76.3147735595703,3.06199765205383,19.5171699523925,1168642756
fw,-67.8379898071289,-76.472671508789,29.4704322814941,-11.6088552474975,1168659423
fw,-69.0798568725586,-77.1877670288086,56.8443489074707,-45.6335830688476,1168676090
fw,-70.6882629394531,-78.2893371582031,78.3582000732421,-68.2744140625,1168692757
fw,-71.7068176269531,-79.819221496582,60.425365447998,-92.8263320922851,1168709424
fw,-72.3509292602539,-81.8767471313476,37.4023704528808,-123.956962585449,1168726091
fw,-73.1903381347656,-84.5952453613281,37.573558807373,-163.815078735351,1168742758
fw,-74.4529266357421,-87.7373962402343,30.3329219818115,-187.133163452148,1168759425
fw,-76.1374588012695,-87.8868713378906,60.8738098144531,-258.360931396484,1168776092
fw,-77.6770248413086,-82.5623016357421,71.9362335205078,-314.104217529296,1168792759
fw,-79.2281188964843,-77.9492263793945,68.6219787597656,-275.868835449218,1168809426
fw,-80.8704071044921,-74.4834594726562,73.9468688964843,-212.427963256835,1168826093
fw,-82.627197265625,-72.2580261230468,90.8266372680664,-138.98631286621,1168842760
fw,-84.2946014404296,-69.7520675659179,89.8997344970703,-155.509399414062,1168859427
fw,-85.8015670776367,-65.8902740478515,75.5786819458007,-238.877456665039,1168876094
fw,-87.2123870849609,-62.4024467468261,56.9851875305175,-214.198150634765,1168892761
fw,-88.5653686523437,-59.5244903564453,54.8771667480468,-173.544601440429,1168909428
fw,-89.5634460449218,-57.4312362670898,52.0896186828613,-123.256813049316,1168926095
fw,-88.892707824707,-55.8694801330566,51.4605712890625,-90.2532882690429,1168942762
fw,-87.8968124389648,-54.620361328125,47.8755836486816,-71.7033233642578,1168959429
fw,-86.9516830444336,-53.7546844482421,40.6751518249511,-49.4695854187011,1168976096
fw,-86.0215759277343,-52.7768898010253,37.0727806091308,-57.9328384399414,1168992763
fw,-85.1868438720703,-51.8865356445312,28.3147163391113,-54.7921142578125,1169009430
fw,-84.3641052246093,-51.0572509765625,26.7525291442871,-51.9874725341796,1169026097
fw,-83.4129257202148,-50.799388885498,38.211326599121,-18.4433898925781,1169042764
fw,-82.3664779663086,-51.4925460815429,49.0239372253418,36.6735763549804,1169059431
fw,-81.3097763061523,-53.8825340270996,52.3769912719726,136.322326660156,1169076098
fw,-80.3812561035156,-57.0165672302246,43.2236671447753,181.187301635742,1169092765
fw,-79.6654739379882,-60.5471267700195,28.2398090362548,206.095397949218,1169109432
fw,-79.1123428344726,-63.395523071289,14.7962732315063,167.38735961914,1169126099
fw,-78.5773162841796,-65.093276977539,12.2004251480102,98.3026962280273,1169142766
fw,-78.0331726074218,-66.6024169921875,14.6607027053833,84.2864303588867,1169159433
fw,-77.5182723999023,-68.0797424316406,17.452766418457,85.2345886230468,1169176100
fw,-77.078628540039,-68.6349716186523,19.3190765380859,30.8280658721923,1169192767
fw,-76.8940353393554,-68.9963150024414,8.52242374420166,19.0575847625732,1169209434
fw,-77.0619506835937,-69.6691284179687,-10.7964878082275,38.1753921508789,1169226101
fw,-77.5452880859375,-71.3310852050781,-25.8575820922851,98.9296951293945,1169242768
fw,-78.3949279785156,-72.5214691162109,-43.1440391540527,73.9280319213867,1169259435
fw,-79.757583618164,-72.2500381469726,-71.6804656982421,-11.0214509963989,1169276102
fw,-81.810432434082,-71.9162216186523,-109.379043579101,-16.2648410797119,1169292769
fw,-84.5089569091796,-72.2064514160156,-140.647521972656,9.94651889801025,1169309436
fw,-87.5571975708007,-73.3482513427734,-148.084014892578,52.7463760375976,1169326103
fw,-89.0282363891601,-74.9729690551757,-145.001571655273,82.0384292602539,1169342770
fw,-85.8291320800781,-76.3179626464843,-107.248359680175,73.5221328735351,1169359437
fw,-82.9221038818359,-77.8605194091796,-109.296897888183,89.5513000488281,1169376104
fw,-79.9852600097656,-79.7342147827148,-164.023345947265,109.50064086914,1169392771
fw,-77.3813858032226,-81.228042602539,-158.769439697265,90.8654861450195,1169409438
fw,-74.7162246704101,-82.6162948608398,-167.402999877929,86.2970962524414,1169426105
fw,-71.5033340454101,-84.0902786254882,-201.097335815429,90.0478591918945,1169442772
fw,-67.7923278808593,-85.4668045043945,-227.945083618164,79.6309738159179,1169459439
fw,-64.7503814697265,-86.6685714721679,-179.428436279296,61.8435859680175,1169476106
fw,-62.9223480224609,-87.8246231079101,-97.869644165039,61.251293182373,1169492773
fw,-61.7043533325195,-88.7436828613281,-54.5579414367675,53.3207931518554,1169509440
fw,-60.8284034729003,-89.3620376586914,-27.7897033691406,41.3192329406738,1169526107
fw,-59.9705581665039,-89.5042572021484,-25.0797443389892,45.8717308044433,1169542774
fw,-58.9811363220214,-88.7298965454101,-41.2581672668457,54.042610168457,1169559441
fw,-58.3790473937988,-87.8669662475586,-19.9835166931152,50.6183624267578,1169576108
fw,-57.8656921386718,-87.1234283447265,-25.2140750885009,41.092544555664,1169592775
fw,-57.5426979064941,-86.4514389038086,-24.5854892730712,36.3850860595703,1169609442
fw,-57.4806060791015,-85.7586441040039,-18.7717895507812,38.7329330444335,1169626109
fw,-57.6275482177734,-84.9977111816406,-18.7166061401367,43.2118835449218,1169642776
fw,-58.1417999267578,-84.1711959838867,-2.85016727447509,46.82666015625,1169659443
fw,-59.7459335327148,-83.285400390625,67.7238388061523,49.7049407958984,1169676110
fw,-61.297737121582,-82.3834609985351,57.7243347167968,50.6947593688964,1169692777
fw,-63.4028091430664,-81.4960556030273,101.60105895996,50.3241729736328,1169709444
fw,-65.0748977661132,-80.5045013427734,82.8185729980468,57.3338241577148,1169726111
fw,-65.9883041381836,-79.51611328125,24.0964641571044,57.9154090881347,1169742778
fw,-66.8950805664062,-78.7559509277343,29.1110553741455,44.9573860168457,1169759445
fw,-67.2854690551757,-78.3264083862304,8.01279258728027,24.9843254089355,1169776112
fw,-67.7386474609375,-78.3897171020507,26.7006015777587,-5.47301912307739,1169792779
fw,-68.7466278076171,-78.9763107299804,53.6525268554687,-37.8143043518066,1169809446
fw,-70.2801437377929,-79.9039077758789,79.6559600830078,-58.419563293457,1169826113
fw,-71.4524841308593,-81.1112823486328,67.1953659057617,-74.2999420166015,1169842780
fw,-72.2507705688476,-82.8367004394531,44.1669998168945,-104.439895629882,1169859447
fw,-73.0779953002929,-85.2140197753906,42.1122436523437,-144.033889770507,1169876114
fw,-74.3978118896484,-88.1316680908203,32.3006706237793,-175.66455078125,1169892781
fw,-76.2584457397461,-87.8160934448242,62.0847740173339,-238.380981445312,1169909448
fw,-78.0521926879882,-82.6273574829101,85.8327941894531,-307.707489013671,1169926115
fw,-79.8013305664062,-77.2508163452148,83.910659790039,-316.201629638671,1169942782
fw,-81.670295715332,-73.5617218017578,86.6031723022461,-221.748886108398,1169959449
fw,-83.6079406738281,-71.4045944213867,100.808059692382,-134.375259399414,1169976116
fw,-85.4045867919921,-69.6722106933593,114.649696350097,-109.324035644531,1169992783
fw,-86.6960678100586,-66.5470428466796,98.3724975585937,-193.228332519531,1170009450
fw,-87.4925079345703,-62.9629402160644,54.8308792114257,-219.74739074707,1170026117
fw,-87.9831619262695,-60.0164070129394,32.9957313537597,-176.9736328125,1170042784
fw,-87.9786071777343,-57.7005653381347,29.0461997985839,-137.331665039062,1170059451
fw,-87.6123886108398,-56.0436859130859,27.1532535552978,-97.6849670410156,1170076118
fw,-86.9652709960937,-54.6282310485839,34.5209846496582,-83.6962890625,1170092785
fw,-86.1897735595703,-53.5548858642578,37.048770904541,-64.3321762084961,1170109452
fw,-85.3774642944336,-52.4932632446289,34.6237716674804,-64.6032638549804,1170126119
fw,-84.5604400634765,-51.6032371520996,31.8430252075195,-55.0981788635253,1170142786
fw,-83.8016967773437,-50.7382049560546,28.077314376831,-53.9606208801269,1170159453
fw,-83.0690460205078,-50.1595115661621,28.1761837005615,-38.1860160827636,1170176120
fw,-82.3437576293945,-50.6380653381347,29.532413482666,23.9923877716064,1170192787
fw,-81.6082000732421,-52.614086151123,28.5361232757568,114.038215637207,1170209454
fw,-80.8558273315429,-55.4763641357421,27.9261131286621,165.786483764648,1170226121
fw,-80.2126922607421,-59.2792739868164,19.3481922149658,220.977020263671,1170242788
fw,-79.6721572875976,-62.4922485351562,10.7227907180786,188.335159301757,1170259455
fw,-79.1027755737304,-64.3352661132812,12.948745727539,104.552673339843,1170276122
fw,-78.4323959350586,-65.7090072631836,23.0035152435302,74.4920349121093,1170292789
fw,-77.6565628051757,-67.0351028442382,33.2405281066894,75.4360656738281,1170309456
fw,-76.9787521362304,-67.7539367675781,32.6621131896972,41.1730804443359,1170326123
fw,-76.5803451538086,-68.2536315917968,19.8708572387695,28.6536827087402,1170342790
fw,-76.4391326904296,-69.0165863037109,5.24887084960937,42.8155822753906,1170359457
fw,-76.5063858032226,-70.5514755249023,-5.10035181045532,87.8517761230468,1170376124
fw,-76.8604736328125,-72.6808624267578,-18.7946319580078,126.26821899414,1170392791
fw,-77.613296508789,-73.2660140991211,-40.8976097106933,39.2356224060058,1170409458
fw,-78.8762435913086,-72.8085861206054,-67.3934860229492,-20.383617401123,1170426125
fw,-80.7578811645507,-72.7197036743164,-96.2847290039062,-6.14382076263427,1170442792
fw,-83.3313217163086,-73.5279693603515,-127.012054443359,36.2499656677246,1170459459
fw,-86.2353744506836,-74.7754364013671,-136.400527954101,55.6841621398925,1170476126
fw,-88.9284515380859,-75.939094543457,-142.038299560546,55.0948905944824,1170492793
fw,-87.0147628784179,-77.0524215698242,-117.20588684082,61.1150512695312,1170509460
fw,-84.3309936523437,-78.6233978271484,-110.350227355957,91.6834487915039,1170526127
fw,-81.5259017944336,-80.0877532958984,-161.770431518554,86.5726470947265,1170542794
fw,-78.8003463745117,-81.4747238159179,-164.288619995117,84.9331741333007,1170559461
fw,-76.0196075439453,-82.8614425659179,-172.784301757812,83.8214340209961,1170576128
fw,-72.7069931030273,-84.3644485473632,-207.913040161132,88.1428070068359,1170592795
fw,-69.0556030273437,-85.9013137817382,-224.152694702148,86.2400970458984,1170609462
fw,-66.2797775268554,-87.2007522583007,-159.285278320312,72.7763061523437,1170626129
fw,-64.3332214355468,-88.248779296875,-95.8541183471679,61.3313446044921,1170642796
fw,-62.756477355957,-89.0754928588867,-72.6520843505859,48.135627746582,1170659463
fw,-61.4580307006835,-89.7338562011718,-55.8962821960449,40.2183189392089,1170676130
fw,-60.308738708496,-89.3033905029296,-47.487922668457,47.4126663208007,1170692797
fw,-59.1907196044921,-88.4389038085937,-51.3885040283203,45.0270767211914,1170709464
fw,-58.4472618103027,-87.6319732666015,-34.4676132202148,40.616641998291,1170726131
fw,-57.7531509399414,-86.8373336791992,-43.9021873474121,41.6899261474609,1170742798
fw,-57.2088088989257,-86.0310363769531,-45.7591896057128,46.4114418029785,1170759465
fw,-56.8863487243652,-85.261001586914,-41.7350845336914,46.5792198181152,1170776132
fw,-56.9439125061035,-84.5029602050781,-24.5827178955078,45.3689155578613,1170792799
fw,-57.2815055847168,-83.7071762084961,-17.4426307678222,46.2833175659179,1170809466
fw,-58.9167556762695,-82.8390045166015,71.5517272949218,49.6294021606445,1170826133
fw,-60.5848312377929,-81.9134750366211,63.2639999389648,52.6832771301269,1170842800
fw,-62.459171295166,-81.0096817016601,83.9179077148437,51.4121513366699,1170859467
fw,-64.3216400146484,-80.0190124511718,85.1960983276367,57.0805549621582,1170876134
fw,-65.3132095336914,-79.0614318847656,23.7879161834716,55.9405708312988,1170892801
fw,-66.6633529663086,-78.2550277709961,49.411750793457,47.6727485656738,1170909468
fw,-67.1462326049804,-77.7088623046875,9.83243083953857,32.376609802246,1170926135
fw,-67.2315597534179,-77.4909210205078,6.11968421936035,11.6737785339355,1170942802
fw,-67.9995956420898,-77.8310165405273,38.7042579650878,-23.0895118713378,1170959469
fw,-69.6533126831054,-78.5517578125,72.4740447998046,-46.5217552185058,1170976136
fw,-71.2677536010742,-79.5114440917968,83.3929443359375,-60.3165473937988,1170992803
fw,-72.1380004882812,-80.9490509033203,56.4397392272949,-87.7428283691406,1171009470
fw,-72.7664108276367,-83.0533905029296,38.8281555175781,-127.304222106933,1171026137
fw,-73.7955474853515,-85.7896041870117,46.4670600891113,-165.534301757812,1171042804
fw,-75.3386917114257,-88.9781799316406,45.5222129821777,-196.9306640625,1171059471
fw,-77.2757949829101,-86.4031066894531,76.8037033081054,-266.853302001953,1171076138
fw,-79.1268157958984,-81.1613388061523,88.3320922851562,-309.700866699218,1171092805
fw,-81.0275573730468,-76.6986312866211,83.9994354248046,-264.595672607421,1171109472
fw,-82.987678527832,-73.7229309082031,94.84423828125,-181.622573852539,1171126139
fw,-84.8723373413086,-71.8292236328125,107.152153015136,-118.30271911621,1171142806
fw,-86.3484802246093,-69.445327758789,97.1269607543945,-147.545867919921,1171159473
fw,-87.3506317138671,-65.7787551879882,74.0144271850586,-225.332656860351,1171176140
fw,-88.0053176879882,-62.5061950683593,46.267292022705,-199.574386596679,1171192807
fw,-88.3507614135742,-59.6224632263183,30.9018154144287,-173.309127807617,1171209474
fw,-88.2270126342773,-57.5390586853027,27.343240737915,-124.240325927734,1171226141
fw,-87.6345443725586,-55.8743476867675,35.4128494262695,-98.7967529296875,1171242808
fw,-86.7590713500976,-54.44136428833,45.6682739257812,-85.5908737182617,1171259475
fw,-85.8119354248046,-53.3942565917968,46.1326522827148,-64.1826095581054,1171276142
fw,-84.88818359375,-52.2833442687988,41.7362937927246,-68.8948898315429,1171292809
fw,-84.1215362548828,-51.3083000183105,29.7459278106689,-62.247947692871,1171309476
fw,-83.3949737548828,-50.4541435241699,27.0126438140869,-54.9263954162597,1171326143
fw,-82.6913757324218,-50.2601623535156,27.8346004486084,-15.2333831787109,1171342810
fw,-81.9829559326171,-51.0307884216308,28.1022300720214,41.0887374877929,1171359477
fw,-81.1971969604492,-53.6320610046386,32.5579872131347,150.583770751953,1171376144
fw,-80.4366149902343,-57.1224365234375,30.284496307373,203.12059020996,1171392811
fw,-79.8193588256836,-60.9867515563964,19.1564865112304,226.056808471679,1171409478
fw,-79.3242721557617,-63.938850402832,10.4710617065429,173.164428710937,1171426145
fw,-78.7838821411132,-65.7335891723632,13.7173719406127,103.02082824707,1171442812
fw,-78.1597137451171,-67.2672042846679,20.2429447174072,86.5756912231445,1171459479
fw,-77.5614242553711,-68.2728576660156,22.6998138427734,57.2890815734863,1171476146
fw,-77.099494934082,-68.5098571777343,20.1930961608886,11.4092578887939,1171492813
fw,-76.8919296264648,-68.8563537597656,8.9507360458374,19.7199039459228,1171509480
fw,-76.9477310180664,-69.556396484375,-5.16143083572387,41.0359001159668,1171526147
fw,-77.259162902832,-71.3679809570312,-17.3690166473388,107.1538772583,1171542814
fw,-77.9250106811523,-72.5597610473632,-35.6089057922363,71.4654998779296,1171559481
fw,-79.0683059692382,-72.3122787475586,-62.0565605163574,-9.62480163574218,1171576148
fw,-80.8497695922851,-72.1712112426757,-93.3104248046875,-6.12003421783447,1171592815
fw,-83.378189086914,-72.7750930786132,-125.816078186035,23.4941864013671,1171609482
fw,-86.3991317749023,-74.0094451904296,-144.366592407226,57.0836944580078,1171626149
fw,-89.7133255004882,-75.3280639648437,-151.725799560546,66.7014999389648,1171642816
fw,-86.9965209960937,-76.4273376464843,-122.732666015625,60.6204719543457,1171659483
fw,-84.0170593261718,-77.8274765014648,-120.571487426757,81.3833847045898,1171676150
fw,-80.9355392456054,-79.373306274414,-167.418395996093,91.2338638305664,1171692817
fw,-78.1461868286132,-80.701431274414,-164.973892211914,80.3128051757812,1171709484
fw,-75.2284851074218,-82.1811141967773,-178.124908447265,88.0580673217773,1171726151
fw,-71.6436309814453,-83.7318115234375,-220.024856567382,90.7610321044921,1171742818
fw,-68.0378952026367,-85.2448654174804,-216.668136596679,87.0440444946289,1171759485
fw,-65.3861846923828,-86.7408142089843,-146.468978881835,86.2877807617187,1171776152
fw,-63.6564826965332,-88.1951751708984,-76.1385879516601,86.3573837280273,1171792819
fw,-62.2181129455566,-89.4328308105468,-59.1183967590332,73.3799438476562,1171809486
fw,-61.0422630310058,-89.5515060424804,-45.3169364929199,55.0997505187988,1171826153
fw,-59.9742202758789,-88.7402648925781,-40.4474296569824,48.4792594909668,1171842820
fw,-58.8685264587402,-87.8754196166992,-49.6707687377929,49.6194648742675,1171859487
fw,-57.9902877807617,-87.0244827270507,-45.8461761474609,45.7957229614257,1171876154
fw,-57.1747398376464,-86.1969757080078,-55.2703895568847,42.6192169189453,1171892821
fw,-56.6052360534668,-85.2842407226562,-47.9264335632324,49.6723937988281,1171909488
fw,-56.3094406127929,-84.3813095092773,-37.9576301574707,52.6122398376464,1171926155
fw,-56.2992668151855,-83.4549484252929,-26.7316875457763,55.1213073730468,1171942822
fw,-56.6691017150878,-82.4684219360351,-11.1199493408203,58.3443298339843,1171959489
fw,-58.6879501342773,-81.4567947387695,100.473846435546,59.2448577880859,1171976156
fw,-60.5666809082031,-80.5156707763671,77.3917160034179,54.1619758605957,1171992823
fw,-62.3983688354492,-79.6656646728515,82.7438354492187,47.7863578796386,1172009490
fw,-64.184326171875,-78.8144226074218,81.2596664428711,47.78466796875,1172026157
fw,-65.3819732666015,-78.0332870483398,26.5103111267089,44.6412124633789,1172042824
fw,-66.6847457885742,-77.4573822021484,49.9181175231933,33.4752883911132,1172059491
fw,-67.0330200195312,-77.1639633178711,7.77002573013305,16.8766765594482,1172076158
fw,-67.37060546875,-77.4206161499023,23.434190750122,-17.3191661834716,1172092825
fw,-68.5165481567382,-78.2589416503906,52.7652320861816,-53.4578132629394,1172109492
fw,-70.2611770629882,-79.4345626831054,79.2817153930664,-73.2901382446289,1172126159
fw,-71.3467254638671,-80.9440536499023,62.0532112121582,-92.249153137207,1172142826
fw,-71.9158172607421,-82.8131027221679,34.971019744873,-113.205184936523,1172159493
fw,-72.7733993530273,-85.1543426513671,40.0379447937011,-141.035095214843,1172176160
fw,-74.0400848388671,-88.1961517333984,36.2370338439941,-183.786849975585,1172192827
fw,-75.8915252685546,-87.0980224609375,65.5574417114257,-276.160217285156,1172209494
fw,-77.7620086669921,-81.3748168945312,86.7806701660156,-340.322082519531,1172226161
fw,-79.7167282104492,-76.4661178588867,91.4653549194336,-293.456634521484,1172242828
fw,-81.8902969360351,-73.0684967041015,108.423919677734,-208.173995971679,1172259495
fw,-84.0777511596679,-70.5644302368164,117.672645568847,-155.602935791015,1172276162
fw,-85.8820114135742,-67.8503799438476,104.504920959472,-167.783309936523,1172292829
fw,-87.2324676513671,-64.4420394897461,72.4670028686523,-210.350921630859,1172309496
fw,-88.2833175659179,-61.3999595642089,44.1238327026367,-185.649673461914,1172326163
fw,-89.1511917114257,-58.790225982666,37.2164878845214,-155.779998779296,1172342830
fw,-89.2766571044921,-56.7947540283203,39.763916015625,-117.673301696777,1172359497
fw,-88.4282913208007,-55.1973075866699,48.9435310363769,-93.2775573730468,1172376164
fw,-87.3616638183593,-53.9391937255859,54.9363136291503,-74.3740615844726,1172392831
fw,-86.3278503417968,-52.8310203552246,49.4849090576171,-67.6468048095703,1172409498
fw,-85.3519821166992,-51.8171768188476,44.0067253112793,-63.5683326721191,1172426165
fw,-84.5000762939453,-50.794189453125,35.7763061523437,-65.7871627807617,1172442832
fw,-83.7415390014648,-50.0466537475585,31.3521251678466,-48.8493843078613,1172459499
fw,-82.9497680664062,-49.9554252624511,35.2738647460937,-9.08998489379882,1172476166
fw,-82.1024780273437,-51.0473136901855,38.5281600952148,62.8824234008789,1172492833
fw,-81.2764816284179,-53.5380821228027,35.8029136657714,146.394805908203,1172509500
fw,-80.5157318115234,-56.9071388244628,31.2343292236328,196.253814697265,1172526167
fw,-79.9405441284179,-60.4158782958984,18.196210861206,206.439315795898,1172542834
fw,-79.4514083862304,-63.2297935485839,10.556354522705,166.138442993164,1172559501
fw,-78.9359130859375,-64.8268432617187,11.8227920532226,89.6301727294921,1172576168
fw,-78.346694946289,-66.5984420776367,20.1098022460937,98.7254028320312,1172592835
fw,-77.7392807006836,-67.9895782470703,26.8989849090576,79.6914901733398,1172609502
fw,-77.3141479492187,-68.5286788940429,23.2463836669921,29.6347770690917,1172626169
fw,-77.1940612792968,-69.1081924438476,8.95939540863037,33.4680862426757,1172642836
fw,-77.4038391113281,-69.9122848510742,-10.0477275848388,47.3557777404785,1172659503
fw,-77.9442062377929,-71.7306518554687,-27.4051208496093,108.439514160156,1172676170
fw,-78.896011352539,-72.55078125,-49.2385444641113,50.8867263793945,1172692837
fw,-80.4520721435546,-72.2034072875976,-83.8463134765625,-15.3580102920532,1172709504
fw,-82.7947845458984,-71.9755401611328,-122.432510375976,-14.5316677093505,1172726171
fw,-85.7455978393554,-72.5644836425781,-145.9111328125,20.4231624603271,1172742838
fw,-88.9701690673828,-73.7624740600586,-147.902694702148,55.0321083068847,1172759505
fw,-87.4947814941406,-74.8832550048828,-136.506912231445,57.4455261230468,1172776172
fw,-84.4043807983398,-75.9148864746093,-107.79312133789,58.2610435485839,1172792839
fw,-81.250015258789,-77.3427352905273,-158.017456054687,83.3688430786132,1172809506
fw,-78.2443466186523,-78.9368209838867,-176.331710815429,93.9013214111328,1172826173
fw,-75.3440780639648,-80.4189147949218,-174.709365844726,87.7967376708984,1172842840
fw,-72.1247406005859,-82.0632858276367,-198.802932739257,96.8784713745117,1172859507
fw,-68.2357025146484,-83.6749496459961,-239.7548828125,94.4576339721679,1172876174
fw,-64.7594451904296,-85.0920104980468,-209.455261230468,84.1656188964843,1172892841
fw,-62.5630302429199,-86.3725891113281,-115.9634475708,81.6162414550781,1172909508
fw,-61.0135803222656,-87.513442993164,-71.6864318847656,75.2282943725586,1172926175
fw,-59.9109649658203,-88.3158874511718,-43.2722663879394,48.4064674377441,1172942842
fw,-59.0150146484375,-88.9038925170898,-29.521068572998,42.2507553100585,1172959509
fw,-57.9541015625,-88.9324722290039,-46.2773971557617,47.4451789855957,1172976176
fw,-57.1072463989257,-88.1664505004882,-39.3530158996582,53.9240112304687,1172992843
fw,-56.4526939392089,-87.1579360961914,-37.9442443847656,54.5472221374511,1173009510
fw,-56.0232582092285,-86.1797714233398,-34.502685546875,54.9175987243652,1173026177
fw,-55.9337692260742,-85.3505935668945,-21.4631843566894,51.3041191101074,1173042844
fw,-55.9932479858398,-84.5614547729492,-24.9409294128417,52.3905296325683,1173059511
fw,-56.3244018554687,-83.720962524414,-17.0286903381347,54.5013160705566,1173076178
fw,-57.4853248596191,-82.814224243164,36.5623321533203,55.4873809814453,1173092845
fw,-59.2131385803222,-81.9062423706054,64.0752410888671,53.1472778320312,1173109512
fw,-61.072956085205,-81.002082824707,81.0563430786132,50.5621452331543,1173126179
fw,-62.8088226318359,-80.0882110595703,79.5989303588867,50.7097969055175,1173142846
fw,-63.923542022705,-79.2752914428711,39.4616012573242,46.0189399719238,1173159513
fw,-64.7389297485351,-78.5174331665039,9.89817810058593,44.7645454406738,1173176180
fw,-65.8763046264648,-77.8345108032226,36.5777511596679,41.4755592346191,1173192847
fw,-66.194091796875,-77.471206665039,5.03271770477294,21.9613399505615,1173209514
fw,-66.491958618164,-77.5785522460937,14.4156980514526,-8.68625736236572,1173226181
fw,-67.8776016235351,-78.0158386230468,53.1299362182617,-30.60786819458,1173242848
fw,-70.0405960083007,-78.5974044799804,89.6437835693359,-38.1842346191406,1173259515
fw,-71.4464874267578,-79.5277557373046,78.4771957397461,-57.1779022216796,1173276182
fw,-72.0478744506836,-80.998176574707,40.8571701049804,-89.4238586425781,1173292849
fw,-72.8343429565429,-83.133560180664,43.0087966918945,-130.647811889648,1173309516
fw,-74.0092620849609,-85.8635559082031,41.9469375610351,-169.363906860351,1173326183
fw,-75.627944946289,-88.7226791381836,59.4315528869628,-225.973648071289,1173342850
fw,-77.2307510375976,-84.9904708862304,72.8372497558593,-300.248138427734,1173359517
fw,-78.8581848144531,-79.9120330810546,70.1434936523437,-306.102813720703,1173376184
fw,-80.7333526611328,-75.5563049316406,90.7265472412109,-261.86083984375,1173392851
fw,-82.5039367675781,-72.2789154052734,98.0119552612304,-199.082595825195,1173409518
fw,-84.2076263427734,-69.3906784057617,100.922523498535,-176.787826538085,1173426185
fw,-85.7899703979492,-65.9144134521484,84.0452728271484,-212.847351074218,1173442852
fw,-87.1454925537109,-62.3507499694824,64.280891418457,-217.832321166992,1173459519
fw,-88.2574005126953,-59.0910873413085,45.8332481384277,-196.336364746093,1173476186
fw,-89.2277297973632,-56.3519821166992,35.8730812072753,-162.917938232421,1173492853
fw,-89.556770324707,-54.2963066101074,38.0495529174804,-121.387969970703,1173509520
fw,-88.6751480102539,-52.4645614624023,40.641258239746,-108.818649291992,1173526187
fw,-87.7888412475586,-51.046100616455,35.5202026367187,-85.8528594970703,1173542854
fw,-86.9151077270507,-49.7785949707031,33.014591217041,-78.2994995117187,1173559521
fw,-86.1054992675781,-48.7197151184082,27.9379177093505,-66.6649551391601,1173576188
fw,-85.3450775146484,-47.7570533752441,27.3010520935058,-60.2858200073242,1173592855
fw,-84.6116943359375,-47.5860176086425,30.0549812316894,-12.4512891769409,1173609522
fw,-83.8547821044921,-49.2197341918945,32.8539924621582,98.0334014892578,1173626189
fw,-83.0728988647461,-51.0577125549316,34.036937713623,108.445320129394,1173642856
fw,-82.2957382202148,-54.4619102478027,31.8719882965087,199.060943603515,1173659523
fw,-81.588752746582,-58.0997085571289,24.084810256958,214.488189697265,1173676190
fw,-80.9263534545898,-61.5711364746093,18.962926864624,205.052520751953,1173692857
fw,-80.2100372314453,-63.3892097473144,23.1166439056396,104.670959472656,1173709524
fw,-79.4083862304687,-65.098403930664,32.7767295837402,95.7613067626953,1173726191
fw,-78.5939025878906,-67.17578125,36.4307670593261,120.405990600585,1173742858
fw,-77.9288558959961,-68.5427627563476,30.6285457611084,79.4335174560546,1173759525
fw,-77.6126403808593,-69.4933853149414,15.1672649383544,54.5723838806152,1173776192
fw,-77.6438522338867,-70.5995864868164,-1.66369569301605,65.0661544799804,1173792859
fw,-78.0499114990234,-72.2296905517578,-20.9722156524658,98.5973663330078,1173809526
fw,-78.9129257202148,-73.208511352539,-45.80224609375,60.5722579956054,1173826193
fw,-80.2857284545898,-73.2722549438476,-72.9996337890625,6.13511180877685,1173842860
fw,-82.3449630737304,-73.6480941772461,-107.492195129394,20.6434936523437,1173859527
fw,-85.0568771362304,-74.5993194580078,-137.708526611328,48.1619758605957,1173876194
fw,-88.08154296875,-75.9765625,-148.420639038085,70.2206192016601,1173892861
fw,-88.3110122680664,-77.5097122192382,-153.758865356445,82.5082702636718,1173909528
fw,-85.2100524902343,-78.8155288696289,-122.971435546875,72.8960189819336,1173926195
fw,-82.3533248901367,-80.1745300292968,-111.722290039062,78.3829116821289,1173942862
fw,-79.4383392333984,-81.5200881958007,-147.473739624023,79.4576568603515,1173959529
fw,-76.7953186035156,-82.9308395385742,-149.417907714843,86.2238082885742,1173976196
fw,-73.8233871459961,-84.2368011474609,-178.902313232421,79.9851303100586,1173992863
fw,-70.4349594116211,-85.5431976318359,-201.872116088867,74.6852722167968,1174009530
fw,-67.1603775024414,-86.9170150756836,-189.337417602539,75.4131088256836,1174026197
fw,-64.5661849975586,-88.1959381103515,-140.838607788085,71.8424453735351,1174042864
fw,-62.58203125,-89.3138656616211,-98.1924362182617,67.6238327026367,1174059531
fw,-61.139476776123,-89.4369812011718,-61.2627601623535,67.9561309814453,1174076198
fw,-60.0334167480468,-88.389663696289,-41.8213729858398,63.0314102172851,1174092865
fw,-59.0676002502441,-87.3996276855468,-34.6786651611328,57.5054664611816,1174109532
fw,-58.1266708374023,-86.5824127197265,-38.003662109375,45.5005416870117,1174126199
fw,-57.3423156738281,-85.8141326904296,-34.4843025207519,40.2936134338378,1174142866
fw,-56.7223815917968,-85.0141830444336,-35.3895721435546,41.3466987609863,1174159533
fw,-56.2499618530273,-84.2662582397461,-38.5397453308105,39.331485748291,1174176200
fw,-56.0456581115722,-83.5342559814453,-31.7347393035888,40.7171440124511,1174192867
fw,-56.0641822814941,-82.735855102539,-32.4892082214355,46.7243919372558,1174209534
fw,-56.8344421386718,-81.821060180664,10.5668296813964,54.6201744079589,1174226201
fw,-58.8139190673828,-80.8053817749023,81.8176727294921,60.369140625,1174242868
fw,-60.6844902038574,-79.8542556762695,70.629165649414,55.5514221191406,1174259535
fw,-62.8225517272949,-78.9788818359375,98.9827346801757,50.1280212402343,1174276202
fw,-64.6581344604492,-78.1737518310546,68.9574356079101,45.7250900268554,1174292869
fw,-66.3464813232421,-77.4708480834961,60.6303253173828,39.9946098327636,1174309536
fw,-67.4538040161132,-76.953010559082,44.5281410217285,29.6579284667968,1174326203
fw,-67.8767471313476,-76.8784561157226,20.3594341278076,2.58230733871459,1174342870
fw,-68.7229309082031,-77.5652923583984,49.885986328125,-45.0425949096679,1174359537
fw,-70.2567977905273,-78.936050415039,78.3841857910156,-87.1859970092773,1174376204
fw,-71.1978759765625,-80.5917205810546,51.4401817321777,-103.397880554199,1174392871
fw,-71.7404708862304,-82.5628662109375,28.6492023468017,-121.47696685791,1174409538
fw,-72.5849304199218,-84.9124221801757,33.3751220703125,-145.793243408203,1174426205
fw,-73.9283599853515,-87.7977981567382,27.7557983398437,-184.324127197265,1174442872
fw,-75.7039794921875,-87.2761688232421,58.7208786010742,-262.060516357421,1174459539
fw,-77.015754699707,-81.5988235473632,49.3563652038574,-344.637939453125,1174476206
fw,-78.3524322509765,-76.1957092285156,50.3477058410644,-319.029907226562,1174492873
fw,-80.0222473144531,-72.6746063232421,75.7949752807617,-212.424743652343,1174509540
fw,-81.9294891357421,-70.2333374023437,109.002433776855,-150.948547363281,1174526207
fw,-83.5699234008789,-67.8767929077148,81.6976165771484,-145.16958618164,1174542874
fw,-85.1809463500976,-64.4587097167968,65.1853866577148,-209.443222045898,1174559541
fw,-86.5541763305664,-61.0406036376953,61.7624168395996,-208.342208862304,1174576208
fw,-87.5413055419921,-58.0914306640625,50.397102355957,-177.091720581054,1174592875
fw,-88.3764724731445,-55.655288696289,42.133186340332,-145.652145385742,1174609542
fw,-89.0572662353515,-53.7033805847168,44.8555526733398,-116.229263305664,1174626209
fw,-88.8718719482421,-52.2991828918457,50.9442253112793,-83.5437088012695,1174642876
fw,-88.0070877075195,-51.3661804199218,51.9212417602539,-56.4044075012207,1174659543
fw,-87.0433578491211,-50.7246170043945,47.6407508850097,-40.0299682617187,1174676210
fw,-86.0217742919921,-50.0175323486328,47.4916610717773,-45.5860519409179,1174692877
fw,-84.9914016723632,-49.4229621887207,47.5782394409179,-38.6275100708007,1174709544
fw,-83.9847106933593,-49.283348083496,47.558609008789,-11.5300817489624,1174726211
fw,-83.0629119873046,-51.0505180358886,42.4335289001464,104.057403564453,1174742878
fw,-82.2152099609375,-53.5139007568359,36.1448135375976,142.791458129882,1174759545
fw,-81.4414291381836,-57.1883735656738,29.7092704772949,213.404113769531,1174776212
fw,-80.8330535888671,-60.8663444519043,18.1475601196289,215.531707763671,1174792879
fw,-80.3142852783203,-63.1789169311523,12.528769493103,134.726150512695,1174809546
fw,-79.8206481933593,-64.7341690063476,11.4412784576416,86.1081924438476,1174826213
fw,-79.3510665893554,-66.4715347290039,11.974660873413,98.4905853271484,1174842880
fw,-78.9796066284179,-68.003662109375,9.86885356903076,89.9824752807617,1174859547
fw,-78.7343597412109,-68.9628295898437,8.38152027130127,56.1158790588378,1174876214
fw,-78.757453918457,-69.8501739501953,-3.61579298973083,51.672004699707,1174892881
fw,-79.1782684326171,-70.9887542724609,-25.1386528015136,66.490478515625,1174909548
fw,-79.9989318847656,-72.8896560668945,-45.3381729125976,113.421600341796,1174926215
fw,-81.2821044921875,-73.7606582641601,-68.1871109008789,54.6815643310546,1174942882
fw,-83.1090927124023,-73.4955825805664,-97.0354232788086,-11.9434099197387,1174959549
fw,-85.4343032836914,-73.3650665283203,-123.120719909667,-7.29671239852905,1174976216
fw,-88.2274551391601,-74.0016479492187,-145.394638061523,29.925271987915,1174992883
fw,-88.3738250732421,-75.2106246948242,-153.97622680664,57.1246681213378,1175009550
fw,-85.2996368408203,-76.5360031127929,-109.188446044921,67.7192993164062,1175026217
fw,-82.5111923217773,-77.7054748535156,-87.5184326171875,65.8777160644531,1175042884
fw,-79.6171417236328,-79.1782913208007,-148.384613037109,85.6868286132812,1175059551
fw,-76.8173675537109,-80.623046875,-166.821304321289,84.0022735595703,1175076218
fw,-74.1482238769531,-82.0091323852539,-168.262054443359,83.0592575073242,1175092885
fw,-71.1107864379882,-83.2783966064453,-190.779220581054,75.7020721435546,1175109552
fw,-67.6283950805664,-84.6121292114257,-213.587295532226,77.3680572509765,1175126219
fw,-64.1653289794921,-85.8251953125,-210.758270263671,67.8893814086914,1175142886
fw,-61.7983856201171,-87.0207366943359,-136.610061645507,69.167121887207,1175159553
fw,-60.2800064086914,-88.1158142089843,-77.5844573974609,67.7955474853515,1175176220
fw,-59.3450698852539,-89.0605926513671,-36.5831604003906,57.4279289245605,1175192887
fw,-58.7181243896484,-89.6205139160156,-10.0611400604248,43.5846252441406,1175209554
fw,-57.858657836914,-89.0670776367187,-31.0363216400146,49.9415740966796,1175226221
fw,-57.0781288146972,-88.1152954101562,-30.3728809356689,51.4186515808105,1175242888
fw,-56.4956817626953,-87.2487182617187,-24.8163948059082,42.6476135253906,1175259555
fw,-56.1001739501953,-86.4606094360351,-24.4226741790771,38.8919258117675,1175276222
fw,-56.0215530395507,-85.718017578125,-14.2222185134887,39.869342803955,1175292889
fw,-55.9761924743652,-84.9150009155273,-29.6552543640136,47.2546195983886,1175309556
fw,-56.2990226745605,-84.0103454589843,-15.0656576156616,54.8265113830566,1175326223
fw,-57.7182273864746,-83.0339584350586,57.7582244873046,57.5880012512207,1175342890
fw,-59.5060348510742,-82.0045852661132,66.578140258789,59.3340797424316,1175359557
fw,-61.7240524291992,-81.0913925170898,100.565528869628,52.1257743835449,1175376224
fw,-63.8962707519531,-80.2193603515625,100.386260986328,50.0580749511718,1175392891
fw,-65.2755661010742,-79.3754959106445,37.5925025939941,49.5256767272949,1175409558
fw,-66.5156784057617,-78.6357498168945,41.126609802246,44.2961387634277,1175426225
fw,-67.1763000488281,-78.1189575195312,23.0124568939209,31.4310207366943,1175442892
fw,-67.6112213134765,-78.0619277954101,27.0209827423095,2.53143620491027,1175459559
fw,-68.4419479370117,-78.6211471557617,47.664810180664,-36.9766120910644,1175476226
fw,-69.9092102050781,-79.6130294799804,64.6563415527343,-64.2414855957031,1175492893
fw,-71.1667938232421,-80.7497177124023,64.9994430541992,-72.431770324707,1175509560
fw,-71.8811645507812,-82.2572937011718,43.7000007629394,-93.1711120605468,1175526227
fw,-72.4552917480468,-84.3700561523437,27.5384769439697,-130.576766967773,1175542894
fw,-73.4067840576171,-86.9826736450195,21.1623916625976,-163.385284423828,1175559561
fw,-74.9132614135742,-88.7006454467773,39.9664230346679,-212.860458374023,1175576228
fw,-76.5322647094726,-84.3973770141601,67.8621520996093,-282.333099365234,1175592895
fw,-78.0063247680664,-79.2359085083007,65.3116378784179,-305.27001953125,1175609562
fw,-79.6702499389648,-75.5024261474609,74.1392822265625,-221.486724853515,1175626229
fw,-81.5533828735351,-72.9836654663086,96.1006469726562,-154.684494018554,1175642896
fw,-83.5372543334961,-71.3095474243164,114.871025085449,-104.550903320312,1175659563
fw,-85.2636032104492,-68.8298645019531,98.509162902832,-152.569213867187,1175676230
fw,-86.8291091918945,-65.3617248535156,77.0281753540039,-212.482772827148,1175692897
fw,-88.1078262329101,-62.3865242004394,72.0779418945312,-181.062576293945,1175709564
fw,-88.5965347290039,-59.7517662048339,59.0401153564453,-158.042739868164,1175726231
fw,-88.2476654052734,-57.8951988220214,48.3744087219238,-110.383438110351,1175742898
fw,-87.5578384399414,-56.3735961914062,46.4196395874023,-89.7638397216796,1175759565
fw,-86.7877120971679,-54.8261528015136,42.395709991455,-92.0096740722656,1175776232
fw,-85.8759765625,-53.7191467285156,44.4908714294433,-65.8689422607421,1175792899
fw,-84.9882736206054,-52.63325881958,38.995246887207,-65.4325942993164,1175809566
fw,-84.2192764282226,-51.7170372009277,29.0118598937988,-56.058609008789,1175826233
fw,-83.4471054077148,-50.709861755371,28.4319152832031,-61.1172180175781,1175842900
fw,-82.695083618164,-50.0925369262695,30.5971412658691,-39.55171585083,1175859567
fw,-81.962905883789,-50.5295295715332,31.6086673736572,22.4539031982421,1175876234
fw,-81.2630615234375,-52.2418899536132,28.8591747283935,98.695816040039,1175892901
fw,-80.6303634643554,-55.3252525329589,22.1059837341308,181.946746826171,1175909568
fw,-80.0804977416992,-59.1133422851562,14.3113613128662,223.851165771484,1175926235
fw,-79.5948028564453,-62.6268310546875,9.37265968322753,207.088607788085,1175942902
fw,-79.0404891967773,-64.9974517822265,14.2138566970825,135.503005981445,1175959569
fw,-78.4157943725586,-66.7561950683593,22.0710773468017,96.6949691772461,1175976236
fw,-77.7220230102539,-67.792007446289,29.6451416015625,57.1052589416503,1175992903
fw,-77.0936737060546,-68.1740188598632,30.6068363189697,19.7475337982177,1176009570
fw,-76.7321319580078,-68.418716430664,18.5931758880615,14.2575054168701,1176026237
fw,-76.6426773071289,-68.758071899414,2.68912672996521,19.8450012207031,1176042904
fw,-76.7621231079101,-69.9724731445312,-8.49214267730712,70.5508193969726,1176059571
fw,-77.1315002441406,-71.8475189208984,-20.7297687530517,111.500564575195,1176076238
fw,-77.8665924072265,-72.3337173461914,-39.9241333007812,32.8597946166992,1176092905
fw,-79.1382751464843,-71.9780883789062,-65.3200912475586,-14.7712545394897,1176109572
fw,-81.1595840454101,-71.9160919189453,-101.795532226562,-8.79438686370849,1176126239
fw,-83.8972549438476,-72.8254928588867,-135.348510742187,38.5968132019043,1176142906
fw,-86.9999771118164,-74.1652679443359,-148.565124511718,62.3380317687988,1176159573
fw,-89.2881088256836,-75.2863235473632,-152.279403686523,53.999397277832,1176176240
fw,-86.2722778320312,-76.3363418579101,-125.267280578613,57.2647819519043,1176192907
fw,-83.3283538818359,-77.6531753540039,-130.441467285156,76.2767868041992,1176209574
fw,-80.2865905761718,-78.916030883789,-167.56787109375,74.7353744506836,1176226241
fw,-77.5456848144531,-79.9324111938476,-158.774139404296,62.0214653015136,1176242908
fw,-74.6221008300781,-81.0181732177734,-177.282836914062,64.0972671508789,1176259575
fw,-71.1913757324218,-82.2224502563476,-208.392669677734,68.8895721435546,1176276242
fw,-67.7758560180664,-83.4483871459961,-202.21385192871,68.0964279174804,1176292909
fw,-65.0944747924804,-84.8013381958007,-144.89387512207,75.485366821289,1176309576
fw,-63.2469291687011,-86.4430694580078,-83.6072769165039,96.5370788574218,1176326243
fw,-61.6305198669433,-88.0659942626953,-67.7190017700195,96.1023864746093,1176342910
fw,-60.2906875610351,-89.2171554565429,-52.0430641174316,67.4681930541992,1176359577
fw,-59.1822242736816,-89.5817565917968,-40.2077598571777,65.9738082885742,1176376244
fw,-58.0956649780273,-88.4345245361328,-45.0111465454101,69.9534606933593,1176392911
fw,-57.2871856689453,-87.5117950439453,-33.29931640625,52.6411628723144,1176409578
fw,-56.6030120849609,-86.6086959838867,-37.5389099121093,47.5789222717285,1176426245
fw,-56.1779632568359,-85.5798263549804,-31.9509735107421,53.8979606628418,1176442912
fw,-56.1985321044921,-84.536148071289,-12.137559890747,57.753490447998,1176459579
fw,-56.5013198852539,-83.5431213378906,-6.08394241333007,58.1174125671386,1176476246
fw,-57.3526420593261,-82.4739990234375,20.5585460662841,64.5592803955078,1176492913
fw,-59.1456146240234,-81.2721328735351,72.789077758789,72.6299285888671,1176509580
fw,-60.8824348449707,-80.0737152099609,66.9760208129882,71.4258956909179,1176526247
fw,-62.9025039672851,-78.9494476318359,97.3212127685546,65.958984375,1176542914
fw,-64.608528137207,-78.0385360717773,63.769775390625,52.3417091369628,1176559581
fw,-66.1657333374023,-77.3506546020507,48.921775817871,38.8975486755371,1176576248
fw,-66.9190063476562,-76.8756103515625,20.8776531219482,26.9130229949951,1176592915
fw,-67.0170516967773,-76.6707458496093,6.00947904586792,10.72838306427,1176609582
fw,-67.6834335327148,-76.9339904785156,42.3365287780761,-18.3456859588623,1176626249
fw,-69.1000289916992,-77.6555709838867,60.6294326782226,-46.550666809082,1176642916
fw,-70.6452865600586,-78.7320251464843,73.4955444335937,-67.6960372924804,1176659583
fw,-71.525520324707,-80.2505950927734,53.073314666748,-93.1331329345703,1176676250
fw,-72.2354965209961,-82.3483734130859,43.3131027221679,-127.368385314941,1176692917
fw,-73.2446060180664,-85.1101608276367,46.5845298767089,-167.008850097656,1176709584
fw,-74.6778717041015,-88.39892578125,37.9730911254882,-197.604141235351,1176726251
fw,-76.5093460083007,-87.1781158447265,73.9195251464843,-260.096527099609,1176742918
fw,-78.1298828125,-81.9401779174804,75.9183731079101,-309.565216064453,1176759585
fw,-79.873176574707,-77.2938385009765,76.0475845336914,-275.144409179687,1176776252
fw,-81.6463165283203,-74.2397079467773,83.7230224609375,-185.533966064453,1176792919
fw,-83.5410232543945,-72.1681747436523,104.923675537109,-128.677825927734,1176809586
fw,-85.3040542602539,-69.9107971191406,110.58267211914,-139.577087402343,1176826253
fw,-86.7438812255859,-66.2810745239257,92.4719543457031,-223.153228759765,1176842920
fw,-87.7975311279296,-62.8996086120605,67.6223068237304,-207.102325439453,1176859587
fw,-88.1604843139648,-60.1077613830566,52.1304016113281,-167.8779296875,1176876254
fw,-87.8852996826171,-58.1161804199218,39.414264678955,-118.073356628417,1176892921
fw,-87.3699874877929,-56.5403823852539,34.1000175476074,-92.8614120483398,1176909588
fw,-86.8140792846679,-55.0359268188476,29.8350830078125,-89.0903549194336,1176926255
fw,-86.1897201538086,-53.8866958618164,28.271141052246,-68.5607147216796,1176942922
fw,-85.4575729370117,-52.843822479248,30.4644165039062,-63.7973747253418,1176959589
fw,-84.6954803466796,-51.8315544128418,29.1821842193603,-64.0029525756836,1176976256
fw,-83.922492980957,-50.6670455932617,29.6642456054687,-73.5318984985351,1176992923
fw,-83.1705932617187,-50.0071983337402,31.3303241729736,-42.5798301696777,1177009590
fw,-82.4303436279296,-50.2530670166015,32.3821411132812,9.63725280761718,1177026257
fw,-81.7084350585937,-52.3950386047363,31.1439762115478,123.602531433105,1177042924
fw,-81.0544204711914,-55.3752517700195,25.5337543487548,173.367813110351,1177059591
fw,-80.4863510131836,-59.127944946289,17.7295169830322,219.026168823242,1177076258
fw,-79.9997406005859,-62.4611091613769,10.0007362365722,195.250656127929,1177092925
fw,-79.4712219238281,-64.582160949707,12.9122743606567,120.642082214355,1177109592
fw,-78.8375091552734,-66.0948486328125,23.2712650299072,83.9195251464843,1177126259
fw,-78.0992660522461,-67.3906021118164,34.1112060546875,73.3516616821289,1177142926
fw,-77.3902282714843,-67.8956222534179,37.208641052246,28.0061740875244,1177159593
fw,-76.9246139526367,-68.0410842895507,25.9542961120605,7.34831953048706,1177176260
fw,-76.7617492675781,-68.5552673339843,8.32788562774658,29.088243484497,1177192927
fw,-76.8793869018554,-69.9090957641601,-7.1286392211914,78.1267929077148,1177209594
fw,-77.2598724365234,-72.1029739379882,-18.301414489746,129.432373046875,1177226261
fw,-78.0131912231445,-72.8090438842773,-37.024356842041,43.6035728454589,1177242928
fw,-79.3863220214843,-72.3303680419921,-68.7348480224609,-21.9889945983886,1177259595
fw,-81.4788742065429,-72.0394287109375,-102.740989685058,-19.3523731231689,1177276262
fw,-84.1911697387695,-72.7412567138671,-133.138534545898,28.7492885589599,1177292929
fw,-86.9913101196289,-73.9111633300781,-138.062835693359,54.1714477539062,1177309596
fw,-87.9465255737304,-74.9159545898437,-140.973754882812,47.7669334411621,1177326263
fw,-85.4195251464843,-75.915283203125,-115.404296875,55.4529647827148,1177342930
fw,-82.7210998535156,-77.4101104736328,-141.328414916992,87.0305786132812,1177359597
fw,-79.7993621826171,-78.9161605834961,-183.339157104492,88.552490234375,1177376264
fw,-77.0910720825195,-80.2433319091796,-170.965713500976,79.0110855102539,1177392931
fw,-74.1064224243164,-81.624526977539,-192.229782104492,81.1076507568359,1177409598
fw,-70.6109008789062,-83.1975860595703,-222.816543579101,91.7004623413086,1177426265
fw,-66.892951965332,-84.6672592163086,-232.190185546875,85.8551177978515,1177442932
fw,-64.077392578125,-85.9491882324218,-162.502639770507,79.3871002197265,1177459599
fw,-62.3560638427734,-87.1502990722656,-86.8009948730468,78.1416549682617,1177476266
fw,-61.0390090942382,-88.0297012329101,-61.5321044921875,53.3943557739257,1177492933
fw,-60.1141471862793,-88.6181716918945,-33.1874847412109,37.8954849243164,1177509600
fw,-59.0377388000488,-88.9511566162109,-47.8098754882812,49.8549156188964,1177526267
fw,-58.0540122985839,-88.4499740600586,-46.0051612854003,50.4186248779296,1177542934
fw,-57.2525825500488,-87.6657791137695,-41.0982131958007,43.4017028808593,1177559601
fw,-56.5791854858398,-86.9232406616211,-43.4076271057128,39.7140655517578,1177576268
fw,-56.2612991333007,-86.2742691040039,-28.8075904846191,39.9065208435058,1177592935
fw,-56.1901626586914,-85.6395187377929,-26.4022045135498,42.7155456542968,1177609602
fw,-56.4810523986816,-84.9284744262695,-13.8499860763549,45.9947357177734,1177626269
fw,-57.4516944885253,-84.0913009643554,28.0099124908447,50.9354858398437,1177642936
fw,-59.1500663757324,-83.1801071166992,69.4661407470703,53.5170288085937,1177659603
fw,-60.8551559448242,-82.3221054077148,66.3787612915039,48.7671127319335,1177676270
fw,-62.8274612426757,-81.4198379516601,98.1152954101562,50.9088821411132,1177692937
fw,-64.0510025024414,-80.4068527221679,43.1531753540039,59.3815078735351,1177709604
fw,-64.987434387207,-79.5032806396484,17.3390235900878,54.6730155944824,1177726271
fw,-65.956558227539,-78.7156143188476,31.2598361968994,48.6216621398925,1177742938
fw,-66.4095611572265,-78.1340103149414,12.2214040756225,35.7171936035156,1177759605
fw,-66.8098754882812,-77.919204711914,18.4591617584228,11.5297193527221,1177776272
fw,-67.8806915283203,-78.0562667846679,49.1938934326171,-12.0923652648925,1177792939
fw,-69.6706314086914,-78.4609756469726,80.9722900390625,-28.5117778778076,1177809606
fw,-71.0993194580078,-79.2167434692382,79.4551544189453,-48.1077575683593,1177826273
fw,-71.9563369750976,-80.4447174072265,54.150405883789,-75.2646865844726,1177842940
fw,-72.7055130004882,-82.3844451904296,42.7200622558593,-118.837081909179,1177859607
fw,-73.9950637817382,-84.9785919189453,50.4029579162597,-162.490234375,1177876274
fw,-75.8517303466796,-87.8665924072265,57.9694061279296,-196.245574951171,1177892941
fw,-77.6922531127929,-86.8568344116211,76.9834823608398,-260.008850097656,1177909608
fw,-79.337890625,-81.9046936035156,75.3265686035156,-310.260345458984,1177926275
fw,-81.1034927368164,-77.1176834106445,81.6988525390625,-286.652618408203,1177942942
fw,-82.8856964111328,-73.785041809082,93.9369583129882,-201.144714355468,1177959609
fw,-84.4621505737304,-71.6288070678711,100.446754455566,-132.386734008789,1177976276
fw,-85.7866744995117,-69.0802230834961,96.0264358520507,-156.726486206054,1177992943
fw,-86.7640228271484,-65.8250579833984,76.0794601440429,-199.383544921875,1178009610
fw,-87.4435806274414,-62.5544319152832,50.9902915954589,-197.503097534179,1178026277
fw,-87.6505661010742,-59.8304824829101,42.7139778137207,-161.92886352539,1178042944
fw,-87.3019485473632,-57.744400024414,40.7069244384765,-123.036514282226,1178059611
fw,-86.6300048828125,-55.935546875,43.6025352478027,-106.688926696777,1178076278
fw,-85.8328399658203,-54.204849243164,43.5726585388183,-102.661033630371,1178092945
fw,-84.9859313964843,-52.9392433166503,41.4278411865234,-76.1732330322265,1178109612
fw,-84.229866027832,-51.6542129516601,31.5037117004394,-78.0512771606445,1178126279
fw,-83.5587768554687,-50.5793914794921,23.1985168457031,-65.875244140625,1178142946
fw,-82.879768371582,-49.6987686157226,24.583755493164,-54.327537536621,1178159613
fw,-82.1440200805664,-49.5401611328125,29.1369590759277,-12.4342737197875,1178176280
fw,-81.3804855346679,-50.7823677062988,30.6090698242187,70.8727111816406,1178192947
fw,-80.6261901855468,-53.2386627197265,29.1863956451416,142.194641113281,1178209614
fw,-79.935302734375,-56.62935256958,24.0870647430419,197.169021606445,1178226281
fw,-79.4401245117187,-60.2485122680664,10.6741619110107,211.4755859375,1178242948
fw,-78.958869934082,-62.9265480041503,8.9287462234497,156.401672363281,1178259615
fw,-78.3703079223632,-64.7598342895507,16.7828292846679,104.022827148437,1178276282
fw,-77.7034072875976,-66.30224609375,24.2259349822998,87.2720108032226,1178292949
fw,-77.0377044677734,-67.4307098388671,29.0518245697021,66.0286178588867,1178309616
fw,-76.6126327514648,-67.8724594116211,20.0022869110107,24.1522274017334,1178326283
fw,-76.5260314941406,-68.4428100585937,1.82595717906951,32.3102836608886,1178342950
fw,-76.7440490722656,-69.202522277832,-15.5375804901123,42.2968025207519,1178359617
fw,-77.2361526489257,-71.2635192871093,-28.6724414825439,120.126907348632,1178376284
fw,-78.0711288452148,-72.8452453613281,-44.3342056274414,95.7445755004882,1178392951
fw,-79.4022750854492,-72.4005050659179,-70.6345138549804,-20.413366317749,1178409618
fw,-81.4925537109375,-71.8056564331054,-109.550773620605,-31.4250621795654,1178426285
fw,-84.2720794677734,-71.832290649414,-142.38818359375,-4.06109237670898,1178442952
fw,-87.4245834350586,-72.6767349243164,-152.970291137695,35.1999778747558,1178459619
fw,-88.9535751342773,-74.0258636474609,-150.954437255859,63.8118820190429,1178476286
fw,-85.6013717651367,-75.1215286254882,-121.424140930175,54.9590187072753,1178492953
fw,-82.7600708007812,-76.5067749023437,-109.08006286621,79.0363845825195,1178509620
fw,-79.7718429565429,-78.3314895629882,-164.70848083496,105.405868530273,1178526287
fw,-77.1494140625,-79.8646087646484,-151.867767333984,90.3810729980468,1178542954
fw,-74.4963150024414,-81.0165939331054,-162.824661254882,69.6488723754882,1178559621
fw,-71.4907608032226,-82.1953353881836,-188.316375732421,69.2670288085937,1178576288
fw,-67.9042282104492,-83.4799880981445,-223.380416870117,73.0087203979492,1178592955
fw,-64.4842224121093,-84.6655731201171,-209.480590820312,65.4456405639648,1178609622
fw,-62.2548065185546,-85.7029495239257,-126.182228088378,62.2598037719726,1178626289
fw,-60.767578125,-86.7037887573242,-76.2123413085937,65.0447387695312,1178642956
fw,-59.7669563293457,-87.3615188598632,-42.1854095458984,40.3778076171875,1178659623
fw,-59.0087699890136,-87.8895645141601,-24.0504627227783,32.3594398498535,1178676290
fw,-58.006721496582,-88.581558227539,-48.7473640441894,55.2281684875488,1178692957
fw,-57.3864631652832,-88.7206802368164,-30.232271194458,57.0066680908203,1178709624
fw,-56.8785705566406,-88.1628265380859,-31.6906642913818,57.6633071899414,1178726291
fw,-56.6246871948242,-87.3416290283203,-21.6320724487304,58.6539840698242,1178742958
fw,-56.7079238891601,-86.5411376953125,-11.3060894012451,52.9256782531738,1178759625
fw,-57.0607414245605,-85.749641418457,-8.0974702835083,50.2423820495605,1178776292
fw,-57.5246238708496,-84.8589782714843,-11.7852296829223,54.5589218139648,1178792959
fw,-58.6644821166992,-83.8315277099609,31.2928066253662,61.5560226440429,1178809626
fw,-60.159870147705,-82.7621307373046,48.4584197998046,62.3007164001464,1178826293
fw,-62.1067199707031,-81.698257446289,92.1221694946289,61.4879188537597,1178842960
fw,-63.8128662109375,-80.6161575317382,90.3599319458007,63.6491546630859,1178859627
fw,-64.5007553100586,-79.6377944946289,5.54327392578125,57.8056335449218,1178876294
fw,-65.4729232788086,-78.7561569213867,20.9032611846923,52.1013450622558,1178892961
fw,-66.3422622680664,-78.134521484375,25.6266384124755,36.4180641174316,1178909628
fw,-66.7296676635742,-77.8416442871093,9.4993200302124,16.2114238739013,1178926295
fw,-67.3239440917968,-77.8574142456054,20.9600677490234,-3.27307844161987,1178942962
fw,-68.7489166259765,-78.1998748779296,59.572338104248,-23.4786376953125,1178959629
fw,-70.4853210449218,-78.906997680664,85.2304382324218,-44.910041809082,1178976296
fw,-71.686279296875,-80.0394058227539,70.9668197631836,-69.4392471313476,1178992963
fw,-72.3767318725586,-81.7796401977539,41.7773666381835,-104.97599029541,1179009630
fw,-73.2320327758789,-84.2670440673828,39.7961387634277,-150.588195800781,1179026297
fw,-74.5437622070312,-87.2936935424804,41.1315612792968,-183.502365112304,1179042964
fw,-76.1101608276367,-88.9741668701171,48.2248916625976,-214.722244262695,1179059631
fw,-77.7047042846679,-84.3724517822265,68.975845336914,-279.027191162109,1179076298
fw,-79.29345703125,-79.0711898803711,71.7040481567382,-313.891662597656,1179092965
fw,-80.966323852539,-74.8261489868164,75.7140274047851,-254.662292480468,1179109632
fw,-82.6331024169921,-72.0095901489257,84.734146118164,-173.464248657226,1179126299
fw,-84.1835479736328,-69.7593154907226,81.8075942993164,-140.63410949707,1179142966
fw,-85.7354278564453,-66.7123336791992,79.9748992919921,-189.496765136718,1179159633
fw,-87.2596206665039,-63.3616523742675,72.6212615966796,-206.98957824707,1179176300
fw,-88.6791381835937,-60.3286018371582,57.3087997436523,-183.690246582031,1179192967
fw,-89.9406585693359,-57.7507934570312,51.549072265625,-153.644424438476,1179209634
fw,-88.7209854125976,-55.9462661743164,57.1323814392089,-106.207633972167,1179226301
fw,-87.5666732788086,-54.3739776611328,57.1659698486328,-92.2490310668945,1179242968
fw,-86.540168762207,-53.0458717346191,46.7735557556152,-78.2471847534179,1179259635
fw,-85.6343536376953,-51.7975730895996,34.7155036926269,-75.1924057006836,1179276302
fw,-84.8657302856445,-50.5359077453613,20.882942199707,-77.2098541259765,1179292969
fw,-84.1513900756836,-49.4560394287109,14.8889284133911,-67.3092880249023,1179309636
fw,-83.3775939941406,-48.9559669494628,23.8424701690673,-32.6243019104003,1179326303
fw,-82.5046234130859,-49.5687103271484,38.6174888610839,31.7607803344726,1179342970
fw,-81.5966262817382,-51.9182014465332,43.3373718261718,136.820846557617,1179359637
fw,-80.6775970458984,-54.575023651123,42.8577766418457,153.357849121093,1179376304
fw,-79.91455078125,-58.0811920166015,30.5872268676757,203.969650268554,1179392971
fw,-79.2661590576171,-61.7492218017578,21.3360958099365,216.294204711914,1179409638
fw,-78.6490859985351,-64.0901947021484,16.8315849304199,136.594497680664,1179426305
fw,-78.0866394042968,-65.7686614990234,12.5440549850463,94.1610565185546,1179442972
fw,-77.5234375,-67.3958740234375,15.8937168121337,93.0350494384765,1179459639
fw,-77.0089035034179,-68.0796432495117,19.3866939544677,38.2731208801269,1179476306
fw,-76.6680374145507,-68.4378662109375,14.2037181854248,18.9024295806884,1179492973
fw,-76.5891799926757,-68.8925476074218,1.32213330268859,25.3449363708496,1179509640
fw,-76.721694946289,-70.2394638061523,-8.15520191192627,79.1864166259765,1179526307
fw,-77.1744003295898,-72.2008438110351,-23.648811340332,117.683738708496,1179542974
fw,-78.082649230957,-72.5614318847656,-48.3506546020507,24.8122005462646,1179559641
fw,-79.5994338989257,-72.1334228515625,-82.9318466186523,-20.9376945495605,1179576308
fw,-81.8729782104492,-72.1709976196289,-118.788108825683,0.309220641851425,1179592975
fw,-84.7542037963867,-73.0141525268554,-142.747268676757,39.5848731994628,1179609642
fw,-87.9147567749023,-74.387451171875,-146.203186035156,65.9596786499023,1179626309
fw,-88.5371398925781,-75.6073150634765,-141.830703735351,60.1361427307128,1179642976
fw,-85.5293731689453,-76.7030487060546,-105.468688964843,58.8797225952148,1179659643
fw,-82.6149063110351,-78.0793914794921,-129.939102172851,78.678955078125,1179676310
fw,-79.5789108276367,-79.3007507324218,-169.140090942382,71.4694595336914,1179692977
fw,-76.8311767578125,-80.2548065185546,-158.194366455078,58.475299835205,1179709644
fw,-73.72314453125,-81.3835906982421,-183.620788574218,67.036994934082,1179726311
fw,-70.0917816162109,-82.6613159179687,-217.277893066406,73.85693359375,1179742978
fw,-66.555793762207,-83.99462890625,-208.202804565429,74.1660232543945,1179759645
fw,-64.0517349243164,-85.4956817626953,-134.696716308593,84.6736984252929,1179776312
fw,-62.3526000976562,-87.1210479736328,-78.4212493896484,95.4765243530273,1179792979
fw,-60.7861022949218,-88.5358047485351,-68.3589401245117,83.3237915039062,1179809646
fw,-59.5293540954589,-89.4894790649414,-47.3255348205566,59.0010070800781,1179826313
fw,-58.3868141174316,-89.3657302856445,-42.9850158691406,60.0430335998535,1179842980
fw,-57.3213806152343,-88.4410324096679,-43.9343833923339,55.9631118774414,1179859647
fw,-56.592601776123,-87.6292495727539,-31.1053924560546,43.2415313720703,1179876314
fw,-56.0024681091308,-86.7213592529296,-37.8807334899902,45.8669395446777,1179892981
fw,-55.748607635498,-85.6980667114257,-28.5129108428955,53.977066040039,1179909648
fw,-55.8295669555664,-84.6565399169921,-15.2470140457153,59.3062171936035,1179926315
fw,-56.2245941162109,-83.5751419067382,-4.55611944198608,65.4815216064453,1179942982
fw,-57.3428878784179,-82.4497451782226,36.424217224121,68.9090957641601,1179959649
fw,-59.4168891906738,-81.2951202392578,99.4200820922851,69.3427047729492,1179976316
fw,-61.1218872070312,-80.1786117553711,67.818489074707,65.2824401855468,1179992983
fw,-63.314842224121,-79.1856842041015,111.86856842041,56.5637016296386,1180009650
fw,-64.9193801879882,-78.3561935424804,56.656753540039,46.304458618164,1180026317
fw,-66.4151229858398,-77.6656875610351,55.0729751586914,38.6109504699707,1180042984
fw,-66.8738174438476,-77.2290115356445,7.72048234939575,24.4654579162597,1180059651
fw,-66.9494018554687,-77.0945434570312,7.11259651184082,6.15260457992553,1180076318
fw,-67.7202682495117,-77.4739837646484,48.9382362365722,-26.1198501586914,1180092985
fw,-69.2383804321289,-78.3068466186523,67.6654434204101,-54.2816467285156,1180109652
fw,-70.7558822631836,-79.4451446533203,73.5607757568359,-72.1404190063476,1180126319
fw,-71.5922088623046,-80.983283996582,51.1713256835937,-94.7147750854492,1180142986
fw,-72.3445281982421,-83.1979370117187,44.7375030517578,-135.433273315429,1180159653
fw,-73.5161590576171,-86.091796875,48.9236946105957,-178.908325195312,1180176320
fw,-75.327278137207,-89.0260238647461,55.6739387512207,-209.299407958984,1180192987
fw,-77.3575592041015,-85.4600753784179,87.1468963623046,-282.138549804687,1180209654
fw,-79.0719451904296,-80.0496520996093,75.5434646606445,-319.997314453125,1180226321
fw,-80.9855041503906,-75.5866622924804,84.4636917114257,-264.614318847656,1180242988
fw,-82.7761001586914,-72.7881622314453,92.2439804077148,-170.946899414062,1180259655
fw,-84.3945770263671,-70.9692993164062,108.148315429687,-113.228141784667,1180276322
fw,-85.5818176269531,-68.5054092407226,90.9891204833984,-151.935852050781,1180292989
fw,-86.5462875366211,-64.9485397338867,51.1904106140136,-218.163131713867,1180309656
fw,-87.3717727661132,-61.7674903869628,32.9729385375976,-192.981323242187,1180326323
fw,-87.8204879760742,-59.1141471862793,36.4299697875976,-158.915908813476,1180342990
fw,-87.7274703979492,-57.0662574768066,38.3037986755371,-122.677101135253,1180359657
fw,-87.1824188232421,-55.4003601074218,44.6127166748046,-100.024192810058,1180376324
fw,-86.4848709106445,-53.9024925231933,42.7446136474609,-90.5331268310546,1180392991
fw,-85.6804885864257,-52.76655960083,42.32958984375,-69.3695602416992,1180409658
fw,-84.9515075683593,-51.6141471862793,34.0384063720703,-71.173713684082,1180426325
fw,-84.2996139526367,-50.7481803894043,26.8968353271484,-54.4489555358886,1180442992
fw,-83.6536560058593,-49.8948287963867,24.5417308807373,-52.6761322021484,1180459659
fw,-82.9323959350586,-49.7301330566406,28.5270156860351,-11.1055965423583,1180476326
fw,-82.1346588134765,-50.9360275268554,33.382827758789,70.6470489501953,1180492993
fw,-81.3377990722656,-53.5380744934082,33.2605857849121,152.869689941406,1180509660
fw,-80.5805740356445,-57.0878524780273,30.6811580657959,206.663223266601,1180526327
fw,-79.980110168457,-60.9245834350585,18.9083805084228,224.681762695312,1180542994
fw,-79.4066772460937,-63.7533416748046,14.7236166000366,167.579895019531,1180559661
fw,-78.7802505493164,-65.4833755493164,18.6738491058349,98.9091644287109,1180576328
fw,-78.0591506958007,-66.9654693603515,27.9113674163818,83.470703125,1180592995
fw,-77.3387908935546,-67.9905776977539,32.178409576416,58.7237548828125,1180609662
fw,-76.8257293701171,-68.3299560546875,25.4942989349365,18.0307788848876,1180626329
fw,-76.5868911743164,-68.6669387817382,11.716736793518,19.2164554595947,1180642996
fw,-76.5972290039062,-69.4196395874023,-2.72751808166503,43.2020072937011,1180659663
fw,-76.8833923339843,-71.2937545776367,-17.5072860717773,110.506721496582,1180676330
fw,-77.5773162841796,-72.5298156738281,-38.6293067932128,75.2983856201171,1180692997
fw,-78.8030929565429,-72.3150863647461,-65.8737106323242,-6.81962442398071,1180709664
fw,-80.7003555297851,-72.1183013916015,-97.0349197387695,-8.85765361785888,1180726331
fw,-83.2211837768554,-72.6579818725586,-126.756126403808,21.640188217163,1180742998
fw,-86.1831512451171,-74.0153884887695,-143.22134399414,64.5608978271484,1180759665
fw,-88.964859008789,-75.4563217163086,-144.640151977539,71.9331817626953,1180776332
fw,-86.9838409423828,-76.6472702026367,-130.867691040039,65.2905807495117,1180792999
fw,-84.1773223876953,-78.1863403320312,-119.616981506347,89.2750167846679,1180809666
fw,-81.1798934936523,-79.9385452270507,-169.763717651367,103.051612854003,1180826333
fw,-78.2069244384765,-81.3440399169921,-176.885604858398,86.0980148315429,1180843000
fw,-75.2809524536132,-82.6755447387695,-179.055480957031,81.0051498413086,1180859667
fw,-71.8948440551757,-84.1867218017578,-211.494430541992,90.2803802490234,1180876334
fw,-68.0970993041992,-85.5854110717773,-233.15673828125,78.7603607177734,1180893001
fw,-64.9178924560546,-86.8178939819336,-185.575744628906,65.9351119995117,1180909668
fw,-62.8953056335449,-87.9352188110351,-105.059440612792,62.7826766967773,1180926335
fw,-61.3045005798339,-88.8422546386718,-76.9502716064453,52.822151184082,1180943002
fw,-60.0537757873535,-89.5803604125976,-52.6510848999023,43.817584991455,1180959669
fw,-58.8627090454101,-89.4871826171875,-49.7543067932128,48.9399261474609,1180976336
fw,-57.6860694885253,-88.5980758666992,-53.9827041625976,48.7935409545898,1180993003
fw,-56.8373184204101,-87.7870712280273,-37.4714546203613,41.0396423339843,1181009670
fw,-56.1369400024414,-87.0203399658203,-39.837230682373,38.5777282714843,1181026337
fw,-55.7309188842773,-86.3066329956054,-30.8672981262207,37.269172668457,1181043004
fw,-55.6852951049804,-85.5520401000976,-17.3454761505126,42.8002662658691,1181059671
fw,-56.0148010253906,-84.7560806274414,-2.29079413414001,46.0107650756835,1181076338
fw,-56.8129653930664,-83.8976745605468,21.0583839416503,49.395206451416,1181093005
fw,-58.7076416015625,-82.907241821289,90.3351364135742,57.556770324707,1181109672
fw,-60.3820152282714,-81.9165802001953,59.9593696594238,57.7475891113281,1181126339
fw,-62.396728515625,-80.8389129638671,91.7365417480468,62.8905868530273,1181143006
fw,-64.2132034301757,-79.6927719116211,79.9036636352539,66.9537734985351,1181159673
fw,-65.6990051269531,-78.7675552368164,46.1669273376464,53.7867927551269,1181176340
fw,-66.826171875,-78.0808639526367,42.2200088500976,40.5678253173828,1181193007
fw,-67.0255126953125,-77.7356643676757,4.83920431137085,20.1835002899169,1181209674
fw,-67.4208374023437,-77.8087387084961,32.6028633117675,-6.75672340393066,1181226341
fw,-68.5714874267578,-78.3567428588867,57.9419441223144,-37.247817993164,1181243008
fw,-70.2361373901367,-79.2222747802734,76.4848861694336,-56.5316314697265,1181259675
fw,-71.4520492553711,-80.421760559082,67.5162277221679,-75.4572067260742,1181276342
fw,-72.2015762329101,-82.1427764892578,45.0479164123535,-105.933860778808,1181293009
fw,-73.0934448242187,-84.4912109375,46.0972480773925,-147.005905151367,1181309676
fw,-74.4519424438476,-87.3205795288086,39.4530296325683,-183.452209472656,1181326343
fw,-76.3258590698242,-87.8730316162109,67.8809280395507,-237.296508789062,1181343010
fw,-78.1202316284179,-83.2738723754882,86.3400115966796,-296.120880126953,1181359677
fw,-80.0046157836914,-78.4336853027343,89.54248046875,-288.942169189453,1181376344
fw,-81.9825210571289,-74.7705688476562,91.7149658203125,-219.6806640625,1181393011
fw,-83.9525680541992,-72.213508605957,110.82649230957,-155.957077026367,1181409678
fw,-85.4988098144531,-70.0383148193359,106.808029174804,-133.765930175781,1181426345
fw,-86.5376205444336,-67.0133056640625,82.7928848266601,-185.591384887695,1181443012
fw,-87.2435989379882,-63.6324729919433,50.5950317382812,-206.468704223632,1181459679
fw,-87.7467498779296,-60.8008766174316,32.8283882141113,-170.281845092773,1181476346
fw,-87.92529296875,-58.4650192260742,26.3121833801269,-138.953674316406,1181493013
fw,-87.634292602539,-56.6177291870117,31.2788753509521,-109.372535705566,1181509680
fw,-86.9974288940429,-54.9604034423828,38.7200050354003,-98.6167373657226,1181526347
fw,-86.2146759033203,-53.5859069824218,40.3382606506347,-82.7471923828125,1181543014
fw,-85.3978958129882,-52.3281593322753,37.3752288818359,-77.2298965454101,1181559681
fw,-84.6620101928711,-51.3684539794921,29.0303974151611,-60.1410408020019,1181576348
fw,-83.9465713500976,-50.5161209106445,26.349754333496,-53.6660690307617,1181593015
fw,-83.2646026611328,-49.9588241577148,25.5825634002685,-35.1368446350097,1181609682
fw,-82.5566864013671,-50.3482704162597,27.4008979797363,20.5744495391845,1181626349
fw,-81.7849197387695,-52.4906883239746,31.31369972229,126.031730651855,1181643016
fw,-81.0132064819336,-55.3572616577148,29.9450588226318,167.365341186523,1181659683
