Label,Left_Hip_q,Right_Hip_q,Left_Hip_qd,Right_Hip_qd,SampleTimeFine
iw,-79.7609634399414,-60.0514831542968,12.9463987350463,37.2199974060058,1675419558
iw,-79.7557754516601,-60.9676895141601,7.85081005096435,48.7821426391601,1675436225
iw,-79.9795608520507,-62.1343116760253,-7.60202884674072,64.2917251586914,1675452892
iw,-80.5040435791015,-63.8771057128906,-27.1125812530517,100.654930114746,1675469559
iw,-81.3337631225586,-65.7502899169921,-50.4374313354492,110.795173645019,1675486226
iw,-82.479866027832,-66.7375183105468,-74.9647674560546,58.2885208129882,1675502893
iw,-83.8109130859375,-67.0881576538086,-92.0165710449218,18.9625835418701,1675519560
iw,-85.1703872680664,-67.8149337768554,-110.969001770019,39.2241325378418,1675536227
iw,-86.0224151611328,-69.0701217651367,-130.474746704101,69.516357421875,1675552894
iw,-85.3888397216796,-70.3576583862304,-139.53140258789,70.3534545898437,1675569561
iw,-83.3713150024414,-71.4777908325195,-150.852432250976,60.265510559082,1675586228
iw,-80.5633544921875,-72.4768753051757,-169.262420654296,54.6536598205566,1675602895
iw,-77.4431610107421,-73.4262924194336,-181.010284423828,53.6688995361328,1675619562
iw,-74.4570159912109,-74.3857269287109,-172.211166381835,55.0364913940429,1675636229
iw,-71.8098449707031,-75.2978363037109,-151.36148071289,52.3502769470214,1675652896
iw,-69.09521484375,-76.2613525390625,-155.871719360351,54.422679901123,1675669563
iw,-66.5775680541992,-77.3857421875,-144.215393066406,63.0539970397949,1675686230
iw,-64.2972717285156,-78.5757446289062,-129.828750610351,67.4958877563476,1675702897
iw,-62.2388305664062,-79.7546463012695,-115.493347167968,67.9374923706054,1675719564
iw,-60.4628372192382,-80.8555297851562,-95.9001388549804,64.1044387817382,1675736231
iw,-58.7684593200683,-81.8493881225586,-90.3236465454101,58.1210784912109,1675752898
iw,-57.0533752441406,-82.7865905761718,-97.9266586303711,55.193000793457,1675769565
iw,-55.4881286621093,-83.6622238159179,-93.2254409790039,52.4294776916503,1675786232
iw,-54.3905525207519,-84.4802932739257,-66.7353897094726,49.9231147766113,1675802899
iw,-53.503604888916,-85.3178100585937,-54.7773818969726,52.0837020874023,1675819566
iw,-52.4016647338867,-86.1723937988281,-73.2561950683593,55.3148155212402,1675836233
iw,-51.6258163452148,-86.9294204711914,-53.604190826416,54.0489921569824,1675852900
iw,-51.2349586486816,-87.5224380493164,-28.1219291687011,52.3678474426269,1675869567
iw,-51.2311058044433,-87.8790206909179,-5.44947099685668,47.5195617675781,1675886234
iw,-51.2386093139648,-87.9410095214843,-7.68635416030883,44.447898864746,1675902901
iw,-51.1855812072753,-87.7390365600586,-15.7387638092041,46.861083984375,1675919568
iw,-51.74116897583,-87.3337631225586,24.8469486236572,46.7007904052734,1675936235
iw,-52.8642807006835,-86.8378295898437,59.9031028747558,42.8717384338378,1675952902
iw,-54.4493865966796,-86.2869110107421,88.9551315307617,41.6987228393554,1675969569
iw,-55.7920455932617,-85.7226409912109,69.9668731689453,40.5953102111816,1675986236
iw,-57.0798263549804,-85.1717224121093,69.758918762207,37.5723876953125,1676002903
iw,-57.9835395812988,-84.571044921875,36.3891258239746,38.1884460449218,1676019570
iw,-58.802261352539,-83.9335327148437,25.3815803527832,38.4575462341308,1676036237
iw,-59.4864044189453,-83.3551254272461,18.868595123291,34.5442733764648,1676052904
iw,-59.9079933166503,-82.8389739990234,5.04749822616577,30.4292793273925,1676069571
iw,-60.3122596740722,-82.3014068603515,3.32172536849975,31.0905323028564,1676086238
iw,-61.3179016113281,-81.8045120239257,33.3494262695312,28.513572692871,1676102905
iw,-62.7648200988769,-81.5247726440429,62.7043342590332,15.6177158355712,1676119572
iw,-63.8592643737793,-81.6456298828125,50.3849182128906,-8.4112434387207,1676136239
iw,-64.5601425170898,-82.1354827880859,28.7165374755859,-30.7642574310302,1676152906
iw,-65.2749099731445,-83.0536422729492,26.7586688995361,-56.7940063476562,1676169573
iw,-66.3312225341796,-84.5130615234375,35.1374320983886,-89.6172409057617,1676186240
iw,-67.6919479370117,-86.474136352539,49.6225395202636,-119.86067199707,1676202907
iw,-69.0197067260742,-88.767105102539,51.4079208374023,-140.508422851562,1676219574
iw,-70.2793960571289,-88.8025360107421,49.7257499694824,-142.563171386718,1676236241
iw,-71.539810180664,-86.2872772216796,55.0341339111328,-152.875518798828,1676252908
iw,-72.8047332763671,-83.2959442138671,59.8085670471191,-179.618133544921,1676269575
iw,-74.0275650024414,-80.1624145507812,60.7209167480468,-188.133560180664,1676286242
iw,-75.2125396728515,-77.2214584350586,59.112937927246,-176.646560668945,1676302909
iw,-76.332778930664,-74.6897048950195,54.0206642150878,-152.457855224609,1676319576
iw,-77.3546905517578,-72.3740692138671,49.5879859924316,-140.371353149414,1676336243
iw,-78.1964874267578,-70.0920257568359,42.1784858703613,-139.010162353515,1676352910
iw,-78.9615859985351,-68.0717391967773,40.0702667236328,-123.101524353027,1676369577
iw,-79.6995086669921,-66.3931350708007,40.0054130554199,-102.268249511718,1676386244
iw,-80.4065856933593,-64.87451171875,39.391616821289,-92.8506393432617,1676402911
iw,-81.0706481933593,-63.1205024719238,38.0496864318847,-107.379852294921,1676419578
iw,-81.712532043457,-61.0972862243652,38.3757171630859,-124.283638000488,1676436245
iw,-82.3311080932617,-59.16499710083,38.9610519409179,-119.937919616699,1676452912
iw,-82.8911666870117,-57.5046882629394,37.9085807800293,-104.716735839843,1676469579
iw,-83.4007873535156,-55.9454879760742,38.1517906188964,-98.7314224243164,1676486246
iw,-83.835823059082,-54.5310745239257,37.6127815246582,-89.6381912231445,1676502913
iw,-84.1722412109375,-53.2700653076171,36.1621055603027,-80.7141189575195,1676519580
iw,-84.3901443481445,-52.1155090332031,35.6211242675781,-74.0136032104492,1676536247
iw,-84.5018615722656,-51.2605094909668,35.1251144409179,-54.8595695495605,1676552914
iw,-84.4984741210937,-50.6861152648925,32.3731384277343,-35.6692733764648,1676569581
iw,-84.3922729492187,-50.0612144470214,29.3903045654296,-37.5422859191894,1676586248
iw,-84.210334777832,-49.5879859924316,29.9656257629394,-29.196756362915,1676602915
iw,-83.951919555664,-49.6710968017578,28.802734375,3.86351585388183,1676619582
iw,-83.6517486572265,-49.9995422363281,25.0619602203369,18.6583614349365,1676636249
iw,-83.3314971923828,-50.7815361022949,29.5404052734375,46.3552551269531,1676652916
iw,-82.9833145141601,-51.7438621520996,35.640827178955,57.0923118591308,1676669583
iw,-82.642837524414,-53.181167602539,36.6334533691406,84.6666870117187,1676686250
iw,-82.3055801391601,-55.0089378356933,33.331184387207,107.069534301757,1676702917
iw,-81.9380569458007,-56.8242988586425,30.9265785217285,104.784187316894,1676719584
iw,-81.576171875,-58.061668395996,29.299367904663,70.005615234375,1676736251
iw,-81.2781677246093,-59.130012512207,24.376163482666,58.8689231872558,1676752918
iw,-81.0596923828125,-59.9597930908203,19.2692337036132,44.0839958190918,1676769585
iw,-80.9120483398437,-60.5345115661621,15.9812088012695,28.8021984100341,1676786252
iw,-80.8684997558593,-61.1181716918945,11.0790557861328,29.7964267730712,1676802919
iw,-81.0329284667968,-61.9236297607421,-2.60985279083251,43.1912765502929,1676819586
iw,-81.4729690551757,-63.298770904541,-20.6256446838378,78.1538772583007,1676836253
iw,-82.2270126342773,-65.1332015991211,-39.5443153381347,107.465950012207,1676852920
iw,-83.2278442382812,-66.372817993164,-56.8135757446289,72.94677734375,1676869587
iw,-84.3887100219726,-66.6476211547851,-70.0043029785156,13.7217426300048,1676886254
iw,-85.7162780761718,-67.0660324096679,-86.7360763549804,19.0490818023681,1676902921
iw,-86.8756332397461,-68.1493148803711,-106.255050659179,55.9000587463378,1676919588
iw,-86.8556518554687,-69.456787109375,-118.476707458496,70.2402420043945,1676936255
iw,-85.3386459350586,-70.6235656738281,-125.130241394042,63.0908889770507,1676952922
iw,-83.0018157958984,-71.6096725463867,-140.752685546875,53.6176452636718,1676969589
iw,-80.0214004516601,-72.5201721191406,-172.338424682617,51.1659927368164,1676986256
iw,-76.95068359375,-73.4873580932617,-179.246292114257,55.4794044494628,1677002923
iw,-74.3397216796875,-74.4489364624023,-151.077362060546,55.3274345397949,1677019590
iw,-72.0146331787109,-75.3341445922851,-134.199020385742,50.2592697143554,1677036257
iw,-69.5782318115234,-76.2134475708007,-141.60708618164,49.3185844421386,1677052924
iw,-67.2966079711914,-77.2327575683593,-131.807815551757,58.1759986877441,1677069591
iw,-65.3148803710937,-78.2313842773437,-114.039855957031,57.9158782958984,1677086258
iw,-63.4787826538085,-79.1804580688476,-104.573257446289,55.6397247314453,1677102925
iw,-61.6315994262695,-80.1225967407226,-104.881980895996,55.6804809570312,1677119592
iw,-59.8577156066894,-81.0471572875976,-99.0348892211914,55.3408050537109,1677136259
iw,-58.2044601440429,-81.9401473999023,-95.6968078613281,54.4607734680175,1677152926
iw,-56.94921875,-82.7757186889648,-73.7013168334961,51.6692390441894,1677169593
iw,-55.9466094970703,-83.5842742919921,-58.0478591918945,50.6869277954101,1677186260
iw,-55.0792198181152,-84.4051818847656,-49.4673767089843,53.461986541748,1677202927
iw,-53.9955596923828,-85.1520462036132,-68.3758392333984,51.6869468688964,1677219594
iw,-53.1031303405761,-85.8489456176757,-58.0601463317871,51.3634948730468,1677236261
iw,-52.463623046875,-86.4519958496093,-41.4066085815429,46.9955253601074,1677252928
iw,-52.2144050598144,-86.909912109375,-16.6894607543945,41.9441299438476,1677269595
iw,-52.1086730957031,-87.2310485839843,-8.62453460693359,41.3457374572753,1677286262
iw,-51.7697639465332,-87.3573608398437,-28.0892028808593,38.1669769287109,1677302929
iw,-52.0388641357421,-87.3414916992187,12.1654510498046,35.5768585205078,1677319596
iw,-52.4150352478027,-87.1936950683593,15.1606941223144,38.7345428466796,1677336263
iw,-52.9397392272949,-86.886116027832,20.4814739227294,42.0986061096191,1677352930
iw,-53.595588684082,-86.4784088134765,25.83736038208,40.870994567871,1677369597
iw,-54.5341300964355,-86.0026245117187,45.4835090637207,39.9814910888671,1677386264
iw,-55.3614654541015,-85.4546432495117,39.411205291748,41.3435935974121,1677402931
iw,-56.3052749633789,-84.9241104125976,43.115436553955,36.5136947631835,1677419598
iw,-57.2331352233886,-84.4498138427734,33.2529335021972,29.592716217041,1677436265
iw,-58.2270011901855,-83.9990005493164,31.4514198303222,26.6230335235595,1677452932
iw,-59.1356620788574,-83.5485229492187,28.2794036865234,26.3858947753906,1677469599
iw,-59.7900352478027,-83.1634216308593,13.6137952804565,22.3270835876464,1677486266
iw,-60.5372047424316,-82.7733001708984,17.8895072937011,22.924482345581,1677502933
iw,-61.8690643310546,-82.3864517211914,49.754165649414,23.0292034149169,1677519600
iw,-63.2344169616699,-82.0982131958007,63.1336669921875,17.470115661621,1677536267
iw,-64.2336883544921,-82.1844024658203,49.9927597045898,-5.21545553207397,1677552934
iw,-64.8779754638671,-82.6634216308593,30.6548080444335,-29.6937141418457,1677569601
iw,-65.7003631591796,-83.5748977661132,33.1390380859375,-56.4738731384277,1677586268
iw,-66.7656173706054,-85.0492782592773,41.8144569396972,-91.0369110107421,1677602935
iw,-68.0063018798828,-86.9223480224609,50.3938446044921,-115.772720336914,1677619602
iw,-69.2024154663086,-88.9121398925781,48.2198181152343,-126.266563415527,1677636269
iw,-70.384407043457,-88.7103271484375,49.5173873901367,-130.080261230468,1677652936
iw,-71.5598678588867,-86.3161315917968,51.7913818359375,-148.700149536132,1677669603
iw,-72.728401184082,-83.4830169677734,54.6949844360351,-171.461120605468,1677686270
iw,-73.9052581787109,-80.5811157226562,58.1110725402832,-175.045120239257,1677702937
iw,-75.0941925048828,-77.9484176635742,59.6402206420898,-158.689483642578,1677719604
iw,-76.2815322875976,-75.5308761596679,59.0013961791992,-145.983352661132,1677736271
iw,-77.3927001953125,-73.1148529052734,55.9683799743652,-146.484024047851,1677752938
iw,-78.3327102661132,-70.674819946289,48.3466072082519,-148.180618286132,1677769605
iw,-79.1307373046875,-68.4977035522461,42.2124557495117,-132.454925537109,1677786272
iw,-79.8553237915039,-66.6539459228515,39.7868347167968,-112.56590270996,1677802939
iw,-80.4617462158203,-65.0153503417968,34.1363372802734,-101.010749816894,1677819606
iw,-81.0544052124023,-63.2515830993652,34.8824005126953,-109.230270385742,1677836273
iw,-81.6492538452148,-61.2898445129394,37.2679405212402,-121.899101257324,1677852940
iw,-82.1812133789062,-59.1530380249023,36.3766822814941,-132.957809448242,1677869607
iw,-82.6312942504882,-57.0025100708007,34.7508277893066,-133.651443481445,1677886274
iw,-83.0251235961914,-55.0606880187988,35.741413116455,-119.86376953125,1677902941
iw,-83.3293838500976,-53.7068328857421,35.7993354797363,-84.0198135375976,1677919608
iw,-83.508918762207,-52.5602302551269,32.9497108459472,-71.9209518432617,1677936275
iw,-83.5812149047851,-51.3912162780761,32.0458869934082,-73.1804122924804,1677952942
iw,-83.5383529663086,-50.3891868591308,31.626953125,-62.3948020935058,1677969609
iw,-83.4308700561523,-49.8824272155761,32.2622871398925,-30.3826427459716,1677986276
iw,-83.2687683105468,-49.3781356811523,31.4893684387207,-28.6001663208007,1678002943
iw,-83.0622863769531,-48.9463386535644,32.9073066711425,-25.4236965179443,1678019610
iw,-82.8221969604492,-49.0089836120605,35.1578483581543,3.19650149345397,1678036277
iw,-82.553237915039,-49.5291633605957,33.361400604248,30.6273536682128,1678052944
iw,-82.2351531982421,-50.3281669616699,34.5421028137207,47.1966743469238,1678069611
iw,-81.8660278320312,-51.4840660095214,35.9088859558105,66.811653137207,1678086278
iw,-81.4850692749023,-53.0113716125488,33.6491241455078,89.6541671752929,1678102945
iw,-81.1114883422851,-54.7320327758789,31.1550064086914,100.083404541015,1678119612
iw,-80.7314682006836,-56.786075592041,31.7052574157714,118.380851745605,1678136279
iw,-80.3779830932617,-58.2745246887207,31.1145343780517,84.5560989379882,1678152946
iw,-80.1080703735351,-59.1407432556152,26.4986457824707,46.0558280944824,1678169613
iw,-79.9477233886718,-59.8360519409179,18.5506420135498,35.4129371643066,1678186280
iw,-79.8912353515625,-60.4038696289062,12.1055164337158,28.1623630523681,1678202947
iw,-80.0044021606445,-61.0842056274414,0.461700022220611,35.3478775024414,1678219614
iw,-80.4239196777343,-62.3761825561523,-18.2340793609619,72.2920989990234,1678236281
iw,-81.1758575439453,-64.2367782592773,-38.3426246643066,108.574485778808,1678252948
iw,-82.2000885009765,-65.4364776611328,-57.5234909057617,71.0582504272461,1678269615
iw,-83.4269638061523,-65.6954956054687,-74.4214477539062,14.6600723266601,1678286282
iw,-84.8400039672851,-66.0985031127929,-92.2891311645507,21.3072490692138,1678302949
iw,-86.22021484375,-67.1135635375976,-112.047660827636,53.8538742065429,1678319616
iw,-86.5776062011718,-68.5510940551757,-124.507301330566,77.346321105957,1678336283
iw,-85.3768768310546,-70.028564453125,-125.99225616455,80.5077972412109,1678352950
iw,-83.0574264526367,-71.37060546875,-145.51692199707,74.5050811767578,1678369617
iw,-80.1721572875976,-72.5376434326171,-167.177795410156,66.4271163940429,1678386284
iw,-77.3536376953125,-73.6926727294921,-162.915588378906,66.9184417724609,1678402951
iw,-75.0823822021484,-74.8774490356445,-129.887908935546,69.0447692871093,1678419618
iw,-72.9366912841796,-75.9999847412109,-123.353683471679,65.1969528198242,1678436285
iw,-70.6668624877929,-77.0496139526367,-130.551467895507,60.4595794677734,1678452952
iw,-68.5574417114257,-78.099380493164,-119.668907165527,59.9663429260253,1678469619
iw,-66.6961517333984,-79.1620407104492,-104.492073059082,61.3099632263183,1678486286
iw,-64.9744186401367,-80.1988372802734,-97.7443695068359,60.4873313903808,1678502953
iw,-63.1818542480468,-81.2107467651367,-104.003967285156,59.2661209106445,1678519620
iw,-61.321548461914,-82.1446990966796,-109.424339294433,54.7126312255859,1678536287
iw,-59.4836540222168,-82.9602890014648,-108.721084594726,48.2637786865234,1678552954
iw,-57.8215942382812,-83.6760940551757,-100.586761474609,42.9889984130859,1678569621
iw,-56.3522338867187,-84.3590316772461,-88.3323974609375,40.6532936096191,1678586288
iw,-54.979507446289,-85.0416488647461,-84.6761093139648,40.2396278381347,1678602955
iw,-53.7141227722168,-85.7643737792968,-77.5958099365234,43.2382926940918,1678619622
iw,-52.5811004638671,-86.4460372924804,-67.687629699707,42.8663787841796,1678636289
iw,-51.6638603210449,-87.04150390625,-54.8179321289062,40.121524810791,1678652956
iw,-51.0513153076171,-87.4112472534179,-36.211124420166,29.2199802398681,1678669623
iw,-50.7597732543945,-87.6756896972656,-16.5678424835205,26.7741909027099,1678686290
iw,-50.5021438598632,-87.9866638183593,-17.5086116790771,40.4708709716796,1678702957
iw,-50.2524757385253,-88.0568084716796,-23.0970783233642,44.9958114624023,1678719624
iw,-50.1138839721679,-87.7837982177734,-19.2943439483642,44.7837181091308,1678736291
iw,-50.857624053955,-87.283218383789,39.0606079101562,46.9726104736328,1678752958
iw,-52.0360717773437,-86.7128219604492,63.7862358093261,46.7516975402832,1678769625
iw,-53.2276458740234,-86.1554489135742,57.2468833923339,42.4719734191894,1678786292
iw,-54.6180305480957,-85.5672988891601,74.0328521728515,42.089786529541,1678802959
iw,-55.6513023376464,-84.9365844726562,43.9885292053222,43.1831626892089,1678819626
iw,-56.8059310913085,-84.3493118286132,49.2318267822265,38.0731811523437,1678836293
iw,-57.8164443969726,-83.8542709350586,35.2990036010742,29.2158546447753,1678852960
iw,-58.579044342041,-83.3843765258789,21.2868385314941,26.4822483062744,1678869627
iw,-59.1915893554687,-82.9124679565429,12.0573844909667,27.6776065826416,1678886294
iw,-60.1645431518554,-82.4642562866211,32.5372009277343,27.3709697723388,1678902961
iw,-61.7760581970214,-82.0924758911132,70.9967422485351,22.7239265441894,1678919628
iw,-63.0428237915039,-82.0703125,62.6565208435058,1.14490807056427,1678936295
iw,-63.8588409423828,-82.6037368774414,36.7167816162109,-33.0146789550781,1678952962
iw,-64.6287307739257,-83.6178283691406,31.8928203582763,-62.5472793579101,1678969629
iw,-65.6465072631836,-85.014419555664,39.4745826721191,-86.2170791625976,1678986296
iw,-66.9031753540039,-86.7892990112304,47.6318473815918,-108.559295654296,1679002963
iw,-68.2954330444336,-88.9396514892578,56.8632431030273,-131.901733398437,1679019630
iw,-69.6328201293945,-88.5934677124023,54.0076522827148,-143.113357543945,1679036297
iw,-71.0106124877929,-85.9891738891601,58.9864425659179,-157.244110107421,1679052964
iw,-72.3332748413086,-82.9898834228515,60.2535400390625,-180.099304199218,1679069631
iw,-73.5765304565429,-79.9797439575195,58.4713859558105,-181.300323486328,1679086298
iw,-74.8103561401367,-77.2710952758789,58.831615447998,-163.737442016601,1679102965
iw,-76.0059356689453,-74.6998138427734,55.472801208496,-155.764114379882,1679119632
iw,-77.1479110717773,-72.1972427368164,52.9482231140136,-151.959289550781,1679136299
iw,-78.1426773071289,-69.6664352416992,46.3784103393554,-153.754074096679,1679152966
iw,-78.9798583984375,-67.2347946166992,39.3633079528808,-147.61912536621,1679169633
iw,-79.734748840332,-64.9407196044921,36.7090682983398,-138.57273864746,1679186300
iw,-80.4430923461914,-62.7217445373535,35.7656097412109,-133.363159179687,1679202967
iw,-81.0745468139648,-60.5057296752929,32.7294769287109,-133.2099609375,1679219634
iw,-81.6088104248046,-58.1755294799804,28.5320568084716,-140.421875,1679236301
iw,-82.1239624023437,-55.7151565551757,29.5255393981933,-147.612808227539,1679252968
iw,-82.6636657714843,-53.4313926696777,33.5852508544921,-136.120346069335,1679269635
iw,-83.174072265625,-52.0177612304687,35.2851409912109,-84.6794281005859,1679286302
iw,-83.584487915039,-50.8651237487793,34.2223663330078,-70.0096435546875,1679302969
iw,-83.9316329956054,-49.900764465332,36.7042160034179,-59.1893081665039,1679319636
iw,-84.1781616210937,-49.0097122192382,38.4415740966796,-54.2381019592285,1679336303
iw,-84.2664642333984,-48.4456558227539,35.8707885742187,-32.709228515625,1679352970
iw,-84.2221603393554,-47.9464454650878,33.2287635803222,-27.9503307342529,1679369637
iw,-84.1147079467773,-47.8253211975097,35.3674621582031,-6.75232934951782,1679386304
iw,-83.9667434692382,-48.6659317016601,37.3315734863281,50.2468490600585,1679402971
iw,-83.7599868774414,-50.3489189147949,35.6621475219726,99.5625305175781,1679419638
iw,-83.5004959106445,-51.8730888366699,36.7585525512695,89.4931945800781,1679436305
iw,-83.2257003784179,-53.8263816833496,42.4150161743164,114.046150207519,1679452972
iw,-82.9318161010742,-56.0174179077148,41.4523468017578,126.980949401855,1679469639
iw,-82.5867233276367,-57.3530845642089,38.4788932800293,76.484016418457,1679486306
iw,-82.2019271850586,-58.5471992492675,33.9773406982421,66.9746017456054,1679502973
iw,-81.8868408203125,-59.332160949707,25.8877925872802,41.0795249938964,1679519640
iw,-81.7124557495117,-59.4990348815918,16.4213142395019,3.57663297653198,1679536307
iw,-81.6859130859375,-59.6436233520507,8.6641788482666,2.32992506027221,1679552974
iw,-81.7922821044921,-59.9841499328613,3.00765872001647,12.9609088897705,1679569641
iw,-82.1398544311523,-61.2694396972656,-10.8580503463745,70.563117980957,1679586308
iw,-82.7223587036132,-63.1776237487793,-24.6620121002197,110.824531555175,1679602975
iw,-83.5577392578125,-64.099983215332,-43.7411766052246,52.6187744140625,1679619642
iw,-84.595718383789,-64.2462615966796,-58.1635131835937,4.78541707992553,1679636309
iw,-85.8517837524414,-64.7106018066406,-75.9304275512695,23.9452953338623,1679652976
iw,-87.0960693359375,-65.8330078125,-98.7531356811523,61.1852874755859,1679669643
iw,-87.2076873779296,-67.3924026489257,-118.25129699707,85.3388061523437,1679686310
iw,-85.5269165039062,-69.0285491943359,-132.881515502929,88.9672012329101,1679702977
iw,-82.9566116333007,-70.479248046875,-148.456848144531,78.251708984375,1679719644
iw,-79.9989776611328,-71.780517578125,-164.314956665039,71.9631271362304,1679736311
iw,-77.1269836425781,-72.9621124267578,-162.48452758789,66.8249740600586,1679752978
iw,-74.5906295776367,-74.1124877929687,-144.282348632812,66.0637512207031,1679769645
iw,-72.4157943725586,-75.1540222167968,-123.014862060546,60.2858238220214,1679786312
iw,-70.2136535644531,-76.1346282958984,-124.522666931152,55.7768249511718,1679802979
iw,-68.0470886230468,-77.144546508789,-121.477249145507,55.9667243957519,1679819646
iw,-66.1586074829101,-78.1734390258789,-104.279891967773,56.6958045959472,1679836313
iw,-64.5994262695312,-79.2362670898437,-85.1427536010742,59.747272491455,1679852980
iw,-62.9526710510253,-80.2674255371093,-92.8761520385742,58.934341430664,1679869647
iw,-61.1670341491699,-81.2188415527343,-103.440185546875,54.7192230224609,1679886314
iw,-59.4045104980468,-82.1229629516601,-104.771659851074,52.1609306335449,1679902981
iw,-57.8289260864257,-82.9832305908203,-95.9946823120117,49.9113044738769,1679919648
iw,-56.3590393066406,-83.8099594116211,-92.2903213500976,48.3906059265136,1679936315
iw,-55.305492401123,-84.6425552368164,-64.1125869750976,49.2675666809082,1679952982
iw,-54.3773651123046,-85.4669799804687,-53.7247047424316,49.5860557556152,1679969649
iw,-53.3710098266601,-86.2653503417968,-59.5118408203125,49.7707786560058,1679986316
iw,-52.4841728210449,-86.9576644897461,-53.948429107666,45.4037895202636,1680002983
iw,-51.8419036865234,-87.5485610961914,-39.8642196655273,41.3522834777832,1680019650
iw,-51.5187721252441,-88.002082824707,-21.9773864746093,38.1736335754394,1680036317
iw,-51.3700981140136,-88.3009567260742,-13.37238407135,41.6706924438476,1680052984
iw,-51.2840461730957,-88.3163452148437,-12.9493408203125,39.2411613464355,1680069651
iw,-51.3209228515625,-88.1210098266601,-8.50974178314209,34.3064727783203,1680086318
iw,-51.5417976379394,-87.7742843627929,2.01544737815856,36.2534370422363,1680102985
iw,-51.994384765625,-87.3060913085937,13.3239803314208,39.3118591308593,1680119652
iw,-52.627098083496,-86.7800369262695,22.5663719177246,40.2625160217285,1680136319
iw,-53.3404006958007,-86.231948852539,25.7096290588378,37.9199485778808,1680152986
iw,-54.0653572082519,-85.6485061645507,26.394847869873,37.6287879943847,1680169653
iw,-55.345344543457,-85.0594177246093,60.4371910095214,36.3943939208984,1680186320
iw,-56.343936920166,-84.53076171875,40.5833702087402,31.3669815063476,1680202987
iw,-57.3821067810058,-84.0624465942382,41.4343032836914,26.409381866455,1680219654
iw,-58.1741485595703,-83.6291427612304,27.1020069122314,24.616003036499,1680236321
iw,-58.4902572631835,-83.1683883666992,-1.92844140529632,27.6317062377929,1680252988
iw,-58.7705078125,-82.6977920532226,-2.01996660232543,28.5423393249511,1680269655
iw,-59.381362915039,-82.1686553955078,15.2280712127685,31.755271911621,1680286322
iw,-60.9144287109375,-81.6910934448242,62.9873352050781,28.0551605224609,1680302989
iw,-62.4167747497558,-81.4942092895507,69.1265106201171,10.6455392837524,1680319656
iw,-63.5076255798339,-81.8030776977539,49.5896759033203,-20.1607570648193,1680336323
iw,-64.2192764282226,-82.4835815429687,30.4009361267089,-42.6245803833007,1680352990
iw,-65.1004791259765,-83.6027297973632,38.0237312316894,-69.0520477294921,1680369657
iw,-66.1895751953125,-85.2331771850586,45.2375106811523,-100.198783874511,1680386324
iw,-67.5414810180664,-87.1628952026367,57.3947486877441,-121.641746520996,1680402991
iw,-68.914680480957,-88.7633056640625,56.2486457824707,-130.504516601562,1680419658
iw,-70.2354202270507,-87.68505859375,54.6181564331054,-144.608413696289,1680436325
iw,-71.4935150146484,-85.0345382690429,54.2298431396484,-170.916122436523,1680452992
iw,-72.6344146728515,-82.0120468139648,50.7296066284179,-187.28645324707,1680469659
iw,-73.6988296508789,-79.1518630981445,48.9598426818847,-176.34033203125,1680486326
iw,-74.7953643798828,-76.566650390625,52.5009574890136,-158.964523315429,1680502993
iw,-75.874885559082,-74.1609268188476,51.0490913391113,-147.483367919921,1680519660
iw,-76.8796005249023,-71.7812042236328,47.9221496582031,-146.064834594726,1680536327
iw,-77.7817001342773,-69.338752746582,44.1190147399902,-149.21450805664,1680552994
iw,-78.5761108398437,-67.1016998291015,40.4836502075195,-136.34536743164,1680569661
iw,-79.2791061401367,-64.9703826904296,37.4527626037597,-129.383865356445,1680586328
iw,-79.8961181640625,-62.8835868835449,34.3610305786132,-126.432731628417,1680602995
iw,-80.4709243774414,-60.8132438659668,34.1196899414062,-125.822998046875,1680619662
iw,-81.0461730957031,-58.6830177307128,36.5447006225585,-130.285049438476,1680636329
iw,-81.5535278320312,-56.7061576843261,35.30904006958,-121.001121520996,1680652996
iw,-82.0326995849609,-55.2516441345214,37.5360641479492,-89.2088165283203,1680669663
iw,-82.4784317016601,-54.1736373901367,40.9037017822265,-67.6449966430664,1680686330
iw,-82.7986755371093,-53.0841369628906,38.6275787353515,-69.3352661132812,1680702997
iw,-82.9823379516601,-51.9334526062011,35.405704498291,-73.4649276733398,1680719664
iw,-83.0617523193359,-51.1927871704101,34.7331199645996,-46.7048301696777,1680736331
iw,-83.0766906738281,-50.6649551391601,35.9642372131347,-31.1791591644287,1680752998
iw,-83.0305023193359,-50.0293769836425,35.2416267395019,-38.1889457702636,1680769665
iw,-82.9240798950195,-49.8568687438964,37.8699607849121,-12.0141305923461,1680786332
iw,-82.7490463256836,-50.0086212158203,41.4673690795898,6.3134388923645,1680802999
iw,-82.484748840332,-50.5737876892089,37.725772857666,30.7695388793945,1680819666
iw,-82.1601333618164,-51.3098564147949,36.6124114990234,41.4069519042968,1680836333
iw,-81.7630310058593,-52.2372016906738,34.976089477539,51.9276275634765,1680853000
iw,-81.3499450683593,-53.9710044860839,34.2568550109863,99.1713943481445,1680869667
iw,-80.9618835449218,-55.8123741149902,31.8806457519531,104.230239868164,1680886334
iw,-80.5823059082031,-57.2262382507324,32.8815231323242,79.4418106079101,1680903001
iw,-80.2244644165039,-58.0727081298828,31.6730728149414,45.4300575256347,1680919668
iw,-79.9585494995117,-58.6321258544921,26.3735599517822,27.4952182769775,1680936335
iw,-79.8018493652343,-58.8854179382324,20.721471786499,8.93950748443603,1680953002
iw,-79.737190246582,-59.1892929077148,14.8518810272216,11.9171257019042,1680969669
iw,-79.7918243408203,-59.6855735778808,6.43535947799682,23.5048694610595,1680986336
iw,-80.0710983276367,-60.9654579162597,-9.81344985961914,70.5707778930664,1681003003
iw,-80.5635986328125,-62.7954406738281,-25.9791011810302,105.792457580566,1681019670
iw,-81.3146591186523,-63.9799690246582,-45.6230430603027,69.4094772338867,1681036337
iw,-82.3445281982421,-64.2035064697265,-65.1858215332031,11.5398817062377,1681053004
iw,-83.6581420898437,-64.5694198608398,-86.5697402954101,16.3449020385742,1681069671
iw,-85.1166152954101,-65.5969161987304,-106.790367126464,51.9546699523925,1681086338
iw,-86.1537704467773,-66.9853286743164,-117.015701293945,74.1837005615234,1681103005
iw,-85.9176483154296,-68.4349365234375,-121.629905700683,78.787971496582,1681119672
iw,-84.3359375,-69.7358474731445,-130.458770751953,71.7226104736328,1681136339
iw,-81.9949645996093,-70.8288345336914,-144.840133666992,60.7412605285644,1681153006
iw,-79.2933807373046,-71.8332595825195,-158.750457763671,57.1584701538085,1681169673
iw,-76.5465469360351,-72.8665161132812,-161.636047363281,59.4214706420898,1681186340
iw,-74.094367980957,-73.8454895019531,-142.994567871093,56.161075592041,1681203007
iw,-71.8480072021484,-74.7496337890625,-129.081497192382,50.7888870239257,1681219674
iw,-69.5585403442382,-75.6977615356445,-130.029235839843,52.6133575439453,1681236341
iw,-67.3877716064453,-76.7664947509765,-121.68090057373,59.8796691894531,1681253008
iw,-65.4342193603515,-77.8819198608398,-108.129524230957,63.562931060791,1681269675
iw,-63.5421028137207,-78.9446411132812,-104.53108215332,61.0861167907714,1681286342
iw,-61.425983428955,-79.9896545410156,-118.08869934082,60.4533615112304,1681303009
iw,-59.4167098999023,-80.9592819213867,-112.214958190917,56.3962669372558,1681319676
iw,-57.6438598632812,-81.8031005859375,-101.677825927734,49.4261589050293,1681336343
iw,-55.9720230102539,-82.6044769287109,-98.3798141479492,47.1482505798339,1681353010
iw,-54.5151863098144,-83.4148941040039,-88.0327224731445,47.7024574279785,1681369677
iw,-53.1270065307617,-84.2645874023437,-86.3425827026367,50.5145454406738,1681386344
iw,-52.0690460205078,-85.0991897583007,-65.3515014648437,50.6323509216308,1681403011
iw,-51.2172698974609,-85.9020309448242,-52.0243759155273,49.7567138671875,1681419678
iw,-50.6260337829589,-86.5853958129882,-36.7731971740722,42.8821258544921,1681436345
iw,-50.3841743469238,-87.1598587036132,-16.5475349426269,37.4585456848144,1681453012
iw,-50.2217941284179,-87.7079162597656,-12.9172258377075,38.0333709716796,1681469679
iw,-49.9397964477539,-88.1661300659179,-25.889986038208,39.3514251708984,1681486346
iw,-49.779426574707,-88.4062728881836,-22.7764587402343,38.7180824279785,1681503013
iw,-50.0204200744628,-88.3463745117187,1.16508722305297,43.133861541748,1681519680
iw,-51.2550964355468,-87.9240646362304,69.1561050415039,49.6306686401367,1681536347
iw,-52.4253234863281,-87.2636260986328,66.3319549560546,51.5315551757812,1681553014
iw,-53.535358428955,-86.4545364379882,57.6391677856445,54.85103225708,1681569681
iw,-54.4215354919433,-85.6183242797851,46.6707305908203,51.6405525207519,1681586348
iw,-55.2263870239257,-84.8856124877929,38.8026695251464,42.5043754577636,1681603015
iw,-55.98193359375,-84.1772232055664,27.0487079620361,40.7533531188964,1681619682
iw,-56.7229690551757,-83.4229965209961,19.8605842590332,43.7506828308105,1681636349
iw,-57.4554214477539,-82.709114074707,16.5058002471923,41.8576507568359,1681653016
iw,-58.2948608398437,-82.1276016235351,15.7800493240356,34.8759002685546,1681669683
iw,-59.6852874755859,-81.6920852661132,43.2249107360839,26.6503715515136,1681686350
iw,-61.1573219299316,-81.4645309448242,58.7364234924316,14.1673202514648,1681703017
iw,-62.2718887329101,-81.560546875,47.8520317077636,-6.02329540252685,1681719684
iw,-63.050910949707,-82.0701599121093,26.2308883666992,-32.2125854492187,1681736351
iw,-64.0384063720703,-83.0616378784179,30.3345775604248,-62.812271118164,1681753018
iw,-65.3720550537109,-84.666015625,51.5260543823242,-103.065078735351,1681769685
iw,-66.9562835693359,-86.6122207641601,67.6489868164062,-131.398330688476,1681786352
iw,-68.5364074707031,-88.1769409179687,68.6851806640625,-138.793243408203,1681803019
iw,-69.9909362792968,-87.8214797973632,61.4891662597656,-132.489929199218,1681819686
iw,-71.3737106323242,-85.7908554077148,59.0612487792968,-153.189392089843,1681836353
iw,-72.7759933471679,-82.9147109985351,64.9196395874023,-183.432250976562,1681853020
iw,-74.1632690429687,-79.919448852539,67.8908157348632,-184.363189697265,1681869687
iw,-75.5349731445312,-77.3102645874023,67.3569946289062,-159.074813842773,1681886354
iw,-76.8953399658203,-74.9762268066406,64.8328628540039,-141.879013061523,1681903021
iw,-78.2096328735351,-72.2645874023437,62.015453338623,-164.45100402832,1681919688
iw,-79.3136367797851,-69.4502944946289,52.2996520996093,-170.562759399414,1681936355
iw,-80.1415710449218,-67.0900802612304,38.8386573791503,-143.075637817382,1681953022
iw,-80.8245086669921,-65.104248046875,32.0145759582519,-120.132247924804,1681969689
iw,-81.4360198974609,-62.9859008789062,29.3630218505859,-127.608848571777,1681986356
iw,-82.0186233520507,-60.7155532836914,29.6377487182617,-136.386398315429,1682003023
iw,-82.6059112548828,-58.4239501953125,32.2765159606933,-138.091156005859,1682019690
iw,-83.2333450317382,-56.0673217773437,37.9901123046875,-142.70115661621,1682036357
iw,-83.7674713134765,-54.0273361206054,36.6463546752929,-123.697265625,1682053024
iw,-84.1749649047851,-52.5593528747558,34.6165504455566,-89.6090621948242,1682069691
iw,-84.4834594726562,-51.422306060791,35.861099243164,-69.8923187255859,1682086358
iw,-84.6735153198242,-50.4433326721191,37.95796585083,-60.4419288635253,1682103025
iw,-84.7018356323242,-49.5730209350585,37.6030769348144,-53.2717704772949,1682119692
iw,-84.6187896728515,-48.9328384399414,39.6829795837402,-37.3628883361816,1682136359
iw,-84.4257125854492,-48.3146629333496,41.3962821960449,-35.6694869995117,1682153026
iw,-84.1221389770507,-47.8866806030273,40.9839172363281,-25.6378860473632,1682169693
iw,-83.730712890625,-47.9508781433105,39.2693328857421,3.75293326377868,1682186360
iw,-83.2476806640625,-48.2539100646972,40.7044944763183,18.7395668029785,1682203027
iw,-82.7035751342773,-49.0554161071777,41.6313781738281,49.9626579284668,1682219694
iw,-82.1497726440429,-50.2176704406738,41.7205123901367,70.5804824829101,1682236361
iw,-81.5851058959961,-51.8380241394043,41.2934646606445,95.5224685668945,1682253028
iw,-81.0038299560546,-53.844871520996,39.0791244506835,115.94416809082,1682269695
iw,-80.4361801147461,-55.2296905517578,35.3326339721679,78.6328506469726,1682286362
iw,-79.8970565795898,-56.27730178833,31.6815910339355,57.6136360168457,1682303029
iw,-79.3728332519531,-57.0828132629394,28.6449756622314,42.1370239257812,1682319696
iw,-78.9284896850586,-57.6462516784668,26.7016696929931,27.3983879089355,1682336363
iw,-78.6009826660156,-58.3067970275878,23.166784286499,32.3145866394043,1682353030
iw,-78.4927215576171,-59.1089096069335,10.2814435958862,40.2791099548339,1682369697
iw,-78.6644134521484,-60.7378349304199,-5.89919662475585,92.0759124755859,1682386364
iw,-79.0719146728515,-62.3696136474609,-19.0507793426513,95.1890029907226,1682403031
iw,-79.8980407714843,-63.0562171936035,-45.2560844421386,39.1828804016113,1682419698
iw,-81.2049407958984,-63.3363800048828,-74.0774459838867,11.1563787460327,1682436365
iw,-82.8803253173828,-64.1607513427734,-95.3462219238281,38.5205574035644,1682453032
iw,-84.7734832763671,-65.4861602783203,-110.296463012695,69.1023254394531,1682469699
iw,-86.6106567382812,-67.1546249389648,-122.171638488769,90.3880920410156,1682486366
iw,-87.3826675415039,-68.7561264038086,-132.315170288085,89.4532470703125,1682503033
iw,-86.0407180786132,-70.2151336669921,-134.882186889648,82.711441040039,1682519700
iw,-83.6709823608398,-71.5626144409179,-144.808609008789,77.350601196289,1682536367
iw,-80.9355392456054,-72.9568557739257,-158.425140380859,81.1675338745117,1682553034
iw,-78.343994140625,-74.3631286621093,-151.729110717773,81.5518951416015,1682569701
iw,-75.9263534545898,-75.5597915649414,-141.398864746093,68.8439407348632,1682586368
iw,-73.6750106811523,-76.620620727539,-129.474975585937,60.0540924072265,1682603035
iw,-71.4155807495117,-77.6823348999023,-128.462493896484,59.0208320617675,1682619702
iw,-69.2913818359375,-78.7299652099609,-119.788993835449,58.5841941833496,1682636369
iw,-67.2889175415039,-79.716064453125,-111.932701110839,55.9890060424804,1682653036
iw,-65.2842864990234,-80.6116714477539,-112.345558166503,51.2510414123535,1682669703
iw,-63.3077316284179,-81.4478378295898,-113.666198730468,48.0101089477539,1682686370
iw,-61.3475914001464,-82.1910629272461,-115.392875671386,42.6849021911621,1682703037
iw,-59.5144844055175,-82.8830795288086,-110.525909423828,40.0616455078125,1682719704
iw,-57.7383232116699,-83.5491638183593,-110.551361083984,38.877872467041,1682736371
iw,-56.1770477294921,-84.2124328613281,-98.7113418579101,39.3903427124023,1682753038
iw,-54.6665000915527,-84.9478225708007,-96.2676239013671,44.7249908447265,1682769705
iw,-53.34614944458,-85.6238708496093,-84.5046310424804,41.6818504333496,1682786372
iw,-52.286506652832,-86.1700897216796,-67.5593795776367,34.7060165405273,1682803039
iw,-51.5240745544433,-86.6112365722656,-48.556411743164,29.4895095825195,1682819706
iw,-50.9599227905273,-87.0020599365234,-34.8082809448242,27.9766063690185,1682836373
iw,-50.4458122253418,-87.3967666625976,-34.7503814697265,31.0686073303222,1682853040
iw,-50.20361328125,-87.7551116943359,-17.9651565551757,36.4278106689453,1682869707
iw,-50.2162857055664,-87.9833602905273,-5.03328990936279,45.2171554565429,1682886374
iw,-50.3703422546386,-87.9188842773437,3.57722425460815,47.6140251159668,1682903041
iw,-50.779930114746,-87.5910873413086,20.2903976440429,44.1302642822265,1682919708
iw,-51.5241889953613,-87.1084976196289,40.1510581970214,42.671085357666,1682936375
iw,-52.419807434082,-86.5526962280273,49.1035232543945,42.9790267944335,1682953042
iw,-53.4399833679199,-86.0000228881836,57.6968688964843,38.1601181030273,1682969709
iw,-54.2706756591796,-85.3804702758789,36.8284339904785,39.6324348449707,1682986376
iw,-55.207046508789,-84.6880187988281,38.7348365783691,44.1890335083007,1683003043
iw,-56.0695343017578,-83.9752731323242,32.3408393859863,46.2726821899414,1683019710
iw,-56.6804046630859,-83.3166885375976,15.3510761260986,42.6180076599121,1683036377
iw,-57.2038879394531,-82.697280883789,9.92585659027099,39.0780448913574,1683053044
iw,-57.8299674987793,-82.1645889282226,13.7195711135864,33.3180999755859,1683069711
iw,-59.0461044311523,-81.7546157836914,42.3088417053222,25.7432403564453,1683086378
iw,-60.6346855163574,-81.4988098144531,65.8331451416015,15.5916738510131,1683103045
iw,-61.919075012207,-81.4571685791015,58.2908630371093,2.09695482254028,1683119712
iw,-62.6448554992675,-81.7174377441406,27.9382190704345,-16.6607208251953,1683136379
iw,-63.3373146057128,-82.3729858398437,23.2780036926269,-40.7567977905273,1683153046
iw,-64.357307434082,-83.5462112426757,34.9302940368652,-72.2246780395507,1683169713
iw,-65.649429321289,-85.2328948974609,49.3314666748046,-103.122406005859,1683186380
iw,-66.9361267089843,-87.2812042236328,51.1074905395507,-124.472137451171,1683203047
iw,-68.1789474487304,-89.4078521728515,48.5571098327636,-128.876892089843,1683219714
iw,-69.4471817016601,-88.284683227539,53.2100181579589,-138.092254638671,1683236381
iw,-70.734504699707,-85.4289855957031,58.3264274597168,-171.108642578125,1683253048
iw,-72.0480651855468,-82.2457199096679,63.9096908569335,-190.976257324218,1683269715
iw,-73.3688812255859,-79.244026184082,66.1394424438476,-180.951522827148,1683286382
iw,-74.6599807739257,-76.720100402832,63.620506286621,-153.02197265625,1683303049
iw,-75.8443145751953,-74.2247543334961,57.4591445922851,-151.724472045898,1683319716
iw,-76.8415298461914,-71.7859802246093,48.8991775512695,-148.388916015625,1683336383
iw,-77.6341476440429,-69.3215942382812,39.0651168823242,-149.772109985351,1683353050
iw,-78.3457336425781,-67.1680297851562,36.2183570861816,-130.941436767578,1683369717
iw,-79.037971496582,-65.2213973999023,36.3281097412109,-118.578071594238,1683386384
iw,-79.7112274169921,-63.1808815002441,36.1628799438476,-124.160285949707,1683403051
iw,-80.365852355957,-61.0260314941406,36.0403900146484,-131.34976196289,1683419718
iw,-80.9893264770507,-58.7980880737304,35.4346542358398,-136.559875488281,1683436385
iw,-81.5978851318359,-56.5291061401367,36.2547531127929,-139.58657836914,1683453052
iw,-82.1699295043945,-54.4982376098632,36.083927154541,-124.584236145019,1683469719
iw,-82.6619567871093,-53.1525192260742,33.7165908813476,-83.1176681518554,1683486386
iw,-83.1114807128906,-51.9234542846679,34.4631919860839,-76.549575805664,1683503053
iw,-83.4748153686523,-50.6816520690918,34.5394744873046,-77.3662338256836,1683519720
iw,-83.7124099731445,-49.462890625,32.8680267333984,-75.1836166381836,1683536387
iw,-83.8866958618164,-48.7206687927246,34.2513313293457,-44.3832664489746,1683553054
iw,-84.0562438964843,-48.2474670410156,40.6372833251953,-26.5621662139892,1683569721
iw,-84.1766128540039,-47.9080924987793,46.0752868652343,-19.5097484588623,1683586388
iw,-84.1460952758789,-47.9480171203613,43.8061981201171,3.13643646240234,1683603055
iw,-83.9537048339843,-48.3222007751464,40.3229026794433,24.2008056640625,1683619722
iw,-83.6220703125,-48.9360847473144,38.488842010498,39.1342430114746,1683636389
iw,-83.2056655883789,-49.94478225708,33.8663101196289,61.2232475280761,1683653056
iw,-82.7610778808593,-51.6111373901367,30.5195846557617,100.466667175292,1683669723
iw,-82.3036956787109,-53.6663284301757,28.4111995697021,120.081970214843,1683686390
iw,-81.8520355224609,-55.7340354919433,26.1691360473632,119.371490478515,1683703057
iw,-81.4244613647461,-57.0115852355957,25.7856521606445,72.4929122924804,1683719724
iw,-81.0506057739257,-57.9143371582031,28.2930641174316,48.1889839172363,1683736391
iw,-80.7648162841796,-58.4650421142578,28.9525241851806,26.6101684570312,1683753058
iw,-80.6098709106445,-58.9026374816894,24.8638076782226,19.8910179138183,1683769725
iw,-80.5711441040039,-59.3523178100585,16.5948314666748,21.1479110717773,1683786392
iw,-80.7217636108398,-60.309814453125,1.39911389350891,51.67333984375,1683803059
iw,-81.0833740234375,-62.0176544189453,-13.9628238677978,99.0258407592773,1683819726
iw,-81.6588058471679,-63.3932952880859,-32.2264022827148,80.9479064941406,1683836393
iw,-82.479995727539,-63.7489013671875,-53.7949333190918,20.0224285125732,1683853060
iw,-83.5084075927734,-63.9846534729003,-69.7266311645507,9.07525539398193,1683869727
iw,-84.7102432250976,-64.7679443359375,-85.2775039672851,39.9261779785156,1683886394
iw,-85.8154983520507,-66.0640411376953,-98.952766418457,70.1511688232421,1683903061
iw,-86.1671829223632,-67.6005859375,-114.438598632812,84.0777511596679,1683919728
iw,-85.2131271362304,-69.0343704223632,-126.815826416015,78.6701507568359,1683936395
iw,-83.3054962158203,-70.3331832885742,-136.368789672851,72.0742645263671,1683953062
iw,-80.8828811645507,-71.4866180419921,-146.511154174804,66.1360702514648,1683969729
iw,-78.0895919799804,-72.5772476196289,-163.120056152343,63.4756889343261,1683986396
iw,-75.4269561767578,-73.6723709106445,-155.168243408203,63.3499794006347,1684003063
iw,-72.9979400634765,-74.6966781616211,-140.214721679687,58.5344810485839,1684019730
iw,-70.7041320800781,-75.6724166870117,-130.505676269531,54.5322875976562,1684036397
iw,-68.4937438964843,-76.7843704223632,-125.247367858886,62.1196899414062,1684053064
iw,-66.512336730957,-77.9335861206054,-111.547576904296,65.013916015625,1684069731
iw,-64.621841430664,-78.9894256591796,-105.607971191406,60.1309013366699,1684086398
iw,-62.6423072814941,-79.9375305175781,-110.779991149902,54.291877746582,1684103065
iw,-60.5818405151367,-80.7835235595703,-116.372695922851,48.412612915039,1684119732
iw,-58.6232872009277,-81.5372924804687,-111.76853942871,43.2017211914062,1684136399
iw,-56.9722290039062,-82.2490615844726,-95.6887817382812,41.1773872375488,1684153066
iw,-55.473159790039,-82.9633331298828,-88.7637176513671,41.8695564270019,1684169733
iw,-54.2173233032226,-83.6989593505859,-74.5651016235351,43.6962394714355,1684186400
iw,-52.9237823486328,-84.4131393432617,-79.3959121704101,43.2434921264648,1684203067
iw,-51.8356552124023,-85.0866165161132,-66.8261413574218,41.8434257507324,1684219734
iw,-51.0672950744628,-85.7454986572265,-45.3638305664062,41.6987800598144,1684236401
iw,-50.5788688659668,-86.3888168334961,-29.5315246582031,41.1812896728515,1684253068
iw,-50.339111328125,-87.0133819580078,-14.3330307006835,40.3990592956543,1684269735
iw,-50.192626953125,-87.5578384399414,-11.8445491790771,39.3911476135253,1684286402
iw,-50.0495109558105,-87.9974822998046,-17.5092964172363,40.1713943481445,1684303069
iw,-50.4890022277832,-88.2093276977539,18.0857162475585,39.7540664672851,1684319736
iw,-51.3019332885742,-88.1458587646484,39.4487533569335,38.7643394470214,1684336403
iw,-52.518798828125,-87.8655929565429,66.0371322631836,38.3414764404296,1684353070
iw,-53.4396057128906,-87.4717636108398,48.2673034667968,39.1000671386718,1684369737
iw,-54.2368469238281,-87.0313262939453,34.001781463623,37.0904083251953,1684386404
iw,-54.9830169677734,-86.5172119140625,26.1772403717041,37.5621795654296,1684403071
iw,-55.8718528747558,-85.9099731445312,30.4887561798095,41.338882446289,1684419738
iw,-56.6134223937988,-85.2848281860351,23.1347923278808,40.5888862609863,1684436405
iw,-57.0886535644531,-84.7224426269531,7.51442670822143,34.8496932983398,1684453072
iw,-57.4622726440429,-84.211555480957,2.27559828758239,30.4497966766357,1684469739
iw,-58.029239654541,-83.7477493286132,9.54630851745605,27.9066543579101,1684486406
iw,-59.4730949401855,-83.33203125,52.4293975830078,25.2807121276855,1684503073
iw,-61.2190818786621,-83.0688781738281,78.3650741577148,15.8079319000244,1684519740
iw,-62.6219902038574,-83.0762939453125,65.0700073242187,-0.749871253967285,1684536407
iw,-63.4555511474609,-83.292495727539,36.3327598571777,-13.8536834716796,1684553074
iw,-64.2133026123046,-83.859878540039,34.2875823974609,-35.3450660705566,1684569741
iw,-65.1273727416992,-84.9846878051757,38.6790809631347,-69.0128784179687,1684586408
iw,-66.349609375,-86.5976867675781,54.1078071594238,-98.3618774414062,1684603075
iw,-67.651870727539,-88.4668579101562,55.2842407226562,-114.18521118164,1684619742
iw,-68.8951873779296,-89.3601989746093,50.8376274108886,-123.460929870605,1684636409
iw,-70.1646728515625,-87.1242446899414,57.6676788330078,-138.704360961914,1684653076
iw,-71.2981567382812,-84.3647308349609,54.164379119873,-166.323852539062,1684669743
iw,-72.2950134277343,-81.2937850952148,48.3387908935546,-184.352432250976,1684686410
iw,-73.2272033691406,-78.274787902832,46.6586990356445,-180.900955200195,1684703077
iw,-74.1814498901367,-75.7514724731445,49.2942123413085,-151.335388183593,1684719744
iw,-75.0839157104492,-73.5125885009765,45.8337478637695,-135.789138793945,1684736411
iw,-75.8806381225586,-71.3463363647461,40.0041198730468,-132.410781860351,1684753078
iw,-76.60205078125,-69.2402877807617,36.8094596862793,-128.988815307617,1684769745
iw,-77.3195343017578,-67.2249526977539,38.0176582336425,-123.058410644531,1684786412
iw,-78.033447265625,-65.4780731201171,39.0646820068359,-106.71295928955,1684803079
iw,-78.7263565063476,-63.9367523193359,38.8148460388183,-94.7048568725586,1684819746
iw,-79.3512191772461,-62.3114700317382,35.8108367919921,-100.663536071777,1684836413
iw,-79.9877853393554,-60.5039405822753,37.6156578063964,-112.88370513916,1684853080
iw,-80.6000137329101,-58.698932647705,37.3606224060058,-113.483306884765,1684869747
iw,-81.2243957519531,-57.2634925842285,39.6413269042968,-91.9640350341796,1684886414
iw,-81.8113708496093,-56.0256385803222,39.3153190612793,-79.3008499145507,1684903081
iw,-82.3536376953125,-55.1375617980957,39.3170852661132,-58.636131286621,1684919748
iw,-82.793830871582,-54.1050300598144,36.6638488769531,-67.4983749389648,1684936415
iw,-83.1397628784179,-53.1135864257812,34.1843376159668,-64.5591278076171,1684953082
iw,-83.4091491699218,-52.4684791564941,33.7034187316894,-42.4041633605957,1684969749
iw,-83.5572204589843,-51.8828620910644,30.8066253662109,-36.4217796325683,1684986416
iw,-83.5984954833984,-51.2473640441894,28.8261413574218,-39.4031982421875,1685003083
iw,-83.5671844482421,-50.8608360290527,28.4355773925781,-24.5925617218017,1685019750
iw,-83.4856414794921,-50.7839088439941,30.7100067138671,-5.64715433120727,1685036417
iw,-83.3314361572265,-50.8320426940918,32.8899421691894,2.71241402626037,1685053084
iw,-83.1161880493164,-50.9750671386718,32.3345680236816,8.52418422698974,1685069751
iw,-82.8770751953125,-51.3205261230468,34.1531333923339,20.6870861053466,1685086418
iw,-82.6175918579101,-52.2070236206054,37.2691230773925,52.6473655700683,1685103085
iw,-82.3515319824218,-53.5974655151367,41.4301795959472,82.0844955444336,1685119752
iw,-82.088752746582,-55.0094375610351,36.3698196411132,80.3449478149414,1685136419
iw,-81.8173446655273,-56.5853195190429,31.6126060485839,89.2463226318359,1685153086
iw,-81.5494842529296,-57.5358543395996,30.6663246154785,52.3991012573242,1685169753
iw,-81.3136825561523,-58.1842231750488,27.6673202514648,33.8094520568847,1685186420
iw,-81.1360778808593,-58.6645278930664,21.3949604034423,24.260850906372,1685203087
iw,-80.9874496459961,-59.0214080810546,22.5658931732177,17.3662300109863,1685219754
iw,-80.8741149902343,-59.2918434143066,23.84130859375,11.9089317321777,1685236421
iw,-80.8886795043945,-59.9858436584472,13.6275100708007,37.089126586914,1685253088
iw,-81.0570373535156,-61.5169525146484,0.426051676273345,87.8200302124023,1685269755
iw,-81.4123611450195,-63.1152992248535,-17.1076736450195,93.2153091430664,1685286422
iw,-82.035285949707,-63.7739906311035,-38.1399230957031,37.324104309082,1685303089
iw,-82.961181640625,-63.8162269592285,-58.3107528686523,-1.64153707027435,1685319756
iw,-84.1085815429687,-64.3473663330078,-74.1861801147461,24.9020767211914,1685336423
iw,-85.3469314575195,-65.4928665161132,-89.7131805419921,60.9647941589355,1685353090
iw,-86.406753540039,-67.0143432617187,-103.735557556152,83.8892974853515,1685369757
iw,-86.3832855224609,-68.5580520629882,-113.526817321777,86.564224243164,1685386424
iw,-85.0693054199218,-69.870735168457,-120.184432983398,74.420166015625,1685403091
iw,-82.9522094726562,-71.0877380371093,-136.071655273437,70.1880798339843,1685419758
iw,-80.1732940673828,-72.3114929199218,-165.793701171875,71.1586074829101,1685436425
iw,-77.5398635864257,-73.5725555419921,-156.539413452148,73.2090454101562,1685453092
iw,-75.3056945800781,-74.7852935791015,-131.64158630371,70.4236145019531,1685469759
iw,-73.1269149780273,-75.9565200805664,-127.028266906738,67.7373962402343,1685486426
iw,-70.8612289428711,-77.1502227783203,-131.34992980957,68.9383239746093,1685503093
iw,-68.8080139160156,-78.3225631713867,-117.961196899414,68.1188583374023,1685519760
iw,-66.9686965942382,-79.4331283569336,-105.262802124023,64.9999618530273,1685536427
iw,-65.0456848144531,-80.4849014282226,-109.908813476562,61.7307167053222,1685553094
iw,-62.9313278198242,-81.4464569091796,-121.089080810546,56.5079956054687,1685569761
iw,-60.8180122375488,-82.2896270751953,-120.796401977539,49.9674339294433,1685586428
iw,-58.9462738037109,-83.0591812133789,-106.613998413085,46.4994277954101,1685603095
iw,-57.1557273864746,-83.8182601928711,-105.869491577148,46.4482688903808,1685619762
iw,-55.6821975708007,-84.5,-87.6937866210937,42.821533203125,1685636429
iw,-54.2339744567871,-85.1291122436523,-85.9729766845703,41.5078010559082,1685653096
iw,-52.9389953613281,-85.6957550048828,-76.0652999877929,40.0096435546875,1685669763
iw,-51.8488082885742,-86.1472473144531,-61.7544250488281,35.0803642272949,1685686430
iw,-51.0901489257812,-86.5747451782226,-40.8846855163574,34.8172645568847,1685703097
iw,-50.7285957336425,-87.0095825195312,-17.3113613128662,38.4170951843261,1685719764
iw,-50.5731544494628,-87.3583984375,-4.7464051246643,41.2617034912109,1685736431
iw,-50.38232421875,-87.4826202392578,-11.7801094055175,40.6745376586914,1685753098
iw,-50.3785896301269,-87.3676071166992,-4.60855627059936,47.075210571289,1685769765
iw,-50.7405281066894,-87.0020599365234,15.7142162322998,49.3459129333496,1685786432
iw,-51.7286567687988,-86.504638671875,51.6777915954589,47.4574241638183,1685803099
iw,-53.0640144348144,-85.955093383789,71.0133895874023,45.6057090759277,1685819766
iw,-54.1284866333007,-85.3618545532226,55.2736892700195,44.6992301940918,1685836433
iw,-55.1552734375,-84.8108749389648,47.0163421630859,37.6691055297851,1685853100
iw,-56.2472496032714,-84.3086013793945,46.9432182312011,31.4779548645019,1685869767
iw,-57.1283950805664,-83.8164825439453,32.2908210754394,29.2622108459472,1685886434
iw,-57.8053855895996,-83.3352584838867,20.0620670318603,29.6945114135742,1685903101
iw,-58.4482650756835,-82.8749847412109,15.4385690689086,30.0432968139648,1685919768
iw,-59.3991088867187,-82.4448776245117,28.620714187622,28.7872734069824,1685936435
iw,-60.9154663085937,-82.0877532958984,62.6463737487793,24.6656398773193,1685953102
iw,-62.2198486328125,-82.0862197875976,62.4866142272949,2.47270774841308,1685969769
iw,-63.0390319824218,-82.5706787109375,36.0361824035644,-28.9083652496337,1685986436
iw,-63.9672698974609,-83.4885025024414,35.759895324707,-57.352294921875,1686003103
iw,-65.2001953125,-84.8347930908203,48.3460655212402,-86.5296249389648,1686019770
iw,-66.6198654174804,-86.4962539672851,58.2073593139648,-110.736961364746,1686036437
iw,-68.1189880371093,-88.1051483154296,64.4747085571289,-128.006607055664,1686053104
iw,-69.5593795776367,-88.141860961914,61.6907958984375,-127.329124450683,1686069771
iw,-70.9800415039062,-86.2702255249023,63.0436286926269,-145.12075805664,1686086438
iw,-72.4453964233398,-83.5714263916015,69.5572891235351,-171.951873779296,1686103105
iw,-73.8481674194336,-80.6356811523437,68.9516448974609,-180.568008422851,1686119772
iw,-75.1232604980468,-77.9085998535156,63.7481575012207,-166.02879333496,1686136439
iw,-76.2752914428711,-75.4295425415039,56.6450424194335,-150.393768310546,1686153106
iw,-77.3432922363281,-72.9237365722656,52.3975296020507,-151.882110595703,1686169773
iw,-78.2339935302734,-70.3519134521484,44.2756195068359,-155.877807617187,1686186440
iw,-78.9762573242187,-67.9684753417968,37.8604164123535,-144.565979003906,1686203107
iw,-79.6848526000976,-65.9371948242187,37.8597984313964,-123.199935913085,1686219774
iw,-80.344123840332,-64.0170669555664,36.8689537048339,-116.269821166992,1686236441
iw,-80.9100341796875,-61.9305839538574,33.7610092163085,-126.684837341308,1686253108
iw,-81.4219207763671,-59.7767791748046,33.496726989746,-130.975784301757,1686269775
iw,-81.9214859008789,-57.3983764648437,36.0940437316894,-144.855712890625,1686286442
iw,-82.3483505249023,-55.1169891357421,35.2969055175781,-138.360687255859,1686303109
iw,-82.7060165405273,-53.6853370666503,35.5248641967773,-86.4187927246093,1686319776
iw,-82.9882431030273,-52.6553230285644,36.1832122802734,-62.647533416748,1686336443
iw,-83.191909790039,-51.6940193176269,37.4026870727539,-58.6630897521972,1686353110
iw,-83.285774230957,-50.7099533081054,36.669635772705,-59.7030944824218,1686369777
iw,-83.2728195190429,-50.0638694763183,35.9381980895996,-38.0663871765136,1686386444
iw,-83.1826095581054,-49.6312103271484,37.405647277832,-23.9940490722656,1686403111
iw,-83.0330047607421,-49.399616241455,39.4803199768066,-12.2677125930786,1686419778
iw,-82.8508987426757,-50.0422744750976,44.8645896911621,40.4120712280273,1686436445
iw,-82.6140060424804,-51.0982055664062,48.4918327331543,66.0531997680664,1686453112
iw,-82.3018035888671,-52.2123794555664,46.5416831970214,69.0516662597656,1686469779
iw,-81.9524841308593,-54.0650749206543,41.9795417785644,110.202026367187,1686486446
iw,-81.5851058959961,-56.2876014709472,36.3510818481445,129.321899414062,1686503113
iw,-81.2090682983398,-57.8750572204589,35.4608268737793,93.6580276489257,1686519780
iw,-80.8027954101562,-58.8027877807617,38.6702690124511,50.359806060791,1686536447
iw,-80.4233245849609,-59.451000213623,37.6007041931152,32.6968116760253,1686553114
iw,-80.0737152099609,-59.9617462158203,37.520336151123,23.9371128082275,1686569781
iw,-79.7833480834961,-60.4120140075683,33.8894882202148,20.5007534027099,1686586448
iw,-79.6627883911132,-60.9917106628418,20.789939880371,28.0024738311767,1686603115
iw,-79.8424911499023,-62.3831024169921,2.2124330997467,78.2196350097656,1686619782
iw,-80.2852172851562,-63.6894798278808,-16.3785209655761,75.7340927124023,1686636449
iw,-81.1342391967773,-63.9469375610351,-45.7800865173339,13.2745733261108,1686653116
iw,-82.4428024291992,-64.1563034057617,-77.3139343261718,6.41910600662231,1686669783
iw,-84.0675354003906,-65.0453338623046,-99.7982406616211,40.5457801818847,1686686450
iw,-85.7605819702148,-66.3419189453125,-111.191986083984,65.3969497680664,1686703117
iw,-86.9913711547851,-67.7630462646484,-124.042121887207,73.8372116088867,1686719784
iw,-86.5456085205078,-69.1026611328125,-134.986785888671,71.9061965942382,1686736451
iw,-84.7239608764648,-70.2919921875,-136.1298828125,65.1959686279296,1686753118
iw,-82.1602554321289,-71.4106292724609,-155.939468383789,62.9986610412597,1686769785
iw,-79.3170700073242,-72.5786590576171,-168.962921142578,67.2551193237304,1686786452
iw,-76.6947479248046,-73.7221221923828,-154.976852416992,65.5657196044921,1686803119
iw,-74.39697265625,-74.7716369628906,-133.564254760742,59.102066040039,1686819786
iw,-72.0967712402343,-75.8596572875976,-131.819625854492,60.3050193786621,1686836453
iw,-69.7868728637695,-77.1161499023437,-132.352294921875,70.0811386108398,1686853120
iw,-67.5883483886718,-78.4129791259765,-124.61920928955,72.7519454956054,1686869787
iw,-65.490493774414,-79.6410598754882,-117.382118225097,69.2132186889648,1686886454
iw,-63.3658256530761,-80.8790664672851,-117.258445739746,70.4668884277343,1686903121
iw,-61.2601852416992,-82.0642013549804,-114.42919921875,67.5251846313476,1686919788
iw,-59.314769744873,-83.1719970703125,-105.780860900878,63.1499214172363,1686936455
iw,-57.4464797973632,-84.1824340820312,-101.922752380371,57.827537536621,1686953122
iw,-55.3852958679199,-85.1422805786132,-120.137718200683,55.2908668518066,1686969789
iw,-53.6600646972656,-86.0714569091796,-102.336715698242,53.9835205078125,1686986456
iw,-52.1336135864257,-86.951431274414,-90.8518447875976,52.51123046875,1687003123
iw,-50.9426918029785,-87.7262573242187,-69.3472213745117,48.615005493164,1687019790
iw,-50.1342163085937,-88.3709335327148,-46.233470916748,43.6300544738769,1687036457
iw,-49.5950241088867,-88.7927780151367,-31.806583404541,39.8013038635253,1687053124
iw,-49.3597679138183,-88.881103515625,-13.876799583435,39.3911170959472,1687069791
iw,-49.1190185546875,-88.5848693847656,-18.7648639678955,41.3924980163574,1687086458
iw,-49.006004333496,-88.0674057006836,-17.1804027557373,41.195816040039,1687103125
iw,-49.371524810791,-87.4298400878906,11.6776237487792,42.6645126342773,1687119792
iw,-50.7758445739746,-86.73876953125,76.8672714233398,43.0000419616699,1687136459
iw,-52.0877265930175,-86.1107788085937,66.6431121826171,38.4990158081054,1687153126
iw,-53.5505485534668,-85.4890747070312,73.0021438598632,37.7320327758789,1687169793
iw,-54.9957542419433,-84.88818359375,73.2595672607421,35.5841979980468,1687186460
iw,-56.3381233215332,-84.333381652832,62.3065147399902,31.9264316558837,1687203127
iw,-57.5001945495605,-83.7955017089843,48.2839889526367,30.1534996032714,1687219794
iw,-58.3490142822265,-83.220718383789,31.1609687805175,32.2571105957031,1687236461
iw,-59.0849227905273,-82.6533737182617,21.0694389343261,32.5533485412597,1687253128
iw,-60.2762489318847,-82.1828689575195,40.2015991210937,27.527265548706,1687269795
iw,-61.9669876098632,-81.9361343383789,71.7418441772461,14.0193109512329,1687286462
iw,-63.1621322631835,-82.1042022705078,53.4566230773925,-11.2763977050781,1687303129
iw,-63.8654594421386,-82.7462310791015,24.8624305725097,-40.050495147705,1687319796
iw,-64.4399108886718,-83.7040939331054,15.4566469192504,-59.3251647949218,1687336463
iw,-65.2958145141601,-85.0827102661132,25.922830581665,-84.9804382324218,1687353130
iw,-66.5095062255859,-86.9152374267578,47.2715682983398,-112.786010742187,1687369797
iw,-67.710090637207,-89.0450973510742,51.2595062255859,-131.977783203125,1687386464
iw,-68.9219894409179,-88.5193176269531,49.7562561035156,-141.63491821289,1687403131
iw,-70.2108306884765,-85.8458404541015,54.6239852905273,-162.312942504882,1687419798
iw,-71.5353012084961,-82.6197280883789,62.0085220336914,-193.857009887695,1687436465
iw,-72.8355331420898,-79.3423233032226,63.3534889221191,-196.057647705078,1687453132
iw,-74.0335388183593,-76.4429321289062,59.7563896179199,-173.218719482421,1687469799
iw,-75.1333618164062,-74.1456451416015,54.7828865051269,-137.515304565429,1687486466
iw,-76.1127853393554,-72.1150131225586,47.2456855773925,-122.759384155273,1687503133
iw,-76.9658737182617,-70.0318527221679,40.9827117919921,-126.841522216796,1687519800
iw,-77.6902160644531,-68.0420150756836,35.4726257324218,-121.140907287597,1687536467
iw,-78.3391952514648,-66.2803115844726,31.8388595581054,-106.888481140136,1687553134
iw,-78.9910049438476,-64.7152404785156,32.6866111755371,-94.6326141357421,1687569801
iw,-79.6681365966796,-63.1304702758789,35.183364868164,-95.8518905639648,1687586468
iw,-80.3068618774414,-61.4488563537597,33.8907432556152,-101.9175491333,1687603135
iw,-80.8978958129882,-59.6335372924804,32.0282020568847,-110.74363708496,1687619802
iw,-81.4605636596679,-57.6732635498046,31.4567546844482,-120.559204101562,1687636469
iw,-82.0254821777343,-55.9441871643066,33.1046180725097,-107.376808166503,1687653136
iw,-82.5198745727539,-54.8225402832031,30.7087211608886,-71.4324493408203,1687669803
iw,-82.9694671630859,-53.6810646057128,30.538179397583,-73.2297210693359,1687686470
iw,-83.4043273925781,-52.5397262573242,33.3502655029296,-72.5622024536132,1687703137
iw,-83.7515106201171,-51.6902084350585,32.6934661865234,-53.5177192687988,1687719804
iw,-83.9624938964843,-51.0316581726074,29.4157905578613,-39.7041931152343,1687736471
iw,-84.0851364135742,-50.349494934082,28.1940288543701,-41.1550178527832,1687753138
iw,-84.1515960693359,-49.9409027099609,28.9310111999511,-25.7892971038818,1687769805
iw,-84.1785659790039,-49.9100112915039,30.776288986206,-2.60411095619201,1687786472
iw,-84.1372985839843,-50.1300239562988,30.4177551269531,13.995792388916,1687803139
iw,-84.0304107666015,-50.7396697998046,30.6784877777099,37.4438858032226,1687819806
iw,-83.8699188232421,-51.7364501953125,30.9954948425292,60.6262702941894,1687836473
iw,-83.7072067260742,-53.1862449645996,33.364933013916,85.9182052612304,1687853140
iw,-83.5091323852539,-55.1595993041992,34.2297286987304,114.487892150878,1687869807
iw,-83.2683944702148,-56.723274230957,29.5608024597167,89.6871566772461,1687886474
iw,-83.0428085327148,-57.5403823852539,27.9774017333984,45.0388717651367,1687903141
iw,-82.8412475585937,-58.2366256713867,24.2177772521972,36.7822608947753,1687919808
iw,-82.6827316284179,-58.7737922668457,18.6990184783935,26.8014659881591,1687936475
iw,-82.6143569946289,-59.1105613708496,13.0964784622192,14.8332071304321,1687953142
iw,-82.6683197021484,-59.3840293884277,9.07231521606445,10.5571603775024,1687969809
iw,-82.8592453002929,-59.9676322937011,2.93460583686828,28.4643459320068,1687986476
iw,-83.208755493164,-61.5012969970703,-6.98959016799926,86.6897811889648,1688003143
iw,-83.7034378051757,-63.3362236022949,-17.2647590637207,107.847465515136,1688019810
iw,-84.3519821166992,-64.3463973999023,-31.8981208801269,59.345832824707,1688036477
iw,-85.1376800537109,-64.5477142333984,-47.9272499084472,10.0104064941406,1688053144
iw,-86.0272445678711,-64.774169921875,-62.9370384216308,9.37653446197509,1688069811
iw,-86.8045120239257,-65.5556716918945,-78.8292160034179,41.1236267089843,1688086478
iw,-86.768325805664,-66.6752700805664,-100.706726074218,63.4375343322753,1688103145
iw,-85.42919921875,-68.0289993286132,-120.133659362792,77.5555572509765,1688119812
iw,-83.3328475952148,-69.3494491577148,-131.407333374023,73.9918670654296,1688136479
iw,-80.9410629272461,-70.5420989990234,-135.540145874023,66.9995956420898,1688153146
iw,-78.0464172363281,-71.6470870971679,-160.974151611328,63.4321250915527,1688169813
iw,-75.2043075561523,-72.6046600341796,-160.205810546875,55.0540542602539,1688186480
iw,-72.8085632324218,-73.4882125854492,-134.413299560546,50.5653953552246,1688203147
iw,-70.5864105224609,-74.3441619873046,-123.250122070312,48.8857650756835,1688219814
iw,-68.2445297241211,-75.2077178955078,-132.445571899414,48.4506797790527,1688236481
iw,-65.9367446899414,-76.1289749145507,-130.522750854492,51.2027320861816,1688253148
iw,-63.8858604431152,-77.070571899414,-114.744911193847,52.9589576721191,1688269815
iw,-62.2092742919921,-78.0276718139648,-93.0248947143554,54.7500114440918,1688286482
iw,-60.4558029174804,-78.9770584106445,-100.176216125488,54.7843513488769,1688303149
iw,-58.6253929138183,-79.9125595092773,-108.333442687988,54.0659027099609,1688319816
iw,-56.8014297485351,-80.7458343505859,-112.356750488281,48.0345764160156,1688336483
iw,-55.061782836914,-81.5372238159179,-110.370422363281,45.7039756774902,1688353150
iw,-53.7167739868164,-82.305908203125,-88.2126007080078,44.4663391113281,1688369817
iw,-52.4674835205078,-83.0957641601562,-85.0556182861328,45.8167266845703,1688386484
iw,-51.5591735839843,-83.8429489135742,-61.7192993164062,43.5389060974121,1688403151
iw,-50.935863494873,-84.6123809814453,-40.3410491943359,45.1339492797851,1688419818
iw,-50.3713150024414,-85.3144607543945,-37.3303298950195,41.0500564575195,1688436485
iw,-49.9242095947265,-85.9386672973632,-30.604019165039,36.157615661621,1688453152
iw,-49.7383880615234,-86.5300521850586,-12.7784156799316,34.3297653198242,1688469819
iw,-49.5764923095703,-87.1494064331054,-13.5255298614501,36.7254638671875,1688486486
iw,-49.5399131774902,-87.7480545043945,-9.72373485565185,37.1884994506835,1688503153
iw,-49.6030807495117,-88.2365341186523,-5.75501823425293,34.0552673339843,1688519820
iw,-49.7208404541015,-88.7020111083984,-5.27945947647094,38.6550636291503,1688536487
iw,-50.1634521484375,-88.9584579467773,14.982590675354,45.0228538513183,1688553154
iw,-50.8180427551269,-88.7054748535156,29.4842510223388,45.2815818786621,1688569821
iw,-51.5221328735351,-88.193115234375,33.9148902893066,38.7496032714843,1688586488
iw,-52.6187705993652,-87.6160812377929,57.1567573547363,36.0305404663085,1688603155
iw,-53.3983039855957,-87.0418319702148,33.9651222229003,33.548713684082,1688619822
iw,-54.4181365966796,-86.4968643188476,43.1689262390136,31.1002521514892,1688636489
iw,-55.482795715332,-85.9348068237304,46.846694946289,32.5346450805664,1688653156
iw,-56.3726921081543,-85.3822937011718,35.8606605529785,32.4566650390625,1688669823
iw,-57.1009063720703,-84.8782653808593,25.3946189880371,29.0625438690185,1688686490
iw,-57.6355476379394,-84.4334564208984,10.4477672576904,25.1768531799316,1688703157
iw,-58.3251647949218,-83.9967193603515,12.8812952041625,25.8849563598632,1688719824
iw,-60.0019416809082,-83.581672668457,65.5541839599609,25.7786235809326,1688736491
iw,-61.6101112365722,-83.2833251953125,72.4644699096679,18.8277606964111,1688753158
iw,-62.911521911621,-83.3101272583007,61.6270217895507,-1.72825646400451,1688769825
iw,-63.6329803466796,-83.6202239990234,33.6019897460937,-19.6855430603027,1688786492
iw,-64.4224853515625,-84.3597640991211,38.7952728271484,-45.8252983093261,1688803159
iw,-65.438491821289,-85.7377777099609,50.5998420715332,-84.5373001098632,1688819826
iw,-66.6472549438476,-87.5725555419921,60.3395309448242,-112.441307067871,1688836493
iw,-67.9451217651367,-89.4266586303711,57.1353225708007,-115.679168701171,1688853160
iw,-69.2707290649414,-88.5966796875,55.788818359375,-115.49819946289,1688869827
iw,-70.6022415161132,-86.2833251953125,60.7361412048339,-140.05810546875,1688886494
iw,-71.8061141967773,-83.4051361083984,57.7268142700195,-172.798019409179,1688903161
iw,-72.8097610473632,-80.431411743164,48.322338104248,-178.058670043945,1688919828
iw,-73.7648162841796,-77.8014526367187,47.6346702575683,-156.821411132812,1688936495
iw,-74.7243423461914,-75.5462417602539,48.7316703796386,-134.583404541015,1688953162
iw,-75.6389923095703,-73.4282073974609,45.6155662536621,-127.67007446289,1688969829
iw,-76.4834518432617,-71.2838134765625,42.1739425659179,-130.199020385742,1688986496
iw,-77.2064590454101,-69.2765884399414,35.5965118408203,-121.978355407714,1689003163
iw,-77.9047012329101,-67.5296783447265,35.5641937255859,-106.189987182617,1689019830
iw,-78.5984268188476,-65.9262771606445,36.8893890380859,-97.7149581909179,1689036497
iw,-79.2409210205078,-64.414077758789,35.0563316345214,-92.7675857543945,1689053164
iw,-79.8804626464843,-62.9119567871093,36.2770919799804,-92.9526062011718,1689069831
iw,-80.4893646240234,-61.2857704162597,35.6671600341796,-101.481712341308,1689086498
iw,-81.0216064453125,-59.4765930175781,32.289680480957,-113.059577941894,1689103165
iw,-81.525764465332,-57.8523597717285,32.3288116455078,-101.559112548828,1689119832
iw,-82.0081481933593,-56.6499214172363,33.5120506286621,-75.8710250854492,1689136499
iw,-82.4604034423828,-55.7233352661132,34.9750175476074,-60.1389503479003,1689153166
iw,-82.8117141723632,-54.6924514770507,32.7375564575195,-66.7392807006836,1689169833
iw,-83.0920104980468,-53.747314453125,32.7802543640136,-61.5235862731933,1689186500
iw,-83.2823867797851,-53.114273071289,31.3338928222656,-41.177074432373,1689203167
iw,-83.3938446044921,-52.4359550476074,31.2928562164306,-42.4861984252929,1689219834
iw,-83.4196624755859,-51.9381408691406,31.4316253662109,-31.9601669311523,1689236501
iw,-83.3435134887695,-51.7320175170898,28.8123817443847,-14.8407135009765,1689253168
iw,-83.1445693969726,-51.7078018188476,22.6929855346679,-3.44398784637451,1689269835
iw,-82.8607864379882,-51.7916831970214,20.6158962249755,3.54931712150573,1689286502
iw,-82.5754852294921,-52.0033454895019,23.3117332458496,11.9723510742187,1689303169
iw,-82.3404998779296,-52.5510673522949,28.90500831604,32.2125091552734,1689319836
iw,-82.1288223266601,-53.4917449951171,34.4521102905273,55.8511352539062,1689336503
iw,-81.906265258789,-54.4951782226562,37.4346733093261,57.2944068908691,1689353170
iw,-81.6902618408203,-55.7686195373535,37.1526832580566,70.892593383789,1689369837
iw,-81.5071105957031,-56.7681465148925,32.1337738037109,54.6998863220214,1689386504
iw,-81.3244323730468,-57.4761810302734,31.3255252838134,36.3909454345703,1689403171
iw,-81.1483001708984,-57.888427734375,32.3354110717773,18.826244354248,1689419838
iw,-81.0132980346679,-58.1608695983886,29.0679779052734,11.0948524475097,1689436505
iw,-80.9366378784179,-58.4417686462402,18.6894836425781,11.8316583633422,1689453172
iw,-80.9255065917968,-58.9662933349609,9.45947742462158,25.9244842529296,1689469839
iw,-81.0540466308593,-60.116470336914,3.04541087150573,62.6050720214843,1689486506
iw,-81.3868789672851,-62.0115356445312,-9.01929092407226,108.641738891601,1689503173
iw,-82.0046615600586,-63.6281509399414,-31.1578063964843,94.2777481079101,1689519840
iw,-82.9096984863281,-64.1278305053711,-51.0392875671386,28.0940723419189,1689536507
iw,-84.0770568847656,-64.1960372924804,-70.8535537719726,1.71230912208557,1689553174
iw,-85.3830642700195,-64.8231735229492,-88.1782455444336,31.8225135803222,1689569841
iw,-86.3973388671875,-66.0457534790039,-104.531692504882,64.7379531860351,1689586508
iw,-86.2423019409179,-67.4149398803711,-116.025955200195,71.0063400268554,1689603175
iw,-84.6634750366211,-68.5905532836914,-129.529464721679,59.9830856323242,1689619842
iw,-82.2610473632812,-69.6147384643554,-148.847183227539,53.5238647460937,1689636509
iw,-79.3563766479492,-70.5192413330078,-171.362091064453,49.5659065246582,1689653176
iw,-76.4224853515625,-71.4878540039062,-172.661956787109,54.5419998168945,1689669843
iw,-73.8038177490234,-72.4875335693359,-153.262725830078,57.1431579589843,1689686510
iw,-71.2790908813476,-73.4409255981445,-146.736236572265,53.8268966674804,1689703177
iw,-68.6561508178711,-74.4566040039062,-152.330902099609,56.6177101135253,1689719844
iw,-66.1980590820312,-75.6283874511718,-142.537368774414,65.9391250610351,1689736511
iw,-64.0104675292968,-76.8572311401367,-125.918472290039,70.2992706298828,1689753178
iw,-61.8230209350585,-77.9505996704101,-125.885345458984,62.9937477111816,1689769845
iw,-59.7562599182128,-78.9602661132812,-119.558036804199,58.6266288757324,1689786512
iw,-57.9091644287109,-79.909927368164,-107.480735778808,55.3599586486816,1689803179
iw,-55.8877067565918,-80.7866592407226,-121.785675048828,51.4188804626464,1689819846
iw,-54.3135299682617,-81.6185455322265,-94.9578399658203,49.4317779541015,1689836513
iw,-53.0118255615234,-82.4287948608398,-78.0018234252929,48.5394020080566,1689853180
iw,-51.8304634094238,-83.2787399291992,-71.0636367797851,51.4864692687988,1689869847
iw,-50.7284126281738,-84.1369247436523,-66.255126953125,52.6869888305664,1689886514
iw,-49.9222946166992,-84.969970703125,-46.1616477966308,52.0469589233398,1689903181
iw,-49.3856620788574,-85.7404403686523,-28.3181858062744,48.3458290100097,1689919848
iw,-49.2082061767578,-86.4102401733398,-6.43184280395507,43.839557647705,1689936515
iw,-49.2055358886718,-87.0162658691406,2.67305850982666,44.5683441162109,1689953182
iw,-49.2119636535644,-87.5458450317382,-2.68508243560791,47.3525428771972,1689969849
iw,-49.4096412658691,-87.8494186401367,5.51686239242553,40.8973541259765,1689986516
iw,-50.1220893859863,-87.9203872680664,36.831745147705,40.5270729064941,1690003183
iw,-51.7711486816406,-87.7599945068359,94.7097091674804,42.9527015686035,1690019850
iw,-53.3241233825683,-87.3978195190429,86.7308807373046,42.3043670654296,1690036517
iw,-54.5775527954101,-86.9109191894531,65.1247482299804,40.272361755371,1690053184
iw,-55.8530311584472,-86.3376693725586,62.4298133850097,38.6549491882324,1690069851
iw,-56.8532333374023,-85.7268981933593,43.559097290039,38.6755027770996,1690086518
iw,-57.6346549987793,-85.1601333618164,26.5700378417968,35.8243751525878,1690103185
iw,-58.0682830810546,-84.5734634399414,6.46898651123046,38.0064964294433,1690119852
iw,-58.3970947265625,-84.0123443603515,0.210980281233787,35.7809562683105,1690136519
iw,-59.3170928955078,-83.521987915039,30.8208541870117,30.7695751190185,1690153186
iw,-60.8360977172851,-83.2569198608398,62.1188583374023,16.4282093048095,1690169853
iw,-62.0194702148437,-83.3283538818359,53.4506683349609,-4.12105083465576,1690186520
iw,-62.8385009765625,-83.7812957763671,36.1932182312011,-27.6278381347656,1690203187
iw,-63.4236412048339,-84.5311279296875,24.4362049102783,-46.6209983825683,1690219854
iw,-64.290412902832,-85.753059387207,33.0239830017089,-77.8171997070312,1690236521
iw,-65.4835052490234,-87.3549270629882,47.4585723876953,-107.931739807128,1690253188
iw,-66.8297729492187,-88.6560821533203,58.019718170166,-123.027893066406,1690269855
iw,-68.1444320678711,-87.8915100097656,55.4972496032714,-122.010704040527,1690286522
iw,-69.5106887817382,-85.934326171875,60.1699638366699,-133.751861572265,1690303189
iw,-70.9234924316406,-83.1759414672851,67.490852355957,-171.697113037109,1690319856
iw,-72.2486801147461,-80.2010421752929,65.0078506469726,-181.394714355468,1690336523
iw,-73.5404663085937,-77.6343078613281,65.1316146850586,-155.549606323242,1690353190
iw,-74.7856140136718,-75.5063247680664,63.7666320800781,-128.785369873046,1690369857
iw,-75.8982925415039,-73.5905380249023,56.1661186218261,-116.118705749511,1690386524
iw,-76.8325424194336,-71.6266174316406,47.2947731018066,-119.298164367675,1690403191
iw,-77.6519927978515,-69.6783981323242,42.2828559875488,-118.402420043945,1690419858
iw,-78.4150009155273,-67.8339309692382,39.9207801818847,-112.107551574707,1690436525
iw,-79.1246948242187,-66.1756515502929,37.4596214294433,-100.917518615722,1690453192
iw,-79.7923583984375,-64.6749877929687,35.8924140930175,-91.5962905883789,1690469859
iw,-80.425048828125,-63.0807456970214,35.1207733154296,-97.5545654296875,1690486526
iw,-81.0143814086914,-61.3410568237304,34.1113052368164,-106.654510498046,1690503193
iw,-81.5707473754882,-59.4856758117675,33.9522018432617,-113.917655944824,1690519860
iw,-82.1012649536132,-57.7113990783691,34.7386665344238,-108.770523071289,1690536527
iw,-82.5747680664062,-56.157543182373,34.4669914245605,-94.6734466552734,1690553194
iw,-82.9364776611328,-54.9600448608398,31.8939609527587,-73.3028793334961,1690569861
iw,-83.2212371826171,-53.76220703125,32.6778106689453,-73.3219146728515,1690586528
iw,-83.457046508789,-52.6886749267578,35.5126457214355,-65.0225448608398,1690603195
iw,-83.6017761230468,-51.8911056518554,35.7943153381347,-45.8297271728515,1690619862
iw,-83.6501693725586,-51.0629196166992,36.1205291748046,-46.8740653991699,1690636529
iw,-83.6082763671875,-50.4447555541992,37.8491439819335,-34.8153228759765,1690653196
iw,-83.4993820190429,-50.24507522583,38.3405570983886,-9.63872337341308,1690669863
iw,-83.3035888671875,-50.2862968444824,35.7815246582031,5.32375192642211,1690686530
iw,-83.0542907714843,-50.6323699951171,35.8345756530761,24.3489933013916,1690703197
iw,-82.7369079589843,-51.4817771911621,33.5540924072265,53.2995910644531,1690719864
iw,-82.4097900390625,-52.8754539489746,33.7805442810058,84.849609375,1690736531
iw,-82.0980377197265,-54.4678649902343,33.4314308166503,93.1301574707031,1690753198
iw,-81.7891235351562,-56.3620414733886,29.7270164489746,109.506195068359,1690769865
iw,-81.5005874633789,-57.5319480895996,25.9106769561767,66.6308822631836,1690786532
iw,-81.2259140014648,-58.403465270996,24.7283020019531,48.0812492370605,1690803199
iw,-80.9881439208984,-58.9997673034668,25.4316654205322,30.5346412658691,1690819866
iw,-80.8286666870117,-59.292682647705,24.753734588623,12.4000234603881,1690836533
iw,-80.7759094238281,-59.6691551208496,18.2052726745605,16.999319076538,1690853200
iw,-80.8799285888671,-60.523639678955,5.43590354919433,45.1682662963867,1690869867
iw,-81.2144317626953,-62.1498298645019,-9.68323421478271,93.141731262207,1690886534
iw,-81.7857055664062,-63.6890563964843,-28.7147159576416,89.6650009155273,1690903201
iw,-82.6236343383789,-64.2066802978515,-51.2864151000976,27.2417411804199,1690919868
iw,-83.6641387939453,-64.4621887207031,-72.0308227539062,9.48397731781005,1690936535
iw,-84.7802352905273,-65.2865676879882,-91.5139007568359,39.8471221923828,1690953202
iw,-85.6364135742187,-66.6106567382812,-110.841667175292,68.4721603393554,1690969869
iw,-85.596694946289,-68.0728759765625,-119.234336853027,76.8470687866211,1690986536
iw,-84.3758010864257,-69.276138305664,-127.337989807128,63.8772430419921,1691003203
iw,-82.4047546386718,-70.3200378417968,-134.46060180664,56.9399871826171,1691019870
iw,-79.8201522827148,-71.3547439575195,-154.997940063476,58.298542022705,1691036537
iw,-76.8452072143554,-72.4533462524414,-174.400924682617,63.0734519958496,1691053204
iw,-74.1315994262695,-73.6075439453125,-158.43814086914,66.8512268066406,1691069871
iw,-71.7117156982421,-74.7233505249023,-139.504409790039,63.7664947509765,1691086538
iw,-69.2900772094726,-75.8234939575195,-138.83560180664,61.5192909240722,1691103205
iw,-66.9173965454101,-76.9839782714843,-135.207855224609,64.2073745727539,1691119872
iw,-64.8094100952148,-78.1464233398437,-119.287590026855,65.0490646362304,1691136539
iw,-62.7763519287109,-79.2575225830078,-114.331756591796,63.0151634216308,1691153206
iw,-60.6502418518066,-80.2063674926757,-118.707855224609,53.9826164245605,1691169873
iw,-58.7023010253906,-81.0780029296875,-107.470039367675,49.5499954223632,1691186540
iw,-56.9044456481933,-81.9906311035156,-102.222114562988,52.1040344238281,1691203207
iw,-55.1638412475585,-82.8392181396484,-100.812812805175,48.5550956726074,1691219874
iw,-53.7282218933105,-83.6481323242187,-82.217903137207,46.7614707946777,1691236541
iw,-52.347427368164,-84.4854125976562,-80.1217498779296,49.0438995361328,1691253208
iw,-51.2090110778808,-85.3385543823242,-64.9552154541015,50.6266021728515,1691269875
iw,-50.3570365905761,-86.1349258422851,-44.4705734252929,48.0643615722656,1691286542
iw,-49.7733078002929,-86.8480606079101,-28.3767280578613,44.0206756591796,1691303209
iw,-49.5374107360839,-87.5494384765625,-7.1149001121521,44.8669548034668,1691319876
iw,-49.5410041809082,-88.180061340332,7.72924518585205,44.4925460815429,1691336543
iw,-49.587345123291,-88.6214370727539,5.37168407440185,43.1950454711914,1691353210
iw,-49.7941055297851,-88.7065353393554,9.02776908874511,43.8321075439453,1691369877
iw,-50.0613021850585,-88.3930740356445,6.69025087356567,41.2868576049804,1691386544
iw,-51.29541015625,-87.8969955444336,63.9962921142578,39.5514984130859,1691403211
iw,-53.1561584472656,-87.309944152832,109.794448852539,38.8196449279785,1691419878
iw,-54.2709732055664,-86.6859512329101,57.5558586120605,39.242015838623,1691436545
iw,-55.5715560913085,-86.0776901245117,65.7811431884765,37.3178787231445,1691453212
iw,-56.5763854980468,-85.5016784667968,46.2146339416503,33.8334045410156,1691469879
iw,-57.4033813476562,-84.9333724975586,33.0183067321777,33.2671966552734,1691486546
iw,-57.7772483825683,-84.4287338256836,5.91320323944091,29.8886928558349,1691503213
iw,-58.1319046020507,-84.0182037353515,4.52412843704223,24.3579998016357,1691519880
iw,-58.8766326904296,-83.6814651489257,22.7278461456298,20.4394378662109,1691536547
iw,-60.459545135498,-83.4340057373046,62.7814483642578,15.8296756744384,1691553214
iw,-61.7822914123535,-83.4872970581054,57.7266006469726,-2.66290998458862,1691569881
iw,-62.8665046691894,-84.0892486572265,46.8046226501464,-36.7495956420898,1691586548
iw,-63.3870811462402,-85.0452041625976,19.5426292419433,-58.8182754516601,1691603215
iw,-63.9622650146484,-86.3730163574218,20.9582080841064,-82.0081481933593,1691619882
iw,-64.8421554565429,-88.0859298706054,35.2448539733886,-106.749687194824,1691636549
iw,-65.9428405761718,-89.560317993164,47.761848449707,-120.91983795166,1691653216
iw,-67.0262451171875,-87.7434616088867,44.7350120544433,-127.272598266601,1691669883
iw,-68.1780014038086,-85.2550506591796,47.7080993652343,-151.370880126953,1691686550
iw,-69.4147415161132,-82.1126556396484,56.6524124145507,-189.704071044921,1691703217
iw,-70.6412353515625,-78.9094619750976,59.5282745361328,-193.142303466796,1691719884
iw,-71.8450088500976,-76.1926498413086,59.197654724121,-163.901916503906,1691736551
iw,-73.1004638671875,-74.0203475952148,63.8015975952148,-131.41941833496,1691753218
iw,-74.4792861938476,-72.1292648315429,70.7287673950195,-115.061042785644,1691769885
iw,-75.9017333984375,-70.1239776611328,72.0733108520507,-122.108924865722,1691786552
iw,-77.2302474975586,-68.0198135375976,67.1812896728515,-128.02571105957,1691803219
iw,-78.3201904296875,-65.886962890625,54.6321372985839,-129.694183349609,1691819886
iw,-79.2281494140625,-63.7504386901855,46.0429992675781,-129.58203125,1691836553
iw,-79.9773864746093,-61.6944885253906,38.3217468261718,-124.353935241699,1691853220
iw,-80.57861328125,-59.8027000427246,30.5235137939453,-114.501220703125,1691869887
iw,-81.1077117919921,-57.9286842346191,27.0666675567626,-113.941337585449,1691886554
iw,-81.6283721923828,-55.7959518432617,27.7474269866943,-129.958618164062,1691903221
iw,-82.1538696289062,-53.9232940673828,29.811050415039,-114.947006225585,1691919888
iw,-82.6322860717773,-52.5748710632324,29.3283824920654,-84.1826629638671,1691936555
iw,-83.0792770385742,-51.4006843566894,30.6214637756347,-73.6848373413086,1691953222
iw,-83.5095291137695,-50.406681060791,34.1390876770019,-62.2891807556152,1691969889
iw,-83.7976150512695,-49.7150421142578,31.1058845520019,-43.0589866638183,1691986556
iw,-83.9119186401367,-49.2559928894043,27.1120624542236,-27.8462524414062,1692003223
iw,-83.9925994873046,-48.8662376403808,32.1096954345703,-24.3313846588134,1692019890
iw,-83.9943923950195,-48.9914093017578,33.1599693298339,6.08036231994628,1692036557
iw,-83.8643188476562,-49.8682136535644,30.8355083465576,51.5504722595214,1692053224
iw,-83.6351776123046,-51.5629081726074,29.7031230926513,101.270385742187,1692069891
iw,-83.3336486816406,-53.10791015625,24.541540145874,91.2355270385742,1692086558
iw,-83.0509643554687,-55.1962661743164,25.2656536102294,122.574508666992,1692103225
iw,-82.8039093017578,-56.8040390014648,28.5298156738281,93.4020080566406,1692119892
iw,-82.573127746582,-57.6887397766113,35.6995162963867,50.6882553100585,1692136559
iw,-82.3237075805664,-58.5683250427246,32.5759925842285,49.0144424438476,1692153226
iw,-82.0686340332031,-59.1529083251953,21.1466197967529,30.5611667633056,1692169893
iw,-81.876968383789,-59.5141716003418,10.8887319564819,17.8379211425781,1692186560
iw,-81.8583297729492,-60.0129318237304,-1.4992823600769,26.041296005249,1692203227
iw,-82.0709533691406,-60.8636932373046,-20.500539779663,46.8738441467285,1692219894
iw,-82.5021057128906,-62.5078926086425,-45.9394721984863,95.3436279296875,1692236561
iw,-83.0020751953125,-64.1546554565429,-67.6707000732421,96.8627624511718,1692253228
iw,-83.3543624877929,-64.7818756103515,-76.0592803955078,35.8094863891601,1692269895
iw,-83.4682693481445,-65.0638732910156,-86.4005584716796,12.8898315429687,1692286562
iw,-83.2030334472656,-65.970718383789,-99.9863586425781,47.4881324768066,1692303229
iw,-82.4495315551757,-67.2138137817382,-109.281753540039,68.8121948242187,1692319896
iw,-81.0017852783203,-68.6396331787109,-123.993408203125,81.2929992675781,1692336563
iw,-78.9853134155273,-70.085823059082,-135.924606323242,83.4208068847656,1692353230
iw,-76.3899917602539,-71.4437942504882,-156.88117980957,78.7932891845703,1692369897
iw,-73.5426177978515,-72.6774139404296,-167.388061523437,72.1294250488281,1692386564
iw,-71.174934387207,-73.9091491699218,-137.737060546875,72.5555191040039,1692403231
iw,-69.0928726196289,-75.0934143066406,-119.739265441894,69.9435043334961,1692419898
iw,-67.0033416748046,-76.2445907592773,-118.992767333984,67.4747848510742,1692436565
iw,-65.0412979125976,-77.4042282104492,-111.148483276367,67.4719848632812,1692453232
iw,-63.3660202026367,-78.6079330444336,-93.8614883422851,70.0317611694336,1692469899
iw,-61.8280410766601,-79.7338333129882,-85.3738784790039,65.723030090332,1692486566
iw,-60.2889328002929,-80.6944198608398,-85.3448104858398,56.0120964050293,1692503233
iw,-58.7790908813476,-81.5212631225586,-85.6353378295898,48.0890808105468,1692519900
iw,-57.2938117980957,-82.2309799194336,-87.2064056396484,40.9938583374023,1692536567
iw,-55.5135231018066,-82.8199844360351,-111.016227722167,33.6433181762695,1692553234
iw,-53.9053993225097,-83.339973449707,-104.834350585937,29.4869480133056,1692569901
iw,-52.6487693786621,-83.8554153442382,-83.5964889526367,29.2072048187255,1692586568
iw,-51.5178833007812,-84.4204406738281,-73.6980667114257,32.1878051757812,1692603235
iw,-50.7511672973632,-84.9810485839843,-47.51997756958,31.9413738250732,1692619902
iw,-50.095603942871,-85.5166854858398,-40.0493545532226,30.4769706726074,1692636569
iw,-49.6674842834472,-86.0662689208984,-25.8363246917724,31.3945617675781,1692653236
iw,-49.4938468933105,-86.6573104858398,-8.38130187988281,33.876163482666,1692669903
iw,-49.3751068115234,-87.3331756591796,-4.63109159469604,38.9314613342285,1692686570
iw,-49.4225730895996,-88.0684204101562,3.16195511817932,42.247703552246,1692703237
iw,-49.5887832641601,-88.9060363769531,6.13088130950927,48.3008689880371,1692719904
iw,-50.5268516540527,-89.8041687011718,54.1833953857421,51.5334243774414,1692736571
iw,-51.880069732666,-89.38134765625,80.7111206054687,47.5757331848144,1692753238
iw,-53.3361206054687,-88.7342224121093,83.3678817749023,36.6586990356445,1692769905
iw,-54.7840003967285,-88.0715713500976,82.3731231689453,37.5759048461914,1692786572
iw,-55.9022216796875,-87.4036178588867,55.6159553527832,38.1266136169433,1692803239
iw,-57.1124420166015,-86.7742691040039,53.1069908142089,35.681297302246,1692819906
iw,-58.2796058654785,-86.1952819824218,49.1377716064453,32.2793006896972,1692836573
iw,-59.1194610595703,-85.6201095581054,31.989990234375,32.3128929138183,1692853240
iw,-59.8080863952636,-85.1112823486328,23.2665405273437,29.1614971160888,1692869907
iw,-60.9744300842285,-84.770034790039,48.3690032958984,19.5545787811279,1692886574
iw,-62.6035804748535,-84.6763839721679,74.6050491333007,4.3619794845581,1692903241
iw,-63.8962974548339,-84.9211730957031,61.4117050170898,-16.9755210876464,1692919908
iw,-64.6573867797851,-85.6459808349609,31.9738807678222,-47.4966697692871,1692936575
iw,-65.2504501342773,-86.7643280029296,21.4525680541992,-72.6779022216796,1692953242
iw,-66.0987167358398,-88.2036590576171,33.7405624389648,-95.8100814819336,1692969909
iw,-67.2476119995117,-88.9779891967773,51.7156066894531,-117.833824157714,1692986576
iw,-68.4446716308593,-87.2514877319336,55.5353965759277,-130.861022949218,1693003243
iw,-69.5843505859375,-85.0423583984375,51.4885520935058,-137.25259399414,1693019910
iw,-70.8261337280273,-82.1762924194336,59.0598487854003,-175.017944335937,1693036577
iw,-72.1151428222656,-78.7606430053711,66.5734558105468,-207.661407470703,1693053244
iw,-73.3114395141601,-75.4208297729492,63.7588958740234,-202.47476196289,1693069911
iw,-74.4077606201171,-72.7368011474609,59.4480209350585,-162.677627563476,1693086578
iw,-75.4573516845703,-70.6460800170898,57.1688613891601,-127.333740234375,1693103245
iw,-76.4229049682617,-68.7431716918945,52.5341720581054,-116.819938659667,1693119912
iw,-77.2901611328125,-66.8221435546875,47.6752090454101,-117.692207336425,1693136579
iw,-78.0871124267578,-64.9652862548828,44.3437690734863,-113.730995178222,1693153246
iw,-78.8228759765625,-63.1623878479003,41.3616371154785,-110.540588378906,1693169913
iw,-79.5326995849609,-61.3157081604003,40.1904182434082,-113.122322082519,1693186580
iw,-80.2419204711914,-59.4196395874023,40.7179298400878,-116.501419067382,1693203247
iw,-80.8829879760742,-57.563190460205,37.2629814147949,-114.974472045898,1693219914
iw,-81.4591369628906,-55.74361038208,34.1486892700195,-113.390014648437,1693236581
iw,-82.0234451293945,-53.9886398315429,34.5403060913085,-109.52123260498,1693253248
iw,-82.5901336669921,-52.8961563110351,36.3130531311035,-69.3298263549804,1693269915
iw,-83.0859375,-52.0693550109863,34.382453918457,-53.8181762695312,1693286582
iw,-83.5514068603515,-51.0837478637695,35.8839721679687,-63.105182647705,1693303249
iw,-83.9713973999023,-50.0763130187988,37.2845153808593,-63.6757087707519,1693319916
iw,-84.2635955810546,-49.4612808227539,34.4139442443847,-38.2582893371582,1693336583
iw,-84.4040603637695,-48.9807701110839,31.3898773193359,-28.3303718566894,1693353250
iw,-84.4158020019531,-48.6716918945312,30.1272792816162,-18.1802673339843,1693369917
iw,-84.3182525634765,-48.9649429321289,28.9756031036376,18.4831943511962,1693386584
iw,-84.1406784057617,-49.5253677368164,28.3555393218994,35.5397605895996,1693403251
iw,-83.9363479614257,-50.130802154541,32.3004760742187,38.4360466003418,1693419918
iw,-83.7469635009765,-51.4744644165039,38.4659194946289,82.9087524414062,1693436585
iw,-83.5642547607421,-53.0777397155761,40.6593360900878,96.5886688232421,1693453252
iw,-83.3500518798828,-55.1864547729492,35.3585662841796,123.534767150878,1693469919
iw,-83.1035232543945,-56.8581275939941,23.9860343933105,96.6217727661132,1693486586
iw,-82.8687057495117,-57.7743225097656,23.1780014038085,51.047004699707,1693503253
iw,-82.6719360351562,-58.2905006408691,23.879243850708,26.0071716308593,1693519920
iw,-82.5379180908203,-58.6191444396972,20.9030990600585,14.3988103866577,1693536587
iw,-82.5332870483398,-58.9019546508789,12.488392829895,12.1716594696044,1693553254
iw,-82.690803527832,-59.2775650024414,4.55632066726684,17.3988914489746,1693569921
iw,-83.0853118896484,-60.4945335388183,-12.3356466293334,68.2297744750976,1693586588
iw,-83.7751541137695,-62.3206405639648,-36.3077392578125,106.584930419921,1693603255
iw,-84.6323928833007,-63.5972785949707,-53.9642028808593,75.2322311401367,1693619922
iw,-85.4925003051757,-64.059814453125,-64.6760559082031,26.1374340057373,1693636589
iw,-86.1545333862304,-64.513671875,-84.1157836914062,22.6023426055908,1693653256
iw,-86.1295547485351,-65.537239074707,-104.208206176757,54.5832977294921,1693669923
iw,-85.0337142944336,-66.9873962402343,-116.149581909179,80.3064727783203,1693686590
iw,-82.9998550415039,-68.6005096435546,-131.43196105957,91.3269119262695,1693703257
iw,-80.4790725708007,-70.0103454589843,-144.722732543945,79.6949844360351,1693719924
iw,-77.3946456909179,-71.3070755004882,-176.344100952148,74.1795196533203,1693736591
iw,-74.5096054077148,-72.5254745483398,-167.288803100585,70.8451995849609,1693753258
iw,-72.1224594116211,-73.6757507324218,-138.625366210937,66.8175506591796,1693769925
iw,-69.9492797851562,-74.818244934082,-126.1279296875,66.5455703735351,1693786592
iw,-67.6796722412109,-75.9567565917968,-131.749435424804,66.3845825195312,1693803259
iw,-65.5001449584961,-77.0433731079101,-126.581573486328,63.4007453918457,1693819926
iw,-63.6588859558105,-78.1322479248046,-107.663307189941,64.0584945678711,1693836593
iw,-61.963092803955,-79.2692031860351,-101.55638885498,67.5718231201171,1693853260
iw,-60.2515106201171,-80.3548812866211,-103.123870849609,64.8367767333984,1693869927
iw,-58.7002372741699,-81.2683715820312,-95.9836883544921,54.83687210083,1693886594
iw,-57.1339378356933,-82.0252609252929,-100.717597961425,45.8007736206054,1693903261
iw,-55.3315544128418,-82.7215042114257,-119.503234863281,42.9428901672363,1693919928
iw,-53.8748931884765,-83.3389129638671,-99.8526229858398,38.1412277221679,1693936595
iw,-52.57027053833,-83.954833984375,-89.578369140625,37.774974822998,1693953262
iw,-51.4642143249511,-84.5555877685546,-76.0646057128906,37.4992599487304,1693969929
iw,-50.643497467041,-85.1419906616211,-54.4381599426269,37.7571563720703,1693986596
iw,-50.0966835021972,-85.6908874511718,-34.7209892272949,36.7881965637207,1694003263
iw,-49.7830619812011,-86.195327758789,-21.0322151184082,35.1645011901855,1694019930
iw,-49.6024742126464,-86.5811004638671,-13.3667593002319,29.6597957611084,1694036597
iw,-49.4335708618164,-86.8351058959961,-14.4024429321289,25.5678195953369,1694053264
iw,-49.3232345581054,-86.9866256713867,-14.3032369613647,26.6487960815429,1694069931
iw,-49.747802734375,-87.0609512329101,20.0882720947265,34.370807647705,1694086598
iw,-50.5207405090332,-86.99365234375,41.1005935668945,38.04341506958,1694103265
iw,-51.875129699707,-86.8210983276367,75.7159118652343,40.6827125549316,1694119932
iw,-53.3624649047851,-86.5228424072265,80.8334045410156,41.6082611083984,1694136599
iw,-54.6132507324218,-86.1067581176757,63.2517662048339,38.8285408020019,1694153266
iw,-55.9503288269043,-85.6654663085937,60.7857208251953,37.4107818603515,1694169933
iw,-57.0982284545898,-85.2746200561523,48.284927368164,32.9580650329589,1694186600
iw,-57.8281059265136,-84.9402999877929,24.3461151123046,25.9549446105957,1694203267
iw,-58.1096305847168,-84.5737533569336,-0.460572093725204,25.3361358642578,1694219934
iw,-58.41695022583,-84.0995407104492,3.69426107406616,30.8443279266357,1694236601
iw,-59.4383087158203,-83.709358215332,40.3255882263183,27.4433631896972,1694253268
iw,-61.0717811584472,-83.4995880126953,74.9278411865234,17.0445804595947,1694269935
iw,-62.3390960693359,-83.6424865722656,59.3564414978027,-7.07237291336059,1694286602
iw,-63.3514518737793,-84.2370071411132,44.8272552490234,-38.7366752624511,1694303269
iw,-64.0912475585937,-85.0715713500976,34.8314399719238,-58.0213432312011,1694319936
iw,-64.9555892944336,-86.0128707885742,37.5248107910156,-73.9173736572265,1694336603
iw,-66.0765838623046,-87.0055236816406,51.0456619262695,-97.4044952392578,1694353270
iw,-67.2975006103515,-87.3582534790039,55.253490447998,-118.272468566894,1694369937
iw,-68.4988403320312,-86.1935806274414,53.84370803833,-137.772552490234,1694386604
iw,-69.7437515258789,-83.9292678833007,57.7571105957031,-162.01138305664,1694403271
iw,-70.9841918945312,-81.0210189819336,60.1672668457031,-186.980850219726,1694419938
iw,-72.1074142456054,-77.8273162841796,55.4349670410156,-198.221054077148,1694436605
iw,-73.1720809936523,-74.8843231201171,53.6712379455566,-179.887481689453,1694453272
iw,-74.2591171264648,-72.2519607543945,55.959415435791,-159.667434692382,1694469939
iw,-75.2787551879882,-69.8618621826171,52.0222778320312,-144.956741333007,1694486606
iw,-76.1707763671875,-67.5742111206054,45.6476020812988,-138.8017578125,1694503273
iw,-76.9589385986328,-65.484634399414,41.123779296875,-126.96484375,1694519940
iw,-77.6903457641601,-63.5274467468261,38.9430274963378,-118.996292114257,1694536607
iw,-78.3744430541992,-61.5855064392089,37.2382888793945,-117.959266662597,1694553274
iw,-78.9513320922851,-59.5235404968261,31.8628940582275,-125.022132873535,1694569941
iw,-79.453857421875,-57.3606452941894,28.6671752929687,-131.301879882812,1694586608
iw,-79.9691085815429,-55.0914001464843,30.9332313537597,-137.965454101562,1694603275
iw,-80.5300827026367,-53.0159530639648,35.2504196166992,-126.539749145507,1694619942
iw,-81.0438690185546,-51.5644187927246,34.3892669677734,-88.4736328125,1694636609
iw,-81.4679946899414,-50.6222076416015,31.919448852539,-58.0680236816406,1694653276
iw,-81.8688507080078,-49.7802391052246,33.8699111938476,-51.7857818603515,1694669943
iw,-82.2458953857421,-48.7914505004882,36.241641998291,-60.0141677856445,1694686610
iw,-82.4859008789062,-47.980972290039,31.4050598144531,-48.6073913574218,1694703277
iw,-82.6273803710937,-47.6439247131347,29.2311363220214,-17.6114044189453,1694719944
iw,-82.734992980957,-47.3074836730957,31.7616806030273,-17.4259147644042,1694736611
iw,-82.8110046386718,-47.3938179016113,34.8606948852539,7.2340874671936,1694753278
iw,-82.825569152832,-48.3562850952148,35.9949417114257,60.3895149230957,1694769945
iw,-82.8073959350586,-49.8830947875976,38.5767517089843,94.7793426513671,1694786612
iw,-82.729133605957,-51.3016090393066,37.0671730041503,84.9281387329101,1694803279
iw,-82.6003646850586,-53.2862091064453,33.7396697998046,117.116432189941,1694819946
iw,-82.4308166503906,-55.5068244934082,28.8995170593261,129.748489379882,1694836613
iw,-82.26123046875,-56.9067993164062,28.2468700408935,81.8199615478515,1694853280
iw,-82.1051177978515,-57.8430290222168,29.4237689971923,51.7593879699707,1694869947
iw,-81.9697494506836,-58.560260772705,30.914207458496,36.7712135314941,1694886614
iw,-81.8735809326171,-58.9278144836425,27.6035823822021,15.9415435791015,1694903281
iw,-81.8644866943359,-59.1180763244628,20.5921916961669,6.15745878219604,1694919948
iw,-81.962173461914,-59.4099082946777,11.7256031036376,11.5760288238525,1694936615
iw,-82.2070388793945,-60.6234283447265,-1.24824726581573,67.3505249023437,1694953282
iw,-82.5472869873046,-62.2404670715332,-10.6768159866333,93.531623840332,1694969949
iw,-83.0654525756836,-63.0448608398437,-30.8124313354492,45.899429321289,1694986616
iw,-83.7297134399414,-63.2540130615234,-49.9906044006347,7.98259258270263,1695003283
iw,-84.5094223022461,-63.6980781555175,-62.6847038269043,18.9527473449707,1695019950
iw,-85.2822570800781,-64.6859664916992,-79.0466995239257,50.5653610229492,1695036617
iw,-85.6183242797851,-66.0780639648437,-93.1211166381836,75.5692367553711,1695053284
iw,-85.0981521606445,-67.5562057495117,-105.285972595214,79.011116027832,1695069951
iw,-83.6584167480468,-68.8944549560546,-116.504325866699,70.1070175170898,1695086618
iw,-81.6566314697265,-70.1224822998046,-124.043350219726,66.915786743164,1695103285
iw,-79.0474777221679,-71.117805480957,-149.276947021484,55.740062713623,1695119952
iw,-76.1896591186523,-72.1714782714843,-163.823684692382,60.4186058044433,1695136619
iw,-73.5693206787109,-73.2903671264648,-150.881469726562,64.2606124877929,1695153286
iw,-71.2829818725586,-74.4170532226562,-131.091064453125,63.5761032104492,1695169953
iw,-68.9851150512695,-75.5523376464843,-132.440963745117,62.8650131225585,1695186620
iw,-66.7314300537109,-76.7716674804687,-129.635223388671,67.7456741333007,1695203287
iw,-64.5880279541015,-77.9552688598632,-122.167411804199,66.4964447021484,1695219954
iw,-62.579288482666,-79.0050277709961,-113.654235839843,59.6550102233886,1695236621
iw,-60.6433372497558,-79.8758773803711,-109.90574645996,49.6131858825683,1695253288
iw,-58.8285980224609,-80.6978988647461,-105.139244079589,47.0591621398925,1695269955
iw,-56.9772872924804,-81.5060653686523,-111.73477935791,46.5042724609375,1695286622
iw,-55.3797416687011,-82.2816162109375,-98.1647262573242,44.9067726135253,1695303289
iw,-53.8179893493652,-83.038101196289,-94.7545623779296,44.2794876098632,1695319956
iw,-52.6855506896972,-83.8053970336914,-67.5338058471679,45.5092048645019,1695336623
iw,-51.3674430847168,-84.5458374023437,-83.574836730957,44.2638397216796,1695353290
iw,-50.2241897583007,-85.2472534179687,-71.1273651123046,42.3966522216796,1695369957
iw,-49.4709587097168,-85.943000793457,-43.5318717956543,42.8760223388671,1695386624
iw,-48.911277770996,-86.6411819458007,-33.595100402832,45.5841445922851,1695403291
iw,-48.8322868347168,-87.3077545166015,-3.4918668270111,48.9761581420898,1695419958
iw,-48.779426574707,-87.7857437133789,-4.40820169448852,44.9637145996093,1695436625
iw,-48.7884902954101,-88.0249404907226,-6.8713674545288,45.891502380371,1695453292
iw,-48.9102897644043,-87.9771575927734,-2.52618813514709,44.2183952331543,1695469959
iw,-50.0526733398437,-87.6942062377929,62.7701377868652,41.6898956298828,1695486626
iw,-51.4785575866699,-87.2784729003906,78.2266464233398,41.6299095153808,1695503293
iw,-52.6393241882324,-86.7622756958007,57.1192588806152,42.1109352111816,1695519960
iw,-53.9843482971191,-86.1955871582031,68.1030044555664,40.5052986145019,1695536627
iw,-55.1180534362793,-85.5699081420898,50.6404418945312,40.8519134521484,1695553294
iw,-56.1458358764648,-84.9468917846679,41.962100982666,38.5187721252441,1695569961
iw,-56.8468360900878,-84.4599914550781,23.4674987792968,28.9264221191406,1695586628
iw,-57.2342948913574,-84.0817260742187,5.52704286575317,21.3503894805908,1695603295
iw,-57.5786666870117,-83.7779846191406,2.6406967639923,16.1067714691162,1695619962
iw,-58.48779296875,-83.5280990600586,30.856647491455,14.0771150588989,1695636629
iw,-60.0863571166992,-83.3517608642578,67.9208450317382,12.1260623931884,1695653296
iw,-61.3849334716796,-83.473159790039,59.6713066101074,-6.20131301879882,1695669963
iw,-62.327335357666,-84.0156478881836,41.3166618347168,-33.3573150634765,1695686630
iw,-62.9314842224121,-84.9261474609375,26.9256534576416,-56.8920288085937,1695703297
iw,-63.6998672485351,-86.2447509765625,31.6764812469482,-84.4158477783203,1695719964
iw,-64.7612533569336,-87.8519668579101,45.5983848571777,-109.064247131347,1695736631
iw,-65.9772338867187,-88.8038482666015,53.7418899536132,-126.374526977539,1695753298
iw,-67.2108459472656,-87.2445220947265,53.6932106018066,-135.171432495117,1695769965
iw,-68.5065231323242,-84.788948059082,58.7862167358398,-155.940765380859,1695786632
iw,-69.8715744018554,-81.748550415039,66.3938751220703,-186.096481323242,1695803299
iw,-71.2324676513671,-78.565689086914,68.6472396850586,-192.586273193359,1695819966
iw,-72.4684219360351,-75.8002777099609,63.8242378234863,-166.287567138671,1695836633
iw,-73.5906753540039,-73.4709548950195,58.5486831665039,-139.982604980468,1695853300
iw,-74.5820159912109,-71.4212875366211,50.8601760864257,-123.976913452148,1695869967
iw,-75.4284286499023,-69.4000778198242,43.3861236572265,-122.791381835937,1695886634
iw,-76.1728820800781,-67.5899581909179,38.0139427185058,-110.164405822753,1695903301
iw,-76.8783950805664,-65.90771484375,36.0528221130371,-102.235916137695,1695919968
iw,-77.5739212036132,-64.2436370849609,35.7573089599609,-100.720100402832,1695936635
iw,-78.275634765625,-62.5652656555175,36.7069931030273,-101.39183807373,1695953302
iw,-78.9458999633789,-60.8530502319335,35.6105003356933,-104.173042297363,1695969969
iw,-79.6037673950195,-59.1007003784179,35.8868446350097,-107.632949829101,1695986636
iw,-80.2311248779296,-57.2156028747558,34.9982948303222,-115.96533203125,1696003303
iw,-80.8396377563476,-55.6627349853515,34.8536491394043,-95.4335021972656,1696019970
iw,-81.4659729003906,-54.7055854797363,37.2594909667968,-60.4759292602539,1696036637
iw,-82.0498123168945,-53.6188621520996,36.6464576721191,-68.4580917358398,1696053304
iw,-82.5686111450195,-52.5784873962402,35.538833618164,-64.795051574707,1696069971
iw,-83.0377349853515,-51.8281478881835,36.6910934448242,-44.8930969238281,1696086638
iw,-83.4279174804687,-51.1873512268066,36.5125312805175,-36.0477218627929,1696103305
iw,-83.6113815307617,-50.6544609069824,29.0933303833007,-29.8999519348144,1696119972
iw,-83.6495513916015,-50.5990562438964,25.9600028991699,-1.75522828102111,1696136639
iw,-83.5788040161132,-50.7723274230957,23.6015434265136,11.9777946472167,1696153306
iw,-83.4721374511718,-50.9748306274414,26.148302078247,12.8172445297241,1696169973
iw,-83.353775024414,-51.4191246032714,30.7598228454589,26.0172691345214,1696186640
iw,-83.2164993286132,-52.6067123413085,34.335090637207,70.0748291015625,1696203307
iw,-83.0862197875976,-53.9653930664062,38.0006561279296,80.215217590332,1696219974
iw,-82.9613800048828,-55.3520927429199,38.3590011596679,79.2435836791992,1696236641
iw,-82.8390045166015,-56.71142578125,36.3345069885253,77.83984375,1696253308
iw,-82.743423461914,-57.6275482177734,34.4604339599609,50.5337028503418,1696269975
iw,-82.6530838012695,-58.2086753845214,30.7724685668945,28.767822265625,1696286642
iw,-82.5544204711914,-58.2911911010742,26.6256046295166,-0.858977675437927,1696303309
iw,-82.4973449707031,-58.2314682006835,20.1919479370117,-8.75096797943115,1696319976
iw,-82.5599594116211,-58.5933609008789,10.5781345367431,16.1548919677734,1696336643
iw,-82.8024368286132,-59.6308860778808,-3.7442398071289,56.2789726257324,1696353310
iw,-83.2685089111328,-61.4184494018554,-20.8401088714599,103.15372467041,1696369977
iw,-83.9117279052734,-62.8147773742675,-36.9470062255859,81.6525344848632,1696386644
iw,-84.7245941162109,-63.2123222351074,-53.8515014648437,21.6984329223632,1696403311
iw,-85.5632858276367,-63.4680633544921,-66.7607650756836,11.7844095230102,1696419978
iw,-86.1632461547851,-64.2724227905273,-82.699836730957,41.9709968566894,1696436645
iw,-85.990493774414,-65.6397705078125,-100.268226623535,72.9253540039062,1696453312
iw,-84.77587890625,-67.2167892456054,-114.028350830078,84.4987564086914,1696469979
iw,-82.7657852172851,-68.5803298950195,-127.503005981445,71.3618927001953,1696486646
iw,-80.2145538330078,-69.7578811645507,-146.347106933593,62.7190818786621,1696503313
iw,-77.0935363769531,-70.7892990112304,-178.637451171875,57.3147964477539,1696519980
iw,-74.1352157592773,-71.8348693847656,-169.285202026367,59.6562728881835,1696536647
iw,-71.55419921875,-72.9113693237304,-145.537292480468,62.5359687805175,1696553314
iw,-69.1451568603515,-73.9513092041015,-136.619918823242,59.6349372863769,1696569981
iw,-66.7510604858398,-75.0180969238281,-136.719757080078,59.3296661376953,1696586648
iw,-64.4869232177734,-76.0681076049804,-129.260787963867,57.4209175109863,1696603315
iw,-62.4004669189453,-77.1075744628906,-117.494277954101,57.4815406799316,1696619982
iw,-60.4485473632812,-78.1036376953125,-107.588195800781,55.6846809387207,1696636649
iw,-58.7608642578125,-78.9943313598632,-92.3514404296875,50.3379745483398,1696653316
iw,-56.9538612365722,-79.8197860717773,-100.513610839843,47.0867271423339,1696669983
iw,-55.221206665039,-80.6042251586914,-100.634437561035,44.5537452697753,1696686650
iw,-53.6871376037597,-81.3378448486328,-89.8204193115234,41.5711402893066,1696703317
iw,-52.1715202331543,-82.0630645751953,-92.1980361938476,41.571533203125,1696719984
iw,-50.9570655822753,-82.8173904418945,-74.2495346069336,43.8836021423339,1696736651
iw,-49.9564476013183,-83.5701370239257,-58.3328704833984,44.3767204284668,1696753318
iw,-49.2875862121582,-84.3276443481445,-34.8400764465332,45.6445045471191,1696769985
iw,-48.9162673950195,-85.0440216064453,-15.6804122924804,44.4319534301757,1696786652
iw,-48.713695526123,-85.7446212768554,-7.4357795715332,45.0838165283203,1696803319
iw,-48.7083091735839,-86.4053344726562,3.8449432849884,45.6312370300293,1696819986
iw,-48.6400070190429,-86.9612731933593,-6.89967918395996,43.8809700012207,1696836653
iw,-48.6001892089843,-87.4065628051757,-11.0335359573364,43.1979789733886,1696853320
iw,-49.1500205993652,-87.7345428466796,24.4199161529541,45.5894889831543,1696869987
iw,-50.2742500305175,-87.8293075561523,59.8859024047851,43.9556808471679,1696886654
iw,-51.6072807312011,-87.7052688598632,65.1940841674804,40.4677581787109,1696903321
iw,-52.6389961242675,-87.4159393310546,48.8695335388183,38.5475234985351,1696919988
iw,-53.8884696960449,-87.0306777954101,59.0429916381835,37.7139434814453,1696936655
iw,-55.0471534729003,-86.5994186401367,52.2804718017578,35.8917198181152,1696953322
iw,-56.0689125061035,-86.1095733642578,40.9148979187011,36.3598442077636,1696969989
iw,-56.8698616027832,-85.5803527832031,29.6075820922851,36.0466766357421,1696986656
iw,-57.488670349121,-85.0956726074218,16.7802238464355,31.2630462646484,1697003323
iw,-58.3272056579589,-84.7158432006836,25.7891578674316,23.5663509368896,1697019990
iw,-59.7227973937988,-84.4415512084961,55.5414695739746,17.4951744079589,1697036657
iw,-60.8878936767578,-84.3933868408203,54.1897926330566,3.86918687820434,1697053324
iw,-61.6722297668457,-84.7255249023437,36.7356567382812,-20.2014045715332,1697069991
iw,-62.3177871704101,-85.4378662109375,26.7425632476806,-45.5355377197265,1697086658
iw,-63.2180595397949,-86.5109252929687,36.1614036560058,-70.286636352539,1697103325
iw,-64.3656921386718,-87.8103713989257,46.4310111999511,-90.2893829345703,1697119992
iw,-65.7131881713867,-88.7995986938476,57.071060180664,-108.501525878906,1697136659
iw,-67.1119842529296,-87.6753540039062,58.9023361206054,-124.862167358398,1697153326
iw,-68.5189132690429,-85.468879699707,61.1487579345703,-144.230682373046,1697169993
iw,-69.9689102172851,-82.7693405151367,66.9416198730468,-166.806915283203,1697186660
iw,-71.41455078125,-79.9482879638671,70.0818405151367,-171.543182373046,1697203327
iw,-72.8443984985351,-77.4978103637695,71.302001953125,-148.058059692382,1697219994
iw,-74.2702407836914,-75.4398345947265,72.3377304077148,-123.930725097656,1697236661
iw,-75.6125869750976,-73.3831100463867,67.0772705078125,-124.073089599609,1697253328
iw,-76.7463073730468,-71.3151092529296,55.8292961120605,-125.184829711914,1697269995
iw,-77.6726379394531,-69.3256530761718,45.883487701416,-120.546775817871,1697286662
iw,-78.4703979492187,-67.5440902709961,39.5883750915527,-107.878173828125,1697303329
iw,-79.2214126586914,-65.886474609375,37.6558113098144,-100.46630859375,1697319996
iw,-79.9549407958984,-64.2262725830078,37.2034721374511,-101.288467407226,1697336663
iw,-80.6864318847656,-62.5066833496093,37.959789276123,-105.818298339843,1697353330
iw,-81.4568252563476,-60.7737731933593,41.8242149353027,-107.823036193847,1697369997
iw,-82.2320175170898,-58.8163795471191,43.883186340332,-121.413742065429,1697386664
iw,-82.9235763549804,-56.9920272827148,41.0477676391601,-111.939506530761,1697403331
iw,-83.502944946289,-55.5935363769531,37.5236854553222,-85.5033187866211,1697419998
iw,-84.0080871582031,-54.4741554260253,37.4955596923828,-68.6032638549804,1697436665
iw,-84.3413772583007,-53.5137405395507,32.8287391662597,-59.0063323974609,1697453332
iw,-84.5516586303711,-52.6853141784668,30.7817649841308,-50.1387367248535,1697469999
iw,-84.6875076293945,-51.9028625488281,33.0737495422363,-46.0193786621093,1697486666
iw,-84.7549896240234,-51.3102188110351,36.0357933044433,-34.5644645690918,1697503333
iw,-84.7655029296875,-51.0996971130371,37.5458030700683,-12.0040130615234,1697520000
iw,-84.6723709106445,-51.4393844604492,33.9013557434082,20.8723030090332,1697536667
iw,-84.5078811645507,-52.3190078735351,31.1061649322509,52.565143585205,1697553334
iw,-84.3058090209961,-53.6429634094238,29.027395248413,79.8615188598632,1697570001
iw,-84.0748443603515,-54.8869895935058,27.8414478302001,73.4725570678711,1697586668
iw,-83.8027038574218,-56.7049598693847,29.439058303833,105.694648742675,1697603335
iw,-83.5009231567382,-57.666446685791,31.0859870910644,54.9874877929687,1697620002
iw,-83.1845397949218,-58.2371025085449,31.2214641571044,30.9824695587158,1697636669
iw,-82.8895568847656,-58.8267936706543,29.0280780792236,28.8028945922851,1697653336
iw,-82.6735687255859,-59.2545471191406,24.8690166473388,19.4806022644042,1697670003
iw,-82.5575561523437,-59.6556434631347,20.2398586273193,18.2408638000488,1697686670
iw,-82.6373748779296,-60.354736328125,7.6683292388916,34.5615539550781,1697703337
iw,-82.992073059082,-61.8031501770019,-7.95846652984619,79.7856063842773,1697720004
iw,-83.7159118652343,-63.6089935302734,-29.2276668548584,104.917564392089,1697736671
iw,-84.7532806396484,-64.5978775024414,-47.5665016174316,58.2995300292968,1697753338
iw,-86.0862808227539,-64.8811798095703,-70.771125793457,12.4985208511352,1697770005
iw,-87.517463684082,-65.3269119262695,-91.9370651245117,17.6632022857666,1697786672
iw,-87.9078140258789,-66.3780975341796,-109.872039794921,50.1379051208496,1697803339
iw,-86.3037719726562,-67.736831665039,-122.897491455078,69.7211380004882,1697820006
iw,-83.9525680541992,-69.0538787841796,-132.74853515625,69.641487121582,1697836673
iw,-81.4174118041992,-70.3171081542968,-139.650512695312,69.0732955932617,1697853340
iw,-78.4808731079101,-71.5025329589843,-169.247817993164,66.5719680786132,1697870007
iw,-75.6451568603515,-72.6806259155273,-168.412216186523,67.5709075927734,1697886674
iw,-73.2949066162109,-73.8579406738281,-139.417160034179,68.630386352539,1697903341
iw,-71.1313095092773,-74.913345336914,-126.424285888671,60.9229125976562,1697920008
iw,-68.9416732788086,-75.9298324584961,-128.330780029296,57.2752952575683,1697936675
iw,-66.8311386108398,-76.9848098754882,-123.247566223144,59.1718635559082,1697953342
iw,-64.8719406127929,-78.0991058349609,-113.587677001953,63.182632446289,1697970009
iw,-63.143009185791,-79.1852264404296,-99.8548583984375,62.1566429138183,1697986676
iw,-61.5196914672851,-80.172248840332,-94.9226608276367,56.9333724975585,1698003343
iw,-60.0407028198242,-81.1070251464843,-84.7139358520507,54.111831665039,1698020010
iw,-58.6660041809082,-81.9684829711914,-80.5169067382812,50.0483169555664,1698036677
iw,-57.0622787475585,-82.6509170532226,-99.3228149414062,39.7540092468261,1698053344
iw,-55.4998321533203,-83.2482070922851,-100.389183044433,34.6934814453125,1698070011
iw,-53.9820938110351,-83.9077682495117,-98.7466583251953,38.5672645568847,1698086678
iw,-52.8618774414062,-84.6429595947265,-71.7908554077148,43.645938873291,1698103345
iw,-52.0612754821777,-85.3710784912109,-49.0161972045898,43.8797454833984,1698120012
iw,-51.4705772399902,-86.0344467163086,-36.4519729614257,40.9446792602539,1698136679
iw,-51.1502685546875,-86.6368713378906,-19.7902336120605,38.9922714233398,1698153346
iw,-50.8153457641601,-87.2263946533203,-21.3923244476318,39.3889808654785,1698170013
iw,-50.6090698242187,-87.7510986328125,-15.4637546539306,37.8927879333496,1698186680
iw,-50.5600624084472,-88.1994094848632,-8.04984188079834,39.8307571411132,1698203347
iw,-50.5358848571777,-88.4198379516601,-8.50672721862793,41.9339065551757,1698220014
iw,-50.7843017578125,-88.244758605957,7.34482860565185,44.0184097290039,1698236681
iw,-51.1477890014648,-87.8352661132812,12.9932098388671,39.7392311096191,1698253348
iw,-52.4504089355468,-87.3787841796875,77.1814651489257,37.1696891784668,1698270015
iw,-53.3361320495605,-86.8693695068359,44.6904525756835,37.4112968444824,1698286682
iw,-54.209545135498,-86.358528137207,37.5339202880859,34.6568984985351,1698303349
iw,-55.2011413574218,-85.8289031982421,43.6300773620605,33.7629356384277,1698320016
iw,-56.041690826416,-85.3186798095703,29.0675468444824,31.188232421875,1698336683
iw,-56.7311859130859,-84.8752059936523,22.1608142852783,26.79927444458,1698353350
iw,-57.1747093200683,-84.5062789916992,5.70468616485595,22.0447673797607,1698370017
iw,-57.6547889709472,-84.2266769409179,7.90680217742919,16.6084804534912,1698386684
iw,-58.5843276977539,-84.0374145507812,30.8491706848144,11.8502407073974,1698403351
iw,-60.1358680725097,-84.0181732177734,64.6600723266601,2.03745126724243,1698420018
iw,-61.4427223205566,-84.2915802001953,60.6843872070312,-16.0218486785888,1698436685
iw,-62.367748260498,-84.9309768676757,41.729507446289,-38.6977272033691,1698453352
iw,-62.9911346435546,-85.9131393432617,27.3600025177001,-59.7707061767578,1698470019
iw,-63.8141975402832,-87.1550369262695,32.4529037475585,-75.7523727416992,1698486686
iw,-64.8662796020507,-88.7503967285156,41.9429092407226,-96.8173217773437,1698503353
iw,-66.0525970458984,-89.3268203735351,49.3178634643554,-115.399024963378,1698520020
iw,-67.1847534179687,-87.1238403320312,45.1692695617675,-132.022476196289,1698536687
iw,-68.3073806762695,-84.4938430786132,46.8289260864257,-157.344543457031,1698553354
iw,-69.4693756103515,-81.3598175048828,53.3056907653808,-188.273315429687,1698570021
iw,-70.6476058959961,-78.2330322265625,57.0482635498046,-188.26528930664,1698586688
iw,-71.8908004760742,-75.5052261352539,63.3436889648437,-164.469696044921,1698603355
iw,-73.1727218627929,-73.2344741821289,65.7206649780273,-137.395767211914,1698620022
iw,-74.4351272583007,-71.2609634399414,64.1829223632812,-120.816429138183,1698636689
iw,-75.5676727294921,-69.3143234252929,58.4720611572265,-119.689720153808,1698653356
iw,-76.5067062377929,-67.4293441772461,49.6287803649902,-115.727737426757,1698670023
iw,-77.3358764648437,-65.5437774658203,45.2885208129882,-115.466041564941,1698686690
iw,-78.0622406005859,-63.674819946289,40.6605148315429,-114.573280334472,1698703357
iw,-78.6911544799804,-61.6674919128418,35.9785232543945,-123.356292724609,1698720024
iw,-79.2678451538086,-59.6155242919921,34.1249923706054,-127.085411071777,1698736691
iw,-79.7942886352539,-57.6519393920898,32.5471076965332,-122.733390808105,1698753358
iw,-80.3012619018554,-55.8364295959472,32.8837127685546,-113.72361755371,1698770025
iw,-80.7858657836914,-54.1526184082031,33.6784782409668,-104.56583404541,1698786692
iw,-81.2220611572265,-52.9823036193847,33.8320770263671,-72.9455642700195,1698803359
iw,-81.5710067749023,-51.9645118713378,32.5517425537109,-64.2200622558593,1698820026
iw,-81.8541641235351,-50.8970527648925,32.5242958068847,-67.6576385498046,1698836693
iw,-82.0687713623046,-49.8709754943847,32.2145042419433,-64.7701721191406,1698853360
iw,-82.2027816772461,-49.3943443298339,30.7035999298095,-29.1777553558349,1698870027
iw,-82.2870330810546,-49.0408210754394,31.2543926239013,-20.232759475708,1698886694
iw,-82.3389129638671,-48.8035812377929,33.8179321289062,-13.8623027801513,1698903361
iw,-82.3451461791992,-49.1160583496093,34.4664001464843,18.7397003173828,1698920028
iw,-82.3061447143554,-49.7922439575195,32.5976753234863,40.6798439025878,1698936695
iw,-82.2490921020507,-51.0393829345703,36.41353225708,74.1482849121093,1698953362
iw,-82.1643142700195,-52.3884963989257,38.7695693969726,80.0299835205078,1698970029
iw,-82.0622482299804,-53.9363594055175,41.564151763916,89.9473419189453,1698986696
iw,-81.8958206176757,-55.5140686035156,34.5204315185546,90.6330337524414,1699003363
iw,-81.6862030029296,-56.6756896972656,29.9998741149902,66.026252746582,1699020030
iw,-81.4795913696289,-57.8106536865234,27.7957553863525,61.9739341735839,1699036697
iw,-81.2883071899414,-58.5802459716796,21.6736488342285,39.0385627746582,1699053364
iw,-81.1959609985351,-59.1774139404296,18.5681056976318,30.3042240142822,1699070031
iw,-81.2451019287109,-59.7696418762207,15.3638296127319,30.38547706604,1699086698
iw,-81.5254364013671,-61.030834197998,3.08531212806701,71.724853515625,1699103365
iw,-82.0633850097656,-62.5416984558105,-18.8537063598632,88.4577331542968,1699120032
iw,-82.7762145996093,-63.3851280212402,-41.7932090759277,49.2943077087402,1699136699
