Label,Left_Hip_q,Right_Hip_q,Left_Hip_qd,Right_Hip_qd,SampleTimeFine
sw,-67.7947463989257,-68.7171096801757,26.7802467346191,5.43625879287719,2145054366
sw,-67.5098648071289,-68.7386703491211,16.39033740276462,-12.444424179283798,2145071033
sw,-67.3697128295898,-68.9756393432617,5.674711179108299,-4.665799790955866,2145087700
sw,-67.4036102294921,-69.3667907714843,-6.204669052411982,2.513399220112362,2145104367
sw,-67.6430740356445,-70.1041717529296,-20.168281622629298,8.602095414312135,2145121034
sw,-68.1299972534179,-70.8756790161132,-36.60248747517027,13.386342957073614,2145137701
sw,-68.9279479980468,-71.223518371582,-55.239607650930125,16.94595641379487,2145154368
sw,-70.1110305786132,-71.5976257324218,-75.18749111567224,19.575961604627466,2145171035
sw,-71.6869049072265,-72.2062530517578,-95.10396805232305,21.65643559023607,2145187702
sw,-73.6844329833984,-73.0620956420898,-113.47462557710456,23.532689453693852,2145204369
sw,-75.9728698730468,-74.0298233032226,-128.92232597765585,25.450471784866583,2145221036
sw,-78.3069839477539,-74.9769134521484,-140.4660550067436,27.5527680569263,2145237703
sw,-80.4653701782226,-75.8798217773437,-147.66381673185947,29.914439769529423,2145254370
sw,-82.4684982299804,-76.797866821289,-150.61646996013968,32.58283265352333,2145271037
sw,-84.3702621459961,-77.7315597534179,-149.85798629533213,35.60064617406894,2145287704
sw,-85.825942993164,-78.6799392700195,-146.1876710146868,39.0003506013083,2145304371
sw,-86.2618865966796,-79.6186752319336,-140.4994638962642,42.77223523267109,2145321038
sw,-85.4771041870117,-80.5064086914062,-133.6423145676243,46.82064457023043,2145337705
sw,-84.0788421630859,-81.3580322265625,-126.32271560941156,50.93287735669465,2145354372
sw,-82.408447265625,-82.2833709716796,-119.04638996702263,54.786415425574475,2145371039
sw,-80.6898574829101,-83.3720016479492,-112.09096070972977,58.00745103443832,2145387706
sw,-79.0908813476562,-84.5822525024414,-105.50305063449328,60.269311900864174,2145404373
sw,-77.612190246582,-85.7977523803711,-99.11982315192432,61.39509401553354,2145421040
sw,-76.1349411010742,-86.9307556152343,-92.6207712859896,61.42021910509737,2145437707
sw,-74.6650848388671,-87.9746475219726,-85.61222704428923,60.58576619493354,2145454374
sw,-73.2922668457031,-89.0148391723632,-77.73288458739266,59.26496078091727,2145471041
sw,-72.1034622192382,-90.0,-68.75350640410029,57.85458327998342,2145487708
sw,-71.1037826538086,-89.4717712402343,-58.641073812455886,56.673671507048034,2145504375
sw,-70.3305511474609,-88.2326507568359,-47.57045317484524,55.900266049689705,2145521042
sw,-69.7218780517578,-87.1788101196289,-35.886291784891895,55.5536538525241,2145537709
sw,-69.2921371459961,-86.2505416870117,-24.032198571285164,55.510450984849854,2145554376
sw,-69.1243057250976,-85.3404922485351,-12.468263026777253,55.53750171409084,2145571043
sw,-69.2899856567382,-84.3694305419921,-1.5957169769307178,55.330155748858786,2145587710
sw,-69.4884719848632,-83.308479309082,8.295301489302364,54.55048504616652,2145604377
sw,-69.682373046875,-82.2688064575195,17.043575705210447,52.85996271263374,2145621044
sw,-70.209243774414,-81.3722686767578,24.599869548775356,49.939210640995015,2145637711
sw,-70.9189529418945,-80.6451416015625,30.98827136449931,45.49189077325043,2145654378
sw,-71.7042617797851,-80.0569763183593,36.26413785092132,39.24149621043233,2145671045
sw,-72.5130004882812,-79.6031265258789,40.48171544484098,30.939662236147257,2145687712
sw,-73.2872085571289,-79.297737121582,43.677691893358244,20.402655427007314,2145704379
sw,-74.011245727539,-79.0949020385742,45.87505141230772,7.5772101675381345,2145721046
sw,-74.7766799926757,-79.0872497558593,47.11138815045742,-7.384367861200899,2145737713
sw,-75.8153228759765,-79.3965911865234,47.48989965096515,-24.074564213211236,2145754380
sw,-77.084976196289,-80.1242294311523,47.23597598119866,-41.83875876585923,2145771047
sw,-78.1198348999023,-81.248779296875,46.72449885153812,-59.851844697656986,2145787714
sw,-78.7844314575195,-82.7186737060546,46.44121574986871,-77.24371191008545,2145804381
sw,-79.3553771972656,-84.4373931884765,46.869349420782115,-93.23160862744177,2145821048
sw,-80.2131652832031,-86.1215209960937,48.33641743589899,-107.2156691493254,2145837715
sw,-81.2665786743164,-87.3848419189453,50.8830273896412,-118.8125638572937,2145854382
sw,-82.369155883789,-86.8183822631836,54.20744901409034,-127.8295939448966,2145871049
sw,-83.4481811523437,-84.872802734375,57.71019191269949,-134.2035299629328,2145887716
sw,-84.5863037109375,-82.6795959472656,60.63309534542548,-137.9373211812473,2145904383
sw,-85.7924346923828,-80.4829940795898,62.263554131362596,-139.06270704458552,2145921050
sw,-87.0587615966796,-78.2929229736328,62.15261581040683,-137.64035097674383,2145937717
sw,-88.4098434448242,-76.0966491699218,60.27963559272916,-133.78808226687443,2145954384
sw,-90.0,-73.9229507446289,57.09894422918337,-127.71332286584698,2145971051
sw,-89.3694381713867,-71.7902908325195,53.434741486758334,-119.72579063235264,2145987718
sw,-88.2520217895507,-69.77490234375,50.24422402884645,-110.21887526971116,2146004385
sw,-87.3806533813476,-67.9443435668945,48.32571592256474,-99.6237802235931,2146021052
sw,-86.5982055664062,-66.3499069213867,48.08028378602362,-88.3520277536987,2146037719
sw,-85.7618713378906,-64.9357376098632,49.420406165698516,-76.74567645906811,2146054386
sw,-84.79248046875,-63.6123657226562,51.85842191602425,-65.04990580164855,2146071053
sw,-83.6880111694336,-62.4706115722656,54.728603919536894,-53.41206282565933,2146087720
sw,-82.5887603759765,-61.688232421875,57.44074576083544,-41.901666593913376,2146104387
sw,-81.6033096313476,-61.2403526306152,59.658690520352465,-30.544322235364998,2146121054
sw,-80.7184829711914,-60.9858436584472,61.342843826508364,-19.368002300169184,2146137721
sw,-79.8052597045898,-60.6899948120117,62.662731295514035,-8.461415676370642,2146154388
sw,-78.7745285034179,-60.4432754516601,63.83795335277747,1.9683575677450098,2146171055
sw,-77.696044921875,-60.5813865661621,64.98218083348404,11.570205516272273,2146187722
sw,-76.6425094604492,-61.050308227539,66.00811369921782,19.888030133870252,2146204389
sw,-75.5931701660156,-61.7242546081543,66.61976110677051,26.469008085169254,2146221056
sw,-74.4968490600586,-62.6501426696777,66.38795003959926,31.00374785305184,2146237723
sw,-73.3039779663086,-63.5255622863769,64.88069419149453,33.43751763146254,2146254390
sw,-72.0522842407226,-64.2992553710937,61.801874758751175,34.004237822872305,2146271057
sw,-70.9110488891601,-64.9919815063476,57.0838689958561,33.17324713941985,2146287724
sw,-70.072769165039,-65.7127380371093,50.89115037300761,31.53582473066842,2146304391
sw,-69.4823455810546,-66.3939437866211,43.52579896194921,29.67284756738513,2146321058
sw,-69.0492477416992,-66.8976974487304,35.27073116752106,28.03822363144494,2146337725
sw,-68.74169921875,-67.4606628417968,26.239274966208722,26.88246010429053,2146354392
sw,-68.6065292358398,-68.0840682983398,16.301748633698082,26.23606384369015,2146371059
sw,-68.4850845336914,-68.8945922851562,5.129260751603817,25.96339351251258,2146387726
sw,-68.3832702636718,-70.1059494018554,-7.654035163531593,25.87250920865228,2146404393
sw,-68.5614929199218,-71.0145797729492,-22.26598850864397,25.83419526064963,2146421060
sw,-69.0638580322265,-71.5203475952148,-38.58946482705003,25.851129549743128,2146437727
sw,-69.9484024047851,-72.0265426635742,-56.0946953693707,26.04568520559951,2146454394
sw,-71.1704330444336,-72.7374114990234,-73.8930323918902,26.586469667122568,2146471061
sw,-72.7260665893554,-73.5927963256836,-90.90397792940267,27.60719344163888,2146487728
sw,-74.602783203125,-74.5101776123046,-106.0774992465949,29.161723723694593,2146504395
sw,-76.6015472412109,-75.4527893066406,-118.59719944534908,31.22318240984079,2146521062
sw,-78.510383605957,-76.3417358398437,-128.00125698851855,33.70712147033388,2146537729
sw,-80.3003692626953,-77.2324523925781,-134.19384412734038,36.495230015958,2146554396
sw,-82.0971145629882,-78.1980743408203,-137.36573675430077,39.44841796741705,2146571063
sw,-83.8693771362304,-79.2166290283203,-137.87581472508765,42.41074680438497,2146587730
sw,-85.3652725219726,-80.2297592163086,-136.14770289326535,45.21059276743975,2146604397
sw,-86.1543731689453,-81.1736755371093,-132.61119556886774,47.66511039632355,2146621064
sw,-85.8717575073242,-82.0640716552734,-127.68649254552976,49.593726141338195,2146637731
sw,-84.7656860351562,-82.9756622314453,-121.78909085674302,50.84597414270146,2146654398
sw,-83.2579345703125,-83.9244613647461,-115.32949291013229,51.34398332635417,2146671065
sw,-81.6365127563476,-84.9080352783203,-108.69039588616073,51.12893933869564,2146687732
sw,-80.0850982666015,-85.8810653686523,-102.17914081679083,50.38982453776369,2146704399
sw,-78.6140747070312,-86.8073959350586,-95.9696013185902,49.45096854050051,2146721066
sw,-77.1471405029296,-87.6548156738281,-90.05820069082802,48.70743682109109,2146737733
sw,-75.7324676513671,-88.4355239868164,-84.25668300299833,48.52030321022327,2146754400
sw,-74.4455261230468,-89.3104476928711,-78.23016266858271,49.1059606580105,2146771067
sw,-73.2849884033203,-90.0,-71.57222101697494,50.461741483580525,2146787734
sw,-72.2734069824218,-89.3124389648437,-63.89933442923163,52.35793936673218,2146804401
sw,-71.4192276000976,-88.1726531982421,-54.94609674610315,54.39931247103279,2146821068
sw,-70.6468353271484,-87.0832901000976,-44.64443640276776,56.13122808055407,2146837735
sw,-70.0377807617187,-86.0290145874023,-33.16942547376483,57.150168872778515,2146854402
sw,-69.6973648071289,-85.0135116577148,-20.933810846471516,57.18086765476828,2146871069
sw,-69.6223602294921,-84.0174560546875,-8.520846755202708,56.09899396807086,2146887736
sw,-69.8139038085937,-83.0490188598632,3.435447708779678,53.899528816426084,2146904403
sw,-70.3070983886718,-82.1802902221679,14.388739190219667,50.627783768835435,2146921070
sw,-70.8531036376953,-81.3973236083984,23.988761591858147,46.29869175968849,2146937737
sw,-71.6510543823242,-80.7274627685546,32.117407384527475,40.83137632810251,2146954404
sw,-72.4562149047851,-80.1819839477539,38.837907307806134,34.02180699316926,2146971071
sw,-73.2238311767578,-79.7848358154296,44.27994438201627,25.567309630630408,2146987738
sw,-73.9508743286132,-79.5574111938476,48.51538761904129,15.143662205095065,2147004405
sw,-74.7897109985351,-79.5155334472656,51.4899856467698,2.5204194225773064,2147021072
sw,-75.853759765625,-79.6341857910156,53.05536255823277,-12.314119950219203,2147037739
sw,-77.0321350097656,-79.9981689453125,53.09745551707835,-29.05632264471132,2147054406
sw,-78.2937469482421,-80.7288208007812,51.70469083530023,-47.056380972729514,2147071073
sw,-79.6037826538086,-81.9084014892578,49.289458462994354,-65.37527536285417,2147087740
sw,-80.3131256103515,-83.5081939697265,46.58649255020357,-82.92308087628233,2147104407
sw,-80.796875,-85.3045654296875,44.50126804627416,-98.64173080579937,2147121074
sw,-81.42041015625,-87.052978515625,43.851360028683644,-111.67889979920294,2147137741
sw,-82.2703628540039,-87.8317489624023,45.098255758932225,-121.50560840269344,2147154408
sw,-83.2387084960937,-86.3995742797851,48.17499222193233,-127.95289867947578,2147171075
sw,-84.2074203491211,-84.1533660888671,52.47545251564727,-131.16970392864488,2147187742
sw,-85.298599243164,-81.8634643554687,57.011067453759416,-131.52565225048153,2147204409
sw,-86.508674621582,-79.6557693481445,60.68698540037109,-129.49497072672258,2147221076
sw,-87.7418975830078,-77.5323486328125,62.61510243560049,-125.55752036820974,2147237743
sw,-89.0784683227539,-75.4930267333984,62.370496229958064,-120.13915035641303,2147254410
sw,-90.0,-73.5834197998046,60.113174010804954,-113.59262052430144,2147271077
sw,-88.4571838378906,-71.7045364379882,56.53567642236054,-106.2038749533806,2147287744
sw,-87.3304672241211,-69.8687286376953,52.64965143140732,-98.20317291941905,2147304411
sw,-86.4989929199218,-68.2082977294921,49.47781275769572,-89.76520956918787,2147321078
sw,-85.7881164550781,-66.8228302001953,47.754770954853164,-80.99350900930553,2147337745
sw,-85.0455245971679,-65.6141586303711,47.742048679205766,-71.89922955328119,2147354412
sw,-84.1424484252929,-64.4798889160156,49.21946128381437,-62.39640262951759,2147371079
sw,-83.0591506958007,-63.46870803833,51.640874177858215,-52.334600179857034,2147387746
sw,-81.9386138916015,-62.7260131835937,54.37334795839307,-41.57332186119647,2147404413
sw,-80.9657974243164,-62.2969627380371,56.91158830085709,-30.080224254054595,2147421080
sw,-80.1275939941406,-62.0679855346679,58.98688391761198,-18.02146828360855,2147437747
sw,-79.2718353271484,-61.9098243713378,60.55159403766085,-5.811525295031142,2147454414
sw,-78.3137588500976,-61.9688262939453,61.67900609799866,5.9021231152465825,2147471081
sw,-77.2756576538086,-62.3841552734375,62.44416771661786,16.328849824252178,2147487748
sw,-76.2054672241211,-62.9797630310058,62.839979910429676,24.685516229964772,2147504415
sw,-75.1668319702148,-63.7528839111328,62.75226022703743,30.36873854441936,2147521082
sw,-74.1574249267578,-64.5678024291992,61.9886693489585,33.0975597724572,2147537749
sw,-73.08740234375,-65.3632431030273,60.33894626541342,32.98619893465039,2147554416
sw,-71.9850616455078,-66.185432434082,57.63632078836911,30.532560780523532,2147571083
sw,-70.9440765380859,-66.8782653808593,53.78953004232623,26.531878882852794,2147587750
sw,-70.1251220703125,-67.3829040527343,48.76407970638343,21.93676516352928,2147604417
sw,-69.554573059082,-67.804084777832,42.51365005489683,17.689596032905808,2147621084
sw,-69.1278915405273,-68.1179504394531,34.892407964415554,14.558623724746031,2147637751
sw,-68.8328399658203,-68.4869003295898,25.60037826698216,13.014579878517322,2147654418
sw,-68.7201232910156,-68.9897994995117,14.211055789123911,13.180616134648872,2147671085
sw,-68.668228149414,-69.6162109375,0.29994484284722095,14.86867163584149,2147687752
sw,-68.6461334228515,-70.6004791259765,-16.35366053534313,17.684568867899742,2147704419
sw,-68.9799118041992,-71.2587432861328,-35.56152494411227,21.15788728108191,2147721086
sw,-69.824966430664,-71.730110168457,-56.604525162147695,24.848632017546457,2147737753
sw,-71.0634689331054,-72.3658981323242,-78.25884089612427,28.406335574719666,2147754420
sw,-72.7481460571289,-73.2586517333984,-98.98168520037726,31.59100560278601,2147771087
sw,-74.8886947631836,-74.2797775268554,-117.2070929627813,34.28079610823718,2147787754
sw,-77.2459716796875,-75.2877883911132,-131.66073475739512,36.47900170545547,2147804421
sw,-79.5429458618164,-76.2267074584961,-141.596288721429,38.312042839343384,2147821088
sw,-81.7209014892578,-77.1212997436523,-146.8867482671843,40.003542216943316,2147837755
sw,-83.7642288208007,-78.0513076782226,-147.95953943077853,41.82071583400755,2147854422
sw,-85.5518188476562,-79.0430755615234,-145.6189884251759,44.0050149269464,2147871089
sw,-86.7316970825195,-80.0706481933593,-140.82877207880335,46.706743164138835,2147887756
sw,-86.7637863159179,-81.1016540527343,-134.52244627099014,49.94107496006742,2147904423
sw,-85.632827758789,-82.0703887939453,-127.48213145619114,53.57607133718111,2147921090
sw,-84.0225372314453,-83.0447845458984,-120.29093299334728,57.356887102804535,2147937757
sw,-82.2233276367187,-84.1250686645507,-113.3374430972904,60.96381782627787,2147954424
sw,-80.411636352539,-85.3258895874023,-106.83838816453485,64.09195362549873,2147971091
sw,-78.6950759887695,-86.612678527832,-100.85025255278728,66.528241056299,2147987758
sw,-77.0894241333007,-87.8784637451171,-95.25916701847369,68.19597344233429,2148004425
sw,-75.6221084594726,-89.1095733642578,-89.76169466650377,69.14602492673905,2148021092
sw,-74.2845230102539,-90.0,-83.8656703171734,69.49817522944109,2148037759
sw,-73.0505676269531,-89.0681228637695,-76.94104187485024,69.36188294879383,2148054426
sw,-71.9485931396484,-87.7547607421875,-68.3345746758674,68.77672671419893,2148071093
sw,-71.00830078125,-86.4611129760742,-57.53607627729015,67.70045373671334,2148087760
sw,-70.222427368164,-85.2350616455078,-44.35801341357843,66.04529080707407,2148104427
sw,-69.6223831176757,-84.0840148925781,-29.07431669520893,63.73853068671487,2148121094
sw,-69.1812896728515,-82.9999389648437,-12.463644679306865,60.77438212038973,2148137761
sw,-69.2961120605468,-81.9464111328125,4.278834703542614,57.23096734983617,2148154428
sw,-69.963020324707,-80.9476623535156,19.75818658391422,53.241339827788636,2148171095
sw,-70.653823852539,-80.0802993774414,32.67296721808245,48.92385277518185,2148187762
sw,-71.5505828857421,-79.3697357177734,42.097958154036,44.29267352283501,2148204429
sw,-72.5822067260742,-78.7448806762695,47.67066929786641,39.18114001996812,2148221096
sw,-73.6135635375976,-78.2137603759765,49.632735960122226,33.213419294158946,2148237763
sw,-74.6302642822265,-77.8352127075195,48.72774628273491,25.84889677227396,2148254430
sw,-75.4110794067382,-77.5898742675781,45.999014461529946,16.500783134506666,2148271097
sw,-75.9395980834961,-77.4470977783203,42.553939073914904,4.70351835802983,2148287764
sw,-76.5508422851562,-77.4514389038086,39.363191234232474,-9.718217497473322,2148304431
sw,-77.3474502563476,-77.7794723510742,37.14256637966046,-26.534633743293337,2148321098
sw,-78.2370452880859,-78.5513305664062,36.32693812307224,-45.094436136270666,2148337765
sw,-79.044563293457,-79.7735366821289,37.10501825109727,-64.41913742432648,2148354432
sw,-79.6028213500976,-81.4422378540039,39.4645240201872,-83.37895601096027,2148371099
sw,-80.2992553710937,-83.2643203735351,43.212780042319416,-100.89129902419671,2148387766
sw,-81.2310180664062,-85.1625595092773,47.974367941010605,-116.08035909122789,2148404433
sw,-82.3662414550781,-86.8043899536132,53.196172623845754,-128.36009896163563,2148421100
sw,-83.4559631347656,-86.8619995117187,58.19311965540542,-137.43653750020408,2148437767
sw,-84.5940551757812,-85.2745819091796,62.249696727933234,-143.25200519232646,2148454434
sw,-85.8530120849609,-83.1962356567382,64.76647163984913,-145.90707124899106,2148471101
sw,-87.100112915039,-81.0204925537109,65.415533428111,-145.59487276809026,2148487768
sw,-88.2044143676757,-78.8300857543945,64.2512777725512,-142.5683198839072,2148504435
sw,-89.1284484863281,-76.6353225708007,61.725071361171146,-137.13781916733862,2148521102
sw,-89.1089096069336,-74.4844436645507,58.58090313928315,-129.6772155732217,2148537769
sw,-88.2166671752929,-72.4160995483398,55.65443327856269,-120.6105090688919,2148554436
sw,-87.2878341674804,-70.4160690307617,53.638438084463026,-110.3649786582187,2148571103
sw,-86.4226989746093,-68.5616683959961,52.89513443661231,-99.30005280740966,2148587770
sw,-85.4804000854492,-66.9495010375976,53.38280485977341,-87.64199790961369,2148604437
sw,-84.3876953125,-65.5676345825195,54.723333547644565,-75.46064062249282,2148621104
sw,-83.1781234741211,-64.3119277954101,56.38156433607491,-62.71144688795925,2148637771
sw,-82.0088348388671,-63.2081985473632,57.880115322899584,-49.33809773196433,2148654438
sw,-80.9581680297851,-62.3636589050293,58.959600292776386,-35.39908509657093,2148671105
sw,-80.0340957641601,-61.8640708923339,59.623708040002654,-21.16420392075674,2148687772
sw,-79.1694717407226,-61.7058906555175,60.06529446860686,-7.136335584987411,2148704439
sw,-78.2446670532226,-61.7878608703613,60.52181967232612,6.012410679708541,2148721106
sw,-77.2513046264648,-62.2110862731933,61.130252354563986,17.563046616663236,2148737773
sw,-76.1975479125976,-62.7618293762207,61.837924145943504,26.883214127837388,2148754440
sw,-75.0928955078125,-63.3729743957519,62.391106111216466,33.53169092581654,2148771107
sw,-73.970947265625,-64.1449890136718,62.38809317272023,37.319582238071774,2148787774
sw,-72.8772277832031,-65.0449676513671,61.36291491411606,38.33727458201385,2148804441
sw,-71.8381423950195,-66.0369262695312,58.86341890773482,36.958503545457425,2148821108
sw,-70.8886795043945,-66.8800659179687,54.499414201797244,33.815315539337014,2148837775
sw,-70.1145095825195,-67.4393463134765,47.9554495946743,29.722898208784905,2148854442
sw,-69.5382003784179,-67.7901992797851,38.98113233220916,25.543877646400098,2148871109
sw,-69.1390304565429,-68.0360641479492,27.383280772849986,22.016937031896862,2148887776
sw,-68.9675521850586,-68.4748840332031,13.043938860819917,19.608596416361056,2148904443
sw,-68.9905700683593,-69.0758666992187,-4.024844310953352,18.4500957766851,2148921110
sw,-69.1831359863281,-69.9483642578125,-23.599952831120167,18.385151808881016,2148937777
sw,-69.9308395385742,-71.0263977050781,-45.169801437107246,19.09941368155275,2148954444
sw,-71.0862655639648,-71.4684982299804,-67.89702155585135,20.264570454663435,2148971111
sw,-72.4394073486328,-71.6614685058593,-90.64749239841007,21.636017574380656,2148987778
sw,-74.1780548095703,-72.2345962524414,-112.09227529928584,23.08682520002178,2149004445
sw,-76.3717193603515,-73.161994934082,-130.86915179401004,24.602332703112445,2149021112
sw,-78.8617858886718,-74.112075805664,-145.77304369397956,26.263283280594433,2149037779
sw,-81.3320007324218,-74.9827499389648,-155.93142775010227,28.22078447746118,2149054446
sw,-83.6843795776367,-75.7680740356445,-160.92105896688767,30.65240836224156,2149071113
sw,-85.7990036010742,-76.5706253051757,-160.80265187219544,33.701187646873805,2149087780
sw,-87.161376953125,-77.4687881469726,-156.08100140042617,37.41769813329019,2149104447
sw,-86.7558670043945,-78.4717636108398,-147.61898015968237,41.72685063581948,2149121114
sw,-85.0592651367187,-79.5064926147461,-136.53295327446372,46.42578596106841,2149137781
sw,-83.1620407104492,-80.4736862182617,-124.08002038910487,51.204189452313734,2149154448
sw,-81.3108596801757,-81.3574142456054,-111.53038777318548,55.67664330883984,2149171115
sw,-79.6345672607421,-82.2650299072265,-100.01565795479674,59.42651300968007,2149187782
sw,-78.1923599243164,-83.323974609375,-90.36006899686917,62.06872872326581,2149204449
sw,-76.957275390625,-84.537727355957,-82.92803174874611,63.33245241933078,2149221116
sw,-75.7537155151367,-85.7846221923828,-77.54010641537718,63.145354690216145,2149237783
sw,-74.4544601440429,-86.9245147705078,-73.5039947130091,61.68441592694542,2149254450
sw,-73.1307296752929,-87.9473876953125,-69.77332812902138,59.36047256409256,2149271117
sw,-71.9286422729492,-88.9330291748046,-65.20030746350115,56.728176640323525,2149287784
sw,-70.9642868041992,-90.0,-58.81438302345674,54.34577463061936,2149304451
sw,-70.2170944213867,-89.5607604980468,-50.054827029445015,52.630715032438914,2149321118
sw,-69.5776748657226,-88.5562591552734,-38.90537217262255,51.75722683132353,2149337785
sw,-68.998420715332,-87.6425857543945,-25.905746258161514,51.624271867392586,2149354452
sw,-68.7342987060546,-86.7055130004882,-12.036584557730201,51.89751426988009,2149371119
sw,-69.0536270141601,-85.7320785522461,1.5036406861223373,52.106497375481766,2149387786
sw,-69.5856399536132,-84.7298736572265,13.580027523492895,51.76322277675123,2149404453
sw,-70.0991287231445,-83.7656173706054,23.381795700420696,50.463829761866464,2149421120
sw,-70.6754074096679,-82.8845138549804,30.580374465462448,47.94282593276279,2149437787
sw,-71.3852615356445,-82.1281967163086,35.33953891005205,44.067747425348685,2149454454
sw,-72.0957794189453,-81.4919204711914,38.187769988901366,38.78495652477549,2149471121
sw,-72.8537902832031,-80.9962539672851,39.80828634961048,32.04578668867815,2149487788
sw,-73.5432662963867,-80.7232284545898,40.82172966641851,23.749778201148743,2149504455
sw,-74.0970001220703,-80.6122817993164,41.63143908339201,13.736277062733405,2149521122
sw,-74.7930145263671,-80.5776290893554,42.37727611404268,1.8384162056089155,2149537789
sw,-75.8367156982421,-80.6539154052734,43.005337602866426,-12.012236929634229,2149554456
sw,-76.7769699096679,-80.9518966674804,43.41533257016419,-27.668408335084305,2149571123
sw,-77.7781753540039,-81.6348266601562,43.612747113100895,-44.68873890704062,2149587790
sw,-78.7545166015625,-82.7949981689453,43.79040373097009,-62.33910955190559,2149604457
sw,-79.2974243164062,-84.2414627075195,44.29886083914975,-79.68187587189719,2149621124
sw,-79.9926834106445,-85.6944808959961,45.51879005953318,-95.72452676891223,2149637791
sw,-80.8828582763671,-86.8179550170898,47.69260934141131,-109.5789316124111,2149654458
sw,-81.8804702758789,-86.5140686035156,50.78767344464822,-120.58551400483694,2149671125
sw,-82.917007446289,-84.8216171264648,54.44797538632373,-128.37543368456855,2149687792
sw,-84.0391845703125,-82.7707824707031,58.05825729659866,-132.86680761035242,2149704459
sw,-85.2679061889648,-80.7251510620117,60.90682403717608,-134.2111698998703,2149721126
sw,-86.4667587280273,-78.7650604248046,62.39938461046266,-132.71848533303694,2149737793
sw,-87.6708984375,-76.814468383789,62.25490280880028,-128.78824485092312,2149754460
sw,-88.9833602905273,-74.8309555053711,60.615410859974745,-122.86085740948468,2149771127
sw,-90.0,-72.819839477539,58.02678239434001,-115.3853395547581,2149787794
sw,-88.8732604980468,-70.8716354370117,55.28837398181905,-106.78697629162923,2149804461
sw,-87.8585357666015,-69.1503219604492,53.21426950992979,-97.42060562115567,2149821128
sw,-87.0054626464843,-67.6773910522461,52.384516627966384,-87.51243330530738,2149837795
sw,-86.1484756469726,-66.4247894287109,52.97596399460062,-77.11583838370694,2149854462
sw,-85.2043380737304,-65.2948913574218,54.73743873016789,-66.11722559016539,2149871129
sw,-84.1081771850586,-64.2434997558593,57.11728558256507,-54.31428549192516,2149887796
sw,-82.8957748413086,-63.3738098144531,59.48719103169068,-41.55488684543574,2149904463
sw,-81.7427215576171,-62.8579978942871,61.367021863939904,-27.889810527810543,2149921130
sw,-80.7138595581054,-62.6582832336425,62.56105915144355,-13.67880584140982,2149937797
sw,-79.7744369506836,-62.7497291564941,63.16195076049031,0.39452722941510887,2149954464
sw,-78.8551254272461,-63.0409049987793,63.43931466989184,13.408717852191046,2149971131
sw,-77.8757934570312,-63.5314826965332,63.67438686039427,24.36727072353739,2149987798
sw,-76.8204803466796,-64.2790145874023,64.01227178410079,32.395102749166774,2150004465
sw,-75.7265701293945,-65.2067260742187,64.38170277526821,36.9217388270692,2150021132
sw,-74.6117248535156,-66.2735290527343,64.49594604071083,37.81180178024164,2150037799
sw,-73.457405090332,-67.2041549682617,63.91641307361682,35.41682716167305,2150054466
sw,-72.3187789916992,-68.0052871704101,62.14343617783601,30.537976945526037,2150071133
sw,-71.2780990600586,-68.6793594360351,58.69819479467144,24.303230625255438,2150087800
sw,-70.3871231079101,-69.0146331787109,53.1727114325238,17.97510265462828,2150104467
sw,-69.6655960083007,-69.1461868286132,45.245510372403544,12.720407304975843,2150121134
sw,-69.2070999145507,-69.3208847045898,34.68092990511066,9.392617324527727,2150137801
sw,-69.0120010375976,-69.4898834228515,21.341095113597124,8.387706050881853,2150154468
sw,-68.9291915893554,-69.9074478149414,5.234135418050486,9.619520170464263,2150171135
sw,-68.9388275146484,-70.8598022460937,-13.401044693913391,12.619087452176773,2150187802
sw,-69.2265014648437,-71.4180908203125,-34.00575688477031,16.71327762959038,2150204469
sw,-70.0047988891601,-71.8253784179687,-55.66317534333686,21.21106752838797,2150221136
sw,-71.3379135131836,-72.3932189941406,-77.15816945429854,25.538522281394805,2150237803
sw,-73.0841827392578,-73.2031326293945,-97.14306780096337,29.304858750580802,2150254470
sw,-75.122200012207,-74.1517715454101,-114.36624407957355,32.317191735965196,2150271137
sw,-77.364013671875,-75.1400146484375,-127.8886214956953,34.56821773977329,2150287804
sw,-79.5693054199218,-76.0974502563476,-137.2175554188271,36.20776541191919,2150304471
sw,-81.6183547973632,-77.0061645507812,-142.32377125571853,37.497460682145274,2150321138
sw,-83.568862915039,-77.9293594360351,-143.5557695243918,38.74785886772287,2150337805
sw,-85.3987884521484,-78.8916473388671,-141.50341197609393,40.24471627762707,2150354472
sw,-86.822265625,-79.8718338012695,-136.87045641463698,42.177312103048436,2150371139
sw,-87.0984268188476,-80.8022155761718,-130.39309016049975,44.58368595307526,2150387806
sw,-85.95068359375,-81.6549682617187,-122.80419444461273,47.32722338951699,2150404473
sw,-84.2950134277343,-82.5005340576171,-114.81378507284616,50.117217003991165,2150421140
sw,-82.5461807250976,-83.4531784057617,-107.0697135919459,52.57928903993896,2150437807
sw,-80.8625335693359,-84.5192718505859,-100.0799870258307,54.36592008118844,2150454474
sw,-79.3464889526367,-85.6385726928711,-94.10800826688788,55.27629339767724,2150471141
sw,-77.9292449951171,-86.7517700195312,-89.07894015645881,55.340647368068616,2150487808
sw,-76.5260314941406,-87.7591171264648,-84.54557654572662,54.82990190517608,2150504475
sw,-75.1617126464843,-88.6841888427734,-79.74922025063749,54.178179857208335,2150521142
sw,-73.8994522094726,-89.7482147216796,-73.77984692111873,53.84180617949458,2150537809
sw,-72.8256912231445,-90.0,-65.80454165590541,54.14483112728803,2150554476
sw,-71.9334259033203,-88.8388748168945,-55.30855505216912,55.16503239493179,2150571143
sw,-71.1431732177734,-87.7845993041992,-42.2853155468451,56.69594129965128,2150587810
sw,-70.5227661132812,-86.7344589233398,-27.318223217380556,58.29130128682014,2150604477
sw,-70.3037033081054,-85.698257446289,-11.516519675780557,59.3724852322794,2150621144
sw,-70.6268615722656,-84.6475219726562,3.6973171255176567,59.364884297142446,2150637811
sw,-71.1745452880859,-83.5407485961914,16.90289552891216,57.82613493508778,2150654478
sw,-71.8804168701171,-82.4360275268554,27.011059795865403,54.53316647061733,2150671145
sw,-72.5709762573242,-81.4557342529296,33.50615978673838,49.504345985432806,2150687812
sw,-73.3432312011718,-80.7255783081054,36.531000781812416,42.94909561431166,2150704479
sw,-74.1338119506836,-80.2242279052734,36.800376838341684,35.1603693275269,2150721146
sw,-74.955581665039,-79.9011077880859,35.382535650545584,26.388150011423686,2150737813
sw,-75.5025253295898,-79.730110168457,33.41908927123503,16.742463307356044,2150754480
sw,-75.757827758789,-79.657730102539,31.861927881900648,6.164444306349384,2150771147
sw,-76.1859741210937,-79.712158203125,31.297562353178073,-5.522869889206153,2150787814
sw,-76.9974975585937,-79.9553298950195,31.904286731938043,-18.50351491870621,2150804481
sw,-77.9104766845703,-80.467658996582,33.54126841992189,-32.83843837692789,2150821148
sw,-78.7424850463867,-81.2955703735351,35.91487253646639,-48.361482799850144,2150837815
sw,-79.4416809082031,-82.4400939941406,38.739501700545894,-64.63454071641415,2150854482
sw,-80.1498870849609,-83.8654403686523,41.82772112851098,-80.97377285898784,2150871149
sw,-80.9766845703125,-85.4529113769531,45.090151589757006,-96.53747867608354,2150887816
sw,-81.9134750366211,-86.6860198974609,48.46656260675499,-110.45051544433674,2150904483
sw,-82.8619995117187,-86.4107894897461,51.831200618313574,-121.93283833235768,2150921150
sw,-83.7900390625,-84.7963638305664,54.922711415873444,-130.4022534597923,2150937817
sw,-84.8898696899414,-82.8591918945312,57.344207702128635,-135.53327982064923,2150954484
sw,-86.111083984375,-80.8931655883789,58.65465203631199,-137.2699993443342,2150971151
sw,-87.2647628784179,-78.9062881469726,58.52940252979278,-135.80268120396477,2150987818
sw,-88.3424758911132,-76.8222045898437,56.92638899515907,-131.5206179122833,2151004485
sw,-89.41650390625,-74.7162399291992,54.181480595151044,-124.94889787205389,2151021152
sw,-89.4290466308593,-72.6289367675781,50.98055879927165,-116.67122830651472,2151037819
sw,-88.462905883789,-70.6638641357421,48.203113288628586,-107.24065633726111,2151054486
sw,-87.6837921142578,-68.9457702636718,46.68239999105109,-97.08794046497634,2151071153
sw,-86.9478988647461,-67.4594650268554,46.963322873659145,-86.45037657264632,2151087820
sw,-86.1294021606445,-66.1520385742187,49.146988688785456,-75.35235273838262,2151104487
sw,-85.1297073364257,-64.9455108642578,52.88151153273252,-63.661265743841135,2151121154
sw,-83.9676895141601,-63.8813743591308,57.49938274736806,-51.21544490809019,2151137821
sw,-82.7308349609375,-63.0856971740722,62.2397232251337,-37.9857957698926,2151154488
sw,-81.5180511474609,-62.6339263916015,66.46155928918613,-24.210440678528826,2151171155
sw,-80.374755859375,-62.4680862426757,69.7678984137422,-10.446552403535692,2151187822
sw,-79.2965774536132,-62.5919227600097,72.00954041473688,2.4860638750113617,2151204489
sw,-78.2118072509765,-62.9319229125976,73.19442828715249,13.655689521640742,2151221156
sw,-77.0901870727539,-63.4495429992675,73.36509229353842,22.21957606270495,2151237823
sw,-75.9216918945312,-64.2348480224609,72.50940010226093,27.619162261724178,2151254490
sw,-74.7010192871093,-65.0600051879882,70.54220405820038,29.719516497922598,2151271157
sw,-73.4268646240234,-65.7902755737304,67.35382637639073,28.859971042341407,2151287824
sw,-72.1397247314453,-66.5149154663086,62.88527384403312,25.804817575305066,2151304491
sw,-71.0274963378906,-67.1349639892578,57.17547155400514,21.603631015805345,2151321158
sw,-70.2214660644531,-67.4131088256836,50.340221138682416,17.3871753246962,2151337825
sw,-69.6616439819336,-67.4791107177734,42.48127035664619,14.139545762001061,2151354492
sw,-69.2830047607421,-67.6951599121093,33.56838278132085,12.501484523524988,2151371159
sw,-69.0538330078125,-68.0582580566406,23.362995499566996,12.663360460721671,2151387826
sw,-68.9348907470703,-68.5176391601562,11.44291638834008,14.385134046794123,2151404493
sw,-68.8677978515625,-69.4366302490234,-2.654107987292191,17.136341570320013,2151421160
sw,-68.9123916625976,-70.4575805664062,-19.206054463163532,20.301742146926333,2151437827
sw,-69.2030410766601,-71.0483474731445,-38.08501483401403,23.372764893841588,2151454494
sw,-69.9830551147461,-71.539436340332,-58.634174828010686,26.058372278055433,2151471161
sw,-71.3707809448242,-72.2264709472656,-79.70776524999131,28.29690736669975,2151487828
sw,-73.2640609741211,-73.1675643920898,-99.87287597041427,30.200492919901002,2151504495
sw,-75.3903350830078,-74.2352218627929,-117.70304730106712,31.980002031538092,2151521162
sw,-77.632080078125,-75.2968521118164,-132.05723401525424,33.87896439948791,2151537829
sw,-79.7858276367187,-76.273811340332,-142.25288348921572,36.11829168784697,2151554496
sw,-81.8240890502929,-77.2471923828125,-148.09744525506144,38.84590121056699,2151571163
sw,-83.8262329101562,-78.2802047729492,-149.80596475450008,42.095138822352226,2151587830
sw,-85.6125564575195,-79.3709182739257,-147.87041611323252,45.7654728992709,2151604497
sw,-86.7864913940429,-80.4887771606445,-142.9444179245846,49.6356658227525,2151621164
sw,-86.5519638061523,-81.6236572265625,-135.7741963570978,53.40678436584644,2151637831
sw,-85.1616744995117,-82.6585617065429,-127.16652577183622,56.76199363779034,2151654498
sw,-83.397705078125,-83.6773376464843,-117.95858702138636,59.42909600887786,2151671165
sw,-81.5557098388671,-84.7886886596679,-108.9534073471263,61.23624043829302,2151687832
sw,-79.8197250366211,-85.9670639038086,-100.8057830487187,62.15255905970197,2151704499
sw,-78.2945175170898,-87.1179885864257,-93.87710856522804,62.30175037200343,2151721166
sw,-76.9109420776367,-88.2326507568359,-88.1088221240211,61.93568654987336,2151737833
sw,-75.5726776123046,-89.3654251098632,-82.97751562581186,61.365145970256236,2151754500
sw,-74.2636795043945,-90.0,-77.57901616994366,60.863526311932745,2151771167
sw,-73.035285949707,-88.8216476440429,-70.84592848998061,60.57528636941421,2151787834
sw,-71.9208679199218,-87.7207641601562,-61.850687513195595,60.46304489674678,2151804501
sw,-70.9517364501953,-86.6044311523437,-50.1073540481489,60.31330423288253,2151821168
sw,-70.192756652832,-85.4528350830078,-35.775988547685984,59.7971890073565,2151837835
sw,-69.7623825073242,-84.3600006103515,-19.696575852873863,58.560754345697404,2151854502
sw,-69.8215103149414,-83.3527679443359,-3.228551444572035,56.30966815929345,2151871169
sw,-70.3126678466796,-82.408447265625,12.066082426630903,52.85919070056025,2151887836
sw,-71.0635604858398,-81.5059051513671,24.802631627975185,48.137433602106064,2151904503
sw,-71.7928466796875,-80.7203826904296,34.097249491876504,42.148231818639964,2151921170
sw,-72.6247482299804,-80.1251220703125,39.73413154406344,34.912543634791774,2151937837
sw,-73.5475463867187,-79.7272415161132,42.135399636840575,26.412653621370037,2151954504
sw,-74.4490432739257,-79.5142364501953,42.16392030058868,16.56238989400207,2151971171
sw,-75.0233612060546,-79.4855041503906,40.84162141247535,5.219012992076764,2151987838
sw,-75.3350448608398,-79.6115341186523,39.084354048072804,-7.761062694864772,2152004505
sw,-75.9199447631836,-79.9380340576171,37.5393200080504,-22.436429612611647,2152021172
sw,-76.957275390625,-80.5694351196289,36.56598340638504,-38.69074650740883,2152037839
sw,-78.1227722167968,-81.5554962158203,36.335560779476,-56.16804661300887,2152054506
sw,-79.0643081665039,-82.8165740966796,36.96630635078077,-74.25537971826868,2152071173
sw,-79.5988998413086,-84.3893356323242,38.600169147309565,-92.12050186942582,2152087840
sw,-80.1808929443359,-85.8517837524414,41.37284390230691,-108.7973348925699,2152104507
sw,-80.9683685302734,-86.6173629760742,45.301192569004726,-123.301816641043,2152121174
sw,-81.8860092163086,-85.8271179199218,50.16098502657982,-134.75726112936277,2152137841
sw,-83.0079345703125,-83.8865432739257,55.43115810075287,-142.50912762979482,2152154508
sw,-84.2750244140625,-81.6203536987304,60.34866948443222,-146.21098140728134,2152171175
sw,-85.56005859375,-79.2999420166015,64.07154836951631,-145.8662560221127,2152187842
sw,-86.7756042480468,-77.0310897827148,65.90409575616016,-141.81634494950717,2152204509
sw,-87.8554306030273,-74.8729019165039,65.51183099636674,-134.67514818482297,2152221176
sw,-88.8652954101562,-72.8689270019531,63.054014398559886,-125.22128985988017,2152237843
sw,-88.9897384643554,-70.8835983276367,59.18569897175174,-114.26824419567872,2152254510
sw,-88.089614868164,-68.9908142089843,54.918026680333874,-102.53653615782517,2152271177
sw,-87.2891387939453,-67.340103149414,51.365957451561144,-90.5511471930541,2152287844
sw,-86.6307678222656,-65.984130859375,49.451370638644185,-78.58454441893764,2152304511
sw,-85.9329299926757,-64.8306503295898,49.65482025563286,-66.66223504773158,2152321178
sw,-85.0513000488281,-63.7529792785644,51.90238344695026,-54.63810333526904,2152337845
sw,-83.9448928833007,-62.7721633911132,55.626747693923875,-42.32619431492221,2152354512
sw,-82.6781234741211,-62.1270103454589,59.97206810559413,-29.6504301473541,2152371179
sw,-81.4401473999023,-61.8400840759277,64.05656286628388,-16.7608013361177,2152387846
sw,-80.2938079833984,-61.8292579650878,67.1941672079841,-4.075850237062089,2152404513
sw,-79.2071990966796,-61.9998130798339,69.00906053911557,7.759772565603962,2152421180
sw,-78.127700805664,-62.271183013916,69.43149155200469,17.986745426120798,2152437847
sw,-77.0296859741211,-62.8477897644043,68.60941742990859,25.883044297444822,2152454514
sw,-75.9509201049804,-63.639850616455,66.78911971649077,30.92614614652868,2152471181
sw,-74.8641510009765,-64.5119705200195,64.20931077497814,32.9336832062373,2152487848
sw,-73.7593078613281,-65.4997253417968,61.029967474280824,32.14770987039791,2152504515
sw,-72.6634445190429,-66.4209289550781,57.29371940595813,29.230491811619117,2152521182
sw,-71.6971588134765,-67.0591049194336,52.90469955932521,25.15526834171918,2152537849
sw,-70.9629821777343,-67.4866714477539,47.61264194029857,21.004148106964124,2152554516
sw,-70.4383087158203,-67.6736450195312,41.00643370681302,17.720289570285832,2152571183
sw,-70.0210571289062,-67.8263931274414,32.53956735863972,15.889228480974486,2152587850
sw,-69.6689300537109,-68.2470932006836,21.613706922061557,15.62749762538515,2152604517
sw,-69.4651184082031,-68.9452438354492,7.7271592554770665,16.623919345138237,2152621184
sw,-69.3784942626953,-69.8718566894531,-9.339949362857759,18.31715551033659,2152637851
sw,-69.6597900390625,-70.8816757202148,-29.362496131328374,20.13222770572004,2152654518
sw,-70.4497146606445,-71.4660034179687,-51.59451262568731,21.675245949312686,2152671185
sw,-71.6568984985351,-71.8576583862304,-74.82196275530264,22.815728807019187,2152687852
sw,-73.2727737426757,-72.4458312988281,-97.54075070241217,23.651165202863723,2152704519
sw,-75.3071365356445,-73.2604904174804,-118.21170922078203,24.405812649747077,2152721186
sw,-77.6281280517578,-74.1863708496093,-135.51789122101175,25.32979990228402,2152737853
sw,-79.9679336547851,-75.1102294921875,-148.55063160470442,26.636884102549693,2152754520
sw,-82.1940078735351,-75.9692230224609,-156.87964655743735,28.481551889387465,2152771187
sw,-84.3053588867187,-76.8060989379882,-160.50923660419545,30.956556765124464,2152787854
sw,-86.0903930664062,-77.6780242919921,-159.76647354318607,34.09378108151328,2152804521
sw,-86.7734146118164,-78.5978088378906,-155.18480947117897,37.861498356237725,2152821188
sw,-85.7985458374023,-79.5633316040039,-147.42950831847983,42.158295284339275,2152837855
sw,-83.9725341796875,-80.5108642578125,-137.27275582444466,46.806575314127834,2152854522
sw,-81.9699935913086,-81.3944931030273,-125.58948326129111,51.55107543007767,2152871189
sw,-80.0106201171875,-82.2999954223632,-113.3281275502894,56.07181294691391,2152887856
sw,-78.2948532104492,-83.3360290527343,-101.42092891693818,60.02143889045103,2152904523
sw,-76.8981475830078,-84.5306930541992,-90.63224282031624,63.08788240699571,2152921190
sw,-75.7359390258789,-85.7918319702148,-81.38634961846867,65.06591693794016,2152937857
sw,-74.606086730957,-87.0064392089843,-73.64580237620513,65.90756467361774,2152954524
sw,-73.466812133789,-88.1664505004882,-66.9072032688001,65.72416777017958,2152971191
sw,-72.3606948852539,-89.3538131713867,-60.340391338426265,64.73439279674652,2152987858
sw,-71.3800582885742,-90.0,-53.03871928716031,63.179668754191454,2153004525
sw,-70.5400085449218,-88.8844299316406,-44.301941925696234,61.24402240294597,2153021192
sw,-69.9066848754882,-87.7545852661132,-33.859772892845776,59.01036052766499,2153037859
sw,-69.5115051269531,-86.7208786010742,-21.96551318432992,56.46542145836277,2153054526
sw,-69.4804763793945,-85.7106094360351,-9.333336691074134,53.54354427742914,2153071193
sw,-69.6490783691406,-84.6994323730468,3.057019720410977,50.184743811433016,2153087860
sw,-70.2707748413086,-83.7551574707031,14.223750473118576,46.37858182957664,2153104527
sw,-70.7999572753906,-82.9513244628906,23.430909788089593,42.17197525630389,2153121194
sw,-71.4512786865234,-82.2724914550781,30.34565553581239,37.63479708919096,2153137861
sw,-72.2576446533203,-81.7279663085937,35.06385652185256,32.79670128645483,2153154528
sw,-73.0226211547851,-81.3122406005859,38.009096513350634,27.583391687986076,2153171195
sw,-73.8084564208984,-80.9846115112304,39.750134987601186,21.783480091244783,2153187862
sw,-74.4573593139648,-80.7518463134765,40.804947905190545,15.067078964444743,2153204529
sw,-74.9648971557617,-80.6373291015625,41.50214757885926,7.058858151830947,2153221196
sw,-75.7614059448242,-80.648193359375,41.95054746341155,-2.5517360066222396,2153237863
sw,-76.88232421875,-80.7731018066406,42.124256654150514,-13.895627075833286,2153254530
sw,-77.9457778930664,-81.1022720336914,42.015662639578586,-26.842535004262146,2153271197
sw,-78.9454879760742,-81.8309097290039,41.77100745052484,-40.98276733705373,2153287864
sw,-79.6701736450195,-82.9386749267578,41.73099352327653,-55.6816827261181,2153304531
sw,-80.2505950927734,-84.2858810424804,42.3505318415291,-70.18973075761933,2153321198
sw,-80.9674911499023,-85.811279296875,44.03411613775074,-83.77182221060951,2153337865
sw,-81.822525024414,-87.3152542114257,46.960112411906685,-95.81709881794121,2153354532
sw,-82.7927932739257,-87.6016693115234,50.965755070379245,-105.90232273118072,2153371199
sw,-83.8335037231445,-85.9952316284179,55.53636612378463,-113.80066166940571,2153387866
sw,-85.0034637451171,-83.8331832885742,59.905671062194344,-119.44546329721413,2153404533
sw,-86.2445373535156,-81.6851654052734,63.24042084878739,-122.87124821153316,2153421200
sw,-87.4073104858398,-79.6789398193359,64.8574200544711,-124.15785889020727,2153437867
sw,-88.5776977539062,-77.7787246704101,64.41071256790991,-123.39726376508024,2153454534
sw,-90.0,-75.8809127807617,61.995184172672,-120.68964790830957,2153471201
sw,-89.1555862426757,-74.0017623901367,58.1362784835819,-116.16219887743402,2153487868
sw,-88.0023803710937,-72.1053009033203,53.66572712749669,-109.99447306229094,2153504535
sw,-87.1662139892578,-70.1930084228515,49.515047130557534,-102.43014590359287,2153521202
sw,-86.4717483520507,-68.4870376586914,46.487118464302206,-93.75869322576887,2153537869
sw,-85.7630310058593,-67.0810470581054,45.07934899368137,-84.26506487768769,2153554536
sw,-84.8857269287109,-65.8936462402343,45.41554394496719,-74.1678387877228,2153571203
sw,-83.86279296875,-64.8021774291992,47.29774960320326,-63.58288577525042,2153587870
sw,-82.835220336914,-63.7602996826171,50.33646168230767,-52.54352021314573,2153604537
sw,-81.885025024414,-62.8719482421875,54.08890866027164,-41.07754724807509,2153621204
sw,-80.9983978271484,-62.317211151123,58.14666731423765,-29.306213948072294,2153637871
sw,-80.0809936523437,-62.0848770141601,62.154383318718246,-17.51569127011905,2153654538
sw,-79.0253372192382,-62.0941581726074,65.7824260075069,-6.1673312532267515,2153671205
sw,-77.840217590332,-62.2140769958496,68.69425895424838,4.1563422823332,2153687872
sw,-76.6322860717773,-62.4293365478515,70.54029065709841,12.850113479320388,2153704539
sw,-75.4719619750976,-62.8061790466308,70.98760852459846,19.404008310199362,2153721206
sw,-74.3177185058593,-63.3047065734863,69.7756626220271,23.519621465018965,2153737873
sw,-73.1535415649414,-64.0987930297851,66.7780574276713,25.20390354866562,2153754540
sw,-72.0008544921875,-64.97705078125,62.046871137974705,24.813460827673868,2153771207
sw,-70.9044494628906,-65.6780395507812,55.81525726333413,23.021043984605594,2153787874
sw,-69.9837417602539,-66.1388168334961,48.43983728746624,20.692185819216387,2153804541
sw,-69.3729858398437,-66.5129699707031,40.282285576150706,18.693878531420285,2153821208
sw,-69.0394592285156,-66.9531784057617,31.558561918366294,17.690750595335526,2153837875
sw,-68.8694229125976,-67.2564392089843,22.212085475153238,17.995929478436935,2153854542
sw,-68.8001556396484,-67.7409210205078,11.875140853500302,19.527580140009317,2153871209
sw,-68.7551727294921,-68.5529022216796,-0.040989239397798916,21.887069607850755,2153887876
sw,-68.7812576293945,-69.6725082397461,-14.136759448815619,24.532074101725243,2153904543
sw,-69.0153350830078,-70.8057479858398,-30.759749100270632,26.979550319737225,2153921210
sw,-69.6596984863281,-71.5606460571289,-49.779740835559416,28.95809538550074,2153937877
sw,-70.7454299926757,-72.0690536499023,-70.4900023207222,30.45340596432045,2153954544
sw,-72.2750549316406,-72.6707992553711,-91.6759466341376,31.646857873777158,2153971211
sw,-74.2108306884765,-73.5344772338867,-111.83116098682102,32.79995051171838,2153987878
sw,-76.4350433349609,-74.5870971679687,-129.45036002236697,34.15054723253547,2154004545
sw,-78.7930145263671,-75.654800415039,-143.30810335548483,35.85772230110507,2154021212
sw,-81.0742568969726,-76.6277389526367,-152.6463444236321,37.99132542520321,2154037879
sw,-83.2246017456054,-77.5909881591796,-157.2346323984949,40.54189267792769,2154054546
sw,-85.0950393676757,-78.6223449707031,-157.3152532448099,43.43200435525681,2154071213
sw,-86.2938232421875,-79.7095260620117,-153.48029439794468,46.525112661971754,2154087880
sw,-86.2554016113281,-80.7985229492187,-146.53553116277033,49.63610393289944,2154104547
sw,-85.0508651733398,-81.7779159545898,-137.3889043139487,52.54774504206368,2154121214
sw,-83.3179244995117,-82.6845321655273,-126.97204061517321,55.03583706161828,2154137881
sw,-81.4263229370117,-83.621109008789,-116.1774658801295,56.90612732429067,2154154548
sw,-79.6419143676757,-84.6497573852539,-105.78453397740103,58.04284051788502,2154171215
sw,-78.0872116088867,-85.7635345458984,-96.35951503568046,58.45815067823354,2154187882
sw,-76.7584686279296,-86.8890075683593,-88.14473676851689,58.3193948544789,2154204549
sw,-75.4908294677734,-87.9577102661132,-80.98094088257858,57.928226700380655,2154221216
sw,-74.2316818237304,-88.9793243408203,-74.31462455230348,57.64089414626806,2154237883
sw,-73.0182266235351,-90.0,-67.31809271333836,57.746760674390124,2154254550
sw,-71.976318359375,-89.6986923217773,-59.10562828974908,58.34773568798925,2154271217
sw,-71.1940155029296,-88.4322738647461,-48.98945472056862,59.288400681450064,2154287884
sw,-70.6041488647461,-87.2997055053711,-36.70295859535397,60.169506232960565,2154304551
sw,-70.1252822875976,-86.1627349853515,-22.527208582325862,60.44436533165028,2154321218
sw,-69.855354309082,-85.0413665771484,-7.280127815664851,59.56484199102949,2154337885
sw,-70.0721817016601,-83.9356002807617,7.840808657551985,57.125334812175446,2154354552
sw,-70.7674407958984,-82.8630065917968,21.531389685298688,52.95479636232752,2154371219
sw,-71.6812896728515,-81.959243774414,32.694915979444836,47.125827634937046,2154387886
sw,-72.5545654296875,-81.3187713623046,40.69854693261476,39.879904073820946,2154404553
sw,-73.5126190185546,-80.9116592407226,45.48741150878663,31.50009396241509,2154421220
sw,-74.4726257324218,-80.6216583251953,47.52666700693453,22.185014032219303,2154437887
sw,-75.4077911376953,-80.4436264038086,47.60806731965259,11.978078039590285,2154454554
sw,-76.0908203125,-80.4433364868164,46.60337960370196,0.7816422213628347,2154471221
sw,-76.6711654663086,-80.5984954833984,45.255962347527266,-11.551905984629386,2154487888
sw,-77.5481872558593,-80.8953018188476,44.075362470290585,-25.092231238280387,2154504555
sw,-78.6206512451171,-81.4530715942382,43.34921032489389,-39.71980967240608,2154521222
sw,-79.634048461914,-82.4334030151367,43.23210130922502,-55.07575605494674,2154537889
sw,-80.4306182861328,-83.8151473999023,43.83984136189688,-70.58994857194293,2154554556
sw,-81.1186981201171,-85.3851852416992,45.287558232839245,-85.5715318379065,2154571223
sw,-81.9332580566406,-86.9416198730468,47.652726364644714,-99.32319106433809,2154587890
sw,-82.8861694335937,-87.6439056396484,50.889753108711986,-111.2386995273166,2154604557
sw,-83.9240417480468,-86.3207015991211,54.747816104297776,-120.85859815768151,2154621224
sw,-85.011116027832,-84.1232070922851,58.743693569741275,-127.87986821613706,2154637891
sw,-86.1880798339843,-81.8849716186523,62.2221200457321,-132.1332817758745,2154654558
sw,-87.4441146850586,-79.7166748046875,64.50320889858503,-133.55234895142704,2154671225
sw,-88.5919494628906,-77.6130752563476,65.07776713995788,-132.15673868037615,2154687892
sw,-89.2480087280273,-75.5398712158203,63.782755579942226,-128.05994359909127,2154704559
sw,-88.6838912963867,-73.5488739013671,60.88739469270996,-121.49237238084147,2154721226
sw,-87.6339645385742,-71.6478729248046,57.049222858037346,-112.8177869712894,2154737893
sw,-86.6858901977539,-69.8290252685546,53.14628743148996,-102.5198978303961,2154754560
sw,-85.9188919067382,-68.1302185058593,50.03775852299525,-91.14665402059734,2154771227
sw,-85.2154998779296,-66.7014923095703,48.33425956736808,-79.21825810144206,2154787894
sw,-84.4251861572265,-65.5795059204101,48.25882108513509,-67.12611419925643,2154804561
sw,-83.4746932983398,-64.6858596801757,49.64506727035546,-55.065436232779085,2154821228
sw,-82.3894424438476,-63.8899536132812,52.06230149610239,-43.041896572928295,2154837895
sw,-81.2472076416015,-63.1705780029296,55.004089777542696,-30.965138252829956,2154854562
sw,-80.1836624145507,-62.6998138427734,58.054867044214944,-18.798636209912722,2154871229
sw,-79.2479934692382,-62.545066833496,60.968586327331266,-6.701702211875182,2154887896
sw,-78.3047714233398,-62.7224388122558,63.64224306507452,4.901467390777019,2154904563
sw,-77.2943115234375,-63.144287109375,66.01796918189753,15.357870209778454,2154921230
sw,-76.219009399414,-63.6544113159179,67.97484443315173,23.914340529299096,2154937897
sw,-75.1087570190429,-64.353515625,69.26662365046096,29.89543867373692,2154954564
sw,-73.926887512207,-65.1724777221679,69.53314387863406,32.880054378693856,2154971231
sw,-72.6812591552734,-66.0321731567382,68.37751996126366,32.8340452250151,2154987898
sw,-71.4240188598632,-66.859634399414,65.47207250778318,30.167222512651435,2155004565
sw,-70.2244262695312,-67.5325851440429,60.642416252077766,25.69447875299157,2155021232
sw,-69.2423019409179,-67.9337615966796,53.88683903600386,20.497925205819897,2155037899
sw,-68.5807876586914,-68.224365234375,45.31695523736913,15.712271915832877,2155054566
sw,-68.2162933349609,-68.3434982299804,35.046166566806164,12.283659287834842,2155071233
sw,-68.0505065917968,-68.4701538085937,23.08590282397825,10.771030325962473,2155087900
sw,-67.9818878173828,-68.8891143798828,9.315542556011534,11.25620474377668,2155104567
sw,-67.9694519042968,-69.5746307373046,-6.438639963643569,13.395873480962742,2155121234
sw,-68.0142745971679,-70.5527648925781,-24.235727360324578,16.59225006384097,2155137901
sw,-68.4575424194336,-71.1668853759765,-43.8357712750646,20.207292643485225,2155154568
sw,-69.5050964355468,-71.6351776123046,-64.58862275364446,23.73341125139904,2155171235
sw,-70.9405364990234,-72.2351837158203,-85.45649366052425,26.8713224490129,2155187902
sw,-72.7621231079101,-73.0438766479492,-105.17026335748285,29.523360144497573,2155204569
sw,-74.889404296875,-73.9802627563476,-122.46226458966102,31.744650946371696,2155221236
sw,-77.1578750610351,-74.9957504272461,-136.29244003622915,33.68894895973315,2155237903
sw,-79.3710861206054,-75.9604034423828,-145.99725320341332,35.56075299073318,2155254570
sw,-81.5270843505859,-76.8957824707031,-151.33050419089517,37.569070343118916,2155271237
sw,-83.5868759155273,-77.8619766235351,-152.41214781342174,39.88025833684836,2155287904
sw,-85.3905792236328,-78.8921279907226,-149.63356263836184,42.57722601984017,2155304571
sw,-86.6261215209961,-79.9504165649414,-143.57154225223738,45.63632829881511,2155321238
sw,-86.5342254638671,-80.9719543457031,-134.94016391256596,48.928443769397866,2155337905
sw,-85.2495193481445,-81.9123764038086,-124.57469701871827,52.2433432109686,2155354572
sw,-83.5982208251953,-82.8549346923828,-113.41412579571305,55.33218891902014,2155371239
sw,-81.921272277832,-83.8524780273437,-102.44286731429843,57.961036334356024,2155387906
sw,-80.4096069335937,-84.9224090576171,-92.57093902832536,59.965030013989036,2155404573
sw,-79.1365966796875,-86.0212326049804,-84.4664204395953,61.288844775571235,2155421240
sw,-77.973892211914,-87.1090393066406,-78.38836679847086,61.99848880632527,2155437907
sw,-76.7711791992187,-88.2094345092773,-74.08486482618906,62.256677908502446,2155454574
sw,-75.5535659790039,-89.3741149902343,-70.80857545686135,62.26686783523786,2155471241
sw,-74.4393234252929,-90.0,-67.46473522919196,62.203177014821975,2155487908
sw,-73.4895248413086,-88.6652908325195,-62.8628997534827,62.148682329643584,2155504575
sw,-72.6438522338867,-87.5720672607421,-56.0131610852574,62.06143010041085,2155521242
sw,-71.8142395019531,-86.4935684204101,-46.3958082868204,61.77872073800663,2155537909
sw,-71.0608749389648,-85.4030456542968,-34.134632493802734,61.05903686254337,2155554576
sw,-70.5645370483398,-84.3062896728515,-20.016187442249556,59.64916685947039,2155571243
sw,-70.6722793579101,-83.2238464355468,-5.32849655032753,57.35382678502786,2155587910
sw,-71.233154296875,-82.1698989868164,8.451901381525403,54.08080181397166,2155604577
sw,-71.8526535034179,-81.2690505981445,20.033022795134364,49.84090066664832,2155621244
sw,-72.5771255493164,-80.5490493774414,28.615945270593492,44.699471134365865,2155637911
sw,-73.2046966552734,-79.9743423461914,34.03739985687086,38.69890855068789,2155654578
sw,-73.8599395751953,-79.5040512084961,36.71520753182753,31.788315920279757,2155671245
sw,-74.6822052001953,-79.1454391479492,37.44213898643237,23.797052831884685,2155687912
sw,-75.2679748535156,-78.9124984741211,37.11883157761191,14.471575249381965,2155704579
sw,-75.6479415893554,-78.8083267211914,36.51873086218415,3.5679139705965737,2155721246
sw,-76.2396392822265,-78.8602142333984,36.15181089160351,-9.0322090889803,2155737913
sw,-77.0712585449218,-79.1473007202148,36.25473755176541,-23.225192019839028,2155754580
sw,-78.1169967651367,-79.7858963012695,36.88855023303598,-38.64679429258332,2155771247
sw,-79.0964050292968,-80.8489074707031,38.08033997662613,-54.70614061082673,2155787914
sw,-79.7404022216796,-82.1689758300781,39.926260527905676,-70.6785987782611,2155804581
sw,-80.4053573608398,-83.5524520874023,42.59745675888197,-85.82185571283442,2155821248
sw,-81.2556076049804,-84.9158172607421,46.246339115318705,-99.47643788821523,2155837915
sw,-82.2473449707031,-85.8269271850586,50.863347274888376,-111.12640612172262,2155854582
sw,-83.2582550048828,-85.4296264648437,56.15723005608748,-120.41614302184442,2155871249
sw,-84.3269119262695,-83.9680786132812,61.522722624139455,-127.13447489037607,2155887916
sw,-85.5926971435546,-82.2156829833984,66.1285227814949,-131.18519581077072,2155904583
sw,-86.9718551635742,-80.4040832519531,69.1145804929274,-132.56364121106844,2155921250
sw,-88.3303604125976,-78.555908203125,69.84247812243873,-131.3513825787475,2155937917
sw,-90.0,-76.6717987060546,68.11461935262018,-127.72743027431753,2155954584
sw,-89.221923828125,-74.8005294799804,64.28170602313854,-121.98170500488631,2155971251
sw,-87.8708190917968,-72.9563217163086,59.19250517936687,-114.51165940022639,2155987918
sw,-86.8001022338867,-71.1053237915039,53.99161673472633,-105.78707814537378,2156004585
sw,-86.0037994384765,-69.3667373657226,49.82358822808332,-96.27910671654871,2156021252
sw,-85.3309631347656,-67.9277114868164,47.53892608363717,-86.3657974968546,2156037919
sw,-84.5989532470703,-66.7740783691406,47.50234114581902,-76.2452624521026,2156054586
sw,-83.6660919189453,-65.7644882202148,49.56635754306049,-65.89970381284817,2156071253
sw,-82.5009307861328,-64.7720870971679,53.20500028974221,-55.144997702229745,2156087920
sw,-81.2843780517578,-63.8904380798339,57.735026260170066,-43.76577811059263,2156104587
sw,-80.1798400878906,-63.2824478149414,62.52221145028241,-31.69062241019287,2156121254
sw,-79.1938171386718,-62.9916267395019,67.09319386080435,-19.13493795113738,2156137921
sw,-78.1703033447265,-63.0324020385742,71.13306573212083,-6.649583954449989,2156154588
sw,-77.0239791870117,-63.3007926940918,74.40824646063943,4.9461750411880425,2156171255
sw,-75.7912521362304,-63.6332244873046,76.6810710470661,14.724921544617496,2156187922
sw,-74.4810409545898,-64.248420715332,77.66989424913888,21.85744446929734,2156204589
sw,-73.1621017456054,-65.1104888916015,77.07274069694161,25.81397731236639,2156221256
sw,-71.8100967407226,-65.9379119873046,74.63629339527782,26.513191917155524,2156237923
sw,-70.4624328613281,-66.668586730957,70.22994798480538,24.379221700136377,2156254590
sw,-69.2729873657226,-67.3132247924804,63.88171559752837,20.283988107464243,2156271257
sw,-68.3522033691406,-67.8512725830078,55.74884460129774,15.380328095689073,2156287924
sw,-67.7123184204101,-68.1080856323242,46.02693461076204,10.861636811849976,2156304591
sw,-67.290283203125,-68.2031555175781,34.835550508540116,7.7069971940297695,2156321258
sw,-67.082160949707,-68.4575271606445,22.138676565844097,6.481884327800544,2156337925
sw,-67.0003204345703,-68.8464050292968,7.751441093968302,7.255208038888184,2156354592
sw,-67.0524749755859,-69.3451232910156,-8.549680675752345,9.657875655582961,2156371259
sw,-67.2775497436523,-70.2958602905273,-26.843574685954486,13.056546183993637,2156387926
sw,-67.7942199707031,-71.0119476318359,-46.87814207462153,16.772926145780396,2156404593
sw,-68.7639236450195,-71.3846130371093,-67.96306795658276,20.266878183523747,2156421260
sw,-70.2132720947265,-71.8906478881836,-88.99985547294665,23.229721922018463,2156437927
sw,-72.0785522460937,-72.658935546875,-108.65519825563419,25.586296818340777,2156454594
sw,-74.2916030883789,-73.6159210205078,-125.62600525159412,27.444331085400012,2156471261
sw,-76.6928634643554,-74.5867385864257,-138.90671078550477,29.032689653807363,2156487928
sw,-78.9549865722656,-75.4871749877929,-147.9688156535206,30.646519486591973,2156504595
sw,-81.0269012451171,-76.3506546020507,-152.79991866525123,32.59561404855984,2156521262
sw,-82.9429779052734,-77.2618637084961,-153.8083147873912,35.14811804131483,2156537929
sw,-84.601089477539,-78.2159194946289,-151.6507922801419,38.470493217483366,2156554596
sw,-85.6933441162109,-79.2065200805664,-147.0598893756875,42.57483303404298,2156571263
sw,-85.7758026123046,-80.2106246948242,-140.72713826460327,47.28909537394078,2156587930
sw,-84.7774124145507,-81.1775512695312,-133.25759622054866,52.26390844182749,2156604597
sw,-83.1764907836914,-82.1608123779296,-125.17267958261505,57.02295578397501,2156621264
sw,-81.388671875,-83.2330551147461,-116.91980089683567,61.05343483343097,2156637931
sw,-79.6391830444336,-84.3925552368164,-108.85332275067027,63.91951959358533,2156654598
sw,-78.0354309082031,-85.647834777832,-101.17665613728684,65.36882837711534,2156671265
sw,-76.5679855346679,-86.8899536132812,-93.86707773895697,65.39675330521192,2156687932
sw,-75.1805648803711,-88.0381622314453,-86.62662554653352,64.24264112527409,2156704599
sw,-73.8639831542968,-89.1613998413086,-78.90234438338186,62.31510580790452,2156721266
sw,-72.6873931884765,-90.0,-69.99687406521187,60.07168892908531,2156737933
sw,-71.7271881103515,-89.2412719726562,-59.25673396569551,57.895687011433374,2156754600
sw,-70.9510803222656,-88.0745086669921,-46.2947507935033,56.009980651850015,2156771267
sw,-70.3252639770507,-87.0633544921875,-31.184325736722005,54.44729608243087,2156787934
sw,-69.938117980957,-86.1200561523437,-14.560411690474075,53.072586389704405,2156804601
sw,-69.9091033935546,-85.2234497070312,2.4222941028637845,51.63888258936512,2156821268
sw,-70.3921890258789,-84.3326187133789,18.287062076001057,49.85542253177448,2156837935
sw,-71.27099609375,-83.4203491210937,31.549739707519628,47.45041495205487,2156854602
sw,-72.3067245483398,-82.5007705688476,41.06246756412919,44.21476346965585,2156871269
sw,-73.2316818237304,-81.6754379272461,46.28008709190015,40.0167341186282,2156887936
sw,-74.2650527954101,-81.0613708496093,47.36885258875341,34.784058936384206,2156904603
sw,-75.2935714721679,-80.6654205322265,45.13471897148709,28.461574793149413,2156921270
sw,-76.2994384765625,-80.4562301635742,40.80624077333845,20.965947082751985,2156937937
sw,-76.8742141723632,-80.3595352172851,35.74190944673055,12.1657146279574,2156954604
sw,-77.0045089721679,-80.3386306762695,31.143412617856296,1.9071192883658983,2156971271
sw,-77.3965835571289,-80.4194869995117,27.852283912516583,-9.915364388828367,2156987938
sw,-78.147964477539,-80.6713790893554,26.282460485155312,-23.269500412541223,2157004605
sw,-78.9261398315429,-81.2609024047851,26.488461170051192,-37.9156069068352,2157021272
sw,-79.4319305419921,-82.298828125,28.308793034731117,-53.38857219389755,2157037939
sw,-79.8116149902343,-83.6014175415039,31.49869628322597,-69.04018932261268,2157054606
sw,-80.5083389282226,-85.0990371704101,35.7935630063871,-84.12538754911375,2157071273
sw,-81.3335418701171,-86.5882110595703,40.89749747961055,-97.90308864116389,2157087940
sw,-82.2536468505859,-87.1065979003906,46.43186681853064,-109.72467978627235,2157104607
sw,-83.2166442871093,-85.8764038085937,51.893117118556624,-119.09380814090471,2157121274
sw,-84.2345962524414,-83.9916915893554,56.66467524010832,-125.6937497988013,2157137941
sw,-85.3918151855468,-82.0528564453125,60.10791207199727,-129.38961038201455,2157154608
sw,-86.5705795288086,-80.1199645996093,61.72124590223562,-130.21808251418966,2157171275
sw,-87.6136169433593,-78.2005081176757,61.315542443039284,-128.37382432159077,2157187942
sw,-88.5366058349609,-76.1885375976562,59.13108001829272,-124.19124806394834,2157204609
sw,-89.051887512207,-74.1558532714843,55.83311120296585,-118.11171836634215,2157221276
sw,-88.5772857666015,-72.1524963378906,52.36592816182298,-110.62572864881656,2157237943
sw,-87.7990417480468,-70.2820129394531,49.700407097387014,-102.18931761833255,2157254610
sw,-87.0955963134765,-68.6349182128906,48.55578578904124,-93.13093194190887,2157271277
sw,-86.3719406127929,-67.2313156127929,49.19539774877993,-83.58169632404947,2157287944
sw,-85.4787521362304,-65.9609680175781,51.37666696933267,-73.46726869232783,2157304611
sw,-84.345458984375,-64.7260818481445,54.47858086381052,-62.58368651891375,2157321278
sw,-83.0615539550781,-63.6036109924316,57.75561712777659,-50.744485250820446,2157337945
sw,-81.8134994506836,-62.7618560791015,60.61132870255723,-37.94842605988872,2157354612
sw,-80.7106704711914,-62.308853149414,62.77801118010885,-24.49952917857292,2157371279
sw,-79.7409591674804,-62.1884422302246,64.33547687951874,-11.026849727871316,2157387946
sw,-78.8003845214843,-62.3721389770507,65.57649219604805,1.6076324367891073,2157404613
sw,-77.8437805175781,-62.5667724609375,66.7904662001875,12.482398563814883,2157421280
sw,-76.7937316894531,-63.0413970947265,68.06264504825066,20.817755472087274,2157437947
sw,-75.6815109252929,-63.8832321166992,69.16888770013034,26.151838254596413,2157454614
sw,-74.5124740600586,-64.6940612792968,69.60098743167326,28.450014954939,2157471281
sw,-73.2490005493164,-65.3670578002929,68.70573077748153,28.12301224235856,2157487948
sw,-71.9113998413086,-66.1326141357421,65.87960590576336,25.949629548806932,2157504615
sw,-70.6133956909179,-66.8262481689453,60.741053355904285,22.920794834592268,2157521282
sw,-69.6030960083007,-67.1216278076171,53.210247129890625,20.03632464847663,2157537949
sw,-69.0088424682617,-67.3355407714843,43.464442118478345,18.09608068965431,2157554616
sw,-68.7752151489257,-67.5989303588867,31.794664072810257,17.53788973680785,2157571283
sw,-68.7538757324218,-68.0628509521484,18.441100984618835,18.37584455225036,2157587950
sw,-68.7942504882812,-68.8244552612304,3.499490460626157,20.267302706689858,2157604617
sw,-68.8193054199218,-70.0262832641601,-13.044883181251171,22.685785365373146,2157621284
sw,-68.9404296875,-71.0122451782226,-31.169102699428315,25.12653306448191,2157637951
sw,-69.5199737548828,-71.5732345581054,-50.629015740933646,27.256497518732264,2157654618
sw,-70.6562042236328,-72.0870590209961,-70.83974339702034,28.95674996524789,2157671285
sw,-72.2716522216796,-72.8030700683593,-90.8847391683185,30.27033613245935,2157687952
sw,-74.2349395751953,-73.7306213378906,-109.64998464485103,31.31484149191205,2157704619
sw,-76.363166809082,-74.7632141113281,-126.02160970565335,32.21636048924936,2157721286
sw,-78.5478897094726,-75.7359237670898,-139.06738960069288,33.084684432453486,2157737953
sw,-80.6636962890625,-76.6200103759765,-148.1473777120479,34.01584471341831,2157754620
sw,-82.7241134643554,-77.517951965332,-152.9447273344028,35.0992648729318,2157771287
sw,-84.6335983276367,-78.460823059082,-153.44598700707434,36.4165566794845,2157787954
sw,-86.0521163940429,-79.4203720092773,-149.91171629348875,38.03066623549447,2157804621
sw,-86.4235153198242,-80.3062133789062,-142.8621938113748,39.969286386804896,2157821288
sw,-85.4419479370117,-81.0784378051757,-133.07361782703194,42.20825466681078,2157837955
sw,-83.8107147216796,-81.8066711425781,-121.55587288485009,44.66363306994647,2157854622
sw,-82.0812606811523,-82.5575103759765,-109.47640694428458,47.20332160836877,2157871289
sw,-80.456184387207,-83.4439926147461,-98.0104189551799,49.6842497656813,2157887956
sw,-79.0848693847656,-84.4549713134765,-88.13110761883918,52.0074707548812,2157904623
sw,-77.9544830322265,-85.5067749023437,-80.39189608516432,54.16753772611344,2157921290
sw,-76.840835571289,-86.5345153808593,-74.77603586211156,56.26599864754725,2157937957
sw,-75.597915649414,-87.5130462646484,-70.68098077073603,58.46961265806328,2157954624
sw,-74.338150024414,-88.4667282104492,-67.06278100971193,60.919204891682135,2157971291
sw,-73.2172012329101,-89.3873825073242,-62.707612416505626,63.622039311509354,2157987958
sw,-72.2811050415039,-89.2267074584961,-56.552906200252,66.37415173180979,2158004625
sw,-71.482666015625,-88.0868453979492,-47.9686700735262,68.75136023591803,2158021292
sw,-70.8407821655273,-86.8250350952148,-36.92756841236175,70.18205039608578,2158037959
sw,-70.4725799560546,-85.5457916259765,-24.024606817035846,70.08312529082147,2158054626
sw,-70.3166351318359,-84.2781677246093,-10.342355776351143,68.01595781300242,2158071293
sw,-70.5271759033203,-83.0167770385742,2.807374032281792,63.810150374622424,2158087960
sw,-71.1144256591796,-81.8474807739257,14.201481201989875,57.61102442139864,2158104627
sw,-71.6845550537109,-80.9540634155273,22.99644072834293,49.82941743275715,2158121294
sw,-72.3673477172851,-80.3649749755859,28.90660871895221,41.0047707127167,2158137961
sw,-73.0679092407226,-79.9995422363281,32.21788198742846,31.625814192507757,2158154628
sw,-73.7063980102539,-79.7804641723632,33.64075923821555,21.973476895176457,2158171295
sw,-74.1796188354492,-79.6320648193359,34.061855629700084,12.045573307217497,2158187962
sw,-74.5410842895507,-79.5569381713867,34.28458984845457,1.5916719146132448,2158204629
sw,-75.0997848510742,-79.5885620117187,34.847520519285254,-9.757004194487216,2158221296
sw,-75.8889541625976,-79.8107833862304,35.97337883103052,-22.313777097183156,2158237963
sw,-76.9021987915039,-80.3313827514648,37.64526213462641,-36.18302488767631,2158254630
sw,-78.0105285644531,-81.2655334472656,39.75255554432612,-51.1774488190378,2158271297
sw,-78.7444686889648,-82.5209426879882,42.22482899465,-66.82424220385083,2158287964
sw,-79.3408050537109,-83.9488372802734,45.08970614970037,-82.44383808291485,2158304631
sw,-80.2267227172851,-85.4302749633789,48.43710486784337,-97.26417003678738,2158321298
sw,-81.2752380371093,-86.4546966552734,52.31751329819921,-110.53256514691137,2158337965
sw,-82.3269348144531,-85.9704208374023,56.62556506467332,-121.60076038333938,2158354632
sw,-83.4126892089843,-84.2438812255859,61.023326170797354,-129.97553484250062,2158371299
sw,-84.6039886474609,-82.2289581298828,64.94766099612158,-135.34049928819607,2158387966
sw,-85.8562698364257,-80.2432174682617,67.72096493332303,-137.56027583727698,2158404633
sw,-87.0783233642578,-78.3171844482421,68.7442017904361,-136.67623650330523,2158421300
sw,-88.2613372802734,-76.3825149536132,67.71089787810138,-132.89660626170723,2158437967
sw,-89.0943222045898,-74.4286575317382,64.76229084687672,-126.57881049750925,2158454634
sw,-88.5959777832031,-72.4913635253906,60.51748045890038,-118.20085879942661,2158471301
sw,-87.6945495605468,-70.5821685791015,55.953146984596025,-108.31871144285839,2158487968
sw,-86.9018096923828,-68.737678527832,52.16138740559901,-97.50640613378098,2158504635
sw,-86.139533996582,-67.1633605957031,50.06262955971377,-86.2795288018662,2158521302
sw,-85.3378067016601,-65.9245910644531,50.17215855168566,-75.01544046284451,2158537969
sw,-84.4246597290039,-64.9167251586914,52.49950890455143,-63.90072840501063,2158554636
sw,-83.3419189453125,-63.9807472229003,56.60525795239144,-52.94110328882444,2158571303
sw,-82.0740737915039,-63.095287322998,61.77514256727314,-42.04737092180521,2158587970
sw,-80.7567367553711,-62.4002418518066,67.22838311760819,-31.169699306252486,2158604637
sw,-79.549446105957,-62.0268287658691,72.27562936879872,-20.418795880863758,2158621304
sw,-78.4336547851562,-62.0405197143554,76.38074442526514,-10.113637331637834,2158637971
sw,-77.2985382080078,-62.1582679748535,79.13753581113319,-0.7323632735425167,2158654638
sw,-76.0924987792968,-62.2911949157714,80.21563220054801,7.210806153111203,2158671305
sw,-74.7799682617187,-62.7435646057128,79.33597244099545,13.313878924175649,2158687972
sw,-73.3766784667968,-63.3421630859375,76.30547467934333,17.412539895941656,2158704639
sw,-71.925048828125,-63.9011001586914,71.09297271657061,19.647763650368795,2158721306
sw,-70.6322708129882,-64.5315399169921,63.89227295314135,20.455553141535272,2158737973
sw,-69.6586456298828,-65.2033767700195,55.11384746081282,20.4762795636102,2158754640
sw,-68.9866180419921,-65.699592590332,45.27820505994736,20.401834457850555,2158771307
sw,-68.5581817626953,-66.0805511474609,34.83591050960287,20.798872583218948,2158787974
sw,-68.3542098999023,-66.404426574707,23.98413668995957,21.961227106153668,2158804641
sw,-68.3286437988281,-66.9900512695312,12.563895774345196,23.846104317075717,2158821308
sw,-68.3608474731445,-67.9829559326171,0.09809817281807981,26.125534654053894,2158837975
sw,-68.4355773925781,-69.1363754272461,-14.022507114795642,28.33698046088011,2158854642
sw,-68.6058731079101,-70.2872619628906,-30.26049197500665,30.068727989218374,2158871309
sw,-69.0752487182617,-71.0968856811523,-48.66058823951667,31.099956982745972,2158887976
sw,-70.0429382324218,-71.6287536621093,-68.69325377155347,31.445273081751346,2158904643
sw,-71.5995635986328,-72.2813415527343,-89.27934571126558,31.308585354936817,2158921310
sw,-73.5551376342773,-73.2023086547851,-108.99009868136206,30.993506301710685,2158937977
sw,-75.6938400268554,-74.2819747924804,-126.34757144634709,30.8214710657454,2158954644
sw,-77.9002380371093,-75.2545166015625,-140.11902339889824,31.08091386118789,2158971311
sw,-80.0426864624023,-76.1326599121093,-149.51647949155796,32.000430807073364,2158987978
sw,-82.0661544799804,-77.0087966918945,-154.26423227381574,33.72897838678291,2159004645
sw,-83.9324645996093,-77.9263000488281,-154.55195066488406,36.31528982210802,2159021312
sw,-85.3728485107421,-78.9204711914062,-150.9242892685373,39.6903588694702,2159037979
sw,-85.9664840698242,-79.9059295654296,-144.16064553660033,43.660371591458386,2159054646
sw,-85.3367919921875,-80.7997207641601,-135.1777787924649,47.91543728825873,2159071313
sw,-83.924201965332,-81.6810073852539,-124.95794026792285,52.05863558008093,2159087980
sw,-82.2195434570312,-82.5925750732421,-114.48104428987628,55.660366521059615,2159104647
sw,-80.4885940551757,-83.6224365234375,-104.6329453519839,58.338297236207346,2159121314
sw,-78.9223251342773,-84.7564163208007,-96.07787066210848,59.84974649753817,2159137981
sw,-77.608154296875,-85.8910598754882,-89.11557041491976,60.167480509934755,2159154648
sw,-76.4089202880859,-86.963394165039,-83.57587562464595,59.504411094926475,2159171315
sw,-75.1628189086914,-87.9668350219726,-78.81346058061452,58.266056171039274,2159187982
sw,-73.8960189819336,-88.9489135742187,-73.84033833698349,56.93773275928255,2159204649
sw,-72.7028503417968,-90.0,-67.58067484033045,55.941436426605726,2159221316
sw,-71.6653747558593,-89.3889846801757,-59.17918035939256,55.510130422072905,2159237983
sw,-70.8504486083984,-88.3370513916015,-48.2685182720006,55.61945211434315,2159254650
sw,-70.254165649414,-87.3200759887695,-35.112391442080295,55.99471712688755,2159271317
sw,-69.9203033447265,-86.2909698486328,-20.579039943392655,56.185732077934894,2159287984
sw,-69.8684768676757,-85.2741241455078,-5.947912316413653,55.68251839027781,2159304651
sw,-70.2301177978515,-84.2482376098632,7.401840287544718,54.03598191613433,2159321318
sw,-71.017593383789,-83.2236175537109,18.335805581713032,50.94919580401276,2159337985
sw,-71.6190795898437,-82.3373336791992,26.239094313407158,46.31552955930479,2159354652
sw,-72.3310623168945,-81.6572952270507,31.13445118239171,40.19678116944857,2159371319
sw,-73.1202926635742,-81.1369857788086,33.60811686542222,32.75389939161501,2159387986
sw,-73.8478317260742,-80.7944259643554,34.57534088479344,24.15859989497724,2159404653
sw,-74.3884887695312,-80.6302795410156,34.97120785065592,14.519662709128877,2159421320
sw,-74.7139282226562,-80.6124038696289,35.47511153041416,3.850737199369255,2159437987
sw,-75.1741256713867,-80.7427139282226,36.365318157305936,-7.909403849845954,2159454654
sw,-76.1536407470703,-81.0614395141601,37.55311449499425,-20.831669224142477,2159471321
sw,-77.299072265625,-81.6509475708007,38.77139599863035,-34.90882334316592,2159487988
sw,-78.4063110351562,-82.4924011230468,39.82005543691505,-49.97413591475901,2159504655
sw,-79.1428451538086,-83.5475158691406,40.74369445601763,-65.65330214306758,2159521322
sw,-79.7125396728515,-84.8380279541015,41.856659689086186,-81.36681714787396,2159537989
sw,-80.4350967407226,-86.0912399291992,43.61086571962869,-96.38558456320509,2159554656
sw,-81.3030242919921,-86.5481567382812,46.37362282958538,-109.92626149089487,2159571323
sw,-82.2534408569336,-85.4265441894531,50.21363734049637,-121.26007571237594,2159587990
sw,-83.2317504882812,-83.373664855957,54.784170338243825,-129.80620219825934,2159604657
sw,-84.3556594848632,-81.1680679321289,59.35730845129062,-135.19016088334106,2159621324
sw,-85.6406326293945,-79.0290298461914,63.01196071127615,-137.26316290179537,2159637991
sw,-86.9146652221679,-77.0283737182617,64.92079241375909,-136.09084792246333,2159654658
sw,-88.1818923950195,-75.0842819213867,64.63849123037261,-131.92446346391608,2159671325
sw,-89.5984649658203,-73.1790771484375,62.28679832268068,-125.16493627463426,2159687992
sw,-89.2669830322265,-71.3072052001953,58.564779843984326,-116.3234200009132,2159704659
sw,-88.0819396972656,-69.4433517456054,54.57153052642641,-105.97429281335545,2159721326
sw,-87.2005386352539,-67.7377853393554,51.49280981606557,-94.69353943399288,2159737993
sw,-86.4126968383789,-66.368049621582,50.253990053978136,-82.98280011418755,2159754660
sw,-85.5824356079101,-65.2781524658203,51.2594911742174,-71.19703613119691,2159771327
sw,-84.6187591552734,-64.3345489501953,54.30927679097192,-59.5100044385742,2159787994
sw,-83.4991149902343,-63.4369621276855,58.71270724738209,-47.948248373832385,2159804661
sw,-82.2227706909179,-62.6149826049804,63.5410726040484,-36.4935853945877,2159821328
sw,-80.9420166015625,-62.1175193786621,67.91122654247008,-25.21237676848386,2159837995
sw,-79.8150100708007,-62.0114860534668,71.19517594996239,-14.34785665573812,2159854662
sw,-78.7290802001953,-62.1709556579589,73.09775872852737,-4.327760562251178,2159871329
sw,-77.5893402099609,-62.3358039855957,73.60839594448078,4.318289741446316,2159887996
sw,-76.409927368164,-62.7580871582031,72.88006436551011,11.09856223519559,2159904663
sw,-75.2569580078125,-63.3317413330078,71.10057787706712,15.707035421977983,2159921330
sw,-74.1252136230468,-63.9443283081054,68.40269948341762,18.133255121104582,2159937997
sw,-72.9683074951171,-64.5237350463867,64.82858456883181,18.700171210819953,2159954664
sw,-71.8422546386718,-65.1029357910156,60.336515901205786,18.013949995663218,2159971331
sw,-70.7814483642578,-65.6151657104492,54.82227522775165,16.83357169618108,2159987998
sw,-69.9066162109375,-65.9033889770507,48.12786706892213,15.892233501412118,2160004665
sw,-69.3315963745117,-66.1428527832031,40.02730197137939,15.720220531684742,2160021332
sw,-69.0703964233398,-66.5521087646484,30.20638423433789,16.524311005826934,2160037999
sw,-68.9919662475586,-67.1830825805664,18.275636168114854,18.165955320218696,2160054666
sw,-68.9227600097656,-68.0897979736328,3.8540688605428466,20.24784820031828,2160071333
sw,-68.8060302734375,-69.090103149414,-13.272006417712081,22.27697315401828,2160088000
sw,-69.0321044921875,-70.0635604858398,-32.9625918804312,23.84197236767508,2160104667
sw,-69.7850570678711,-70.722183227539,-54.593915171305895,24.740260393902762,2160121334
sw,-71.0166091918945,-71.2379684448242,-77.06013257214916,25.01754807544729,2160138001
sw,-72.7572555541992,-71.8140563964843,-98.92900432583605,24.924258056194894,2160154668
sw,-74.8555755615234,-72.5845031738281,-118.70611312387976,24.82543941037703,2160171335
sw,-77.0751190185546,-73.4602508544921,-135.1178164956101,25.106534687821387,2160188002
sw,-79.2800064086914,-74.2833862304687,-147.32213587603144,26.100331486718186,2160204669
sw,-81.4789428710937,-75.0558624267578,-154.99433357387883,28.039276539061152,2160221336
sw,-83.4965133666992,-75.8718490600586,-158.28685242492486,31.027417123674507,2160238003
sw,-85.1483688354492,-76.7501983642578,-157.70503036853034,35.027899530598276,2160254670
sw,-86.0690155029296,-77.7003936767578,-153.95554110346737,39.86562093443885,2160271337
sw,-85.705451965332,-78.6763076782226,-147.81465731975828,45.24408461849215,2160288004
sw,-84.2843017578125,-79.6259536743164,-140.03830743747838,50.773539579623254,2160304671
sw,-82.3970794677734,-80.5515899658203,-131.30810847441444,56.00928559329101,2160321338
sw,-80.3905944824218,-81.5468139648437,-122.18948531900351,60.50343866907269,2160338005
sw,-78.5124740600586,-82.6547698974609,-113.0789040988721,63.87317241356118,2160354672
sw,-76.8952713012695,-83.8536911010742,-104.1381758374196,65.87863094078435,2160371339
sw,-75.5126647949218,-85.1122436523437,-95.24377478982485,66.4889157682475,2160388006
sw,-74.2356414794921,-86.326675415039,-85.99808174230094,65.90640888932928,2160404673
sw,-73.0040588378906,-87.4471817016601,-75.83937270140174,64.52765901408844,2160421340
sw,-71.8179626464843,-88.4993667602539,-64.24612898268312,62.842425322870994,2160438007
sw,-70.7705841064453,-89.8658294677734,-50.97794431514707,61.29944581499004,2160454674
sw,-70.0322570800781,-90.0,-36.260431005453206,60.18234030103648,2160471341
sw,-69.6207656860351,-88.6997451782226,-20.828191817114707,59.53320217380632,2160488008
sw,-69.705093383789,-87.5894622802734,-5.78940902805726,59.13967917111126,2160504675
sw,-70.0653610229492,-86.4970321655273,7.65366899516845,58.57736033073956,2160521342
sw,-70.7348480224609,-85.4587783813476,18.534664307754294,57.28514647517702,2160538009
sw,-71.3870391845703,-84.5098114013671,26.388425790682202,54.65065011956789,2160554676
sw,-71.9617767333984,-83.644546508789,31.361636933322742,50.091184611892004,2160571343
sw,-72.8532180786132,-82.8622741699218,34.13562249120461,43.12564836878454,2160588010
sw,-73.6721801757812,-82.2685852050781,35.69090242604281,33.43740015173068,2160604677
sw,-74.3153915405273,-81.940071105957,36.989657178047196,20.927211703028405,2160621344
sw,-74.7802734375,-81.8884811401367,38.67720557078979,5.752000032945605,2160638011
sw,-75.2357559204101,-82.0576171875,40.90574555870011,-11.657888379456105,2160654678
sw,-76.2166519165039,-82.4829788208007,43.35267223673996,-30.612210135754243,2160671345
sw,-77.5710983276367,-83.3282318115234,45.43453070512676,-50.21429048400622,2160688012
sw,-79.0139083862304,-84.7100219726562,46.628098371554344,-69.45640870275595,2160704679
sw,-80.1456298828125,-86.2120895385742,46.753342526351574,-87.3443106001301,2160721346
sw,-80.6629180908203,-87.54345703125,46.09092285035242,-103.02414878239547,2160738013
sw,-81.2199096679687,-87.4351730346679,45.29173197326959,-115.88235502678859,2160754680
sw,-81.9110946655273,-85.5312118530273,45.13314577490493,-125.59718586991919,2160771347
sw,-82.6950302124023,-83.053726196289,46.231360052353835,-132.1322536233269,2160788014
sw,-83.6751937866211,-80.5035858154296,48.8172621519009,-135.6743460939843,2160804681
sw,-84.656509399414,-78.005744934082,52.645989269266785,-136.53247783004005,2160821348
sw,-85.7345581054687,-75.674087524414,57.06157483391001,-135.02943569793302,2160838015
sw,-86.9177093505859,-73.4994583129882,61.18998580571608,-131.4219025425083,2160854682
sw,-88.1587829589843,-71.4670333862304,64.19590999693102,-125.87523176313027,2160871349
sw,-89.4380264282226,-69.5419158935546,65.5222297432814,-118.49799981402015,2160888016
sw,-89.2114334106445,-67.6238861083984,65.04112429211536,-109.41814215770758,2160904683
sw,-87.7593002319336,-65.8044738769531,63.07570532088174,-98.8645627684265,2160921350
sw,-86.5249252319336,-64.1433181762695,60.28959922190591,-87.21244493845747,2160938017
sw,-85.6348419189453,-62.8224563598632,57.48065706646253,-74.96321474313315,2160954684
sw,-84.914077758789,-61.900032043457,55.34710522752023,-62.660902253483776,2160971351
sw,-84.1915435791015,-61.2034339904785,54.307598703286516,-50.7819013870197,2160988018
sw,-83.211441040039,-60.5366287231445,54.43694000887131,-39.652103136094574,2161004685
sw,-81.9821090698242,-60.0006294250488,55.527579966371746,-29.42957217657952,2161021352
sw,-80.8467254638671,-59.7246627807617,57.22831647712464,-20.151559115914925,2161038019
sw,-79.9273147583007,-59.6599082946777,59.18154258650667,-11.809542030639289,2161054686
sw,-79.0967788696289,-59.7161598205566,61.09776007728368,-4.407828085568154,2161071353
sw,-78.1431655883789,-59.9320755004882,62.75545470292737,2.020243420364625,2161088020
sw,-77.0875701904296,-60.2913360595703,63.958619645759754,7.436514561712932,2161104687
sw,-76.0096893310546,-60.841022491455,64.49647905722064,11.840113877214247,2161121354
sw,-74.9329071044921,-61.3469085693359,64.13282117572238,15.299781559239962,2161138021
sw,-73.8454895019531,-62.0285873413085,62.62630485696969,17.95901991589269,2161154688
sw,-72.7574844360351,-62.8396682739257,59.764627184211406,20.014690965041854,2161171355
sw,-71.7053298950195,-63.5703201293945,55.38912445498358,21.682658730008114,2161188022
sw,-70.8330078125,-64.2744750976562,49.39136490410226,23.164548446627148,2161204689
sw,-70.2257690429687,-65.1830749511718,41.678568144845144,24.6219107377891,2161221356
sw,-69.843765258789,-66.0358810424804,32.126337321130165,26.157060917281093,2161238023
sw,-69.6222305297851,-66.6602325439453,20.55451095283416,27.79940118531654,2161254690
sw,-69.5759811401367,-67.6072845458984,6.761384845067238,29.502109372460474,2161271357
sw,-69.5963592529296,-68.6993560791015,-9.372658266117925,31.1583714980031,2161288024
sw,-69.767463684082,-69.6420288085937,-27.739896265450543,32.63874038058509,2161304691
sw,-70.3545455932617,-70.246711730957,-47.878865180047974,33.83611806741938,2161321358
sw,-71.4383926391601,-70.8193664550781,-68.93263797325447,34.69938544906687,2161338025
sw,-72.9624862670898,-71.6548156738281,-89.72794586631076,35.24693572660151,2161354692
sw,-74.8431396484375,-72.6346054077148,-108.96023423212701,35.56403718880688,2161371359
sw,-76.9614486694336,-73.6543426513671,-125.42468276953063,35.79018916264726,2161388026
sw,-79.1307220458984,-74.5959320068359,-138.21689238439268,36.09794898018566,2161404693
sw,-81.0869903564453,-75.4695205688476,-146.84475391985393,36.664066939933264,2161421360
sw,-82.8127517700195,-76.4024505615234,-151.23366440216193,37.63904014665896,2161438027
sw,-84.2242660522461,-77.4006881713867,-151.65024087064063,39.12388210695727,2161454694
sw,-85.1880569458007,-78.4032363891601,-148.5946166467136,41.15703335029045,2161471361
sw,-85.3359146118164,-79.3394546508789,-142.70809850217216,43.705731630196105,2161488028
sw,-84.5349960327148,-80.1706924438476,-134.7170352394845,46.656239808730795,2161504695
sw,-83.1260833740234,-80.9451599121093,-125.40241482376604,49.808585359501016,2161521362
sw,-81.4764251708984,-81.8066253662109,-115.56577489088649,52.89247773173692,2161538029
sw,-79.798843383789,-82.7957077026367,-105.9642490897249,55.617680846272876,2161554696
sw,-78.2142105102539,-83.88720703125,-97.20795640290656,57.752288003456776,2161571363
sw,-76.7796630859375,-85.0122146606445,-89.64053525379987,59.19921887665172,2161588030
sw,-75.4669799804687,-86.1003723144531,-83.24530014580823,60.032425753568276,2161604697
sw,-74.2521896362304,-87.1228790283203,-77.62407409737297,60.468080419701145,2161621364
sw,-73.0982360839843,-88.0964889526367,-72.07796439989603,60.77595127084427,2161638031
sw,-71.9888000488281,-89.1537399291992,-65.7839962727475,61.16580776930822,2161654698
sw,-70.9830245971679,-90.0,-58.02332119851015,61.69652286050304,2161671365
sw,-70.2216262817382,-89.0960464477539,-48.39343476363433,62.24451102540989,2161688032
sw,-69.6547012329101,-87.8249816894531,-36.93944261057996,62.539754159008815,2161704699
sw,-69.2648696899414,-86.6241455078125,-24.165845112214168,62.24780518929029,2161721366
sw,-69.2704315185546,-85.5065689086914,-10.927712315843483,61.059878754949445,2161738033
sw,-69.3851928710937,-84.5005416870117,1.7662201653785492,58.756299390600276,2161754700
sw,-69.6736373901367,-83.5584716796875,12.98554442062814,55.22630791136137,2161771367
sw,-70.2051467895507,-82.6735916137695,22.08763367952128,50.44813854934183,2161788034
sw,-71.0806732177734,-81.8769226074218,28.854308994117712,44.446607135941676,2161804701
sw,-72.0617218017578,-81.2137451171875,33.51909134240592,37.24750483453062,2161821368
sw,-72.8723831176757,-80.7303466796875,36.66926403822346,28.84304266472952,2161838035
sw,-73.6030502319336,-80.4586334228515,39.04145325422732,19.176904897966885,2161854702
sw,-74.2825393676757,-80.4092102050781,41.272997548641,8.154031658566973,2161871369
sw,-74.8983154296875,-80.5360870361328,43.701008843354465,-4.322690102862665,2161888036
sw,-75.7227325439453,-80.8095703125,46.292326529699416,-18.29250270013605,2161904703
sw,-76.9925842285156,-81.2789764404296,48.73609806038406,-33.66697636535917,2161921370
sw,-78.4859771728515,-82.0898666381836,50.65649740463519,-50.172781777590195,2161938037
sw,-79.7097930908203,-83.3459854125976,51.8429515927175,-67.33019360558364,2161954704
sw,-80.4378890991211,-84.8135986328125,52.386497433844724,-84.47911813488545,2161971371
sw,-81.1818771362304,-86.3257064819336,52.66292786031451,-100.84714315262066,2161988038
sw,-82.1613082885742,-87.3757934570312,53.18166334818819,-115.64162477945462,2162004705
sw,-83.1402740478515,-86.5997543334961,54.373656100230676,-128.144329400541,2162021372
sw,-84.0619506835937,-84.3624649047851,56.40305328908732,-137.788720596461,2162038039
sw,-85.065933227539,-81.7997970581054,59.07176373631128,-144.20406717257765,2162054706
sw,-86.2826919555664,-79.3600387573242,61.85761809072592,-147.2199636403846,2162071373
sw,-87.6458206176757,-77.1011505126953,64.08330902344355,-146.84001274941224,2162088040
sw,-88.9663772583007,-74.9024276733398,65.1605118919153,-143.20636407074133,2162104707
sw,-90.0,-72.7520523071289,64.81743781406156,-136.57712431920757,2162121374
sw,-88.6222915649414,-70.6322937011718,63.22106288036832,-127.32409059365872,2162138041
sw,-87.2104873657226,-68.5710144042968,60.94460782317588,-115.93783155958252,2162154708
sw,-86.0364151000976,-66.5975875854492,58.786963549503724,-103.01441712026457,2162171375
sw,-85.1310348510742,-64.8718795776367,57.50544885178225,-89.20224288180526,2162188042
sw,-84.3339691162109,-63.5391464233398,57.56107656275281,-75.10885186282054,2162204709
sw,-83.4770126342773,-62.5189361572265,58.97835592009597,-61.19714769853106,2162221376
sw,-82.3340759277343,-61.648941040039,61.378008958683196,-47.72004018038657,2162238043
sw,-80.8822555541992,-60.8746147155761,64.16316607244619,-34.73452849862339,2162254710
sw,-79.5060195922851,-60.3708763122558,66.76619263700549,-22.198718565978222,2162271377
sw,-78.4000625610351,-60.1599235534668,68.83755929936683,-10.109875597550277,2162288044
sw,-77.4293060302734,-60.1617813110351,70.29697335456912,1.3815569096521596,2162304711
sw,-76.3855209350586,-60.3722267150878,71.2451655757498,11.934105420495747,2162321378
sw,-75.2819061279296,-60.9209938049316,71.80245529144557,21.068014578936385,2162338045
sw,-74.1488571166992,-61.5370216369628,71.96142971307604,28.284380574976,2162354712
sw,-72.9572982788086,-62.3347740173339,71.51606643698665,33.20538071092498,2162371379
sw,-71.6930999755859,-63.3022689819335,70.08348357952005,35.69083799822015,2162388046
sw,-70.4132537841796,-64.2691879272461,67.19257877333972,35.8997223270539,2162404713
sw,-69.2074279785156,-65.1507797241211,62.39069119454709,34.28079334318118,2162421380
sw,-68.2472076416015,-65.9146652221679,55.32083008175486,31.492168225936137,2162438047
sw,-67.5943832397461,-66.5163345336914,45.74617231153217,28.26806441501563,2162454714
sw,-67.205337524414,-67.0274047851562,33.53398679888713,25.269990371301212,2162471381
sw,-67.0583724975586,-67.5369644165039,18.638592420136753,22.9695501314734,2162488048
sw,-67.0960845947265,-68.3393936157226,1.1248588707191876,21.60080632233788,2162504715
sw,-67.1957626342773,-69.3599853515625,-18.75408501928008,21.190244538305176,2162521382
sw,-67.5088500976562,-70.1852874755859,-40.45500419800216,21.635344196796588,2162538049
sw,-68.3889389038086,-70.5498046875,-63.08170512975815,22.78365113353095,2162554716
sw,-69.8850402832031,-70.9992752075195,-85.42196324399312,24.47884078876455,2162571383
sw,-71.6762542724609,-71.7176361083984,-106.10310966834427,26.57509966024818,2162588050
sw,-73.7856979370117,-72.6593246459961,-123.82751512164992,28.943885965819184,2162604717
sw,-76.1513290405273,-73.6693496704101,-137.61034310534777,31.490486613187766,2162621384
sw,-78.4610290527343,-74.6594161987304,-146.94074764873253,34.17527339559379,2162638051
sw,-80.5987091064453,-75.6022338867187,-151.81996849041062,37.02076044956108,2162654718
sw,-82.5272216796875,-76.5519409179687,-152.6785732350839,40.09056891382976,2162671385
sw,-84.230239868164,-77.5445556640625,-150.21920187472364,43.44240121821743,2162688052
sw,-85.5018539428711,-78.6079635620117,-145.25066000096476,47.071211297609295,2162704719
sw,-85.8412628173828,-79.6808090209961,-138.56579714619906,50.86387902159254,2162721386
sw,-85.0421981811523,-80.6794509887695,-130.87972539993797,54.58371968042213,2162738053
sw,-83.576789855957,-81.6473922729492,-122.80885325145,57.896226813760734,2162754720
sw,-81.8799209594726,-82.6805038452148,-114.8542826419572,60.43814551782396,2162771387
sw,-80.246337890625,-83.7848968505859,-107.36216928046977,61.9186134314755,2162788054
sw,-78.799201965332,-84.9268493652343,-100.46192737951561,62.22440961077263,2162804721
sw,-77.4576950073242,-86.0543975830078,-94.0136571763801,61.48911264345765,2162821388
sw,-76.0646743774414,-87.1180572509765,-87.60868811551988,60.089133873346775,2162838055
sw,-74.6841888427734,-88.0640716552734,-80.65069127174324,58.55268803246334,2162854722
sw,-73.4496002197265,-88.937255859375,-72.50805427580643,57.40318537346843,2162871389
sw,-72.4060821533203,-89.8733367919921,-62.694500708957655,56.98949121596253,2162888056
sw,-71.5567092895507,-89.2322998046875,-51.02321180602348,57.36528822629038,2162904723
sw,-70.8987197875976,-88.1609115600586,-37.69082458252415,58.26177301765243,2162921390
sw,-70.4604339599609,-87.0362854003906,-23.269875405836363,59.16034244719293,2162938057
sw,-70.4025192260742,-85.9154434204101,-8.611313233367538,59.433406696702,2162954724
sw,-70.5569458007812,-84.8210067749023,5.32055025866194,58.49974950545134,2162971391
sw,-71.0499267578125,-83.7879562377929,17.64092838133705,55.94296914066511,2162988058
sw,-71.7170944213867,-82.8875732421875,27.7156879356804,51.562350162915834,2163004725
sw,-72.4284439086914,-82.1212463378906,35.26470352705008,45.3535595415462,2163021392
sw,-73.3680801391601,-81.4960327148437,40.37075536865526,37.44062640761933,2163038059
sw,-74.256591796875,-81.088882446289,43.39693120081883,27.993451578971143,2163054726
sw,-75.0873870849609,-80.865119934082,44.844839004864085,17.164365345890708,2163071393
sw,-75.7561874389648,-80.7943572998046,45.20576172965852,5.065271036692266,2163088060
sw,-76.4164047241211,-80.9059677124023,44.86075206430783,-8.211294624770204,2163104727
sw,-77.3535537719726,-81.2137832641601,44.067265576488374,-22.541784031179073,2163121394
sw,-78.592300415039,-81.8119964599609,43.028247850023604,-37.71730220106467,2163138061
sw,-79.7405166625976,-82.7629089355468,41.99118673500849,-53.409679971672055,2163154728
sw,-80.3968811035156,-83.9630126953125,41.30272887936066,-69.1706307694909,2163171395
sw,-80.8913116455078,-85.3072738647461,41.371589520457896,-84.46124655579544,2163188062
sw,-81.6715698242187,-86.4608306884765,42.55126089119146,-98.69859746685677,2163204729
sw,-82.5500259399414,-86.6082305908203,44.99898153376922,-111.30489671894617,2163221396
sw,-83.479621887207,-85.2143096923828,48.57234135145666,-121.7502095127228,2163238063
sw,-84.4954757690429,-83.0913314819336,52.80372586328533,-129.58667061828197,2163254730
sw,-85.601318359375,-80.9120483398437,56.96928253509653,-134.47701646703237,2163271397
sw,-86.8009033203125,-78.8477020263671,60.24677993800683,-136.2217699190505,2163288064
sw,-87.9571380615234,-76.8948135375976,61.92960355988527,-134.7870688840797,2163304731
sw,-89.0662384033203,-74.9500198364257,61.63843362856871,-130.32892501400076,2163321398
sw,-89.7915802001953,-73.0249633789062,59.46299412900151,-123.20218827773519,2163338065
sw,-88.5013198852539,-71.1151351928711,55.980554923023654,-113.93873110712747,2163354732
sw,-87.429458618164,-69.2344970703125,52.13082758977086,-103.18366576030355,2163371399
sw,-86.6054077148437,-67.5853500366211,48.97070838772616,-91.59158898163597,2163388066
sw,-85.914192199707,-66.2474975585937,47.37762961606736,-79.7041070069203,2163404733
sw,-85.236587524414,-65.178237915039,47.79984790400602,-67.84823092731956,2163421400
sw,-84.4623260498046,-64.2489776611328,50.1450353067378,-56.10075488714557,2163438067
sw,-83.4197158813476,-63.3775291442871,53.84863223899767,-44.3457404530309,2163454734
sw,-82.1360855102539,-62.6262779235839,58.08973385986934,-32.41317211322635,2163471401
sw,-80.863784790039,-62.1952743530273,62.060994247829484,-20.24655956170308,2163488068
sw,-79.7579193115234,-62.1138038635253,65.1825650672579,-8.030975921131255,2163504735
sw,-78.7653198242187,-62.3775558471679,67.18713165703132,3.7683204862893995,2163521402
sw,-77.7894287109375,-62.7774772644043,68.0712845790071,14.466156975719835,2163538069
sw,-76.7621536254882,-63.1042556762695,67.96813309026032,23.291030637613655,2163554736
sw,-75.6726760864257,-63.8418617248535,67.01742928175136,29.55385583161782,2163571403
sw,-74.5455627441406,-64.8670120239257,65.28991254821794,32.81648360881322,2163588070
sw,-73.4149856567382,-65.8584899902343,62.78163074615491,33.02495736693877,2163604737
sw,-72.3065795898437,-66.6894607543945,59.455790498594865,30.56920140245645,2163621404
sw,-71.2190628051757,-67.4006881713867,55.289638759378235,26.240367522827473,2163638071
sw,-70.2736892700195,-67.8696899414062,50.286123891001864,21.086361167662865,2163654738
sw,-69.5635452270507,-68.1634292602539,44.43145725911343,16.20054459419473,2163671405
sw,-69.087043762207,-68.4645080566406,37.61246691599537,12.500019965739606,2163688072
sw,-68.7870864868164,-68.6475219726562,29.538923882405694,10.552492256012025,2163704739
sw,-68.6113357543945,-68.8081588745117,19.729508656718174,10.497918385773374,2163721406
sw,-68.5114364624023,-69.3821182250976,7.604110219648138,12.08601187017701,2163738073
sw,-68.4773406982421,-70.378059387207,-7.31836763985038,14.814175272831072,2163754740
sw,-68.5460891723632,-70.9844055175781,-25.171525393939106,18.11120997744387,2163771407
sw,-68.999038696289,-71.3853454589843,-45.53614842271846,21.49385452387049,2163788074
sw,-69.9936370849609,-71.9811477661132,-67.37314085925668,24.645795150671233,2163804741
sw,-71.517707824707,-72.7813339233398,-89.14594382589527,27.418483739839612,2163821408
sw,-73.5340347290039,-73.6853103637695,-109.11063394796356,29.79003814936269,2163838075
sw,-75.829719543457,-74.6381072998046,-125.6833638601636,31.81994083088947,2163854742
sw,-78.1748733520507,-75.5939636230468,-137.76382165856833,33.6162793804192,2163871409
sw,-80.3521881103515,-76.5390243530273,-144.9141894067829,35.313445548051355,2163888076
sw,-82.4252166748046,-77.5007629394531,-147.35414104394255,37.05210466353481,2163904743
sw,-84.3127288818359,-78.4896163940429,-145.8029139518861,38.95611202649069,2163921410
sw,-85.9068603515625,-79.5037536621093,-141.24647312352238,41.10612895539791,2163938077
sw,-86.8323898315429,-80.4556503295898,-134.7145738875294,43.514054104475235,2163954744
sw,-86.4296035766601,-81.3141098022461,-127.12484273502551,46.10640180704462,2163971411
sw,-85.0837478637695,-82.1475982666015,-119.20854058595337,48.72761651054383,2163988078
sw,-83.4174194335937,-83.0614395141601,-111.49656105894206,51.17177432416753,2164004745
sw,-81.7047119140625,-84.0785140991211,-104.32830406586618,53.2398125027229,2164021412
sw,-80.1141204833984,-85.1195068359375,-97.85309097124116,54.80349346512412,2164038079
sw,-78.6588897705078,-86.1203155517578,-92.01603705993867,55.84810943742564,2164054746
sw,-77.24658203125,-87.1032180786132,-86.54394162458108,56.47251282485661,2164071413
sw,-75.8814468383789,-88.105972290039,-80.95847133118504,56.84492994695711,2164088080
sw,-74.6185302734375,-89.1908493041992,-74.6382859117461,57.13360252296555,2164104747
sw,-73.5374908447265,-90.0,-66.93427864285431,57.44056051955611,2164121414
sw,-72.6148605346679,-89.1054077148437,-57.32311838348245,57.76181454616454,2164138081
sw,-71.8394241333007,-87.9447174072265,-45.56977178166531,57.98337193029559,2164154748
sw,-71.2091903686523,-86.8459548950195,-31.859610304880796,57.90746446865848,2164171415
sw,-70.7509765625,-85.8219528198242,-16.855353775114576,57.29335575622617,2164188082
sw,-70.5867309570312,-84.8609619140625,-1.6393093382563202,55.895566092474596,2164204749
sw,-70.9145202636718,-83.9143981933593,12.474134327901714,53.48887179925627,2164221416
sw,-71.7495498657226,-83.021240234375,24.225451748149837,49.87908889692965,2164238083
sw,-72.5455627441406,-82.2169189453125,32.716099355310696,44.90541809519413,2164254750
sw,-73.2975692749023,-81.512451171875,37.63029541201297,38.441403005693864,2164271417
sw,-74.0681762695312,-80.912239074707,39.294904706101924,30.39864042119123,2164288084
sw,-74.9610366821289,-80.5304565429687,38.56387085012109,20.733209863751092,2164304751
sw,-75.6340713500976,-80.4464645385742,36.57809667574422,9.452646253831695,2164321418
sw,-75.9579010009765,-80.5973663330078,34.48651146833677,-3.3768103747252107,2164338085
sw,-76.3989562988281,-80.9317169189453,33.21438080940683,-17.619202778472665,2164354752
sw,-77.2519149780273,-81.483642578125,33.33759360496951,-33.0505987525119,2164371419
sw,-78.1085891723632,-82.3331756591796,35.07457278649573,-49.33634305062972,2164388086
sw,-78.8584671020507,-83.4737930297851,38.35889428591907,-66.01456406018337,2164404753
sw,-79.5479049682617,-84.8603134155273,42.93337070540051,-82.49960503673793,2164421420
sw,-80.3837051391601,-86.3752822875976,48.42101615573126,-98.11432519701606,2164438087
sw,-81.3277893066406,-87.4255752563476,54.36076585954533,-112.15010172092283,2164454754
sw,-82.4649353027343,-86.5669250488281,60.221000595310045,-123.9421487749171,2164471421
sw,-83.6315155029296,-84.3970260620117,65.41535708276471,-132.94084325814626,2164488088
sw,-84.8462600708007,-82.0439910888671,69.3475483808092,-138.76219076658603,2164504755
sw,-86.1102752685546,-79.7587661743164,71.50305822674548,-141.21199212540307,2164521422
sw,-87.3429565429687,-77.5485458374023,71.58076207184867,-140.29010311387523,2164538089
sw,-88.2123947143554,-75.3698654174804,69.62447818011817,-136.1836251254366,2164554756
sw,-88.4585876464843,-73.2375946044921,66.0939715630402,-129.25015100344058,2164571423
sw,-87.9012756347656,-71.1167373657226,61.823646673304474,-119.98322540488383,2164588090
sw,-87.0378646850586,-69.0989074707031,57.85383781817308,-108.95164736969717,2164604757
sw,-86.2231750488281,-67.3236007690429,55.16885245407082,-96.71512984155238,2164621424
sw,-85.5093917846679,-65.8445587158203,54.41919708330934,-83.73622174297934,2164638091
sw,-84.7720565795898,-64.5712356567382,55.72552016734537,-70.32161098284189,2164654758
sw,-83.8294067382812,-63.4249649047851,58.644817329857936,-56.62338479099455,2164671425
sw,-82.5861434936523,-62.4236183166503,62.32332944314425,-42.708389622320475,2164688092
sw,-81.127212524414,-61.7282333374023,65.78447992273566,-28.6711198891507,2164704759
sw,-79.67724609375,-61.3782310485839,68.240235919015,-14.741985232651379,2164721426
sw,-78.442756652832,-61.3782882690429,69.30352041642678,-1.3435764121766292,2164738093
sw,-77.4325256347656,-61.6583442687988,69.02579934772511,10.92870234610898,2164754760
sw,-76.4991226196289,-61.9998664855957,67.76345415865774,21.3951949517992,2164771427
sw,-75.5244064331054,-62.5509147644043,65.9467658920874,29.42419151759874,2164788094
sw,-74.5096893310546,-63.3962097167968,63.85291918849644,34.57742003083189,2164804761
sw,-73.4810180664062,-64.4073410034179,61.46421025466339,36.73815981411527,2164821428
sw,-72.4446945190429,-65.4646530151367,58.44489937505224,36.18801232220487,2164838095
sw,-71.3974304199218,-66.454849243164,54.22187704421765,33.59836783612495,2164854762
sw,-70.4263000488281,-67.1391448974609,48.12350848333317,29.918104743927042,2164871429
sw,-69.7093429565429,-67.5654983520507,39.52410061690609,26.172851583821245,2164888096
sw,-69.3437118530273,-67.8748321533203,27.956784603003758,23.231113253588585,2164904763
sw,-69.278450012207,-68.2799072265625,13.185950540660833,21.6171051488672,2164921430
sw,-69.4088668823242,-68.9586486816406,-4.745277828936046,21.43958507338868,2164938097
sw,-69.6976699829101,-69.8269348144531,-25.47334270353971,22.457775738853414,2164954764
sw,-70.2851181030273,-70.7050628662109,-48.27864615915502,24.243335028613302,2164971431
sw,-71.2982101440429,-71.3371276855468,-72.08234277679244,26.359479636640117,2164988098
sw,-72.8276748657226,-71.9593734741211,-95.51040830019252,28.487923641894586,2165004765
sw,-74.8412933349609,-72.7671966552734,-117.03984269148731,30.478643473172472,2165021432
sw,-77.0694427490234,-73.8188323974609,-135.20440131995838,32.33962339391296,2165038099
sw,-79.3496170043945,-74.8824005126953,-148.80717176468764,34.196402285483515,2165054766
sw,-81.5205764770507,-75.8113403320312,-157.08415791695,36.238917960178846,2165071433
sw,-83.5594406127929,-76.7182464599609,-159.78705659637814,38.659790827454714,2165088100
sw,-85.3027648925781,-77.6793594360351,-157.18703011353438,41.58845835223341,2165104767
sw,-86.2949295043945,-78.725830078125,-150.02317810819457,45.033893222398106,2165121434
sw,-85.8841018676757,-79.7877960205078,-139.41912008036383,48.852758743096224,2165138101
sw,-84.4329986572265,-80.7289428710937,-126.77423521706054,52.755877049795764,2165154768
sw,-82.7276763916015,-81.6381607055664,-113.61901462559051,56.35781217674277,2165171435
sw,-81.0419158935546,-82.6339340209961,-101.42239165190627,59.26487064961436,2165188102
sw,-79.5524597167968,-83.7428588867187,-91.35811576458414,61.184326493560675,2165204769
sw,-78.3088836669921,-84.9048385620117,-84.06968568417695,62.02302041048485,2165221436
sw,-77.2205505371093,-86.0359268188476,-79.50250910842402,61.935301835233155,2165238103
sw,-76.0238952636718,-87.0348281860351,-76.87797357320842,61.28982522054405,2165254770
sw,-74.6638031005859,-87.9209518432617,-74.85310264825654,60.55439100519056,2165271437
sw,-73.330810546875,-88.7629852294921,-71.84675872018629,60.13545487976369,2165288104
sw,-72.1675186157226,-89.3022689819336,-66.44779083840324,60.23300744755591,2165304771
sw,-71.2641830444336,-88.7027587890625,-57.78712817521251,60.76696221157797,2165321438
sw,-70.5911178588867,-87.6527328491211,-45.76926097186699,61.40003387957127,2165338105
sw,-70.0389404296875,-86.5371704101562,-31.10501057633556,61.64200022693612,2165354772
sw,-69.7088088989257,-85.4241485595703,-15.14187173885535,60.99134904493253,2165371439
sw,-69.9062728881836,-84.3322677612304,0.4641822497987149,59.06280676796489,2165388106
sw,-70.5508346557617,-83.3141708374023,14.1518936852325,55.661028856636975,2165404773
sw,-71.3015975952148,-82.4303436279296,24.821697901962615,50.78343915735137,2165421440
sw,-71.8102111816406,-81.7033386230468,32.0574964004419,44.560329535352594,2165438107
sw,-72.4606018066406,-81.1088790893554,36.141235405782105,37.160797665461786,2165454774
sw,-73.2837524414062,-80.6656265258789,37.87450884812976,28.70299070322365,2165471441
sw,-74.1149978637695,-80.3837890625,38.28603380150539,19.20328370888854,2165488108
sw,-74.7324523925781,-80.2721099853515,38.328576612220886,8.583206357303098,2165504775
sw,-75.1794967651367,-80.2978134155273,38.65753551812516,-3.26888254484556,2165521442
sw,-75.8477783203125,-80.4747772216796,39.55097851704157,-16.404834845294427,2165538109
sw,-77.1044692993164,-80.8641967773437,40.98158424888465,-30.728235225475924,2165554776
sw,-78.4471130371093,-81.6601943969726,42.7892759011234,-45.944940291415655,2165571443
sw,-79.3606643676757,-82.8643035888671,44.85702284747354,-61.57100172564107,2165588110
sw,-80.0082321166992,-84.1776580810546,47.19859524774712,-76.99186970898533,2165604777
sw,-80.7930603027343,-85.4668045043945,49.92778325201904,-91.54767054245904,2165621444
sw,-81.8017349243164,-86.4433975219726,53.14710600950046,-104.61599055735223,2165638111
sw,-82.8761901855468,-86.1334075927734,56.8234412569313,-115.67334158729301,2165654778
sw,-83.9908676147461,-84.4874420166015,60.706878673493044,-124.3285942264204,2165671445
sw,-85.1337738037109,-82.3833847045898,64.32522085440888,-130.33021214278912,2165688112
sw,-86.3742065429687,-80.2792739868164,67.06470882701035,-133.55514574007609,2165704779
sw,-87.7018585205078,-78.2538909912109,68.32327330523736,-133.9910160535182,2165721446
sw,-89.014045715332,-76.3188247680664,67.69526394204665,-131.7222360414548,2165738113
sw,-90.0,-74.3968429565429,65.12844930096816,-126.92462908867367,2165754780
sw,-88.746337890625,-72.5146713256836,60.99680030796815,-119.86503662669062,2165771447
sw,-87.467041015625,-70.671630859375,56.05555943012954,-110.89584580743417,2165788114
sw,-86.4657669067382,-68.8743057250976,51.27967892727775,-100.43208648073337,2165804781
sw,-85.6795806884765,-67.2428207397461,47.62469006293244,-88.90376725513806,2165821448
sw,-85.0244903564453,-65.9383773803711,45.781246463861706,-76.69024596195958,2165838115
sw,-84.3467483520507,-64.9370422363281,46.00619896603723,-64.06255748637659,2165854782
sw,-83.5268020629882,-64.1039733886718,48.09102458412678,-51.17081839033999,2165871449
sw,-82.4749374389648,-63.328498840332,51.47581125465253,-38.10177760175925,2165888116
sw,-81.3160400390625,-62.7038230895996,55.45679231070936,-24.994197467968164,2165904783
sw,-80.2020263671875,-62.4088058471679,59.39831099665538,-12.157698926867566,2165921450
sw,-79.1846237182617,-62.4837341308593,62.865953370442696,-0.125498496651882,2165938117
sw,-78.2304916381836,-62.9420776367187,65.64270644637094,10.401153839502966,2165954784
sw,-77.2609939575195,-63.4575119018554,67.64842562034092,18.704967782672167,2165971451
sw,-76.197265625,-63.9582824707031,68.82285262232168,24.244080905793105,2165988118
sw,-75.0625610351562,-64.7488174438476,69.0364008012198,26.815208884802942,2166004785
sw,-73.8981018066406,-65.6032562255859,68.06586550592546,26.639737407654543,2166021452
sw,-72.6890029907226,-66.3833847045898,65.63349230731352,24.350907646054765,2166038119
sw,-71.4691390991211,-66.9764633178711,61.47692745014151,20.8824356949273,2166054786
sw,-70.4016952514648,-67.3952255249023,55.40598119611717,17.279774254657216,2166071453
sw,-69.6432800292968,-67.7788925170898,47.31346740308414,14.476993724695898,2166088120
sw,-69.1968002319336,-68.0289993286132,37.137780258954706,13.097443323590216,2166104787
sw,-69.0222015380859,-68.2137603759765,24.810535806842488,13.337005292705813,2166121454
sw,-69.0401840209961,-68.7553176879882,10.24216498295071,14.971314052208053,2166138121
sw,-69.0698776245117,-69.7006378173828,-6.6151541998735555,17.490474551135385,2166154788
sw,-69.0926132202148,-70.7460327148437,-25.633132058240765,20.31306592397905,2166171455
sw,-69.5098419189453,-71.4440231323242,-46.3607424349994,22.991890505330694,2166188122
sw,-70.6297988891601,-71.9676361083984,-67.95015717332538,25.328762480252927,2166204789
sw,-72.2148284912109,-72.561050415039,-89.21530628469448,27.36790299338307,2166221456
sw,-74.0325317382812,-73.3416366577148,-108.81988136649765,29.301791469148178,2166238123
sw,-76.1810073852539,-74.3004989624023,-125.52995003828634,31.355982590494747,2166254790
sw,-78.4540634155273,-75.3001632690429,-138.44117048659123,33.706220677724694,2166271457
sw,-80.6659317016601,-76.2511749267578,-147.10802568837065,36.443547241471045,2166288124
sw,-82.769287109375,-77.2154388427734,-151.54685296178553,39.57305908644389,2166304791
sw,-84.6868820190429,-78.2146453857421,-152.13438473563428,43.025479117699696,2166321458
sw,-86.2326202392578,-79.2534942626953,-149.45865832278824,46.67125375726665,2166338125
sw,-86.7534561157226,-80.3284606933593,-144.18512037852923,50.33845864329399,2166354792
sw,-85.8272552490234,-81.3543243408203,-136.97724552933093,53.83854429569893,2166371459
sw,-84.1130447387695,-82.3688201904296,-128.47262793499362,56.999098713805814,2166388126
sw,-82.1747436523437,-83.382095336914,-119.28259147434089,59.69676248843326,2166404793
sw,-80.3019104003906,-84.4035720825195,-109.97169976960399,61.88078298984328,2166421460
sw,-78.6650085449218,-85.4573135375976,-100.98900801408118,63.57924374124235,2166438127
sw,-77.2405853271484,-86.5539474487304,-92.5590504758284,64.88431961135684,2166454794
sw,-75.9350967407226,-87.6688003540039,-84.57905506333833,65.91806574581966,2166471461
sw,-74.6845169067382,-88.7191619873046,-76.58679296506222,66.78531621867054,2166488128
sw,-73.5093002319336,-89.3785018920898,-67.84719806882268,67.52530987073554,2166504795
sw,-72.5008163452148,-88.6544799804687,-57.56106685034839,68.07725865573677,2166521462
sw,-71.629409790039,-87.4890823364257,-45.146608811244235,68.27335659309236,2166538129
sw,-70.870979309082,-86.2789001464843,-30.506577373315817,67.86349094291377,2166554796
sw,-70.3374557495117,-85.1055908203125,-14.184100956170573,66.56302291162896,2166571463
sw,-70.3407211303711,-83.971694946289,2.665133205232021,64.10604189349124,2166588130
sw,-70.8284759521484,-82.8883209228515,18.4997294302704,60.286007794730715,2166604797
sw,-71.7526092529296,-81.8932037353515,31.759742655213678,54.972430739879194,2166621464
sw,-72.5642471313476,-81.0551452636718,41.25627820721386,48.102345636451005,2166638131
sw,-73.4622268676757,-80.3766784667968,46.45524859051883,39.6555026502347,2166654798
sw,-74.4789810180664,-79.8958435058593,47.57295331423673,29.629359176255274,2166671465
sw,-75.5319137573242,-79.6420059204101,45.47497140298921,18.03090975766838,2166688132
sw,-76.1927795410156,-79.586311340332,41.43183125090478,4.895591472851648,2166704799
sw,-76.5579147338867,-79.7277603149414,36.816329496473855,-9.669230464213285,2166721466
sw,-77.03369140625,-80.0521469116211,32.83129104670055,-25.43257591977946,2166738133
sw,-77.8543472290039,-80.7014541625976,30.336272030719698,-42.004828273404584,2166754800
sw,-78.7746658325195,-81.769660949707,29.79737274844938,-58.84114106811457,2166771467
sw,-79.5055847167968,-83.1896591186523,31.33115754004592,-75.28918202545196,2166788134
sw,-80.0049133300781,-84.6681060791015,34.7831223324735,-90.66656091274693,2166804801
sw,-80.633804321289,-85.9714889526367,39.79190680992513,-104.34142731751126,2166821468
sw,-81.5518035888671,-86.4507751464843,45.82697895156564,-115.79353174404233,2166838135
sw,-82.5663757324218,-85.3543014526367,52.21790994150272,-124.64638324660876,2166854802
sw,-83.6679458618164,-83.3510513305664,58.20222768770269,-130.67283559539274,2166871469
sw,-84.8618774414062,-81.2013854980468,63.011835872444415,-133.7823383038779,2166888136
sw,-86.1303176879882,-79.1433868408203,66.00188110744485,-134.00100187929144,2166904803
sw,-87.3572158813476,-77.1936950683593,66.80194914134086,-131.456496136425,2166921470
sw,-88.4097137451171,-75.2920761108398,65.44482542906518,-126.37546993847266,2166938137
sw,-89.1034393310546,-73.4451217651367,62.41819938391521,-119.09073355897523,2166954804
sw,-88.6068878173828,-71.609748840332,58.59954779175544,-110.04392485962559,2166971471
sw,-87.6740112304687,-69.7840347290039,55.06985949739278,-99.76414285322137,2166988138
sw,-86.8121795654296,-68.1076736450195,52.84509934554916,-88.80892099096532,2167004805
sw,-86.0591583251953,-66.7362747192382,52.6010259328828,-77.67151219223352,2167021472
sw,-85.2916030883789,-65.6905288696289,54.4823394758863,-66.68251107068376,2167038139
sw,-84.3695678710937,-64.8265762329101,58.06859889842986,-55.95141402479078,2167054806
sw,-83.1406784057617,-64.0011978149414,62.51627079205521,-45.38883656893152,2167071473
sw,-81.6673278808593,-63.2161216735839,66.82732543728534,-34.81697950161331,2167088140
sw,-80.2667770385742,-62.6787147521972,70.14252120331818,-24.12938008899984,2167104807
sw,-79.0588607788086,-62.4675369262695,71.95062211232604,-13.430051430356995,2167121474
sw,-77.990737915039,-62.5450134277343,72.14854660445202,-3.0883498655828547,2167138141
sw,-76.9428329467773,-62.8494873046875,70.95710763256193,6.314690489738934,2167154808
sw,-75.85302734375,-63.1014137268066,68.75353059083028,14.126212263454175,2167171475
sw,-74.7806243896484,-63.7195930480957,65.89945901046504,19.797107818798754,2167188142
sw,-73.7713317871093,-64.4369812011718,62.623551405915286,23.039673294009237,2167204809
sw,-72.7525405883789,-65.1322250366211,58.98113074897639,23.92523052918669,2167221476
sw,-71.6769332885742,-65.8240203857421,54.87889296964104,22.895780910913647,2167238143
sw,-70.658950805664,-66.4389190673828,50.13029401942459,20.682901414536108,2167254810
sw,-69.8275375366211,-66.8824157714843,44.50178330219116,18.149429851426373,2167271477
sw,-69.2540283203125,-67.1791839599609,37.72462132248061,16.091998778013842,2167288144
sw,-68.9505386352539,-67.4836349487304,29.47756063424484,15.059765332968547,2167304811
sw,-68.8437347412109,-67.9748916625976,19.376339405309675,15.2480433838591,2167321478
sw,-68.8073120117187,-68.6835403442382,7.015678605005576,16.505126632359023,2167338145
sw,-68.7331314086914,-69.6438980102539,-7.9134590309869095,18.447320745318965,2167354812
sw,-68.816665649414,-70.6641235351562,-25.455592866926064,20.63081661001758,2167371479
sw,-69.373664855957,-71.304931640625,-45.2391458883393,22.70711206470225,2167388146
sw,-70.3980331420898,-71.8252182006836,-66.41905124448837,24.505454504793285,2167404813
sw,-71.8499603271484,-72.4549789428711,-87.75704393654286,26.0301839071765,2167421480
sw,-73.7172546386718,-73.2552108764648,-107.82425218292013,27.40331236590119,2167438147
sw,-75.8408889770507,-74.1915206909179,-125.25978584021885,28.79732084953976,2167454814
sw,-78.0313262939453,-75.1187438964843,-139.0002694921469,30.387993063210583,2167471481
sw,-80.1384353637695,-75.982681274414,-148.41395726232847,32.33166772147069,2167488148
sw,-82.1330108642578,-76.872817993164,-153.31768299425602,34.75572930095743,2167504815
sw,-83.890998840332,-77.8157730102539,-153.90332370470455,37.7503725361931,2167521482
sw,-85.2359313964843,-78.8235397338867,-150.62965020246546,41.355585237554,2167538149
sw,-85.8119812011718,-79.818603515625,-144.13334262989073,45.5419355172053,2167554816
sw,-85.2377853393554,-80.7321853637695,-135.18422733830693,50.187353053247065,2167571483
sw,-83.8273391723632,-81.6193389892578,-124.6713989350853,55.0584751071565,2167588150
sw,-82.0348663330078,-82.5751647949218,-113.57868072021314,59.812523264599086,2167604817
sw,-80.2556762695312,-83.6816787719726,-102.90455075179726,64.03580052707179,2167621484
sw,-78.7556915283203,-84.9093780517578,-93.50785530671858,67.32176235501981,2167638151
sw,-77.5845565795898,-86.2209930419921,-85.90783116680923,69.36976469380058,2167654818
sw,-76.523811340332,-87.5428237915039,-80.11255956039672,70.06844726111633,2167671485
sw,-75.3752365112304,-88.8493728637695,-75.56454428504475,69.52758000014887,2167688152
sw,-74.1425704956054,-90.0,-71.25829144518137,68.04113626725021,2167704819
sw,-72.9366226196289,-89.3056411743164,-66.01469618899698,65.99275103550254,2167721486
sw,-71.8442687988281,-88.0594253540039,-58.827937368831606,63.737634878696575,2167738153
sw,-71.0347366333007,-86.9661712646484,-49.16898707418481,61.50158913152864,2167754820
