Label,Left_Hip_q,Right_Hip_q,Left_Hip_qd,Right_Hip_qd,SampleTimeFine
sw,-64.1154708862304,-86.7814331054687,28.104471206665,8.58075904846191,176977745
sw,-64.8438186645507,-86.7521362304687,46.351900631438035,-7.933383475527442,176994412
sw,-65.2167358398437,-86.9243927001953,36.997923103691654,-35.9073476034071,177011079
sw,-65.2750701904296,-87.191535949707,29.09239661557691,-62.339659046676545,177027746
sw,-65.4100341796875,-87.1228790283203,23.67166429278323,-85.91807425733153,177044413
sw,-65.8182144165039,-86.1887512207031,21.146434187020752,-105.64790495064362,177061080
sw,-66.5245285034179,-84.552734375,21.253858965836855,-120.96751527010085,177077747
sw,-67.430793762207,-82.3974456787109,23.20946847418789,-131.80613916163156,177094414
sw,-68.3467864990234,-79.8362960815429,25.991568402743432,-138.5597672970522,177111081
sw,-69.1064910888671,-77.2598342895507,28.65499550040746,-141.97531349011862,177127748
sw,-69.9065399169921,-74.8363800048828,30.576301836779518,-142.95826202652032,177144415
sw,-70.7494354248046,-72.4924926757812,31.56802378291868,-142.34940146676666,177161082
sw,-71.3894119262695,-70.1417541503906,31.847230475093262,-140.73772309709736,177177749
sw,-71.9300079345703,-67.8039932250976,31.888194807943638,-138.3701279523621,177194416
sw,-72.6109924316406,-65.4311904907226,32.22089060875489,-135.17977278713616,177211083
sw,-73.4433670043945,-63.1923789978027,33.24628323748546,-130.90400835478889,177227750
sw,-74.2393188476562,-61.2349815368652,35.12129272158019,-125.23043728136328,177244417
sw,-74.9890670776367,-59.5141906738281,37.73174002862899,-117.91232490534725,177261084
sw,-75.7555618286132,-57.9338302612304,40.741216850847735,-108.82481294089236,177277751
sw,-76.5794448852539,-56.4228057861328,43.68916576168527,-97.9681327299291,177294418
sw,-77.4445266723632,-55.0356178283691,46.108904586199266,-85.44352097453572,177311085
sw,-78.3351745605468,-53.9048843383789,47.638508499884175,-71.42795562869622,177327752
sw,-79.2478866577148,-53.0539817810058,48.102149359313536,-56.164421084506024,177344419
sw,-80.179458618164,-52.4805717468261,47.54713821513838,-39.97465727733234,177361086
sw,-81.0885772705078,-52.2092170715332,46.23133421701103,-23.292546818074598,177377753
sw,-81.9346466064453,-52.1249084472656,44.564765168933974,-6.70501551821032,177394420
sw,-82.7107315063476,-52.3853225708007,43.01758810678268,9.026019222218817,177411087
sw,-83.4723815917968,-52.6910133361816,42.01353721062524,22.99497441062251,177427754
sw,-84.2156906127929,-53.3520011901855,41.83172252054168,34.26368473220912,177444421
sw,-84.9316024780273,-54.2937469482421,42.53757213517845,42.05009617280377,177461088
sw,-85.6398315429687,-55.4012298583984,43.95591391318462,45.95014978864166,177477755
sw,-86.314224243164,-56.3077697753906,45.688625118060415,46.11393393836116,177494422
sw,-86.9552230834961,-57.2240753173828,47.16950487469831,43.29542117554933,177511089
sw,-87.5297927856445,-58.0203132629394,47.7426342969898,38.734077636366365,177527756
sw,-87.9176635742187,-58.5012054443359,46.74901409721066,33.88871098832416,177544423
sw,-88.0578155517578,-58.9045372009277,43.60997782027819,30.10027393428914,177561090
sw,-88.0185089111328,-59.3873672485351,37.9026922691123,28.28891791750639,177577757
sw,-87.8731155395507,-59.9827613830566,29.428018720670604,28.781044305826434,177594424
sw,-87.710220336914,-60.496223449707,18.268814485743068,31.31646962142049,177611091
sw,-87.5886535644531,-61.3458976745605,4.826714636293127,35.22070648849586,177627758
sw,-87.5299453735351,-62.3085708618164,-10.186019666754838,39.668995321330684,177644425
sw,-87.6276016235351,-62.9324913024902,-25.825108563329408,43.94171905506888,177661092
sw,-87.8107223510742,-63.5562705993652,-41.072696116129116,47.5873912205159,177677759
sw,-87.4830093383789,-64.4630050659179,-55.050901017749645,50.45957467025572,177694426
sw,-86.3163986206054,-65.4671554565429,-67.22812926261298,52.647756907156754,177711093
sw,-84.5506210327148,-66.5140991210937,-77.53838039614942,54.3524028066103,177727760
sw,-82.5708312988281,-67.5404663085937,-86.3537110538449,55.75748642648952,177744427
sw,-80.5244445800781,-68.646011352539,-94.30394809340424,56.941035251581624,177761094
sw,-78.2524261474609,-69.8130874633789,-102.00146371427218,57.84407685090019,177777761
sw,-75.7803878784179,-70.8759307861328,-109.7699993464419,58.296057328840114,177794428
sw,-73.4425506591796,-71.8272094726562,-117.47430556014335,58.07852736610401,177811095
sw,-71.3500061035156,-72.8243713378906,-124.50674528580272,57.00504209925349,177827762
sw,-69.4094314575195,-73.9088058471679,-129.9320784778383,54.99981700985925,177844429
sw,-67.5296325683593,-75.0653533935546,-132.7436738423364,52.16009453509849,177861096
sw,-65.5551834106445,-76.1891479492187,-132.15178234053394,48.78339763673991,177877763
sw,-63.5403022766113,-77.0932159423828,-127.81159512116947,45.339314592494944,177894430
sw,-61.7487640380859,-77.7671508789062,-119.91300501800443,42.37774624974404,177911097
sw,-60.3179550170898,-78.3160247802734,-109.09930649292085,40.39221237971402,177927764
sw,-59.1408042907714,-78.8505172729492,-96.24756914774913,39.68338669800666,177944431
sw,-58.0759925842285,-79.4367218017578,-82.20076800680718,40.275702715941804,177961098
sw,-57.1661300659179,-80.1454315185546,-67.56033175274224,41.920937404954266,177977765
sw,-56.4983406066894,-81.0030975341796,-52.61800895497043,44.18624936219642,177994432
sw,-56.0516357421875,-81.9140548706054,-37.446063878321546,46.58896742106262,178011099
sw,-55.8052330017089,-82.7771606445312,-22.102953265328075,48.72352272279923,178027766
sw,-55.7866668701171,-83.564224243164,-6.866720505673336,50.33457723760798,178044433
sw,-55.9980010986328,-84.2795028686523,7.610014150287781,51.31911592120682,178061100
sw,-56.7872657775878,-84.9810943603515,20.312125926237325,51.67348895607278,178077767
sw,-58.1433029174804,-85.7721939086914,30.070382503982643,51.42173809280549,178094434
sw,-59.6081619262695,-86.637222290039,35.90719140298356,50.5593024653873,178111101
sw,-60.7280197143554,-87.430061340332,37.384877602956394,49.0250059375671,178127768
sw,-61.344123840332,-87.9311447143554,34.80759020116788,46.689633813678185,178144435
sw,-61.8830375671386,-87.9383468627929,29.191450243125637,43.33958949576802,178161102
sw,-62.4432487487793,-87.6523208618164,22.020322561225456,38.64730292817791,178177769
sw,-62.821792602539,-87.3364105224609,14.884938803221155,32.14749099346508,178194436
sw,-63.2106285095214,-87.1020050048828,9.127417995509314,23.258817567260614,178211103
sw,-63.7313613891601,-86.9412994384765,5.590507359208407,11.384653435852309,178227770
sw,-64.093765258789,-86.8760147094726,4.525608043228128,-3.907837085511428,178244437
sw,-64.2928695678711,-86.9031372070312,5.662876932715297,-22.676061707219983,178261104
sw,-64.7445678710937,-86.9945602416992,8.400450537079767,-44.43312380709327,178277771
sw,-65.121109008789,-86.9471282958984,12.03715526098008,-68.09491138937132,178294438
sw,-65.3262710571289,-86.4034881591796,15.964625024001426,-92.08417867955832,178311105
sw,-65.5954818725586,-85.1667327880859,19.760125459215164,-114.58417670182949,178327772
sw,-65.907974243164,-83.1476821899414,23.175011913914858,-133.88567560811924,178344439
sw,-66.4634857177734,-80.4258346557617,26.06651191499538,-148.73496113456886,178361106
sw,-67.4235153198242,-77.3854751586914,28.338757812456137,-158.57732706773842,178377773
sw,-68.3851165771484,-74.4908294677734,29.933794402405976,-163.61183590257082,178394440
sw,-69.1966323852539,-71.7958679199218,30.86765245828777,-164.63254251424627,178411107
sw,-70.0838623046875,-69.2651977539062,31.27426749809206,-162.71118471428696,178427774
sw,-70.9079895019531,-66.8828506469726,31.41742678979342,-158.83804893689808,178444441
sw,-71.5463256835937,-64.4986495971679,31.65055044459059,-153.64768140726343,178461108
sw,-72.2310791015625,-62.1687431335449,32.33093917916211,-147.31148277903898,178477775
sw,-73.1124114990234,-59.9894218444824,33.7174537833483,-139.6075947412881,178494442
sw,-74.066162109375,-57.9306335449218,35.888289622794304,-130.11555564918942,178511109
sw,-74.9558792114257,-56.0271263122558,38.70509197029726,-118.45122812377397,178527776
sw,-75.7618789672851,-54.2756958007812,41.8314357054369,-104.4591737878109,178544443
sw,-76.555435180664,-52.8177108764648,44.80119661556639,-88.30592667183342,178561110
sw,-77.4426193237304,-51.7479629516601,47.126171746011366,-70.45769982866796,178577777
sw,-78.4094619750976,-51.1261672973632,48.423318489169006,-51.56952917655544,178594444
sw,-79.3893356323242,-50.846694946289,48.52813023293709,-32.34619586811396,178611111
sw,-80.3443908691406,-50.810447692871,47.55315515431615,-13.442745998106476,178627778
sw,-81.209602355957,-51.013931274414,45.86224622644411,4.554447740393924,178644445
sw,-81.9778747558593,-51.1359519958496,43.96153785893711,21.077050448829166,178661112
sw,-82.6861114501953,-51.6006965637207,42.342360870692985,35.51464232029609,178677779
sw,-83.4130172729492,-52.5885505676269,41.33069524156401,47.21836856723572,178694446
sw,-84.1439590454101,-53.9366226196289,40.99280363641499,55.603518620874866,178711113
sw,-84.8731002807617,-55.077896118164,41.12193852539463,60.31825393046601,178727780
sw,-85.6260604858398,-56.1534996032714,41.30027401164447,61.39675014530664,178744447
sw,-86.4094848632812,-57.3365287780761,41.00690067491073,59.31988064397836,178761114
sw,-87.1478271484375,-58.3636474609375,39.73354343508516,54.95470744216727,178777781
sw,-87.7736663818359,-59.1399726867675,37.07488005328902,49.39671835607835,178794448
sw,-88.2533645629882,-59.9204978942871,32.77624760426781,43.76888973923783,178811115
sw,-88.587776184082,-60.7364997863769,26.741232340790003,39.03622724997921,178827782
sw,-88.8249740600586,-61.407356262207,19.0163008900551,35.88021722079115,178844449
sw,-88.9959487915039,-61.9056396484375,9.772472145895982,34.65220401332215,178861116
sw,-89.0670776367187,-62.8517036437988,-0.7055464190873285,35.396407569487764,178877783
sw,-88.9479827880859,-63.7785186767578,-12.02820455496407,37.91000593586842,178894450
sw,-88.6235733032226,-64.331916809082,-23.725928856106908,41.799354912220615,178911117
sw,-88.01318359375,-64.7936172485351,-35.308563407188196,46.50971518260049,178927784
sw,-86.9566345214843,-65.4814529418945,-46.36300191459359,51.346710937186124,178944451
sw,-85.4421157836914,-66.5778656005859,-56.66563492436793,55.53841504539951,178961118
sw,-83.696533203125,-68.0260772705078,-66.26107492578893,58.3716843919422,178977785
sw,-81.7102279663086,-69.4251327514648,-75.45414045371967,59.37805436341224,178994452
sw,-79.5591430664062,-70.5280151367187,-84.6884448345906,58.48880633606507,179011119
sw,-77.2472534179687,-71.4725494384765,-94.33279220984764,56.07310671676657,179027786
sw,-74.8096694946289,-72.3109741210937,-104.44281594887741,52.8246022875357,179044453
sw,-72.4903182983398,-73.0631942749023,-114.58828775213068,49.535496326295466,179061120
sw,-70.4059829711914,-73.8354568481445,-123.82551659892695,46.84842489143057,179077787
sw,-68.4436569213867,-74.6863632202148,-130.85043733363895,45.08196451240854,179094454
sw,-66.4824600219726,-75.6571350097656,-134.30381622845113,44.188839083411914,179111121
sw,-64.4190673828125,-76.6521072387695,-133.13809847824922,43.84792776891572,179127788
sw,-62.3468894958496,-77.5594253540039,-126.92233708856165,43.63917444009386,179144455
sw,-60.5669136047363,-78.3929672241211,-115.97560970421527,43.22582345117266,179161122
sw,-59.2116012573242,-79.1551971435546,-101.27973974179373,42.476953400617795,179177789
sw,-58.1948318481445,-79.801887512207,-84.20709129864437,41.49526531845637,179194456
sw,-57.3207702636718,-80.3392028808593,-66.1718405447905,40.55413028293384,179211123
sw,-56.596622467041,-80.8501205444336,-48.338135531492796,39.97978753361186,179227790
sw,-56.1015129089355,-81.462776184082,-31.483876920152824,40.0295682804865,179244457
sw,-55.8837699890136,-82.2123336791992,-16.043946107044103,40.81040093698144,179261124
sw,-55.8846931457519,-83.0279922485351,-2.277558523315531,42.25725750398718,179277791
sw,-55.9613647460937,-83.8564300537109,9.547607327271653,44.161718547476504,179294458
sw,-56.8046340942382,-84.6575012207031,19.066637563426692,46.22209083452184,179311125
sw,-58.249282836914,-85.4268417358398,25.88427750563877,48.086151508481315,179327792
sw,-59.8269462585449,-86.17919921875,29.763808465804082,49.37132425330016,179344459
sw,-60.7635917663574,-86.8635025024414,30.820205400673096,49.66412484372559,179361126
sw,-61.0381622314453,-87.3915786743164,29.589747347072553,48.512122758028724,179377793
sw,-61.3941650390625,-87.6486511230468,26.926318766578724,45.424803595723304,179394460
sw,-62.0535202026367,-87.6305770874023,23.780151549642486,39.89696257906643,179411127
sw,-62.8025512695312,-87.4533996582031,20.967219085035932,31.462598352604328,179427794
sw,-63.4050827026367,-87.2420349121093,19.014530719943167,19.779115653128404,179444461
sw,-64.1198425292968,-87.1194152832031,18.111771996650074,4.730297776400258,179461128
sw,-64.4857711791992,-87.1345443725586,18.160392203256343,-13.475589317916677,179477795
sw,-64.7497024536132,-87.2138595581054,18.893315981099583,-34.243064374075495,179494462
sw,-65.4478683471679,-87.136245727539,20.023704555845928,-56.589747584461556,179511129
sw,-65.9973754882812,-86.5990142822265,21.364949832788557,-79.22562405704558,179527796
sw,-66.1512985229492,-85.4802703857421,22.86612770704529,-100.70994689503883,179544463
sw,-66.3495941162109,-83.7894668579101,24.547391653375737,-119.66449055679341,179561130
sw,-66.8700180053711,-81.4734115600586,26.383027199191144,-135.0011957357884,179577797
sw,-67.7167053222656,-78.7007369995117,28.216942332448113,-146.10579174611627,179594464
sw,-68.7274475097656,-75.8436431884765,29.772604929447624,-152.91693596684192,179611131
sw,-69.6536560058593,-73.1681594848632,30.75575588474718,-155.86427487059711,179627798
sw,-70.4684143066406,-70.5768890380859,30.992898150177954,-155.67837216027934,179644465
sw,-71.2052307128906,-68.0577239990234,30.534214680516637,-153.1387979049367,179661132
sw,-71.869514465332,-65.6252670288086,29.67347203197127,-148.85168476688423,179677799
sw,-72.469985961914,-63.2340202331543,28.87705453351832,-143.12901798618998,179694466
sw,-73.1502304077148,-61.0675392150878,28.64908125197736,-135.99265586173848,179711133
sw,-73.9198532104492,-59.0747642517089,29.37915417664902,-127.27625591216606,179727800
sw,-74.7217559814453,-57.2658042907714,31.22106137984559,-116.77040373090676,179744467
sw,-75.4704360961914,-55.6315155029296,34.03826527009735,-104.3547461864911,179761134
sw,-76.1880569458007,-54.1686820983886,37.43270584941954,-90.07749501620124,179777801
sw,-76.9820861816406,-53.0155944824218,40.85285900513007,-74.16735217419257,179794468
sw,-77.85693359375,-52.2073783874511,43.755931206823455,-56.98938598619047,179811135
sw,-78.7765579223632,-51.7282180786132,45.778876151113245,-38.978753994608,179827802
sw,-79.7215423583984,-51.5550155639648,46.86109006234569,-20.595108550694007,179844469
sw,-80.6036605834961,-51.6276779174804,47.268594357956,-2.3270085085172223,179861136
sw,-81.390266418457,-51.9246063232421,47.49887218509801,15.259293363165563,179877803
sw,-82.1336898803711,-52.2390098571777,48.08836843100434,31.471796758135046,179894470
sw,-82.9065475463867,-53.1984214782714,49.38306634939764,45.50725767611566,179911137
sw,-83.7305221557617,-54.6448364257812,51.34959635454831,56.563563109336215,179927804
sw,-84.5750885009765,-55.9485626220703,53.49354008074706,64.02382933750805,179944471
sw,-85.4494323730468,-57.168041229248,54.91877141676011,67.63183329882527,179961138
sw,-86.3829650878906,-58.4225006103515,54.51876811565055,67.57547935924762,179977805
sw,-87.2593383789062,-59.3214302062988,51.24975530777275,64.44603635264389,179994472
sw,-87.8335494995117,-60.0620956420898,44.407561083001426,59.105839210047876,180011139
sw,-88.0813369750976,-60.8896217346191,33.82577468426832,52.533582234055,180027806
sw,-88.1634674072265,-61.7948875427246,19.936897369470767,45.7084191890218,180044473
sw,-88.2261276245117,-62.4988594055175,3.683423880478193,39.55222284426303,180061140
sw,-88.178237915039,-63.320083618164,-13.685719484759614,34.90011531541742,180077807
sw,-87.9158782958984,-64.0948791503906,-30.866589751033114,32.4434667657501,180094474
sw,-87.4246597290039,-64.4274520874023,-46.731105325621485,32.60754817198745,180111141
sw,-86.5957870483398,-64.6804428100586,-60.49351224143742,35.385989833571855,180127808
sw,-85.1827697753906,-65.1997528076171,-71.79923686021752,40.2224473782415,180144475
sw,-83.3517608642578,-66.1819763183593,-80.73826176755755,46.050272276949165,180161142
sw,-81.4245376586914,-67.5630569458007,-87.7820900710038,51.53885380884871,180177809
sw,-79.3413391113281,-68.9577102661132,-93.6403251036319,55.48000396015911,180194476
sw,-77.1151046752929,-70.1485900878906,-99.04899002759025,57.15734348925531,180211143
sw,-74.7054367065429,-71.0914840698242,-104.53508537978772,56.53886049511069,180227810
sw,-72.1408615112304,-71.8055114746093,-110.22690460471182,54.21769554908977,180244477
sw,-69.8507232666015,-72.4999465942382,-115.77536824381099,51.14383656303061,180261144
sw,-67.9672470092773,-73.3211669921875,-120.4174072246003,48.27387582313267,180277811
sw,-66.1837768554687,-74.3062515258789,-123.16664771663707,46.28041209973189,180294478
sw,-64.2850875854492,-75.3659591674804,-123.07789789893238,45.412867799086435,180311145
sw,-62.3880500793457,-76.3746719360351,-119.5079236826631,45.524052216954146,180327812
sw,-60.6587257385253,-77.2771759033203,-112.2907161143382,46.21351357481283,180344479
sw,-59.2310256958007,-78.0927429199218,-101.76930981714376,47.0129315194185,180361146
sw,-58.0642852783203,-78.8730926513671,-88.67792565904756,47.54797247202651,180377813
sw,-57.0359649658203,-79.674331665039,-73.92710864348305,47.63726263801531,180394480
sw,-56.2003097534179,-80.4640121459961,-58.380326678828,47.315685107846825,180411147
sw,-55.6808586120605,-81.2087783813476,-42.70658963414346,46.78923173929497,180427814
sw,-55.4296569824218,-81.9342803955078,-27.356573471834206,46.342591944066015,180444481
sw,-55.3426513671875,-82.6670379638671,-12.657629687897971,46.22938880906987,180461148
sw,-55.4097061157226,-83.3800277709961,1.0281340304134876,46.57702624134003,180477815
sw,-55.5271186828613,-84.0928344726562,13.17448110564345,47.332338435109236,180494482
sw,-56.2528495788574,-84.8515167236328,23.083441026028844,48.261892902204345,180511149
sw,-57.6866989135742,-85.7022628784179,30.041782001112907,49.00430213492499,180527816
sw,-59.1515502929687,-86.6079483032226,33.59052246089625,49.15413073395017,180544483
sw,-60.0797042846679,-87.4152526855468,33.7725172472955,48.343280654615924,180561150
sw,-60.3567771911621,-87.8877029418945,31.215049007553056,46.284035496812876,180577817
sw,-60.5951042175293,-87.9142837524414,26.990240591649847,42.753787161176724,180594484
sw,-61.0094299316406,-87.7071456909179,22.31780187947646,37.531593974740055,180611151
sw,-61.4979782104492,-87.4984512329101,18.24764307762562,30.327562167662006,180627818
sw,-62.1250915527343,-87.3649291992187,15.44785426425113,20.75975223595974,180644485
sw,-62.9815559387207,-87.3013687133789,14.15438221846579,8.418553484867868,180661152
sw,-63.485050201416,-87.2859573364257,14.262459154887411,-6.981003906517621,180677819
sw,-63.7836418151855,-87.3038330078125,15.490755505918601,-25.40456301167114,180694486
sw,-64.2764282226562,-87.3308334350586,17.538321761623536,-46.33710588514745,180711153
sw,-64.7960052490234,-87.1927185058593,20.174430577447502,-68.73019411239578,180727820
sw,-65.0075149536132,-86.5511093139648,23.238170585409343,-91.10089720859341,180744487
sw,-65.3668441772461,-85.1515579223632,26.567919282099986,-111.7737715469647,180761154
sw,-65.9059982299804,-83.0761260986328,29.918739090303475,-129.20494008566084,180777821
sw,-66.8309326171875,-80.4636840820312,32.936070781564744,-142.2932675286966,180794488
sw,-67.9438247680664,-77.5960464477539,35.22155882125589,-150.58088118878356,180811155
sw,-68.8933334350586,-74.8880386352539,36.46774320683137,-154.2782001329475,180827822
sw,-69.7836456298828,-72.3695907592773,36.59308666959635,-154.1095743790178,180844489
sw,-70.6229171752929,-69.8925170898437,35.806822074832645,-151.04181445993132,180861156
sw,-71.3469924926757,-67.5218734741211,34.57016580226853,-145.9975349337101,180877823
sw,-72.039192199707,-65.2099609375,33.46915902526894,-139.6478121087699,180894490
sw,-72.8295745849609,-63.0161590576171,33.04879390223792,-132.33209107029214,180911157
sw,-73.7036209106445,-60.9977416992187,33.665892046818755,-124.09720787378487,180927824
sw,-74.5834579467773,-59.1536750793457,35.40136129515629,-114.80948497956274,180944491
sw,-75.4011688232421,-57.4645957946777,38.04480256536688,-104.28397722723909,180961158
sw,-76.194709777832,-55.9209823608398,41.143030272586934,-92.38702551696846,180977825
sw,-76.995246887207,-54.6375160217285,44.096166302544226,-79.09094312423272,180994492
sw,-77.7819595336914,-53.694107055664,46.28482714236614,-64.48404786393444,181011159
sw,-78.6031265258789,-53.091697692871,47.21032449033257,-48.75901867682859,181027826
sw,-79.4868774414062,-52.7448005676269,46.62355207794062,-32.21017930892463,181044493
sw,-80.3843383789062,-52.5585861206054,44.61147896728755,-15.258649707551214,181061160
sw,-81.1952438354492,-52.6805725097656,41.610552484858715,1.5047592614423202,181077827
sw,-81.9270095825195,-52.8199577331543,38.32964171583498,17.299264928772878,181094494
sw,-82.6064910888671,-53.4070014953613,35.59002798597128,31.205465448633056,181111161
sw,-83.2321853637695,-54.3689384460449,34.116877207768304,42.311561903550505,181127828
sw,-83.8091659545898,-55.5663528442382,34.3342665530316,49.92648542577246,181144495
sw,-84.4130706787109,-56.6208000183105,36.21803758691711,53.78502574222952,181161162
sw,-85.1041946411132,-57.6985549926757,39.24758536051546,54.15951565474813,181177829
sw,-85.8531951904296,-58.8142738342285,42.47314322799783,51.82738081704149,181194496
sw,-86.593147277832,-59.6039390563964,44.68619788584396,47.90201921937081,181211163
sw,-87.2807006835937,-60.272964477539,44.6560293927453,43.584050986009366,181227830
sw,-87.8540573120117,-61.0568923950195,41.38128631675617,39.91206692454365,181244497
sw,-88.1939849853515,-61.7392349243164,34.30335622538079,37.584021652612634,181261164
sw,-88.3180999755859,-62.1214714050293,23.43639139156095,36.88996862278913,181277831
sw,-88.3301239013671,-62.8043136596679,9.384698960421959,37.756948259557966,181294498
sw,-88.33740234375,-63.9335708618164,-6.761158378374428,39.86937448761486,181311165
sw,-88.2741012573242,-64.7699203491211,-23.635314802692058,42.8034698704968,181327832
sw,-87.8732986450195,-65.3427124023437,-39.87666712133769,46.11765971067401,181344499
sw,-86.8912124633789,-65.9821472167968,-54.418213490909714,49.3814424090227,181361166
sw,-85.3266372680664,-66.9273071289062,-66.7119276084603,52.17926972421343,181377833
sw,-83.511245727539,-68.2173385620117,-76.8185184219313,54.14528912584149,181394500
sw,-81.5485916137695,-69.5380325317382,-85.31946978066759,55.047801566454446,181411167
sw,-79.3809585571289,-70.6505661010742,-93.06127267185516,54.88218137733236,181427834
sw,-77.0989608764648,-71.6113204956054,-100.8026974507635,53.903043692371114,181444501
sw,-74.685302734375,-72.400161743164,-108.87836725612324,52.55454955319355,181461168
sw,-72.4051818847656,-73.1616668701171,-116.9949532827411,51.317898506510566,181477835
sw,-70.4047927856445,-74.0643005371093,-124.23781808471371,50.54272009630614,181494502
sw,-68.5086822509765,-75.0949783325195,-129.29947741704746,50.335426018545114,181511169
sw,-66.5378875732421,-76.1525421142578,-130.86638061815998,50.54489512161259,181527836
sw,-64.4603958129882,-77.1707687377929,-128.03876662540085,50.838921114841696,181544503
sw,-62.4975357055664,-78.1035079956054,-120.63385182273751,50.830672523353755,181561170
sw,-60.8929557800293,-78.9674530029296,-109.254742196161,50.2055705151362,181577837
sw,-59.6347579956054,-79.7585754394531,-95.09409352115617,48.81111291321535,181594504
sw,-58.5626182556152,-80.4821701049804,-79.54930047244568,46.69303379531331,181611171
sw,-57.5813903808593,-81.147102355957,-63.80374810318621,44.08026351694721,181627838
sw,-56.8546104431152,-81.7791137695312,-48.539001617658144,41.33313273682199,181644505
sw,-56.4084701538085,-82.4201965332031,-33.885235666107555,38.87301772716638,181661172
sw,-56.1365661621093,-83.0725326538086,-19.621439448661715,37.108546462385206,181677839
sw,-56.0315246582031,-83.7134399414062,-5.5381203620045865,36.36688778134926,181694506
sw,-56.018325805664,-84.3450775146484,8.198085465344686,36.83301536999425,181711173
sw,-56.6425666809082,-84.9988403320312,20.857934769486672,38.498430769817254,181727840
sw,-58.1900825500488,-85.6701202392578,31.26081608507551,41.12317787564025,181744507
sw,-60.0022239685058,-86.3051986694336,38.16685604794774,44.21770892503127,181761174
sw,-61.4619979858398,-86.8613815307617,40.78102082528192,47.05169649383219,181777841
sw,-62.1766548156738,-87.228157043457,39.127447162108666,48.695526943832355,181794508
sw,-62.6131591796875,-87.312271118164,34.114270627790134,48.09851250488941,181811175
sw,-63.0556106567382,-87.1608963012695,27.268484892946567,44.20597038475767,181827842
sw,-63.2601623535156,-86.9014358520507,20.27490538182749,36.11304860644905,181844509
sw,-63.6022796630859,-86.6850128173828,14.520230820925923,23.243564664355205,181861176
sw,-64.2945861816406,-86.6247253417968,10.80803760051299,5.526812078210018,181877843
sw,-64.3781585693359,-86.7993698120117,9.312130832886528,-16.470846238238874,181894510
sw,-64.3538665771484,-87.1743774414062,9.729694474376426,-41.5106854555971,181911177
sw,-64.6365356445312,-87.4865112304687,11.527735284337297,-67.78462207538455,181927844
sw,-64.8675003051757,-87.1067352294921,14.164927962776892,-93.16876630743256,181944511
sw,-64.9469985961914,-85.6304931640625,17.209076724734135,-115.59370084878954,181961178
sw,-65.3102951049804,-83.2837905883789,20.338253984298202,-133.4482966866246,181977845
sw,-65.7991714477539,-80.4564361572265,23.28028029245769,-145.90140480478573,181994512
sw,-66.6408920288086,-77.5514678955078,25.772700679822563,-153.03128248676705,182011179
sw,-67.6486892700195,-74.8596115112304,27.595523382731788,-155.70615055571724,182027846
sw,-68.5670471191406,-72.3994903564453,28.663535814631263,-155.24724001587438,182044513
sw,-69.4026184082031,-69.9991989135742,29.11150518598749,-152.98979518454303,182061180
sw,-70.0736541748046,-67.6164932250976,29.301131055387582,-149.89409360709675,182077847
sw,-70.6425704956054,-65.1969299316406,29.72368911585826,-146.32842061265282,182094514
sw,-71.2923202514648,-62.8396415710449,30.83394629198307,-142.0687914811972,182111181
sw,-72.1245651245117,-60.6707611083984,32.88909233603512,-136.47914382879344,182127848
sw,-73.0698699951171,-58.6331710815429,35.86049912915597,-128.78654662042885,182144515
sw,-73.9639739990234,-56.7509994506835,39.44597558265184,-118.3581824035962,182161182
sw,-74.7719650268554,-55.0779342651367,43.165957723642954,-104.90786215900731,182177849
sw,-75.5876312255859,-53.6419792175293,46.503507003475285,-88.59217419379658,182194516
sw,-76.5119705200195,-52.5539741516113,49.04679496367734,-69.98964237532161,182211183
sw,-77.514045715332,-51.864028930664,50.600108990727456,-49.98614299317395,182227850
sw,-78.5377578735351,-51.5257492065429,51.23617654761186,-29.611654638616805,182244517
sw,-79.519905090332,-51.4736328125,51.27221784696116,-9.880420545819716,182261184
sw,-80.4458923339843,-51.8634071350097,51.17054622833946,8.32515818741464,182277851
sw,-81.3443374633789,-52.2197914123535,51.388445705183166,24.312558414983947,182294518
sw,-82.25537109375,-52.8769798278808,52.21998292091528,37.59250637429537,182311185
sw,-83.177749633789,-53.8455505371093,53.67517037030025,47.87622234691283,182327852
sw,-84.1087799072265,-54.9840202331543,55.429762005010616,55.07868914145707,182344519
sw,-85.0363540649414,-56.0667495727539,56.859250671672044,59.32695598158219,182361186
sw,-85.9751358032226,-57.1817893981933,57.15045156150666,60.951923052054724,182377853
sw,-86.8910217285156,-58.2214698791503,55.466535134518445,60.44242491279002,182394520
sw,-87.6034698486328,-59.0727958679199,51.12812397756074,58.361697438545924,182411187
sw,-88.0214767456054,-59.8979034423828,43.76755893158606,55.25235197460307,182427854
sw,-88.2095413208007,-60.675479888916,33.41941068441776,51.570079891418295,182444521
sw,-88.271728515625,-61.5733032226562,20.52699270182707,47.67946041911485,182461188
sw,-88.3127517700195,-62.47607421875,5.865988724088439,43.91618828072376,182477855
sw,-88.3236923217773,-63.4768142700195,-9.594425882201598,40.67741262120467,182494522
sw,-88.1697692871093,-64.4602355957031,-24.859744036554495,38.4676720738926,182511189
sw,-87.6897964477539,-64.9866027832031,-39.070741984032374,37.83179136059672,182527856
sw,-86.9445648193359,-65.230728149414,-51.62685076095165,39.16448477265183,182544523
sw,-85.8909149169921,-65.6786880493164,-62.25737618682932,42.47658359545558,182561190
sw,-84.4380264282226,-66.5392150878906,-71.03898678953966,47.257379542321054,182577857
sw,-82.7106781005859,-67.9282150268554,-78.36083791642386,52.5443796281938,182594524
sw,-80.7062683105468,-69.4454345703125,-84.83299018793107,57.200740600820026,182611191
sw,-78.5313873291015,-70.6987838745117,-91.1331135293971,60.27959645681049,182627858
sw,-76.2918319702148,-71.6863861083984,-97.80358763131649,61.30606525133664,182644525
sw,-74.0458450317382,-72.5553894042968,-105.04318894557893,60.359044312368646,182661192
sw,-71.9601669311523,-73.3766250610351,-112.56462720426443,57.943753452201925,182677859
sw,-70.0652389526367,-74.2822570800781,-119.58724998830965,54.74192519469144,182694526
sw,-68.2424240112304,-75.2473983764648,-124.99352115220684,51.36241710554889,182711193
sw,-66.3659057617187,-76.2308654785156,-127.6129668664144,48.18787747458936,182727860
sw,-64.4370193481445,-77.2073898315429,-126.54039342200312,45.35165022583679,182744527
sw,-62.6572532653808,-78.0848693847656,-121.3769878332877,42.819112996900934,182761194
sw,-61.1743507385253,-78.8659973144531,-112.31402964421805,40.51309891701706,182777861
sw,-59.8950576782226,-79.5474090576171,-100.0436087068048,38.41997792437088,182794528
sw,-58.7558212280273,-80.125244140625,-85.54601903281372,36.63398328361627,182811195
sw,-57.7252540588378,-80.5847015380859,-69.83918515608912,35.32997523726302,182827862
sw,-57.0117683410644,-81.0118942260742,-53.7726934339966,34.686582469897125,182844529
sw,-56.594066619873,-81.5072402954101,-37.92186011150792,34.801190606186495,182861196
sw,-56.4785232543945,-82.1138000488281,-22.604505246948314,35.637394467861206,182877863
sw,-56.5122451782226,-82.8033981323242,-8.00949033364756,37.02495842134098,182894530
sw,-56.5001525878906,-83.4903106689453,5.613933608064975,38.704212476317565,182911197
sw,-56.646499633789,-84.1479721069336,17.79734345101137,40.38783365568885,182927864
sw,-57.6468658447265,-84.7850341796875,27.8274356922729,41.812045944913415,182944531
sw,-59.133975982666,-85.4841690063476,34.90527541744849,42.76176223601423,182961198
sw,-60.5752830505371,-86.2377700805664,38.43857509559254,43.067821750481826,182977865
sw,-61.3165550231933,-86.9289093017578,38.32405119325574,42.58094904466492,182994532
sw,-61.7536735534668,-87.4062576293945,35.072110604727456,41.12835825319113,183011199
sw,-62.2733688354492,-87.6008605957031,29.71442258730475,38.462740043430784,183027866
sw,-62.80712890625,-87.6138610839843,23.54727230458247,34.222662538603124,183044533
sw,-63.2780570983886,-87.5602493286132,17.82450869258183,27.931414563817327,183061200
sw,-63.9171295166015,-87.5150985717773,13.505188961785953,19.057529485921954,183077867
sw,-64.2691879272461,-87.4850311279296,11.114851944916696,7.140967963208778,183094534
sw,-64.1886596679687,-87.4934539794921,10.732585751140306,-8.03871948556635,183111201
sw,-64.580696105957,-87.5711822509765,12.083335656547057,-26.29970172966908,183127868
sw,-65.0414505004882,-87.6173934936523,14.692041869048335,-46.95816558010876,183144535
sw,-65.3299331665039,-87.3371429443359,18.04032019966284,-68.84074376689433,183161202
sw,-65.5046844482421,-86.37841796875,21.670109774363677,-90.4308305742737,183177869
sw,-65.8064041137695,-84.7100982666015,25.213107766964395,-110.12873308174103,183194536
sw,-66.3934249877929,-82.4704284667968,28.371792666591293,-126.5615815842274,183211203
sw,-67.2586898803711,-79.8570098876953,30.900766377586255,-138.85087846223308,183227870
sw,-68.1675643920898,-77.1186904907226,32.620518076097014,-146.74979091576927,183244537
sw,-69.0301513671875,-74.5375289916992,33.45921405565174,-150.60351933510324,183261204
sw,-69.8985061645507,-72.0416030883789,33.49218653998595,-151.15127619267324,183277871
sw,-70.6335144042968,-69.5794906616211,32.947323268089114,-149.24860246432542,183294538
sw,-71.2963638305664,-67.2305679321289,32.16181436251409,-145.61319468553793,183311205
sw,-71.9448776245117,-64.927749633789,31.499344385002722,-140.67467860496208,183327872
sw,-72.6745529174804,-62.738670349121,31.25592158835216,-134.55544933053073,183344539
sw,-73.497802734375,-60.7019271850585,31.588257538466717,-127.15664847278313,183361206
sw,-74.2731246948242,-58.8302764892578,32.48788784474463,-118.29368752906373,183377873
sw,-74.9977493286132,-57.0775909423828,33.80433019386857,-107.82426753612947,183394540
sw,-75.7093658447265,-55.4419250488281,35.30389543333994,-95.72946741788351,183411207
sw,-76.4439239501953,-54.0715255737304,36.7438179635682,-82.1331200460585,183427874
sw,-77.2123184204101,-53.0318603515625,37.941813678239455,-67.26905098371617,183444541
sw,-77.9910430908203,-52.3586654663085,38.82442960900439,-51.426021059234444,183461208
sw,-78.7823867797851,-51.9868431091308,39.442289814242585,-34.91033066309567,183477875
sw,-79.588394165039,-51.8103790283203,39.94747172421554,-18.05772447834407,183494542
sw,-80.3800277709961,-51.8523025512695,40.537837574357894,-1.297283376598018,183511209
sw,-81.1256866455078,-51.9478111267089,41.38341559268538,14.768451650678745,183527876
sw,-81.8897171020507,-52.2947578430175,42.55756415019936,29.32912078116981,183544543
sw,-82.6957778930664,-53.1113700866699,43.996517981740844,41.43369193975638,183561210
sw,-83.5058135986328,-54.2035026550293,45.50230316520161,50.17162972108053,183577877
sw,-84.3358688354492,-55.2927093505859,46.78781065621498,54.92029937614446,183594544
sw,-85.1923370361328,-56.3266067504882,47.545683935015745,55.56901572828932,183611211
sw,-86.0331573486328,-57.4460220336914,47.51230296619595,52.6317386035133,183627878
sw,-86.7573165893554,-58.4183845520019,46.49975232462314,47.20014953592621,183644545
sw,-87.3257064819336,-59.1501007080078,44.3833084022169,40.741736589124514,183661212
sw,-87.7884902954101,-59.7676391601562,41.054924711291484,34.793281173136414,183677879
sw,-88.1427001953125,-60.2981758117675,36.37365406493375,30.63047163633863,183694546
sw,-88.3412933349609,-60.7996940612793,30.1498835382511,29.00421235065663,183711213
sw,-88.376350402832,-61.2080574035644,22.186135546165147,30.018672329884847,183727880
sw,-88.281494140625,-61.8633728027343,12.36815065380847,33.185447084641595,183744547
sw,-88.1473388671875,-62.9777679443359,0.7697181364103697,37.63075215013441,183761214
sw,-87.9861755371093,-63.9056892395019,-12.280914965079226,42.37699469629671,183777881
sw,-87.7248001098632,-64.5100555419921,-26.21649439772371,46.594751607284664,183794548
sw,-87.1889572143554,-65.1746673583984,-40.3403445858724,49.74673038427498,183811215
sw,-86.1333541870117,-65.9994430541992,-54.000901913601496,51.60871267397226,183827882
sw,-84.5750198364257,-67.0432052612304,-66.7667646855765,52.210419153413355,183844549
sw,-82.6896057128906,-68.1745300292968,-78.52536346870814,51.75616646471243,183861216
sw,-80.6634445190429,-69.2669448852539,-89.4501542482554,50.562054304844466,183877883
sw,-78.550910949707,-70.2776641845703,-99.83454694893669,49.01099335900643,183894550
sw,-76.2993087768554,-71.1823196411132,-109.85323799239391,47.506172042989164,183911217
sw,-73.9584350585937,-71.9679946899414,-119.350722774127,46.40692421876791,183927884
sw,-71.8655853271484,-72.7560348510742,-127.75116343196288,45.95057313472487,183944551
sw,-69.9307632446289,-73.5880661010742,-134.13741637206442,46.18436661964799,183961218
sw,-67.9137725830078,-74.5081558227539,-137.48212297399496,46.93974091704405,183977885
sw,-65.8861389160156,-75.5310745239257,-136.9542676178374,47.87098325150523,183994552
sw,-63.8817481994628,-76.5433731079101,-132.1902867787736,48.555752460309975,184011219
sw,-62.080997467041,-77.4884567260742,-123.42577157028987,48.62805962175676,184027886
sw,-60.5315628051757,-78.356948852539,-111.43543687499951,47.89928880468917,184044553
sw,-59.199047088623,-79.136734008789,-97.30574782130995,46.426814520289035,184061220
sw,-58.0917854309082,-79.8199234008789,-82.13113387728322,44.50915323238311,184077887
sw,-57.1593551635742,-80.4585800170898,-66.75151717463588,42.6112667578361,184094554
sw,-56.4977073669433,-81.0940475463867,-51.62795972139272,41.24387298929137,184111221
sw,-56.0986938476562,-81.7510299682617,-36.89738184075451,40.83079853496595,184127888
sw,-55.8381958007812,-82.4373550415039,-22.577699998330427,41.59773461127997,184144555
sw,-55.7021751403808,-83.1374435424804,-8.83121442466511,43.507288734540076,184161222
sw,-55.7595825195312,-83.88330078125,3.8435259462216917,46.25324094561235,184177889
sw,-56.528076171875,-84.7025070190429,14.609350345318575,49.31398501192978,184194556
sw,-57.9779472351074,-85.6275329589843,22.518817578492854,52.05156609051841,184211223
sw,-59.6008110046386,-86.6326217651367,26.89238601776714,53.8290577910541,184227890
sw,-60.5672416687011,-87.5437774658203,27.664087692481186,54.109176436526,184244557
sw,-60.8671989440918,-88.1349182128906,25.507487161364793,52.4984760933581,184261224
sw,-61.1719932556152,-88.2391967773437,21.6639764708505,48.720352958359506,184277891
sw,-61.4313507080078,-88.0520782470703,17.550872054609762,42.533732617609644,184294558
sw,-61.7076530456543,-87.8057250976562,14.328864183604107,33.64795782796376,184311225
sw,-62.2828979492187,-87.6078872680664,12.607302842963279,21.697727264436065,184327892
sw,-63.0669631958007,-87.4657211303711,12.384009990008957,6.322508787595917,184344559
sw,-63.5675888061523,-87.3775100708007,13.20965845802272,-12.652118652677174,184361226
sw,-64.0048522949218,-87.3294372558593,14.483456276892255,-34.98746547059547,184377893
sw,-64.6318664550781,-87.2160415649414,15.75080860264176,-59.85112160950395,184394560
sw,-65.0106887817382,-86.7361373901367,16.885266458797933,-85.77569225411965,184411227
sw,-65.0529174804687,-85.5930938720703,18.087006929718655,-110.81242128594133,184427894
sw,-65.120246887207,-83.7272109985351,19.70767099017949,-132.86983281213304,184444561
sw,-65.3599777221679,-81.0736618041992,21.993356219701354,-150.15525562734612,184461228
sw,-66.0242462158203,-77.9750061035156,24.882293946205216,-161.58458891718556,184477895
sw,-67.1173782348632,-74.8094406127929,27.967459663486594,-167.0178190182005,184494562
sw,-68.1355438232421,-71.8983840942382,30.64566468834972,-167.2274870290457,184511229
sw,-68.9392700195312,-69.276985168457,32.3761440104721,-163.60275052947352,184527896
sw,-69.8036804199218,-66.9456024169921,32.92152403106211,-157.69326215304548,184544563
sw,-70.6258544921875,-64.7786865234375,32.46274637375169,-150.7560822106063,184561230
sw,-71.2079544067382,-62.6460533142089,31.544264075745918,-143.45792722934218,184577897
sw,-71.7257843017578,-60.5487594604492,30.88011797301991,-135.81412077618137,184594564
sw,-72.473388671875,-58.4425964355468,31.105806783441434,-127.35144393323542,184611231
sw,-73.374755859375,-56.4069747924804,32.573998749839035,-117.40509757154895,184627898
sw,-74.1943740844726,-54.6116600036621,35.259974171363076,-105.42646991871611,184644565
sw,-74.9183502197265,-53.1645622253418,38.78871626931936,-91.19482817590207,184661232
sw,-75.6300277709961,-52.1478805541992,42.55405126109279,-74.88092684115105,184677899
sw,-76.3928680419921,-51.50874710083,45.88556775698669,-56.97879525285832,184694566
sw,-77.218505859375,-51.1140098571777,48.22092092353563,-38.17310751835065,184711233
sw,-78.1435089111328,-50.9761657714843,49.245847489632716,-19.220805170963263,184727900
sw,-79.1089401245117,-51.1061210632324,48.96958545699344,-0.8946401425084374,184744567
sw,-80.012092590332,-51.2250175476074,47.7145607958269,16.017297567573586,184761234
sw,-80.8375854492187,-51.5893440246582,46.018917059288874,30.7077263123437,184777901
sw,-81.5858612060546,-52.3339157104492,44.474951070964956,42.404874286855694,184794568
sw,-82.273567199707,-53.6187782287597,43.54740854175379,50.51412698219973,184811235
sw,-82.9684600830078,-55.000690460205,43.424549226425874,54.809288262618566,184827902
sw,-83.7317733764648,-56.1146850585937,43.94722993786598,55.58029059662604,184844569
sw,-84.5830078125,-57.0324897766113,44.63737167686269,53.64193790202733,184861236
sw,-85.4671936035156,-57.7895202636718,44.81373668324087,50.16828175612155,184877903
sw,-86.2277908325195,-58.4253578186035,43.75306811497542,46.402303698345584,184894570
sw,-86.7805862426757,-59.104148864746,40.842918548378755,43.34892216648857,184911237
sw,-87.1943283081054,-59.8349494934082,35.68513798714686,41.56365941526824,184927904
sw,-87.5640258789062,-60.6420555114746,28.137538916998974,41.10629005196538,184944571
sw,-87.8816986083984,-61.4363212585449,18.307640252159732,41.66294211498336,184961238
sw,-88.1250839233398,-62.4021530151367,6.5225516794553355,42.776599859622536,184977905
sw,-88.2026748657226,-63.4818534851074,-6.707795028015676,44.084705879179424,184994572
sw,-88.046157836914,-64.1828842163086,-20.731403919562144,45.459743284422686,185011239
sw,-87.6332168579101,-64.659309387207,-34.8084409729519,46.993487490588564,185027906
sw,-86.8664321899414,-65.2255401611328,-48.19188804146771,48.84592011515813,185044573
sw,-85.6458969116211,-66.0165176391601,-60.2388461358212,51.0540781213607,185061240
sw,-83.9867324829101,-67.0868682861328,-70.53599063062812,53.416231610082725,185077907
sw,-82.1247100830078,-68.3338928222656,-78.99903709453163,55.5181581909113,185094574
sw,-80.1059646606445,-69.5217208862304,-85.8965113610023,56.88395102846575,185111241
sw,-77.8848190307617,-70.6271820068359,-91.76523773331463,57.167489008939285,185127908
sw,-75.5508804321289,-71.6334457397461,-97.22467939815185,56.28769416538514,185144575
sw,-73.196060180664,-72.4422836303711,-102.74085438963775,54.44948256341887,185161242
sw,-71.0733261108398,-73.1983566284179,-108.41773263483718,52.05411540207003,185177909
sw,-69.1150512695312,-74.0194778442382,-113.89295241774407,49.553115869610835,185194576
sw,-67.2424011230468,-74.9557571411132,-118.38394989448766,47.31598807835314,185211243
sw,-65.3438720703125,-75.9891967773437,-120.8787783522668,45.560608691077356,185227910
sw,-63.3996353149414,-76.9691772460937,-120.4113952120573,44.35382669716132,185244577
sw,-61.5775299072265,-77.835823059082,-116.32750180568819,43.65537762652743,185261244
sw,-60.0685577392578,-78.5907287597656,-108.45154201151449,43.36878538852566,185277911
sw,-58.878849029541,-79.2584915161132,-97.1080023275948,43.3770432138515,185294578
sw,-57.8496932983398,-79.8877716064453,-83.00992312879322,43.562584186153664,185311245
sw,-56.9929809570312,-80.5719757080078,-67.07404997188605,43.82388262529984,185327912
sw,-56.3400573730468,-81.3178253173828,-50.235438830967674,44.09833598207426,185344579
sw,-55.9932289123535,-82.0796279907226,-33.317702603011035,44.38759848792722,185361246
sw,-55.9015846252441,-82.856201171875,-16.985741231158485,44.76845090081061,185377913
sw,-56.0844650268554,-83.6262512207031,-1.7781006696144577,45.369747152350264,185394580
sw,-56.3264198303222,-84.3402633666992,11.812572993629601,46.30713619258736,185411247
sw,-56.8066215515136,-85.0108871459961,23.267641945518953,47.58711220195394,185427914
sw,-57.9590797424316,-85.6951141357421,32.04187920938766,49.01037264136226,185444581
sw,-59.436237335205,-86.4085006713867,37.664968634323934,50.111219636915315,185461248
sw,-60.8297805786132,-87.0641555786132,39.91158529190284,50.16037032538735,185477915
sw,-61.6288528442382,-87.5239334106445,38.9521111314638,48.23791894969999,185494582
sw,-62.1501922607421,-87.6164093017578,35.3977179572548,43.36240437381076,185511249
sw,-62.7579650878906,-87.3868637084961,30.211977202505754,34.650543406470526,185527916
sw,-63.3873863220214,-87.0961380004882,24.527555665733964,21.482546074010752,185544583
sw,-64.0047302246093,-86.859260559082,19.434526509504735,3.654458770976732,185561250
sw,-64.1182785034179,-86.7432174682617,15.795767129923194,-18.497975326329204,185577917
sw,-64.0737686157226,-86.7124099731445,14.123678478750673,-44.02579986073527,185594584
sw,-64.4202270507812,-86.5830459594726,14.535540290886237,-71.37662500520248,185611251
sw,-64.8900527954101,-86.0130233764648,16.78544588997051,-98.52304814313028,185627918
sw,-65.197280883789,-84.6611633300781,20.349989857110135,-123.22610639817411,185644585
sw,-65.7356719970703,-82.4146575927734,24.539056503371445,-143.4074543907778,185661252
sw,-66.3856811523437,-79.4345397949218,28.616186268590756,-157.55010614589116,185677919
sw,-67.1945648193359,-76.1637496948242,31.925649384167055,-165.00862934036746,185694586
sw,-68.0293273925781,-73.1355819702148,34.0185245432163,-166.1146841906539,185711253
sw,-68.9567337036132,-70.5014038085937,34.753057254069226,-162.02554559630454,185727920
sw,-69.829116821289,-68.2320709228515,34.33307591128991,-154.3611818137023,185744587
sw,-70.5272064208984,-66.1741485595703,33.25605381076071,-144.76011138394944,185761254
sw,-71.1459884643554,-64.1807785034179,32.1717821958244,-134.50880666187464,185777921
sw,-71.7808532714843,-62.2181816101074,31.69113521333746,-124.35343301348341,185794588
sw,-72.5192794799804,-60.2635459899902,32.20952473640191,-114.51649324704293,185811255
sw,-73.3349914550781,-58.3979263305664,33.80483917979283,-104.86021920934014,185827922
sw,-74.1593856811523,-56.6762619018554,36.23826574233751,-95.09662529424097,185844589
sw,-74.9834365844726,-55.1780128479003,39.047404188263684,-84.95080664932856,185861256
sw,-75.8058395385742,-54.0836906433105,41.69284217982032,-74.22898476865774,185877923
sw,-76.60693359375,-53.3346328735351,43.709323903458596,-62.80293871562893,185894590
sw,-77.3944625854492,-52.826374053955,44.81898150627541,-50.56925616556442,185911257
sw,-78.1705322265625,-52.4165611267089,44.981176852877816,-37.45096268907533,185927924
sw,-78.9634017944336,-52.111961364746,44.374617122254115,-23.47385793538803,185944591
sw,-79.7798309326171,-51.83296585083,43.32585146043097,-8.889613926927774,185961258
sw,-80.602424621582,-51.7791938781738,42.20932639089369,5.7304326102137475,185977925
sw,-81.3857727050781,-52.1857109069824,41.34709017182515,19.51023166307323,185994592
sw,-82.1339874267578,-52.9847831726074,40.933018338179416,31.424258600126524,186011259
sw,-82.8889236450195,-53.9556198120117,40.998566278541475,40.551345068099685,186027926
sw,-83.6790390014648,-54.8373680114746,41.42448202468041,46.33070830162884,186044593
sw,-84.4911346435546,-55.7617111206054,41.98719878128895,48.72024895823049,186061260
sw,-85.2727508544921,-56.6924514770507,42.415728993892714,48.20316965082114,186077927
sw,-85.9899520874023,-57.5162239074707,42.43250125828737,45.65310551645711,186094594
sw,-86.6242065429687,-58.2154998779296,41.76276144220108,42.11626104186578,186111261
sw,-87.163101196289,-58.9562263488769,40.11676185974191,38.58594723450669,186127928
sw,-87.6132049560546,-59.6603775024414,37.16659004455765,35.83278380089139,186144595
sw,-87.960205078125,-60.4342193603515,32.545842577064946,34.323388235341994,186161262
sw,-88.1651763916015,-61.0581016540527,25.89201500605182,34.22543613877585,186177929
sw,-88.2462081909179,-61.6412162780761,16.93206200575345,35.47064261728741,186194596
sw,-88.2481079101562,-62.5540885925293,5.5895966358733205,37.83597430582668,186211263
sw,-88.1851196289062,-63.251724243164,-7.923151360534233,41.00648360327967,186227930
sw,-88.0225601196289,-63.7532653808593,-23.06832135294143,44.5997563717717,186244597
sw,-87.6223220825195,-64.2967910766601,-39.02884004266015,48.16181875630447,186261264
sw,-86.7833175659179,-65.1613998413086,-54.84287015500874,51.17490883176059,186277931
sw,-85.4232025146484,-66.3000564575195,-69.59856715526804,53.122283682378345,186294598
sw,-83.6075744628906,-67.5718002319336,-82.63078315809331,53.619726251475846,186311265
sw,-81.6303176879882,-68.7479934692382,-93.64848362148585,52.56810258215037,186327932
sw,-79.4593048095703,-69.7541275024414,-102.73972078959632,50.24765299565976,186344599
sw,-77.0762329101562,-70.5767974853515,-110.2473351934171,47.289262923770536,186361266
sw,-74.4984664916992,-71.2101669311523,-116.56144304420022,44.51303052190123,186377933
sw,-71.9164352416992,-71.81005859375,-121.90722835468138,42.68784112349568,186394600
sw,-69.6072540283203,-72.5292816162109,-126.20520297939927,42.303442039627974,186411267
sw,-67.5451965332031,-73.4171676635742,-129.051947776879,43.440598260550104,186427934
sw,-65.558364868164,-74.4475784301757,-129.82760564344292,45.780308540950216,186444601
sw,-63.5524597167968,-75.5251159667968,-127.89473713180844,48.73436507189378,186461268
sw,-61.5542373657226,-76.5380630493164,-122.82080973270583,51.636577925986266,186477935
sw,-59.7915878295898,-77.5127410888671,-114.54438226662624,53.92408608366664,186494602
sw,-58.3727302551269,-78.458511352539,-103.42317698763377,55.257968682408155,186511269
sw,-57.1949501037597,-79.3846435546875,-90.14901650454259,55.564471418582556,186527936
sw,-56.1610641479492,-80.2757492065429,-75.5697305162138,55.00532345026193,186544603
sw,-55.3073692321777,-81.1566467285156,-60.49338022271684,53.90014929711751,186561270
sw,-54.7116889953613,-82.0144577026367,-45.550031700069425,52.62728794110885,186577937
sw,-54.4020042419433,-82.8251800537109,-31.15652270722134,51.52635417199066,186594604
sw,-54.2838973999023,-83.638198852539,-17.585916754720373,50.820713085495186,186611271
sw,-54.3941192626953,-84.4752960205078,-5.098629192973104,50.57229186242487,186627938
sw,-54.5986061096191,-85.305061340332,5.941606370210725,50.67442816535957,186644605
sw,-55.2954978942871,-86.1354827880859,15.04890061455408,50.880295716281424,186661272
sw,-56.5992965698242,-86.9794921875,21.734712909558183,50.85561727580813,186677939
sw,-57.927375793457,-87.727554321289,25.72626576041765,50.23673096189317,186694606
sw,-58.8869018554687,-88.2080154418945,27.16807208381099,48.671827816437656,186711273
sw,-59.3799285888671,-88.2549362182617,26.67793776747092,45.82863215952526,186727940
sw,-59.7215614318847,-87.9634628295898,25.20062586352549,41.36776655756576,186744607
sw,-60.2614631652832,-87.575454711914,23.714470807200893,34.902577231067994,186761274
sw,-60.9576835632324,-87.2335968017578,22.92377301676317,25.98240285242765,186777941
sw,-61.8357467651367,-87.0042190551757,23.069112564323063,14.136371342294003,186794608
sw,-62.8211631774902,-86.9224777221679,23.922535728973017,-1.0054673861193928,186811275
sw,-63.3002281188964,-86.9974288940429,24.95242664780857,-19.532064260070467,186827942
sw,-63.6467971801757,-87.1758956909179,25.584692329348048,-41.066979264966974,186844609
sw,-64.4241180419921,-87.358772277832,25.464132328153585,-64.65500965179844,186861276
sw,-64.9058837890625,-87.1393966674804,24.62319411408274,-88.78818519683877,186877943
sw,-64.9894943237304,-86.0159225463867,23.49108872308346,-111.60202708773386,186894610
sw,-65.2090530395507,-84.0446090698242,22.731048160102585,-131.21425835377377,186911277
sw,-65.6185684204101,-81.3716506958007,22.966592371319088,-146.1187217886493,186927944
sw,-66.2247848510742,-78.3474426269531,24.51167032121766,-155.51246495084806,186944611
sw,-67.0586395263671,-75.4503784179687,27.222364427028726,-159.44346920175778,186961278
sw,-67.9706039428711,-72.8359146118164,30.537691500162776,-158.72405287181806,186977945
sw,-68.9938430786132,-70.3782653808593,33.69533829370109,-154.6408524376574,186994612
sw,-70.0091705322265,-68.0577850341796,36.02859226172505,-148.56705713748966,187011279
sw,-70.7814102172851,-65.8371505737304,37.21214740151243,-141.60956161328158,187027946
sw,-71.3865203857421,-63.690128326416,37.35180395349132,-134.3945866660082,187044613
sw,-72.0476455688476,-61.6518898010253,36.894252453636895,-127.03243249421548,187061280
sw,-72.8983612060546,-59.6484947204589,36.41973787997897,-119.23742200939908,187077947
sw,-73.870979309082,-57.7924995422363,36.42120999282082,-110.53510668194275,187094614
sw,-74.7733078002929,-56.1296997070312,37.15392614465269,-100.47418460891562,187111281
sw,-75.545669555664,-54.7147789001464,38.587652555963075,-88.77475562768346,187127948
sw,-76.2161178588867,-53.6445655822753,40.44937383597576,-75.38022454053653,187144615
sw,-76.8788223266601,-52.9034957885742,42.325610370620396,-60.42403441180826,187161282
sw,-77.6465988159179,-52.4589347839355,43.79178680688934,-44.157793529017994,187177949
sw,-78.4986724853515,-52.2618026733398,44.53692581189984,-26.89970892767477,187194616
sw,-79.3923110961914,-52.2930755615234,44.45168267331253,-9.045494978856974,187211283
sw,-80.2334213256836,-52.5517082214355,43.65350774465632,8.85569609979199,187227950
sw,-80.9992904663086,-52.8311691284179,42.43997659614832,26.00395559102091,187244617
sw,-81.7235260009765,-53.2197494506835,41.18533259511405,41.30617048206987,187261284
sw,-82.4127883911132,-54.02974319458,40.21467198383828,53.46503672390449,187277951
sw,-83.0840072631836,-55.274673461914,39.6964605038768,61.232731911959554,187294618
sw,-83.8004684448242,-56.7336769104003,39.586189366778164,63.78315785104513,187311285
sw,-84.5582504272461,-58.1757888793945,39.635884249739696,61.076333462398146,187327952
sw,-85.3643493652343,-59.5953903198242,39.46152532000167,54.054078264865126,187344619
sw,-86.1712646484375,-60.4811897277832,38.640536779717905,44.5455660160561,187361286
sw,-86.8673706054687,-60.8425750732421,36.80269181759114,34.865528366959374,187377953
sw,-87.4302139282226,-60.9265708923339,33.68491973332613,27.21553693310203,187394620
sw,-87.8694458007812,-61.1346054077148,29.140222022585856,23.092730611759105,187411287
sw,-88.1579360961914,-61.4570999145507,23.112465027216917,22.921933407970783,187427954
sw,-88.308235168457,-61.8843841552734,15.601306326855982,26.044978736647334,187444621
sw,-88.375991821289,-62.7626838684082,6.640679579172693,31.06090335555393,187461288
sw,-88.2840042114257,-64.0098495483398,-3.697193079989408,36.37355953778456,187477955
sw,-88.0024719238281,-64.868782043457,-15.276643652511835,40.726260201756816,187494622
sw,-87.5051879882812,-65.2795867919921,-27.87131586882092,43.5216395887045,187511289
sw,-86.6829452514648,-65.7364196777343,-41.159538560506185,44.835062722626496,187527956
sw,-85.3801803588867,-66.2460021972656,-54.75765885638294,45.17652671615729,187544623
sw,-83.6094741821289,-67.0632781982421,-68.28379517738932,45.15817594510343,187561290
sw,-81.5082168579101,-68.1674270629882,-81.42092245016198,45.231748915332645,187577957
sw,-79.1961364746093,-69.3019485473632,-93.94138372609153,45.58503316444257,187594624
sw,-76.7426986694336,-70.3120193481445,-105.67183449777838,46.18667662736443,187611291
sw,-74.251480102539,-71.2005844116211,-116.40815916300453,46.903461465679726,187627958
sw,-71.9396209716796,-71.9979171752929,-125.81673686095547,47.60753988590446,187644625
sw,-69.8921432495117,-72.7902679443359,-133.37060445565896,48.227090718767215,187661292
sw,-67.9260787963867,-73.6659927368164,-138.36353060609108,48.73889942712173,187677959
sw,-65.9426803588867,-74.6399307250976,-140.02097761491652,49.13035857893048,187694626
sw,-63.857364654541,-75.644058227539,-137.68754291074347,49.363844505530665,187711293
sw,-61.8034172058105,-76.5931549072265,-131.03019528808701,49.36462677811816,187727960
sw,-60.0225982666015,-77.4475326538086,-120.17851374823522,49.03666223701872,187744627
sw,-58.576374053955,-78.2430419921875,-105.74275553451243,48.29872122934109,187761294
sw,-57.3492126464843,-79.0157775878906,-88.70117872222741,47.12852332999843,187777961
sw,-56.3500328063964,-79.7803802490234,-70.20240325036876,45.60131755445696,187794628
sw,-55.6508979797363,-80.5118560791015,-51.35834531355444,43.90871406500508,187811295
sw,-55.2807159423828,-81.2210311889648,-33.098448139379485,42.34485656431793,187827962
sw,-55.1895141601562,-81.9142990112304,-16.12522590684272,41.253057559311,187844629
sw,-55.2598609924316,-82.5761413574218,-0.9670152971959659,40.937029107411554,187861296
sw,-55.3706550598144,-83.2059783935546,11.92353531145722,41.55382806521068,187877963
sw,-55.9662284851074,-83.8211517333984,22.109284414956242,43.0162337910423,187894630
sw,-57.4640960693359,-84.4927749633789,29.218944297698954,44.93577375881043,187911297
sw,-59.212776184082,-85.2835006713867,33.108543267870054,46.629786633457904,187927964
sw,-60.4896850585937,-86.1588592529296,34.03854687696929,47.1963340822571,187944631
sw,-60.8990402221679,-86.9377136230468,32.72855339557797,45.63682202914753,187961298
sw,-61.1144981384277,-87.4352493286132,30.21190893017977,40.99171799131056,187977965
sw,-61.4646682739257,-87.5795745849609,27.537395537682208,32.460565101655455,187994632
sw,-61.9256591796875,-87.4705200195312,25.45841639076246,19.500420672830174,188011299
sw,-62.4993476867675,-87.2440872192382,24.250794776469345,1.9188755617334128,188027966
sw,-63.2479705810546,-86.9564437866211,23.727190353384675,-20.021195403744876,188044633
sw,-63.7969665527343,-86.5660171508789,23.427048429213805,-45.49396492403096,188061300
sw,-64.2723617553711,-85.9540710449218,22.895972510957687,-73.04725786899874,188077967
sw,-64.8074417114257,-84.8751602172851,21.93918720257361,-100.65462683065873,188094634
sw,-65.1631164550781,-83.1447143554687,20.743028176508084,-125.94044773939831,188111301
sw,-65.2151947021484,-80.6427764892578,19.80827745743231,-146.57833983857955,188127968
sw,-65.5367126464843,-77.4848175048828,19.720108031654867,-160.78047521108576,188144635
sw,-65.9627227783203,-74.0796279907226,20.858703920505135,-167.72588739728803,188161302
sw,-66.5481948852539,-70.9113693237304,23.188457876803216,-167.76300679531303,188177969
sw,-67.3539428710937,-68.205940246582,26.229119905458923,-162.28693145346466,188194636
sw,-68.2330093383789,-65.9220733642578,29.22595990960536,-153.31425843626968,188211303
sw,-69.1407928466796,-63.9523200988769,31.442466784730833,-142.89925013814616,188227970
sw,-69.9951095581054,-62.1542434692382,32.44477748282676,-132.59424075067753,188244637
sw,-70.6599655151367,-60.3886260986328,32.25659651595871,-123.12994037173613,188261304
sw,-71.1799850463867,-58.5537300109863,31.32829422072437,-114.39815843763319,188277971
sw,-71.6689834594726,-56.6445617675781,30.348905337252614,-105.70547765277901,188294638
sw,-72.317398071289,-54.8164978027343,29.992131389400274,-96.17566968829509,188311305
sw,-73.074966430664,-53.2356300354003,30.69905461066774,-85.14056820399377,188327972
sw,-73.807876586914,-52.0453643798828,32.56365211703134,-72.38315457052403,188344639
sw,-74.519416809082,-51.2767601013183,35.332575740124994,-58.16973874255558,188361306
sw,-75.2252349853515,-50.9192352294921,38.49128603209195,-43.0983105076586,188377973
sw,-75.9045715332031,-50.8659973144531,41.39699896361242,-27.859412179090334,188394640
sw,-76.5882797241211,-51.0360527038574,43.42603606393627,-13.027421159211636,188411307
sw,-77.3543624877929,-51.3353691101074,44.113806322083214,1.0306804325025827,188427974
sw,-78.2072601318359,-51.4216423034668,43.269831775699,14.107998980805174,188444641
sw,-79.0540008544921,-51.5755081176757,41.046862166532996,26.022082539381106,188461308
sw,-79.8142776489257,-52.0160675048828,37.93975114430784,36.48524892038459,188477975
sw,-80.4697036743164,-52.8924446105957,34.6973136655995,45.06898410697541,188494642
sw,-81.0086822509765,-53.9850349426269,32.15337890976597,51.294641967328225,188511309
sw,-81.4891281127929,-55.1602172851562,31.01386649258636,54.808604186317304,188527976
sw,-82.0220870971679,-56.2896881103515,31.65884715516874,55.5525033816752,188544643
sw,-82.6545257568359,-57.2409553527832,34.01871201215562,53.843831654668264,188561310
sw,-83.3469009399414,-58.0843238830566,37.56041091457272,50.330035964062354,188577977
sw,-84.0615921020507,-58.8322601318359,41.38508338978379,45.838564114535835,188594644
sw,-84.8472213745117,-59.5115203857421,44.408327242453296,41.18644474637785,188611311
sw,-85.6728363037109,-60.1622123718261,45.57768900516375,37.02210246192264,188627978
sw,-86.4642639160156,-60.8755493164062,44.07790483872186,33.75146221961722,188644645
sw,-87.1483001708984,-61.5165214538574,39.4793183245454,31.56110037803839,188661312
sw,-87.6494827270507,-62.1761207580566,31.7978967212065,30.508227750242987,188677979
sw,-87.8964385986328,-62.8945198059082,21.45667313218971,30.617581010979702,188694646
sw,-87.9649047851562,-63.4834823608398,9.16507507034899,31.92363878105656,188711313
sw,-87.9319076538086,-63.8198127746582,-4.244175317872637,34.428120538176465,188727980
sw,-87.7306518554687,-64.1806564331054,-17.97186199036001,37.99615456154036,188744647
sw,-87.269775390625,-64.7855987548828,-31.364459745741854,42.26164344089303,188761314
sw,-86.5530395507812,-65.6596984863281,-43.96757532473357,46.62127998021419,188777981
sw,-85.4707794189453,-66.8223495483398,-55.53081791757951,50.355105271072965,188794648
sw,-84.0126724243164,-68.0899047851562,-65.98567636622977,52.840384255012815,188811315
sw,-82.2278213500976,-69.2571411132812,-75.41209804695377,53.76713893656285,188827982
sw,-80.2656478881836,-70.2289657592773,-83.99406142370839,53.25328511783549,188844649
sw,-78.2388229370117,-70.9904022216796,-91.95482840893656,51.801132732992215,188861316
sw,-76.1741638183593,-71.6780624389648,-99.46900284281821,50.11008680087071,188877983
sw,-73.9493942260742,-72.4516983032226,-106.56632115357249,48.82384708034543,188894650
sw,-71.7412719726562,-73.383071899414,-113.05630474664063,48.31413042231647,188911317
sw,-69.7278137207031,-74.4145278930664,-118.50350800319234,48.579891111646454,188927984
sw,-67.8859786987304,-75.4499740600586,-122.27264308879447,49.28764511544845,188944651
sw,-66.0705795288086,-76.4847030639648,-123.6474872256,49.92289601891078,188961318
sw,-64.1858520507812,-77.4934539794921,-122.00672211381118,49.9879183150841,188977985
sw,-62.3055725097656,-78.4590835571289,-117.01284325431092,49.175324919453466,188994652
sw,-60.6526412963867,-79.3564834594726,-108.74877147420726,47.46466683636149,189011319
sw,-59.2515983581543,-80.1352462768554,-97.74139172336027,45.12000671775407,189027986
sw,-58.0589294433593,-80.7757873535156,-84.84997765600498,42.59932869980517,189044653
sw,-57.0970268249511,-81.3362121582031,-71.05306716795961,40.41286562596509,189061320
sw,-56.3198051452636,-81.8987503051757,-57.209955278012785,38.979925000032146,189077987
sw,-55.7826042175293,-82.5335311889648,-43.88289350697901,38.52877747182282,189094654
sw,-55.4905624389648,-83.2452926635742,-31.282756730264406,39.063651745131686,189111321
sw,-55.3259811401367,-83.9986801147461,-19.355819535324194,40.39578916794385,189127988
sw,-55.275218963623,-84.7472686767578,-7.977137895085275,42.214163117098195,189144655
sw,-55.4105682373046,-85.4566268920898,2.8274815938230256,44.164528622758006,189161322
sw,-55.6482620239257,-86.1386260986328,12.727832118435893,45.91280760493083,189177989
sw,-56.1433753967285,-86.8288650512695,21.083558570984685,47.18246742854654,189194656
sw,-57.0495338439941,-87.4923553466796,27.111821070835035,47.765972791853805,189211323
sw,-58.1646766662597,-87.9796752929687,30.177903809503363,47.51335815148529,189227990
sw,-59.1521759033203,-88.1391220092773,30.092024380630512,46.299961302940325,189244657
sw,-59.7320823669433,-87.9998321533203,27.27825303888184,43.977341930364084,189261324
sw,-60.1353492736816,-87.6875915527343,22.732656834027278,40.319405455767914,189277991
sw,-60.5757179260253,-87.2887725830078,17.782940107491918,34.98526249633286,189294658
sw,-60.9284439086914,-86.8841705322265,13.744900941786872,27.523300102546767,189311325
sw,-61.5010108947753,-86.59228515625,11.599139923805991,17.432951821806874,189327992
sw,-61.7384910583496,-86.4855346679687,11.784421289928092,4.284125636779304,189344659
sw,-61.8919868469238,-86.5686416625976,14.15139016164507,-12.125149136306426,189361326
sw,-62.6312789916992,-86.8286819458007,18.069252481904197,-31.610216786294078,189377993
sw,-63.2773780822753,-87.2429580688476,22.639208490972866,-53.49061820355839,189394660
sw,-63.7826843261718,-87.583625793457,26.94594102036339,-76.58152346408909,189411327
sw,-64.4996795654296,-87.194953918457,30.2774374879179,-99.3183010139201,189427994
sw,-65.149543762207,-85.6966171264648,32.26183653048541,-120.0069721844286,189444661
sw,-65.8732147216796,-83.4010314941406,32.89781319872672,-137.14445251999626,189461328
sw,-66.6617202758789,-80.6168899536132,32.48605275835099,-149.71599535564323,189477995
sw,-67.5725708007812,-77.8044204711914,31.49855451791209,-157.3732133755673,189494662
sw,-68.4307250976562,-75.118423461914,30.436891434008,-160.43199799890732,189511329
sw,-69.2091445922851,-72.5274200439453,29.72121905544056,-159.69377312546914,189527996
sw,-70.0287246704101,-70.177864074707,29.627717412156763,-156.1577192903435,189544663
sw,-70.7389984130859,-67.9940948486328,30.2702459212998,-150.72700215082972,189561330
sw,-71.4000549316406,-65.8890075683593,31.6118294682393,-144.00589572880892,189577997
sw,-72.1268081665039,-63.8361663818359,33.493064276594886,-136.24374688611937,189594664
sw,-72.9376678466796,-61.797248840332,35.671319834820146,-127.42374750485692,189611331
sw,-73.8060226440429,-59.7582969665527,37.868146314554544,-117.44031604136038,189627998
sw,-74.6608123779296,-57.9046096801757,39.81923109001289,-106.27805054748309,189644665
sw,-75.4867477416992,-56.3373718261718,41.31720216197695,-94.1106624440655,189661332
sw,-76.2906112670898,-55.1327323913574,42.2396190820791,-81.27976844086251,189677999
sw,-77.1669235229492,-54.2580795288085,42.561523346326794,-68.17368969718049,189694666
sw,-78.0852661132812,-53.6233901977539,42.35607326415804,-55.07667245120993,189711333
sw,-78.9742889404296,-53.1367263793945,41.78385257343341,-42.073694297745504,189728000
sw,-79.7941589355468,-52.7293357849121,41.06668708959014,-29.067970423849307,189744667
sw,-80.543212890625,-52.4001274108886,40.4438114430537,-15.912136992919082,189761334
sw,-81.2616500854492,-52.1996803283691,40.11841794228339,-2.5972807249416627,189778001
sw,-81.9781646728515,-52.1799240112304,40.21290130981934,10.587861979729098,189794668
sw,-82.7374191284179,-52.4992713928222,40.75157650398183,23.008640953265548,189811335
sw,-83.5252532958984,-53.1802864074707,41.67747296864357,33.785331924100355,189828002
sw,-84.3059158325195,-54.1152458190918,42.89155477484976,42.018474910294906,189844669
sw,-85.080322265625,-55.0871429443359,44.28945674455915,47.05839564456113,189861336
sw,-85.8530578613281,-55.926513671875,45.77062513634843,48.71722402965022,189878003
sw,-86.6382675170898,-56.6406555175781,47.20800609459039,47.34678000080052,189894670
sw,-87.3936080932617,-57.3740272521972,48.386924600690236,43.7634205551597,189911337
sw,-88.038459777832,-58.0425605773925,48.94116715230394,39.05899888942159,189928004
sw,-88.5494995117187,-58.6098899841308,48.32520436074914,34.36772573942917,189944671
sw,-88.8553390502929,-59.1937751770019,45.85833966315998,30.656588422201388,189961338
sw,-88.7821197509765,-59.8249588012695,40.856276918832904,28.58464438192809,189978005
sw,-88.3550338745117,-60.3821258544921,32.830743871278486,28.447977095892757,189994672
sw,-87.8050994873046,-61.0210609436035,21.69935703734705,30.200386379599195,190011339
sw,-87.408218383789,-61.9085884094238,7.923398877416284,33.52050372534761,190028006
sw,-87.3675308227539,-62.5057106018066,-7.502575407217259,37.8905628209798,190044673
sw,-87.6875915527343,-62.9570083618164,-23.24215531588866,42.666015796761336,190061340
sw,-88.271728515625,-63.6458206176757,-37.95348547726497,47.14347937112951,190078007
sw,-88.221939086914,-64.7343673706054,-50.6670960759256,50.654089927985105,190094674
sw,-86.9893569946289,-66.0482559204101,-61.06729075325832,52.69518454520959,190111341
sw,-85.4222640991211,-67.2539825439453,-69.56065665843353,53.06991030804921,190128008
sw,-83.7248992919921,-68.2443923950195,-77.09161985134172,51.970042652320195,190144675
sw,-81.8856964111328,-69.0957717895507,-84.76568152532715,49.946484612273856,190161342
sw,-79.7500534057617,-69.8814010620117,-93.4178407821964,47.76128897113035,190178009
sw,-77.4559478759765,-70.6371231079101,-103.280162974477,46.170010179930316,190194676
sw,-75.1986846923828,-71.4540023803711,-113.85660054534846,45.71066148430842,190211343
sw,-73.0619125366211,-72.3456039428711,-124.03404015849506,46.5662082737645,190228010
sw,-71.0353088378906,-73.2797546386718,-132.38171856168492,48.53409347927225,190244677
sw,-69.0123825073242,-74.2595520019531,-137.53900944576836,51.09912779192443,190261344
sw,-66.8899612426757,-75.2854461669921,-138.57230067511122,53.57993595870478,190278011
sw,-64.8176574707031,-76.3354721069336,-135.19674748813094,55.30773428974486,190294678
sw,-62.9772186279296,-77.3937683105468,-127.80473798721579,55.79556644877942,190311345
sw,-61.3241653442382,-78.4116668701171,-117.30767646440114,54.86170977521313,190328012
sw,-59.7801170349121,-79.3712310791015,-104.85854141812851,52.68119416523761,190344679
sw,-58.3765144348144,-80.2440948486328,-91.55484211139851,49.75408458471078,190361346
sw,-57.162841796875,-81.0291137695312,-78.21378012208889,46.797020591241704,190378013
sw,-56.155891418457,-81.7393646240234,-65.27372470353647,44.58217220662312,190394680
sw,-55.4154434204101,-82.4416809082031,-52.830242588755304,43.76076947703774,190411347
sw,-54.9288177490234,-83.1937789916992,-40.777519605077195,44.712520742228165,190428014
sw,-54.6632614135742,-83.9951477050781,-29.001765238004616,47.455735978607656,190444681
sw,-54.5544548034668,-84.8513259887695,-17.560187855215762,51.637843479228394,190461348
sw,-54.5628128051757,-85.7987747192382,-6.778070632209322,56.60696956188091,190478015
sw,-55.0691223144531,-86.8768844604492,2.7848332087897374,61.546568060209424,190494682
sw,-55.908878326416,-88.0684204101562,10.501115310825792,65.63916222468187,190511349
sw,-56.7296676635742,-89.1602401733398,15.914095325221224,68.21505543879347,190528016
sw,-57.3040046691894,-88.9726409912109,18.939524708702123,68.84262931041307,190544683
sw,-57.61226272583,-87.9468154907226,19.931806633033247,67.3331251944329,190561350
sw,-58.0159683227539,-87.0107650756836,19.583426967499783,63.66286412982442,190578017
sw,-58.6199493408203,-86.2074966430664,18.70808367272562,57.84920554849448,190594684
sw,-59.339557647705,-85.4819946289062,18.00224167094537,49.837657514226514,190611351
sw,-60.0078010559082,-84.8392333984375,17.870648901839424,39.45453192181211,190628018
sw,-60.6251754760742,-84.3346176147461,18.362414986561795,26.452322028582792,190644685
sw,-61.3769416809082,-84.0451126098632,19.225385504997977,10.636265265698984,190661352
sw,-61.8432731628418,-84.0215148925781,20.05679337157415,-7.97220063487401,190678019
sw,-62.6038398742675,-84.3307495117187,20.501689888814308,-28.99411044084951,190694686
sw,-63.373062133789,-85.0153274536132,20.427910477304604,-51.62706067484984,190711353
sw,-63.5770263671875,-86.0162124633789,20.002812723049622,-74.68644141569033,190728020
sw,-63.635383605957,-87.2131576538086,19.630344324682397,-96.75546864135062,190744687
sw,-63.7925338745117,-87.8406066894531,19.77170850270707,-116.41451061625813,190761354
sw,-64.3086395263671,-86.6209564208984,20.73257810952067,-132.49481151463633,190778021
sw,-65.1288681030273,-84.2315673828125,22.51625244486344,-144.28868958124548,190794688
sw,-66.0678024291992,-81.4905166625976,24.8090099685012,-151.6537407969963,190811355
sw,-66.9829940795898,-78.7806549072265,27.103934925398843,-154.97583652004678,190828022
sw,-67.872688293457,-76.156867980957,28.910466728670194,-155.0004638680705,190844689
sw,-68.7315673828125,-73.7041244506836,29.96017060353935,-152.5888912350996,190861356
sw,-69.4747161865234,-71.3691482543945,30.319332340793363,-148.48336022121154,190878023
sw,-70.0752182006836,-69.1141128540039,30.35902565131455,-143.15957495218908,190894690
sw,-70.7676696777343,-66.8933181762695,30.597426406339626,-136.8073307622056,190911357
sw,-71.5811996459961,-64.7462310791015,31.485461710315544,-129.4279668987754,190928024
sw,-72.4259490966796,-62.789077758789,33.22618432411382,-120.99261074791555,190944691
sw,-73.2484817504882,-61.0460510253906,35.69485351023941,-111.58592720785865,190961358
sw,-74.0279998779296,-59.4701766967773,38.4799558912562,-101.47277644317985,190978025
sw,-74.8438644409179,-58.1038169860839,41.02110514148586,-91.06224131548676,190994692
sw,-75.7537155151367,-57.0023155212402,42.792491097610885,-80.78819388619664,191011359
sw,-76.7078552246093,-56.0996742248535,43.47189084814359,-70.96051096754712,191028026
sw,-77.6446151733398,-55.2905349731445,43.04228446622147,-61.653610245216385,191044693
sw,-78.4755935668945,-54.5480003356933,41.79423204625918,-52.684156328928076,191061360
sw,-79.180061340332,-53.9107360839843,40.229695266020386,-43.69328856698494,191078027
sw,-79.8376693725586,-53.4099922180175,38.90289532145948,-34.30655320307975,191094694
sw,-80.4999084472656,-53.0237579345703,38.25649552249417,-24.314664136434757,191111361
sw,-81.2257614135742,-52.7481269836425,38.5103224756402,-13.809566142019742,191128028
sw,-82.0050277709961,-52.5853805541992,39.635169690779186,-3.222455905683145,191144695
sw,-82.8130493164062,-52.7473411560058,41.40841309966647,6.760481174917771,191161362
sw,-83.6337966918945,-53.2288589477539,43.518006804649005,15.387128663801402,191178029
sw,-84.4771041870117,-53.8747177124023,45.668395030050384,22.071760587519176,191194696
sw,-85.3444442749023,-54.4392318725585,47.64758185144876,26.583037508999823,191211363
sw,-86.2204208374023,-54.9413795471191,49.33319168374731,29.11194304684753,191228030
sw,-87.0764465332031,-55.4514389038085,50.63906428507446,30.194130239863938,191244697
sw,-87.8983001708984,-56.0056800842285,51.42633748772614,30.524390983798817,191261364
sw,-88.7118453979492,-56.5844039916992,51.41860318104556,30.743314067414502,191278031
sw,-89.5170516967773,-57.2051887512207,50.164294779632776,31.279008746533066,191294698
sw,-89.6450271606445,-57.9681701660156,47.07761323691704,32.29468825268828,191311365
sw,-88.8925323486328,-58.84419631958,41.563490222380715,33.744668851936,191328032
sw,-88.2070388793945,-59.5781631469726,33.199546251258376,35.4979988202516,191344699
sw,-87.6224060058593,-60.3652114868164,21.919676907115186,37.46636577727205,191361366
sw,-87.2749481201171,-61.3107070922851,8.13102643051952,39.67649750407035,191378033
sw,-87.2684936523437,-61.9260482788085,-7.2933256470334635,42.25228465655083,191394700
sw,-87.6519012451171,-62.4356346130371,-23.168529124222395,45.31104163111677,191411367
sw,-88.3468475341796,-63.0845642089843,-38.27059234117074,48.82261983733637,191428034
sw,-88.7472686767578,-64.0003967285156,-51.65006452386182,52.510214301371946,191444701
sw,-87.7391204833984,-65.2308197021484,-62.88291776765775,55.86316481362696,191461368
sw,-86.0591125488281,-66.6033401489257,-72.1654080951479,58.27924387371374,191478035
sw,-84.2495040893554,-67.9413299560546,-80.2082470845974,59.283607886598645,191494702
sw,-82.2589950561523,-69.1770477294921,-87.9563412313561,58.72588486370465,191511369
sw,-80.1471481323242,-70.2647247314453,-96.22593660733976,56.86260197433369,191528036
sw,-77.867446899414,-71.113784790039,-105.3828203263654,54.2844771974138,191544703
sw,-75.551513671875,-71.89697265625,-115.16859551037052,51.71782696250959,191561370
sw,-73.4276275634765,-72.7816543579101,-124.72543432345297,49.782054458027964,191578037
sw,-71.4980926513671,-73.7465515136718,-132.80119052396768,48.79795927116399,191594704
sw,-69.5516204833984,-74.7592086791992,-138.06604153084854,48.71282680976711,191611371
sw,-67.4723663330078,-75.7965774536132,-139.4510443979271,49.15694998657456,191628038
sw,-65.3282089233398,-76.7999649047851,-136.4213998754625,49.598549731624296,191644705
sw,-63.3027687072753,-77.7721710205078,-129.11392245498934,49.53698284529508,191661372
sw,-61.5313568115234,-78.726318359375,-118.29955815636575,48.670497795162774,191678039
sw,-60.0278892517089,-79.586181640625,-105.17931904512935,46.989424427161744,191694706
sw,-58.7548027038574,-80.2829513549804,-91.07487119174985,44.772177154314655,191711373
sw,-57.6524314880371,-80.8783340454101,-77.11115261154725,42.493306184846546,191728040
sw,-56.6836166381835,-81.5156631469726,-63.99006692304503,40.68069280971349,191744707
sw,-55.9168281555175,-82.2077484130859,-51.92092653718227,39.77161321918543,191761374
sw,-55.3750305175781,-82.9630813598632,-40.72001128344718,40.00945905130955,191778041
sw,-55.017707824707,-83.7027893066406,-30.03734152704255,41.40114345255376,191794708
sw,-54.7420082092285,-84.4585037231445,-19.62666183700044,43.73345932851651,191811375
sw,-54.4899291992187,-85.2782669067382,-9.553009166671156,46.633946495996454,191828042
sw,-54.7410469055175,-86.2019729614257,-0.24268018736860952,49.65691164375292,191844709
sw,-55.758014678955,-87.2071151733398,7.663451768110139,52.372253205982695,191861376
sw,-56.7810134887695,-88.2445373535156,13.596751578497008,54.432035311112884,191878043
sw,-57.3133125305175,-89.1771850585937,17.34427492675224,55.59197756679905,191894710
sw,-57.4607582092285,-89.3744277954101,19.174686318882816,55.677430019563246,191911377
sw,-57.6688728332519,-88.7009506225586,19.740291896554794,54.50529550355586,191928044
sw,-58.0747146606445,-87.9984588623046,19.81733889309032,51.79655919858745,191944711
sw,-58.6944885253906,-87.3487854003906,20.026425311532435,47.12676685224559,191961378
sw,-59.572208404541,-86.7323608398437,20.66282714666831,39.954787211948045,191978045
sw,-60.5995292663574,-86.1608963012695,21.689501458127125,29.74236786840122,191994712
sw,-61.5462837219238,-85.6756362915039,22.86135207393701,16.13749922842341,192011379
sw,-62.1301078796386,-85.4666366577148,23.9017044108396,-0.8394311947236643,192028046
sw,-62.6345443725585,-85.6769104003906,24.65128007640639,-20.67859238693623,192044713
sw,-63.2026023864746,-86.3272094726562,25.138953239768767,-42.38445851637669,192061380
sw,-63.5160522460937,-87.3567657470703,25.558533599935423,-64.60910149848156,192078047
sw,-63.8135719299316,-88.5360717773437,26.167293805388454,-85.8785853370011,192094714
sw,-64.3509445190429,-88.3780364990234,27.150411150767663,-104.84807089952072,192111381
sw,-65.2157821655273,-86.6103210449218,28.51200919575651,-120.51834185188756,192128048
sw,-66.1551666259765,-84.3101501464843,30.043025855102286,-132.36414113878857,192144715
sw,-67.0501098632812,-81.74169921875,31.38052616867541,-140.35254977948392,192161382
sw,-67.9631576538086,-79.0812606811523,32.133459496053206,-144.85816415276526,192178049
sw,-68.9019927978515,-76.4629669189453,32.025398138809166,-146.5057479495633,192194716
sw,-69.773078918457,-73.8935852050781,31.001175740627136,-145.98702229435298,192211383
sw,-70.4939498901367,-71.4254760742187,29.25990649296287,-143.90149146498723,192228050
sw,-71.1069564819336,-69.0394592285156,27.206319319492543,-140.65820181502096,192244717
sw,-71.8078994750976,-66.8025817871093,25.343347047481316,-136.45063487277574,192261384
sw,-72.5901412963867,-64.7451629638671,24.14570793307745,-131.29277647837648,192278051
sw,-73.267333984375,-62.8985023498535,23.950771298869252,-125.09138681894969,192294718
sw,-73.8961944580078,-61.1253242492675,24.888686179447657,-117.72848830129944,192311385
sw,-74.4537582397461,-59.3443717956543,26.8616654735855,-109.13198852733584,192328052
sw,-75.04345703125,-57.710105895996,29.575274798465177,-99.31571182374523,192344719
sw,-75.723762512207,-56.3480911254882,32.61670997607636,-88.37612733140901,192361386
sw,-76.4733123779296,-55.2856330871582,35.56316604061239,-76.44865402440584,192378053
sw,-77.2779388427734,-54.5005798339843,38.09169137014426,-63.649621009019754,192394720
sw,-78.0806350708007,-53.9288597106933,40.05754417931014,-50.04602778687714,192411387
sw,-78.8609542846679,-53.5167121887207,41.51541661550664,-35.68854767533794,192428054
sw,-79.6203460693359,-53.2249794006347,42.67593173943427,-20.7117200953278,192444721
sw,-80.3602828979492,-53.0647773742675,43.812375667014514,-5.463009753715893,192461388
sw,-81.1178512573242,-53.0093460083007,45.150686621612635,9.409002040958752,192478055
sw,-81.9249649047851,-53.4420318603515,46.78124368265959,22.978112067069947,192494722
sw,-82.7925796508789,-54.3612327575683,48.62106262274426,34.207887098784894,192511389
sw,-83.7215805053711,-55.5528221130371,50.43387162689317,42.226691355887255,192528056
sw,-84.6555862426757,-56.5767211914062,51.8927456706024,46.60921596571308,192544723
sw,-85.5560913085937,-57.5018463134765,52.655403348132005,47.54383688347564,192561390
sw,-86.4136810302734,-58.3253707885742,52.42133245070002,45.8084759550355,192578057
sw,-87.1547622680664,-58.9062995910644,50.95181749580004,42.560115449974376,192594724
sw,-87.7390365600586,-59.4783668518066,48.0532597765406,39.01908729338918,192611391
sw,-88.2004928588867,-60.082462310791,43.54330981502921,36.16464774501825,192628058
sw,-88.5470733642578,-60.717056274414,37.23009283696035,34.54505628284384,192644725
sw,-88.7136688232421,-61.4294662475585,28.930801777366284,34.2548273369428,192661392
sw,-88.6991424560546,-62.2402763366699,18.536795514312693,35.06434773151249,192678059
sw,-88.5742645263671,-63.2656059265136,6.105853606494678,36.626115302881985,192694726
sw,-88.4668579101562,-64.0185546875,-8.059113330919418,38.65212573710323,192711393
sw,-88.39404296875,-64.3918380737304,-23.39051018166104,40.97824805633668,192728060
sw,-88.1435470581054,-64.7729263305664,-39.12419426553062,43.50181890488149,192744727
sw,-87.349380493164,-65.4967269897461,-54.44834805216873,46.060487576519265,192761394
sw,-85.8826293945312,-66.546401977539,-68.68606097655136,48.35759425368109,192778061
sw,-84.0675354003906,-67.7885208129882,-81.43992534856673,50.00365508894638,192794728
sw,-82.1172866821289,-68.9666366577148,-92.63439822268838,50.66160119282612,192811395
sw,-80.0601577758789,-70.0068283081054,-102.43312374187407,50.21413427083782,192828062
sw,-77.7531509399414,-70.9394302368164,-111.0649831791666,48.857621523833856,192844729
sw,-75.2669143676757,-71.7075500488281,-118.6339855819251,47.06848989713676,192861396
sw,-72.7903900146484,-72.4087982177734,-124.99319047379213,45.45332180823787,192878063
sw,-70.5007629394531,-73.1635360717773,-129.73291903940995,44.54627773359638,192894730
sw,-68.4698333740234,-74.0191574096679,-132.2864414794816,44.63509363507086,192911397
sw,-66.409683227539,-74.9957122802734,-132.1127191590886,45.67762508790109,192928064
sw,-64.4513320922851,-76.0071029663086,-128.88971798531833,47.32918711480701,192944731
sw,-62.4488906860351,-76.9338684082031,-122.64854782126099,49.058875232176256,192961398
sw,-60.5720977783203,-77.822395324707,-113.7971362549886,50.30835328530762,192978065
sw,-59.0351295471191,-78.7236633300781,-103.0186408385812,50.64387611051665,192994732
sw,-57.789379119873,-79.5898132324218,-91.077121093175,49.864222248263225,193011399
sw,-56.7324256896972,-80.3716049194336,-78.60510485750906,48.04388600490996,193028066
sw,-55.8272743225097,-81.0823822021484,-65.96175506802916,45.50763523828477,193044733
sw,-55.0018081665039,-81.7510299682617,-53.222419711838654,42.748383522553695,193061400
sw,-54.4030227661132,-82.401985168457,-40.300824134413176,40.31273667773455,193078067
sw,-54.1346817016601,-83.0394821166992,-27.145255780853624,38.68353602637593,193094734
sw,-54.139835357666,-83.6997680664062,-13.92036284313832,38.18484597206966,193111401
sw,-54.2881851196289,-84.395278930664,-1.0962538025198802,38.9248459816394,193128068
sw,-54.5657348632812,-85.1148910522461,10.59610097460388,40.78034920080158,193144735
sw,-55.4416236877441,-85.8547134399414,20.33702250385504,43.41649555837736,193161402
sw,-56.6858825683593,-86.6230392456054,27.46384742932737,46.32827198186967,193178069
sw,-57.801959991455,-87.3575134277343,31.697639356333752,48.88799370801918,193194736
sw,-58.5089645385742,-87.8999710083007,33.25214463664549,50.38605215178812,193211403
sw,-59.2068519592285,-88.0926895141601,32.7717711743502,50.06180882051888,193228070
sw,-59.9131278991699,-87.9498672485351,31.125572751524466,47.13509551793493,193244737
sw,-60.568130493164,-87.6390151977539,29.14994779541525,40.859275285092934,193261404
sw,-61.277847290039,-87.2778244018554,27.445875804860663,30.615212185611096,193278071
sw,-62.3769340515136,-86.9669418334961,26.29770346783873,16.047786086512808,193294738
sw,-63.1761016845703,-86.7883834838867,25.71793684751464,-2.7808327779613453,193311405
sw,-63.4924621582031,-86.8040237426757,25.570027243165505,-25.26964472216345,193328072
sw,-64.0712203979492,-86.9873428344726,25.701966800712828,-50.242406015284786,193344739
sw,-64.6618347167968,-87.051643371582,26.03720210446696,-76.03309640413254,193361406
sw,-65.0495223999023,-86.4519958496093,26.597227472333103,-100.6979552324295,193378073
sw,-65.5321197509765,-84.9727020263671,27.458079367988578,-122.32186324069055,193394740
sw,-66.1812286376953,-82.7305374145507,28.66766159520328,-139.3550238711459,193411407
sw,-66.9200057983398,-79.9294815063476,30.16762291586792,-150.8966080549295,193428074
sw,-67.7672500610351,-76.8850784301757,31.764004700504813,-156.84216504761727,193444741
sw,-68.7115020751953,-74.0834808349609,33.1714105965434,-157.83899113358555,193461408
sw,-69.6960144042968,-71.6239700317382,34.120402946447406,-155.0505345413471,193478075
sw,-70.5729446411132,-69.451789855957,34.481456234801776,-149.80149041793464,193494742
sw,-71.3245010375976,-67.3917846679687,34.342976150300736,-143.22488083341966,193511409
sw,-72.0046844482421,-65.2899398803711,33.99962000336872,-136.02971183530977,193528076
sw,-72.6662063598632,-63.2421073913574,33.85127878426635,-128.45130353002202,193544743
sw,-73.4058990478515,-61.2812690734863,34.25566929589329,-120.36748244511078,193561410
sw,-74.217041015625,-59.427448272705,35.39503371055045,-111.5029826285456,193578077
sw,-75.0144653320312,-57.7243194580078,37.20536497713904,-101.6252500751777,193594744
sw,-75.76025390625,-56.2358589172363,39.38762286741262,-90.65685700188644,193611411
sw,-76.5322952270507,-55.0326881408691,41.491753581066334,-78.67729370397711,193628078
sw,-77.3406448364257,-54.1319427490234,43.04564525525644,-65.83986411261705,193644745
sw,-78.1471176147461,-53.5344696044921,43.69262594361962,-52.2680851693306,193661412
sw,-78.9693450927734,-53.1781578063964,43.30011285186521,-38.00487030035936,193678079
sw,-79.8422775268554,-52.9862670898437,42.00834233922959,-23.061320294923913,193694746
sw,-80.675910949707,-52.8801918029785,40.202414677664365,-7.559039849397493,193711413
sw,-81.4090881347656,-52.8439292907714,38.41150642091069,8.097537179555292,193728080
sw,-82.0546798706054,-52.9576072692871,37.16130753010304,23.11673024166596,193744747
sw,-82.7171401977539,-53.6813507080078,36.82207610853296,36.36990042672558,193761414
sw,-83.4142379760742,-54.8508796691894,37.497201766642455,46.62187581015679,193778081
sw,-84.1532287597656,-56.0728912353515,38.9830077576875,52.87895342617613,193794748
sw,-84.8997268676757,-57.1335716247558,40.805872305573246,54.72436433492021,193811415
sw,-85.6506195068359,-58.1381149291992,42.3189704343141,52.50517425131101,193828082
sw,-86.3623504638671,-59.0262413024902,42.826980693994564,47.293534759275786,193844749
sw,-86.9456558227539,-59.6115226745605,41.70595203551795,40.63421856180457,193861416
sw,-87.3975143432617,-60.1225090026855,38.49523590359455,34.16671192148138,193878083
sw,-87.755630493164,-60.6567649841308,32.953310979096244,29.247128851892175,193894750
sw,-88.0337753295898,-61.180606842041,25.081458383359365,26.685159985477632,193911417
sw,-88.2436447143554,-61.5401763916015,15.122390019854096,26.66217978543907,193928084
sw,-88.4092254638671,-62.2104301452636,3.535308947512364,28.829010663366663,193944751
sw,-88.4768447875976,-63.210464477539,-9.058876929287017,32.520188421920686,193961418
sw,-88.3436584472656,-63.8280296325683,-21.96956554339603,36.987492887157806,193978085
sw,-87.8516998291015,-64.3352890014648,-34.56190758786477,41.56549097734271,193994752
sw,-86.8571395874023,-64.9418487548828,-46.390923155219795,45.73539875979936,194011419
sw,-85.3940658569336,-65.7868423461914,-57.300437683444265,49.11905538597117,194028086
sw,-83.8160095214843,-66.8936614990234,-67.44094361628801,51.46591316974247,194044753
sw,-82.1512985229492,-68.087661743164,-77.183653149661,52.67318608340633,194061420
sw,-80.1767501831054,-69.1913909912109,-86.94900231811044,52.8276099666146,194078087
sw,-77.949462890625,-70.1996002197265,-97.00505704585896,52.22099987389165,194094754
sw,-75.5791015625,-71.0561904907226,-107.30365632670687,51.297546988479176,194111421
sw,-73.130012512207,-71.7822952270507,-117.40583862655787,50.53142254633929,194128088
sw,-70.8140029907226,-72.585205078125,-126.51637735954557,50.27877901484681,194144755
sw,-68.6912536621093,-73.5490036010742,-133.61660970699785,50.66854199465851,194161422
sw,-66.6581115722656,-74.6414108276367,-137.6643654018003,51.57923351821127,194178089
sw,-64.6646575927734,-75.7795867919921,-137.8196751677116,52.70618268227876,194194756
sw,-62.6077537536621,-76.8448028564453,-133.64933485291775,53.68207519935001,194211423
sw,-60.538761138916,-77.8109893798828,-125.25889826188889,54.197348341214756,194228090
sw,-58.7720298767089,-78.7224426269531,-113.30384949102061,54.07960292042311,194244757
sw,-57.3551940917968,-79.6121749877929,-98.85583739869483,53.31851990457329,194261424
sw,-56.251480102539,-80.4810943603515,-83.14855884249593,52.04581389605225,194278091
sw,-55.4274063110351,-81.3414764404296,-67.28235540617497,50.48880826643344,194294758
sw,-54.8290405273437,-82.1799850463867,-51.99488718731056,48.9136892936003,194311425
sw,-54.3977394104003,-82.9556121826171,-37.586320141601945,47.568571010000525,194328092
sw,-54.1333847045898,-83.6759719848632,-24.02555164134972,46.63350717378595,194344759
sw,-53.9702033996582,-84.3934936523437,-11.18475443430817,46.185265785741706,194361426
sw,-53.9456214904785,-85.1467132568359,0.9118991037734396,46.18494664946528,194378093
sw,-54.608413696289,-85.9553298950195,11.950815742019154,46.491658855661655,194394760
sw,-55.8066291809082,-86.8271942138671,21.375209957432144,46.894972391763154,194411427
sw,-57.1091880798339,-87.6468200683593,28.589764446122267,47.14797625238731,194428094
sw,-58.0771484375,-88.2449874877929,33.21189760794761,46.97961715316887,194444761
sw,-58.7062950134277,-88.4612503051757,35.23911573339568,46.07500587116837,194461428
sw,-59.4536018371582,-88.3077697753906,35.061165613698094,44.03328978778439,194478095
sw,-60.3456573486328,-87.9555130004882,33.334962809170236,40.33366078467244,194494762
sw,-61.2669486999511,-87.5398712158203,30.797749324429034,34.347548738715,194511429
sw,-62.0872383117675,-87.1695251464843,28.096225186624306,25.422138944480196,194528096
sw,-62.8825416564941,-86.9263610839843,25.678321347422987,13.031897156038465,194544763
sw,-63.0647850036621,-86.8648147583007,23.762430598860213,-3.0361907524730225,194561430
sw,-63.2980613708496,-87.0448837280273,22.37911809559066,-22.51867521407411,194578097
sw,-63.865924835205,-87.5031509399414,21.46463488639638,-44.591482263082256,194594764
sw,-64.1927947998046,-88.0893096923828,20.966228545249347,-67.9090189295769,194611431
sw,-64.3731155395507,-87.9967956542968,20.90774681772909,-90.77922726084972,194628098
sw,-64.7986602783203,-86.5878067016601,21.380140051139787,-111.44733372372875,194644765
sw,-65.3530731201171,-84.4068298339843,22.462562657760927,-128.4231320928082,194661432
sw,-65.9184494018554,-81.7855911254882,24.11893846987002,-140.76409994765956,194678099
sw,-66.6302795410156,-78.9680938720703,26.130215665601806,-148.23015947483896,194694766
sw,-67.5001449584961,-76.2033157348632,28.10951294946495,-151.25915197007274,194711433
sw,-68.4221801757812,-73.6937179565429,29.609916883772154,-150.76862741251153,194728100
sw,-69.3212738037109,-71.2603988647461,30.286684839027465,-147.8504192882209,194744767
sw,-70.0699844360351,-68.8870239257812,30.04302514634633,-143.46237632283197,194761434
sw,-70.7072525024414,-66.5856323242187,29.092379525357472,-138.21626654141576,194778101
sw,-71.3820724487304,-64.3545608520507,27.907562613496054,-132.3154375419561,194794768
sw,-72.0928268432617,-62.3457489013671,27.075207562483822,-125.63590938637932,194811435
sw,-72.8132400512695,-60.4974021911621,27.108339553161343,-117.8986034171805,194828102
sw,-73.4894256591796,-58.7494430541992,28.28002344930902,-108.86158319011578,194844769
sw,-74.1045684814453,-57.1824150085449,30.53054427617376,-98.46659283261067,194861436
sw,-74.7424087524414,-55.8278923034668,33.477547923202934,-86.89573128525022,194878103
sw,-75.4606628417968,-54.7409515380859,36.52875762259104,-74.5260732216118,194894770
sw,-76.2847213745117,-53.9692115783691,39.06518056621745,-61.80668516125208,194911437
sw,-77.1948318481445,-53.4502372741699,40.6371445746291,-49.11316751969374,194928104
sw,-78.0725708007812,-53.0876731872558,41.106915182353035,-36.64594190226018,194944771
sw,-78.8511352539062,-52.8169822692871,40.68762124168263,-24.421506282810928,194961438
sw,-79.551643371582,-52.6257667541503,39.86551168496357,-12.365094450534848,194978105
sw,-80.2246322631836,-52.6255073547363,39.23558702360726,-0.46602778621391894,194994772
sw,-80.876220703125,-52.7244186401367,39.30989692162406,11.074813956904656,195011439
sw,-81.5570831298828,-53.0081634521484,40.362124025804064,21.778437853715303,195028106
sw,-82.3250427246093,-53.6045684814453,42.35346524171055,30.94686996024926,195044773
sw,-83.1609497070312,-54.4397239685058,44.953336098897054,37.84315163440643,195061440
sw,-84.0560455322265,-55.3542366027832,47.635805112362796,41.93408750023989,195078107
sw,-84.9798736572265,-56.2077674865722,49.809680497306054,43.10387789875194,195094774
sw,-85.8767852783203,-56.9503669738769,50.934549419774065,41.75138426242914,195111441
sw,-86.6922225952148,-57.6998481750488,50.588294474033944,38.7272040774822,195128108
sw,-87.4027862548828,-58.2995719909668,48.47751714121346,35.1285246822102,195144775
sw,-88.0145645141601,-58.7691268920898,44.40929443690866,32.02227347077829,195161442
sw,-88.5455932617187,-59.2766036987304,38.258596850509804,30.19095329116956,195178109
sw,-88.9881896972656,-59.9840545654296,29.963302532826013,29.98392725034867,195194776
sw,-89.2566452026367,-60.5855064392089,19.55977253818177,31.314570291906108,195211443
sw,-89.373176574707,-61.3369789123535,7.2465314848778,33.78721040440556,195228110
sw,-89.5066299438476,-62.3268699645996,-6.555555712507839,36.89048453657354,195244777
sw,-89.6505813598632,-63.0151062011718,-21.183370332839015,40.17452063184645,195261444
sw,-89.3697509765625,-63.5705108642578,-35.7799856914245,43.34598341087529,195278111
sw,-88.5433120727539,-64.2716674804687,-49.421110040951895,46.26127715147132,195294778
sw,-87.2496337890625,-65.1519775390625,-61.30350419263084,48.85091924832387,195311445
sw,-85.4760589599609,-66.1468124389648,-70.94914934211234,51.03702188121275,195328112
sw,-83.4244308471679,-67.1933822631836,-78.35383585002906,52.69669952478006,195344779
sw,-81.3844604492187,-68.3145065307617,-84.00689425795716,53.68852363750585,195361446
sw,-79.4602127075195,-69.4304275512695,-88.74467996727665,53.92063560817684,195378113
sw,-77.4946823120117,-70.4420166015625,-93.46739462420423,53.41733927524472,195394780
sw,-75.4425277709961,-71.3076095581054,-98.81389413039138,52.34431731468755,195411447
sw,-73.3791809082031,-72.1066513061523,-104.91378812370365,50.97680502576335,195428114
sw,-71.4049911499023,-72.9823837280273,-111.30650552856066,49.62513887728493,195444781
sw,-69.4499816894531,-73.951171875,-117.05253115362015,48.550490746804705,195461448
sw,-67.6118774414062,-74.9939041137695,-120.99598060610901,47.9016138291808,195478115
sw,-65.7809219360351,-75.9869842529296,-122.09361651179984,47.68699596996888,195494782
sw,-63.9024505615234,-76.8498458862304,-119.71025593013098,47.780599800029734,195511449
sw,-62.1212348937988,-77.6411972045898,-113.79200073957375,47.95390160161466,195528116
sw,-60.5355110168457,-78.447151184082,-104.86376741988357,47.93022637489838,195544783
sw,-59.1891212463378,-79.2687606811523,-93.85206735004337,47.458710125786865,195561450
sw,-58.0742034912109,-80.1180572509765,-81.79490869405659,46.39746139280871,195578117
sw,-57.0723457336425,-80.9619522094726,-69.54396868287908,44.782953330357394,195594784
sw,-56.2254371643066,-81.7293472290039,-57.56710717615023,42.856776372020846,195611451
sw,-55.5306854248046,-82.3947296142578,-45.91786028912335,41.02952304814944,195628118
sw,-55.0759887695312,-83.0106201171875,-34.37199009374171,39.78280146180781,195644785
sw,-54.8257064819335,-83.6180114746093,-22.669146169948057,39.534072739576786,195661452
sw,-54.7308845520019,-84.2498779296875,-10.76250939409339,40.50386553294049,195678119
sw,-54.7740898132324,-84.9360046386718,1.021988102849367,42.625074248278246,195694786
sw,-55.0821304321289,-85.7062759399414,11.985530916025352,45.52071857808502,195711453
sw,-56.0201530456543,-86.5741195678711,21.228609004089083,48.55517273992984,195728120
sw,-57.1569023132324,-87.4981384277343,27.938339923327657,50.941287726327964,195744787
sw,-58.0486297607421,-88.3236923217773,31.675076472113304,51.86924932925996,195761454
sw,-58.650520324707,-88.6480941772461,32.53383089682052,50.61891859912623,195778121
sw,-59.1461868286132,-88.32275390625,31.11489253594124,46.62888372729854,195794788
sw,-59.8183326721191,-87.8591766357421,28.332574702400546,39.51911884332021,195811455
sw,-60.7183876037597,-87.523696899414,25.15942305477955,29.088967910302436,195828122
sw,-61.5870513916015,-87.2849578857421,22.407279439492886,15.323256653997712,195844789
sw,-62.2295951843261,-87.1771469116211,20.601640791747755,-1.5726097377496624,195861456
sw,-62.4600601196289,-87.2572631835937,19.95615477092657,-21.117005796224976,195878123
sw,-62.848346710205,-87.4966583251953,20.426383550763017,-42.51161494749193,195894790
sw,-63.3295822143554,-87.6840438842773,21.80924147958102,-64.65833728818536,195911457
sw,-63.6495552062988,-87.3093566894531,23.844538504608877,-86.25762526396213,195928124
sw,-64.016860961914,-86.1201553344726,26.276391378196177,-105.9806436255127,195944791
sw,-64.6747512817382,-84.3011322021484,28.858461741564472,-122.67784145015123,195961458
sw,-65.373664855957,-81.9148864746093,31.327146657585686,-135.56892542986677,195978125
sw,-66.170166015625,-79.2533264160156,33.391080930284296,-144.35813105027506,195994792
sw,-67.1493301391601,-76.6357116699218,34.774469772789956,-149.23594608955244,196011459
sw,-68.2472686767578,-74.0846557617187,35.31163578127661,-150.76320153491898,196028126
sw,-69.2667083740234,-71.5331497192382,35.045666329175,-149.6754520897669,196044793
sw,-70.0881805419921,-69.1236419677734,34.266001006656325,-146.67437033415192,196061460
sw,-70.7473068237304,-66.8280715942382,33.44489606592779,-142.27228305961208,196078127
sw,-71.4796905517578,-64.6296768188476,33.087243146287975,-136.72855123638027,196094794
sw,-72.2359466552734,-62.5824699401855,33.55604282839481,-130.07949700653913,196111461
sw,-73.1298065185546,-60.6856727600097,34.9473324849729,-122.23366295584998,196128128
sw,-74.0064239501953,-58.8840866088867,37.061670748854006,-113.08899519137377,196144795
sw,-74.827896118164,-57.2353134155273,39.475354860277434,-102.62838251060832,196161462
sw,-75.6413803100586,-55.7820014953613,41.677758585004646,-90.96238329041414,196178129
sw,-76.4559936523437,-54.5676841735839,43.22501759787159,-78.3097729121319,196194796
sw,-77.2674255371093,-53.6350021362304,43.86446615261089,-64.93234076385075,196211463
sw,-78.1288146972656,-52.9698219299316,43.59988474730453,-51.06092087114456,196228130
sw,-78.9886627197265,-52.5350608825683,42.68552660114349,-36.85495828405788,196244797
sw,-79.7719573974609,-52.2842559814453,41.552983276214185,-22.42355408163304,196261464
sw,-80.5020751953125,-52.1970977783203,40.689693374455054,-7.9068163369453845,196278131
sw,-81.2058715820312,-52.3213729858398,40.50091725203906,6.41525578307208,196294798
sw,-81.9439239501953,-52.4691467285156,41.19346199896739,20.03971301345044,196311465
sw,-82.7280044555664,-52.9539070129394,42.71364120400723,32.23684620376383,196328132
sw,-83.5610580444336,-53.8501091003418,44.75411884893971,42.15476598109889,196344799
sw,-84.4240951538086,-54.9699897766113,46.82191195959796,49.017212285003346,196361466
sw,-85.3084030151367,-55.9694137573242,48.342329670000964,52.35271306990474,196378133
sw,-86.1737213134765,-56.9040565490722,48.766650955913626,52.17069017175027,196394800
sw,-86.951171875,-57.8984680175781,47.65540390375106,49.01722385273138,196411467
sw,-87.5451278686523,-58.7098770141601,44.721470247791174,43.88927551055772,196428134
sw,-87.9809417724609,-59.2480735778808,39.83360456027398,38.03585937898468,196444801
sw,-88.3028030395507,-59.7966804504394,32.995828665901115,32.70891742361665,196461468
sw,-88.548957824707,-60.3501434326171,24.325538512697282,28.937074907984343,196478135
sw,-88.733901977539,-60.8182182312011,14.048816282955581,27.378822220191644,196494802
sw,-88.7969970703125,-61.6138191223144,2.5156161644538146,28.27304502843478,196511469
sw,-88.6952362060546,-62.4783859252929,-9.78361287921383,31.462669810933292,196528136
sw,-88.4390335083007,-62.9623985290527,-22.233358133324913,36.44727656135287,196544803
sw,-88.0019836425781,-63.3197212219238,-34.17104035994598,42.438943938318054,196561470
sw,-87.1999130249023,-63.9861297607421,-45.03187003773302,48.43930060078476,196578137
sw,-85.9292755126953,-65.0290145874023,-54.52305372470074,53.38222105929403,196594804
sw,-84.2937393188476,-66.4494400024414,-62.75330476435996,56.35951640715572,196611471
sw,-82.6243743896484,-67.9274597167968,-70.23814596779556,56.87775633290093,196628138
sw,-80.8820419311523,-69.0625076293945,-77.74131314554246,55.038251114895694,196644805
sw,-78.892593383789,-69.8802642822265,-85.98492098688432,51.539806440168974,196661472
sw,-76.7415161132812,-70.5308609008789,-95.3285958638804,47.4780491741052,196678139
sw,-74.5478744506836,-71.1128768920898,-105.54249712296888,44.010562354757546,196694806
sw,-72.5329360961914,-71.8247909545898,-115.76779246216026,42.01659595141848,196711473
sw,-70.6565246582031,-72.7157211303711,-124.68757748600497,41.874244225648106,196728140
sw,-68.7698974609375,-73.6996917724609,-130.854446425838,43.41800905483082,196744807
sw,-66.8718032836914,-74.7130737304687,-133.0688600502386,46.06300695107957,196761474
sw,-64.9390792846679,-75.6799087524414,-130.69145612914264,49.02671305695916,196778141
sw,-63.1051025390625,-76.5925598144531,-123.80047381401117,51.56354547768955,196794808
sw,-61.4482536315918,-77.5037536621093,-113.15716217369531,53.14598113891208,196811475
sw,-59.9954261779785,-78.4104080200195,-99.99859832032985,53.55892769057913,196828142
sw,-58.8132514953613,-79.2768630981445,-85.72387414533446,52.90434012560467,196844809
sw,-57.861457824707,-80.1071166992187,-71.56642513309461,51.53316270665843,196861476
sw,-56.9874649047851,-80.9263687133789,-58.346200509535294,49.93200908913153,196878143
sw,-56.2712059020996,-81.7451248168945,-46.36866579221216,48.59484082412968,196894810
sw,-55.7747039794921,-82.5642547607421,-35.4901048537689,47.90693499960414,196911477
sw,-55.4944229125976,-83.39111328125,-25.31639045428628,48.06167795525938,196928144
sw,-55.3794784545898,-84.2242660522461,-15.462445693908485,49.02266578498645,196944811
sw,-55.3732681274414,-85.0722503662109,-5.781407212326534,50.53561625128161,196961478
sw,-55.5215492248535,-85.9695892333984,3.520433522784829,52.18637717346805,196978145
sw,-56.3547325134277,-86.8978958129882,11.930228843365603,53.492114185648354,196994812
sw,-57.4649429321289,-87.8123321533203,18.818733969464365,54.00336665772169,197011479
sw,-58.2664604187011,-88.5614242553711,23.685464986038216,53.388373336251476,197028146
sw,-58.7241554260253,-88.7429046630859,26.340327074401817,51.47255769773894,197044813
sw,-59.1208801269531,-88.3389358520507,26.944278620265578,48.218402586759204,197061480
sw,-59.6920890808105,-87.8306579589843,25.918797794031764,43.65253385976393,197078147
sw,-60.4768981933593,-87.3932342529296,23.80218296407167,37.77012866412758,197094814
sw,-61.2981071472168,-87.0468673706054,21.135246743741295,30.460563089214162,197111481
sw,-62.2330589294433,-86.7544174194336,18.410880784513523,21.49363634232467,197128148
sw,-62.7706069946289,-86.5312347412109,16.067761792571233,10.582391498636294,197144815
sw,-62.8176689147949,-86.4532623291015,14.486896334858086,-2.4938950379028646,197161482
sw,-63.1498260498046,-86.5759506225586,13.965544499533351,-17.749879437594622,197178149
sw,-63.4782829284668,-86.957534790039,14.67120103233712,-34.890343645273305,197194816
sw,-63.663776397705,-87.6072311401367,16.593457271866587,-53.28412412153318,197211483
sw,-63.7815284729003,-88.308349609375,19.5134715644715,-72.03085288030395,197228150
sw,-64.2636489868164,-88.0893096923828,23.01185603862153,-90.10395915908205,197244817
sw,-65.1028289794921,-86.6930541992187,26.533301809442925,-106.5284348774744,197261484
sw,-66.0262680053711,-84.6511535644531,29.507500317114573,-120.54214370434023,197278151
sw,-66.8799514770507,-82.2313766479492,31.49518650769791,-131.69667727049014,197294818
sw,-67.6903076171875,-79.7463836669921,32.308015808542685,-139.87370852528215,197311485
sw,-68.5336151123046,-77.2695999145507,32.05746669548088,-145.21965424106804,197328152
sw,-69.3400344848632,-74.7345199584961,31.11612050101455,-148.02823397579718,197344819
sw,-70.0464706420898,-72.2048950195312,30.007514491216075,-148.61645389082645,197361486
sw,-70.7472991943359,-69.709976196289,29.2634547620797,-147.23519459173056,197378153
sw,-71.5320968627929,-67.2252197265625,29.292982232558863,-144.03312635382028,197394820
sw,-72.3389358520507,-64.9121398925781,30.29546997350904,-139.0665556775021,197411487
sw,-73.0813598632812,-62.8998947143554,32.22997666497836,-132.333435993896,197428154
sw,-73.7870864868164,-61.078857421875,34.836633726538516,-123.81247962733546,197444821
sw,-74.5265502929687,-59.3657989501953,37.699920027402946,-113.50060581593398,197461488
sw,-75.3271331787109,-57.737434387207,40.34301085633124,-101.45034742322385,197478155
sw,-76.1822357177734,-56.2391777038574,42.33856100585598,-87.80607036900253,197494822
sw,-77.0784072875976,-54.9819984436035,43.413562355804864,-72.82941258076588,197511489
sw,-77.9901580810546,-54.0670013427734,43.52103780385808,-56.90182049662578,197528156
sw,-78.8808822631836,-53.5149040222168,42.85545431634979,-40.50116251723908,197544823
sw,-79.6778717041015,-53.386619567871,41.80275621255963,-24.164638717942058,197561490
sw,-80.3638153076171,-53.4170379638671,40.83617248472221,-8.459051432208463,197578157
sw,-81.0650177001953,-53.6003227233886,40.38836496747778,6.028511878128354,197594824
sw,-81.8258209228515,-53.7351989746093,40.73980491966138,18.69044238414767,197611491
sw,-82.6111145019531,-54.2000694274902,41.95609878693583,28.922910544274167,197628158
sw,-83.4154891967773,-55.0255851745605,43.88614863063513,36.20778265822845,197644825
sw,-84.26171875,-55.9810981750488,46.20981952163995,40.250733646059906,197661492
sw,-85.1266937255859,-56.791088104248,48.509322282741515,41.126408353585354,197678159
sw,-85.9806823730468,-57.5610046386718,50.3368896946825,39.357199560114935,197694826
sw,-86.8330612182617,-58.3514900207519,51.26009397691844,35.871205695236746,197711493
sw,-87.6568222045898,-58.9476623535156,50.880067695651476,31.833903952523364,197728160
sw,-88.3715362548828,-59.4036712646484,48.8314744345776,28.39814270375335,197744827
sw,-88.9295501708984,-59.8321418762207,44.78210465400436,26.44819691515029,197761494
sw,-89.2008285522461,-60.3081855773925,38.45172850512065,26.41881175266906,197778161
sw,-89.1056213378906,-60.7149658203125,29.66252188522096,28.248064306935238,197794828
sw,-88.7798690795898,-61.3630638122558,18.41698555713952,31.47718332485406,197811495
sw,-88.5194549560546,-62.4496917724609,4.978272579946185,35.45396795535228,197828162
sw,-88.456428527832,-63.263084411621,-10.087704354133159,39.55232388518735,197844829
sw,-88.5400848388671,-63.7578239440918,-25.947523040094925,43.31615000471447,197861496
sw,-88.5038070678711,-64.3262252807617,-41.62858778415517,46.48302739293085,197878163
sw,-87.7736663818359,-65.0355834960937,-56.21799071081764,48.9166433668392,197894830
sw,-86.29736328125,-66.0246658325195,-69.07247420360918,50.52596994285673,197911497
sw,-84.4774627685546,-67.2263031005859,-79.96315187847948,51.24069028259928,197928164
sw,-82.5457077026367,-68.4400863647461,-89.09428670880233,51.057684364202146,197944831
sw,-80.3550872802734,-69.5037536621093,-96.9808498586258,50.11480887361374,197961498
sw,-77.983283996582,-70.3955535888671,-104.22352007767758,48.725187813990836,197978165
sw,-75.5429153442382,-71.1186828613281,-111.2558455021865,47.32937325719739,197994832
sw,-73.2043304443359,-71.8074264526367,-118.14425126815571,46.37428418676611,198011499
sw,-71.0022964477539,-72.5758285522461,-124.50263584942962,46.172376030453236,198028166
sw,-69.0027618408203,-73.4996643066406,-129.5500672778876,46.80593293043217,198044833
sw,-67.026008605957,-74.5476760864257,-132.30035087460234,48.11609898775894,198061500
sw,-64.9013061523437,-75.5838241577148,-131.83236057830806,49.77275882700872,198078167
sw,-62.7687339782714,-76.556396484375,-127.55880344827112,51.38677190775688,198094834
sw,-60.885398864746,-77.4672927856445,-119.40191591972548,52.61771236334031,198111501
sw,-59.3812141418457,-78.3599243164062,-107.81087713999244,53.245819412268546,198128168
sw,-58.1454849243164,-79.2198410034179,-93.61621065063053,53.200309439984004,198144835
sw,-57.1418266296386,-80.0833740234375,-77.78543262766878,52.55237787176176,198161502
sw,-56.3237495422363,-80.9949722290039,-61.18525178703465,51.485026004401924,198178169
sw,-55.7609405517578,-81.9225082397461,-44.44823687001603,50.247377565713556,198194836
sw,-55.3987274169921,-82.7810440063476,-27.992620941752744,49.096288479310445,198211503
sw,-55.2430458068847,-83.5527801513671,-12.175260969700632,48.22941230202202,198228170
sw,-55.2979888916015,-84.2575454711914,2.506302617428893,47.72241633460737,198244837
sw,-55.4701423645019,-84.9439849853515,15.283938629061277,47.49221911718895,198261504
sw,-56.3392944335937,-85.681037902832,25.170354266368953,47.30793427117837,198278171
sw,-58.117805480957,-86.5141830444336,31.225316186983424,46.85597893642881,198294838
sw,-59.8901863098144,-87.3982696533203,32.94801052872582,45.839555315398464,198311505
sw,-60.7452430725097,-88.1432266235351,30.604692118018278,44.068628307864564,198328172
sw,-60.8153572082519,-88.4776153564453,25.30139690349372,41.490737718068694,198344839
sw,-60.9170722961425,-88.3823928833007,18.735263345987967,38.13469724789452,198361506
sw,-61.1974372863769,-88.1089706420898,12.7246029761131,33.98233780852164,198378173
sw,-61.5292739868164,-87.828498840332,8.714363835053007,28.826968566150327,198394840
sw,-62.0368881225585,-87.6460723876953,7.436250800639309,22.19672175612998,198411507
sw,-62.6920661926269,-87.5471267700195,8.814241356572952,13.40336637974075,198428174
sw,-63.0031051635742,-87.493293762207,12.11132407013758,1.7280791819978614,198444841
sw,-63.2338371276855,-87.4973602294921,16.245991329661056,-13.30462516512069,198461508
sw,-63.8774108886718,-87.6436614990234,20.170198768854156,-31.659606238824313,198478175
sw,-64.4030609130859,-87.949966430664,23.188985558277764,-52.63612668494186,198494842
sw,-64.6444244384765,-87.9533996582031,25.119973552878623,-74.89862117398248,198511509
sw,-64.8796844482421,-86.9473266601562,26.24693861500575,-96.70154148963651,198528176
sw,-65.3027801513671,-85.1431274414062,27.103017923355072,-116.24544272157627,198544843
sw,-65.9026107788086,-82.7933959960937,28.186613231793885,-132.05475411715065,198561510
sw,-66.7257614135742,-80.1596145629882,29.731757191771276,-143.2629011497561,198578177
sw,-67.7099533081054,-77.434829711914,31.62045298209919,-149.72538938337868,198594844
sw,-68.7032470703125,-74.8272247314453,33.45798534745179,-151.9405825194605,198611511
sw,-69.7510223388671,-72.3037948608398,34.763086892548316,-150.820263209548,198628178
sw,-70.6573104858398,-69.8356170654296,35.181715687817025,-147.395524150938,198644845
sw,-71.3540115356445,-67.4810638427734,34.63330779875222,-142.55204032817107,198661512
sw,-72.0225677490234,-65.202392578125,33.338501643126115,-136.8624284264397,198678179
sw,-72.7989196777343,-63.0938987731933,31.734116686185395,-130.53951417701592,198694846
sw,-73.632339477539,-61.2033309936523,30.324131421791122,-123.4949792000706,198711513
sw,-74.4253616333007,-59.4023284912109,29.527280326464165,-115.46544983306575,198728180
sw,-75.1159591674804,-57.7016563415527,29.56830485356705,-106.16158779752892,198744847
sw,-75.7223052978515,-56.1376686096191,30.437531861440647,-95.3983730493514,198761514
sw,-76.3198776245117,-54.7808799743652,31.922554628152284,-83.17357288521717,198778181
sw,-76.9916305541992,-53.75239944458,33.69722614976403,-69.6783889254674,198794848
sw,-77.7276916503906,-53.0780639648437,35.4372443801939,-55.24904625639072,198811515
sw,-78.4840393066406,-52.6390342712402,36.92345278605499,-40.291667773535984,198828182
sw,-79.2163925170898,-52.3648223876953,38.099650573332674,-25.221137043651307,198844849
sw,-79.9394836425781,-52.2957458496093,39.07064706374214,-10.440175391645058,198861516
sw,-80.6841812133789,-52.356216430664,40.04908493796238,3.6448494405816514,198878183
sw,-81.442138671875,-52.5933570861816,41.27447979955977,16.60086197004612,198894850
sw,-82.2215576171875,-53.1758422851562,42.93009691719097,27.97294820044094,198911517
sw,-83.0572357177734,-53.9663162231445,45.076621714817215,37.33449981863691,198928184
sw,-83.9379043579101,-54.8218116760253,47.61264564921816,44.37018228670727,198944851
sw,-84.8343429565429,-55.7149429321289,50.26440140841542,48.956666869104595,198961518
sw,-85.7379608154296,-56.6285400390625,52.60182095287086,51.20430765874538,198978185
sw,-86.6558990478515,-57.5965461730957,54.07526111410829,51.44075891604151,198994852
sw,-87.5509567260742,-58.5389556884765,54.06740300470884,50.1424139826206,199011519
sw,-88.3344650268554,-59.3456840515136,51.95743736520069,47.83955861260215,199028186
sw,-88.8964233398437,-60.1433677673339,47.19813685440624,45.030680395866874,199044853
sw,-89.0077133178711,-61.041748046875,39.40749052514815,42.1376930102713,199061520
sw,-88.7610931396484,-61.8521919250488,28.471180136480278,39.51457248701398,199078187
sw,-88.4335174560546,-62.6364402770996,14.639332687817605,37.490900345360224,199094854
sw,-88.2499008178711,-63.555492401123,-1.4140301851111707,36.40418970820282,199111521
sw,-88.295669555664,-64.1290893554687,-18.60757415085384,36.57113325011241,199128188
sw,-88.4264144897461,-64.3989028930664,-35.57437712821615,38.18030353655203,199144855
sw,-88.2843399047851,-64.8582534790039,-50.89005665552388,41.147407374325724,199161522
sw,-87.3813247680664,-65.6514816284179,-63.369932308953906,45.02230857814528,199178189
sw,-85.7888946533203,-66.7538909912109,-72.3608940431391,49.032500752164246,199194856
sw,-83.9220809936523,-68.0475463867187,-77.93271465088009,52.28172260093315,199211523
sw,-82.1068344116211,-69.3238372802734,-80.88425148455329,54.03423428596323,199228190
sw,-80.4563293457031,-70.3889694213867,-82.53170564518425,53.962374539217095,199244857
sw,-78.7240753173828,-71.2525405883789,-84.32669951399514,52.24939076884823,199261524
sw,-76.9358291625976,-71.9944534301757,-87.42391762820024,49.50869644032117,199278191
sw,-75.1586456298828,-72.7056503295898,-92.34140355678053,46.561900444613954,199294858
sw,-73.5304260253906,-73.4718704223632,-98.82001233230801,44.16927646226128,199311525
sw,-71.8706512451171,-74.3045272827148,-105.91528969518602,42.810569194962916,199328192
sw,-70.1100997924804,-75.1713562011718,-112.27986961011536,42.58066326985597,199344859
sw,-68.214241027832,-76.0383758544921,-116.54090063596537,43.216003944665765,199361526
sw,-66.262336730957,-76.8895950317382,-117.6551680504135,44.22432541995877,199378193
sw,-64.4644088745117,-77.7646560668945,-115.1381980527518,45.06398670736593,199394860
sw,-62.8568878173828,-78.6177597045898,-109.11023472969048,45.313015077116205,199411527
sw,-61.4253883361816,-79.390266418457,-100.16732908604499,44.779418348647084,199428194
sw,-60.1611557006835,-80.0749053955078,-89.14452081420738,43.528495246347944,199444861
sw,-59.0578384399414,-80.7109680175781,-76.86618017041106,41.832223981430026,199461528
sw,-58.0900573730468,-81.3483734130859,-63.96801736430065,40.07004247175175,199478195
sw,-57.3616027832031,-82.0238571166992,-50.83717548019374,38.62011182476027,199494862
sw,-56.8178558349609,-82.7336120605468,-37.67087877758202,37.77315359047404,199511529
sw,-56.4346122741699,-83.4087295532226,-24.615245387174806,37.683871525564854,199528196
sw,-56.2661437988281,-84.0460968017578,-11.919876022592232,38.358694545385404,199544863
sw,-56.2273750305175,-84.6766357421875,-0.03409681327316308,39.67026517789352,199561530
sw,-56.7620162963867,-85.3916397094726,10.414282292555177,41.387786147172434,199578197
sw,-57.8575286865234,-86.1752624511718,18.769259474897385,43.212168220303035,199594864
sw,-58.8273696899414,-86.9391250610351,24.568789626270707,44.803041631305256,199611531
sw,-59.478515625,-87.5742492675781,27.73158579672234,45.78513201321349,199628198
sw,-59.9607849121093,-87.9703063964843,28.61230577238295,45.73013860684236,199644865
sw,-60.5271911621093,-88.0791931152343,27.899663742245306,44.12663318072028,199661532
sw,-61.1993713378906,-87.9533996582031,26.41140935636669,40.366002249839056,199678199
sw,-61.876365661621,-87.7175903320312,24.875496086022576,33.77645606828134,199694866
sw,-62.5438385009765,-87.4709854125976,23.770527302463,23.724484089522132,199711533
sw,-63.0116577148437,-87.2677764892578,23.26115860268547,9.77698088618044,199728200
sw,-63.2627372741699,-87.1781845092773,23.23381743624957,-8.112868469141723,199744867
sw,-63.8483238220214,-87.2339553833007,23.417023052454756,-29.45468660482745,199761534
sw,-64.5496826171875,-87.3510818481445,23.546713925297247,-53.16670684435409,199778201
sw,-64.974739074707,-87.1437072753906,23.512406099561982,-77.66001081731073,199794868
sw,-65.347297668457,-86.159927368164,23.417912016037327,-101.06451736648505,199811535
sw,-65.7712631225586,-84.3933181762695,23.52681148525773,-121.55473961103468,199828202
sw,-66.3243865966796,-82.0076293945312,24.12088679128168,-137.69571797426207,199844869
sw,-67.0386810302734,-79.2185821533203,25.34324644966719,-148.7130722869057,199861536
sw,-67.8772735595703,-76.3840026855468,27.103654191295014,-154.6047825489681,199878203
sw,-68.8049163818359,-73.7206878662109,29.09208548196318,-156.05705131420862,199894870
