Label,Left_Hip_q,Right_Hip_q,Left_Hip_qd,Right_Hip_qd,SampleTimeFine
sw,-60.5952682495117,-78.2973937988281,-93.344970703125,49.9819068908691,727838762
sw,-59.3572959899902,-79.0154418945312,-82.4215505875316,43.60297670738129,727855429
sw,-58.1766204833984,-79.6507110595703,-73.86157655346187,41.16797211758131,727872096
sw,-57.0947914123535,-80.2855377197265,-64.6065366527609,39.00051586095065,727888763
sw,-56.2467384338378,-80.9531478881836,-54.15890346921846,37.39650390920123,727905430
sw,-55.7040138244628,-81.6373596191406,-42.32843461072118,36.60378691382995,727922097
sw,-55.4562454223632,-82.3328475952148,-29.319025074189646,36.80376443436264,727938764
sw,-55.4031181335449,-83.0074234008789,-15.748525875453122,38.09030041455588,727955431
sw,-55.4983139038085,-83.6840057373046,-2.5855753240811605,40.44508153704806,727972098
sw,-55.8590698242187,-84.3866500854492,9.012031845573897,43.71573407014753,727988765
sw,-56.9432716369628,-85.1879348754882,17.953763002852394,47.60734600798378,728005432
sw,-58.2088050842285,-86.1198043823242,23.516355949292517,51.694568458443975,728022099
sw,-58.9162406921386,-87.0523071289062,25.58394914150025,55.45125267126031,728038766
sw,-59.1295204162597,-87.7859191894531,24.717866205287898,58.28528109906416,728055433
sw,-59.3193664550781,-88.1651763916015,22.01054080342393,59.56656032303903,728072100
sw,-59.6946640014648,-88.1147766113281,18.778743226056616,58.64741219908522,728088767
sw,-60.2965774536132,-87.7221374511718,16.21742911470203,54.888210460068464,728105434
sw,-61.0402183532714,-87.1729888916015,15.130641720462336,47.70576804231781,728122101
sw,-61.765396118164,-86.650634765625,15.802128283728914,36.653589034220445,728138768
sw,-62.4475746154785,-86.2474060058593,18.010911016062682,21.52695414896882,728155435
sw,-62.8356704711914,-86.1040878295898,21.161860749324052,2.4707351373064843,728172102
sw,-63.247989654541,-86.2548828125,24.486431466369503,-19.94014533472736,728188769
sw,-63.9048690795898,-86.6415939331054,27.26203319911553,-44.67725674666823,728205436
sw,-64.3031997680664,-87.1606903076171,28.996305927959014,-70.31441979492487,728222103
sw,-64.4534072875976,-87.314094543457,29.532318388682295,-95.17144893929432,728238770
sw,-64.990982055664,-86.4123153686523,29.05597039885081,-117.53511134624358,728255437
sw,-65.6988906860351,-84.5497512817382,28.014558309835273,-135.9229101777286,728272104
sw,-66.4252471923828,-81.9874420166015,26.971001281848032,-149.33384659946108,728288771
sw,-67.0376434326171,-78.9969940185546,26.427002910262907,-157.4196105954703,728305438
sw,-67.714859008789,-76.0167007446289,26.662199942160527,-160.51838306962586,728322105
sw,-68.4930953979492,-73.3398132324218,27.645609284785483,-159.52769244672402,728338772
sw,-69.3655548095703,-70.7837677001953,29.058817347570812,-155.64712191090396,728355439
sw,-70.1934967041015,-68.372573852539,30.426212303188212,-150.07208717891496,728372106
sw,-70.9331283569336,-66.1450424194336,31.30146651074266,-143.73653072470103,728388773
sw,-71.6247482299804,-64.039321899414,31.438775726093535,-137.1753412657055,728405440
sw,-72.3606262207031,-62.0406455993652,30.889479226183145,-130.52491214673526,728422107
sw,-73.1534271240234,-60.0963706970214,29.996697240636593,-123.63049788053432,728438774
sw,-73.9670028686523,-58.206184387207,29.29421299736749,-116.19963515425611,728455441
sw,-74.6794128417968,-56.5195388793945,29.341023011562264,-107.93674876248383,728472108
sw,-75.3245162963867,-55.0580863952636,30.53912701616622,-98.6135102254266,728488775
sw,-75.9078521728515,-53.7792739868164,32.98938994577341,-88.0657536267771,728505442
sw,-76.5184478759765,-52.779972076416,36.43446196762995,-76.14672700333111,728522109
sw,-77.2796096801757,-51.9944725036621,40.314634185918635,-62.69042891964206,728538776
sw,-78.1679611206054,-51.4322891235351,43.92566060868568,-47.53566044360251,728555443
sw,-79.1081771850586,-51.111400604248,46.62993402745481,-30.63135635580194,728572110
sw,-80.0442428588867,-50.9116744995117,48.050423786645936,-12.198638272920554,728588777
sw,-80.9367065429687,-50.9369506835937,48.18114474407184,7.1165398490520575,728605444
sw,-81.7608337402343,-51.1606063842773,47.377200350136995,26.185037267930017,728622111
sw,-82.5515518188476,-51.9889945983886,46.22916529698872,43.49703136317182,728638778
sw,-83.3366470336914,-53.3793983459472,45.36414267630188,57.43471572223332,728655445
sw,-84.111946105957,-54.8648223876953,45.23622806122508,66.64785809674582,728672112
sw,-84.9002685546875,-56.1519508361816,45.96774297921127,70.4084046840964,728688779
sw,-85.7478942871093,-57.3447608947753,47.28327303875088,68.82000188721956,728705446
sw,-86.6199722290039,-58.4586067199707,48.54957067694035,62.81537956480719,728722113
sw,-87.418960571289,-59.3101539611816,48.90499496909518,53.9534531085828,728738780
sw,-88.0328826904296,-59.9535827636718,47.44105213596554,44.08881432688933,728755447
sw,-88.3761138916015,-60.5699958801269,43.39166364160006,35.0119996933157,728772114
sw,-88.4542694091796,-61.0289344787597,36.29242806332044,28.15214436937916,728788781
sw,-88.3650588989257,-61.4327163696289,26.084877872854353,24.40182272300249,728805448
sw,-88.2804718017578,-62.267967224121,13.151143420179825,24.07602429372721,728822115
sw,-88.3421173095703,-62.9985084533691,-1.7293553058930462,26.969181238912213,728838782
sw,-88.5554428100586,-63.3499488830566,-17.502197089518702,32.45040485950041,728855449
sw,-88.8048324584961,-63.6992378234863,-33.02631656027199,39.556630247777385,728872116
sw,-88.518928527832,-64.3619155883789,-47.29622340062328,47.09359500457124,728888783
sw,-87.4193496704101,-65.4435882568359,-59.64832670419018,53.78866116864343,728905450
sw,-85.8249130249023,-66.8414993286132,-69.89455111414581,58.518372859740126,728922117
sw,-83.9844131469726,-68.2402877807617,-78.3368257175487,60.56900448493389,728938784
sw,-81.9698715209961,-69.3775634765625,-85.64556264060842,59.833793776355414,728955451
sw,-79.8553009033203,-70.3368530273437,-92.6269282235308,56.85244169723699,728972118
sw,-77.5910720825195,-71.1580505371093,-99.94257337629651,52.65872350884316,728988785
sw,-75.2795028686523,-71.8643493652343,-107.86519036278905,48.482801032584604,729005452
sw,-73.0504989624023,-72.6353302001953,-116.14477826824809,45.411335701280954,729022119
sw,-70.9705429077148,-73.5362319946289,-124.02679298848415,44.117140716542245,729038786
sw,-69.0186462402343,-74.492691040039,-130.41717199372016,44.73431490103883,729055453
sw,-67.0511245727539,-75.5187225341796,-134.1463506158372,46.896516033727245,729072120
sw,-64.9946746826171,-76.5681076049804,-134.25705081904152,49.902329697558116,729088787
sw,-62.9578628540039,-77.5779418945312,-130.23483680575418,52.94136709996796,729105454
sw,-61.1903610229492,-78.5645294189453,-122.11762341475992,55.31180695269388,729122121
sw,-59.6635818481445,-79.5289840698242,-110.45798151201964,56.577128780381884,729138788
sw,-58.2950782775878,-80.4641189575195,-96.16000078481409,56.63530695070031,729155455
sw,-57.0770797729492,-81.3593673706054,-80.25232114369373,55.69840605650617,729172122
sw,-56.1377639770507,-82.2312774658203,-63.67472782182223,54.19975916354148,729188789
sw,-55.5223312377929,-83.0865631103515,-47.144922868200055,52.658593678827025,729205456
sw,-55.216022491455,-83.8967132568359,-31.142690559953284,51.537825602534056,729222123
sw,-55.0626373291015,-84.6674118041992,-16.007492215616914,51.12953127606735,729238790
sw,-55.0402755737304,-85.4454269409179,-2.0972263124703927,51.49433640620519,729255457
sw,-55.2169075012207,-86.2885971069336,10.084850974302539,52.46593933426588,729272124
sw,-55.9930572509765,-87.1347427368164,19.891672395953155,53.712054262838905,729288791
sw,-57.3825721740722,-87.8113479614257,26.701514550141148,54.82386030574654,729305458
sw,-58.735050201416,-88.064468383789,30.191027333295985,55.39626862087912,729322125
sw,-59.4649581909179,-87.7884902954101,30.564482451096094,55.067320911597996,729338792
sw,-59.7529067993164,-87.2462997436523,28.595996170614477,53.50556966470237,729355459
sw,-60.1783332824707,-86.6459121704101,25.441986429893117,50.36063357365883,729372126
sw,-60.7505645751953,-86.0829849243164,22.307369090911426,45.21259506988283,729388793
sw,-61.3486442565918,-85.5599670410156,20.11483938624869,37.561093245512026,729405460
sw,-62.1562538146972,-85.1280212402343,19.303752667422746,26.881787838709545,729422127
sw,-62.9137687683105,-84.9061508178711,19.809718212261828,12.751524001168155,729438794
sw,-63.1226539611816,-84.8884506225586,21.200604523656388,-4.984854558657635,729455461
sw,-63.5500755310058,-85.1143264770507,22.899437637663468,-26.052948829016557,729472128
sw,-64.1237564086914,-85.6197052001953,24.41197046957099,-49.64592158132702,729488795
sw,-64.5209808349609,-86.3852996826171,25.48632596744945,-74.42662042702982,729505462
sw,-64.832649230957,-87.1559295654296,26.158862194372194,-98.6605773342978,729522129
sw,-65.2958831787109,-86.9759292602539,26.682287977698696,-120.47282240492468,729538796
sw,-65.9863510131836,-85.2898559570312,27.375696238675207,-138.18182642409792,729555463
sw,-66.724365234375,-82.7154922485351,28.461153976956766,-150.62991033440304,729572130
sw,-67.4958343505859,-79.741943359375,29.949863598633474,-157.41583240320955,729588797
sw,-68.3708114624023,-76.7744903564453,31.619404637688508,-158.95226969139887,729605464
sw,-69.2941207885742,-74.0509338378906,33.09043359385277,-156.31928811130877,729622131
sw,-70.2428359985351,-71.6294479370117,33.97361451959141,-150.95220579559475,729638798
sw,-71.0919799804687,-69.4638061523437,34.02819895503327,-144.2624518591396,729655465
sw,-71.8150482177734,-67.3599014282226,33.26810677856903,-137.31352839075018,729672132
sw,-72.5894775390625,-65.2617492675781,31.974803270450952,-130.6471170260571,729688799
sw,-73.2877578735351,-63.2474021911621,30.616255315939505,-124.2903985822023,729705466
sw,-74.0295944213867,-61.3897285461425,29.706013645695695,-117.9075883272716,729722133
sw,-74.7265167236328,-59.5817222595214,29.651410022543878,-111.01652113319314,729738800
sw,-75.3463439941406,-57.8062057495117,30.635579175553232,-103.18551876041188,729755467
sw,-75.9877395629882,-56.2874946594238,32.56364338426958,-94.14959624833072,729772134
sw,-76.6396789550781,-55.1100959777832,35.08562282468478,-83.8256906406162,729788801
sw,-77.3498611450195,-54.2205200195312,37.68922449484202,-72.25145388379592,729805468
sw,-78.1160659790039,-53.541820526123,39.83696838987943,-59.50524667647148,729822135
sw,-78.9197616577148,-53.0287437438964,41.10979953820032,-45.669575664535856,729838802
sw,-79.7443695068359,-52.6766319274902,41.31812213529193,-30.87171151675247,729855469
sw,-80.5474090576171,-52.4563941955566,40.550777212753765,-15.387745368641518,729872136
sw,-81.2887115478515,-52.336856842041,39.14902218040819,0.24631466168286734,729888803
sw,-81.9950408935546,-52.4907684326171,37.611895513740215,15.190631664009814,729905470
sw,-82.6829757690429,-53.1259307861328,36.45742630848629,28.381739971926685,729922137
sw,-83.3559875488281,-54.14892578125,36.076228228960105,38.743143152975904,729938804
sw,-84.0307388305664,-55.2552528381347,36.61593270512679,45.46729497476314,729955471
sw,-84.7391052246093,-56.2407150268554,37.925756448827066,48.263722513582465,729972138
sw,-85.4796142578125,-57.1588287353515,39.573498379232326,47.470547789764424,729988805
sw,-86.2042388916015,-57.925552368164,40.928225188679285,43.97995880252974,730005472
sw,-86.9021224975586,-58.4967536926269,41.286633342826754,39.00439124958545,730022139
sw,-87.5354232788086,-58.9649200439453,40.01305906417409,33.772242768272704,730038806
sw,-88.0421600341796,-59.4619674682617,36.66271881644269,29.264453085052583,730055473
sw,-88.4221954345703,-60.129524230957,31.063359958541145,26.0792339952551,730072140
sw,-88.6741104125976,-60.8163757324218,23.33993041617985,24.452105077863013,730088807
sw,-88.8183288574218,-61.4792709350585,13.878254502895322,24.38759881979687,730105474
sw,-88.8978424072265,-62.2843856811523,3.2357560144314865,25.809722399105674,730122141
sw,-88.8546524047851,-62.7493171691894,-7.981439303375946,28.635841985186484,730138808
sw,-88.6197357177734,-62.9002571105957,-19.2482126784309,32.729604320571084,730155475
sw,-88.1700897216796,-63.1467399597168,-30.22956525553364,37.772319088400444,730172142
sw,-87.3350143432617,-63.7523498535156,-40.84669992124912,43.16122633268092,730188809
sw,-86.1126937866211,-64.869400024414,-51.28318546581773,48.045546133349866,730205476
sw,-84.7055435180664,-66.3520812988281,-61.91968258047784,51.53380582136681,730222143
sw,-83.0155410766601,-67.6704330444336,-73.19725311590517,52.99486483181893,730238810
sw,-81.0473327636718,-68.6671142578125,-85.43073410923083,52.30586376616042,730255477
sw,-78.9971008300781,-69.4720840454101,-98.61780024349194,49.91953554142222,730272144
sw,-76.8544998168945,-70.1076736450195,-112.30350786534581,46.71463814854455,730288811
sw,-74.6175765991211,-70.733657836914,-125.55514372656063,43.69658405074525,730305478
sw,-72.3895263671875,-71.4882125854492,-137.0751214763791,41.67481403951869,730322145
sw,-70.1684188842773,-72.3373489379882,-145.43681318626005,41.039002824789655,730338812
sw,-67.9204025268554,-73.2448501586914,-149.38664355207436,41.702256646736075,730355479
sw,-65.7614135742187,-74.2142791748046,-148.1332365449143,43.207757803589544,730372146
sw,-63.6705055236816,-75.1596374511718,-141.5467967439942,44.93720070755034,730388813
sw,-61.6117095947265,-76.0508270263671,-130.21363924411185,46.334013123827056,730405480
sw,-59.699951171875,-76.8691482543945,-115.32373600200735,47.064897432398396,730422147
sw,-58.0757598876953,-77.5922927856445,-98.4084671082498,47.07947864854657,730438814
sw,-56.7690467834472,-78.2618560791015,-80.98846190715865,46.57202874379112,730455481
sw,-55.7748489379882,-78.9612655639648,-64.22955498901814,45.88294989671885,730472148
sw,-55.0072555541992,-79.7319107055664,-48.720987831195885,45.388845243802656,730488815
sw,-54.3832092285156,-80.5946044921875,-34.46425109905759,45.41766266422578,730505482
sw,-53.9730262756347,-81.4822616577148,-21.088560048928745,46.20017623816711,730522149
sw,-53.7138214111328,-82.3390960693359,-8.212518327717957,47.84718215882214,730538816
sw,-53.6185684204101,-83.1669540405273,4.204528187880007,50.335209730540576,730555483
sw,-53.9721641540527,-83.9885864257812,15.689506402319111,53.49292808049976,730572150
sw,-55.0011558532714,-84.8452377319336,25.35741205540988,56.99579873666352,730588817
sw,-56.4055023193359,-85.822151184082,32.25272916939829,60.38476102682752,730605484
sw,-57.5142097473144,-86.8646850585937,35.76849124397774,63.11824745255944,730622151
sw,-58.0116539001464,-87.7605209350586,35.93551400838207,64.64858737102118,730638818
sw,-58.2876396179199,-88.1679458618164,33.44499425106359,64.49614022914548,730655485
sw,-58.6714744567871,-87.8761596679687,29.411883424666183,62.290791420911695,730672152
sw,-59.1993255615234,-87.2323989868164,25.01150789374026,57.76549525852071,730688819
sw,-59.8702011108398,-86.6554336547851,21.15798394655741,50.71304436131433,730705486
sw,-60.5960540771484,-86.2474670410156,18.339945893620264,40.94112202841301,730722153
sw,-61.310317993164,-85.9341354370117,16.63828771957273,28.268637867322358,730738820
sw,-61.5630149841308,-85.6781845092773,15.875421000096404,12.591025750735302,730755487
sw,-62.0632171630859,-85.5480804443359,15.81045694371977,-5.99326523130842,730772154
sw,-62.7043075561523,-85.6984405517578,16.295712411877933,-27.04261771017411,730788821
sw,-62.9757194519043,-86.1595230102539,17.334436474483084,-49.6878708539392,730805488
sw,-63.0025405883789,-86.8730087280273,19.022719090966827,-72.66266561831048,730822155
sw,-63.0795555114746,-87.4634933471679,21.413870507955387,-94.46753350724565,730838822
sw,-63.5579643249511,-86.9444351196289,24.386420634566797,-113.63528365430379,730855489
sw,-64.4377822875976,-85.3007278442382,27.5970846583852,-129.02399586651248,730872156
sw,-65.4359283447265,-82.9073257446289,30.55384398087186,-140.04815890868588,730888823
sw,-66.4686965942382,-80.1775970458984,32.7803367417277,-146.77235048774716,730905490
sw,-67.4087295532226,-77.5686340332031,33.99721913978189,-149.83112070685863,730922157
sw,-68.2987518310546,-75.1137008666992,34.23906398995042,-150.19496871392334,730938824
sw,-69.1288909912109,-72.7106399536132,33.855007598119556,-148.8594637767974,730955491
sw,-69.8480606079101,-70.2967834472656,33.391132320063676,-146.56636478984362,730972158
sw,-70.558853149414,-67.8777160644531,33.40062486264833,-143.65031771291459,730988825
sw,-71.3890914916992,-65.4697723388671,34.2547813960846,-140.04733430259657,731005492
sw,-72.3405227661132,-63.2219467163085,36.023426695419246,-135.43377221619562,731022159
sw,-73.2055435180664,-61.20650100708,38.46115659866508,-129.42156945251793,731038826
sw,-73.9392776489257,-59.2755584716796,41.094021906474985,-121.73114238732897,731055493
sw,-74.7794723510742,-57.439151763916,43.37018522936091,-112.28837142586123,731072160
sw,-75.6361236572265,-55.8451652526855,44.82590120074956,-101.22794848053566,731088827
sw,-76.4867935180664,-54.5374755859375,45.2203185284594,-88.81915079605515,731105494
sw,-77.3364944458007,-53.4813003540039,44.6031505362425,-75.35643318312466,731122161
sw,-78.1728210449218,-52.6720504760742,43.29688222884301,-61.070411387581586,731138828
sw,-78.9457931518554,-52.0685920715332,41.798770033897696,-46.10707774129993,731155495
sw,-79.6531829833984,-51.6102981567382,40.632288787016186,-30.59266909971861,731172162
sw,-80.3761825561523,-51.3616104125976,40.194641427371195,-14.758723701424188,731188829
sw,-81.130630493164,-51.194522857666,40.64878590841133,0.9347833080792732,731205496
sw,-81.9211502075195,-51.4374732971191,41.892756430243075,15.752053183328304,731222163
sw,-82.767219543457,-52.1208229064941,43.61168414261045,28.75974561292821,731238830
sw,-83.6565628051757,-53.1284370422363,45.390120988212075,39.026013643632474,731255497
sw,-84.5476379394531,-54.1340599060058,46.84424238439973,45.87388668646201,731272164
sw,-85.4287719726562,-55.0770759582519,47.72993982593352,49.08933612318381,731288831
sw,-86.2924499511718,-55.9761924743652,47.992553059435664,49.00092925452951,731305498
sw,-87.0481948852539,-56.7834129333496,47.7423972417753,46.40427680248958,731322165
sw,-87.6607513427734,-57.5560913085937,47.162367992677645,42.366726442684175,731338832
sw,-88.1641006469726,-58.3446426391601,46.37563419292727,37.984943783808795,731355499
sw,-88.5103683471679,-59.0259552001953,45.317733452566806,34.170560959948645,731372166
sw,-88.5770187377929,-59.6041946411132,43.661856181157326,31.517063815088925,731388833
sw,-88.3074188232421,-60.2447624206543,40.83435456357635,30.27009944698271,731405500
sw,-87.8180618286132,-60.8531608581543,36.130865401033724,30.392585678451958,731422167
sw,-87.313720703125,-61.6168174743652,28.90935013685926,31.68827835503406,731438834
sw,-86.9228591918945,-62.5413589477539,18.80624272783941,33.927564821722186,731455501
sw,-86.639663696289,-63.1668319702148,5.906909156995233,36.91785347953811,731472168
sw,-86.5299987792968,-63.5538787841796,-9.192265132258315,40.48813489835216,731488835
sw,-86.7243423461914,-63.9776382446289,-25.466087561891428,44.408757685631855,731505502
sw,-87.0988998413086,-64.7124099731445,-41.68022775314914,48.31559466019776,731522169
sw,-87.1679306030273,-65.8575363159179,-56.692244478498075,51.715337984151894,731538836
sw,-86.4631042480468,-67.2390441894531,-69.73937601531465,54.10121496260059,731555503
sw,-84.9874877929687,-68.5462112426757,-80.61090022060932,55.13362925144971,731572170
sw,-83.1097793579101,-69.5880966186523,-89.63641698454127,54.790076904405396,731588837
sw,-81.109016418457,-70.4880676269531,-97.48755605739318,53.39821315911569,731605504
sw,-78.9798812866211,-71.3079147338867,-104.8635319219235,51.5265558349926,731622171
sw,-76.7546310424804,-72.0879898071289,-112.1779355434111,49.77811368836077,731638838
sw,-74.5609741210937,-72.9225463867187,-119.36246272922615,48.57416767325703,731655505
sw,-72.4478302001953,-73.8222503662109,-125.85456585349047,48.0139754653099,731672172
sw,-70.4069442749023,-74.7879257202148,-130.76466518537632,47.859961811882506,731688839
sw,-68.3849182128906,-75.8088989257812,-133.1552201225474,47.64692387078731,731705506
sw,-66.3576049804687,-76.8047790527343,-132.32999740426308,46.869002563233856,731722173
sw,-64.4370956420898,-77.7332229614257,-128.03482992619158,45.17479779172245,731738840
sw,-62.6948928833007,-78.5638198852539,-120.5074216096064,42.50411379636104,731755507
sw,-61.181297302246,-79.2347717285156,-110.37061030277553,39.1246835929199,731772174
sw,-59.7931900024414,-79.7577514648437,-98.42026455507259,35.563164652289856,731788841
sw,-58.5032691955566,-80.1935272216796,-85.39322077663371,32.45942788394658,731805508
sw,-57.3548965454101,-80.6382522583007,-71.8000221710327,30.39565727062546,731822175
sw,-56.5079383850097,-81.1287231445312,-57.87687879568823,29.75496268943452,731838842
sw,-55.936237335205,-81.6781005859375,-43.66780394082948,30.648162260518568,731855509
sw,-55.6073951721191,-82.2925872802734,-29.205069780511423,32.92009773888313,731872176
sw,-55.48095703125,-82.9760513305664,-14.719191713972114,36.22005644792946,731888843
sw,-55.5341796875,-83.7177429199218,-0.7848499081880311,40.103916861209164,731905510
sw,-56.1775474548339,-84.5096969604492,11.686085987876032,44.131958424782425,731922177
sw,-57.4707221984863,-85.3403244018554,21.640104371170096,47.933900385872654,731938844
sw,-58.664794921875,-86.2147827148437,28.20875881255836,51.22672013591369,731955511
sw,-59.4608154296875,-87.0867080688476,31.02738800569266,53.78598469230361,731972178
sw,-59.8916206359863,-87.832649230957,30.398391771235676,55.38450508308628,731988845
sw,-60.3678817749023,-88.3160018920898,27.229321437027973,55.72193425409733,732005512
sw,-61.0517349243164,-88.436897277832,22.78448208111197,54.3744241679182,732022179
sw,-61.7313041687011,-88.188247680664,18.35685756695317,50.79169288948145,732038846
sw,-62.2996177673339,-87.7037353515625,14.97056709156349,44.356867630074206,732055513
sw,-62.7917861938476,-87.2435226440429,13.18907681748365,34.504226066094795,732072180
sw,-63.3566856384277,-86.9039611816406,13.064181241121066,20.86952825421786,732088847
sw,-63.5035972595214,-86.7434616088867,14.225404324622817,3.435339480688693,732105514
sw,-63.8169631958007,-86.892349243164,16.075501094288818,-17.367800787219238,732122181
sw,-64.4341354370117,-87.3900070190429,18.026931596809664,-40.63618912733565,732138848
sw,-64.770263671875,-88.0906372070312,19.69733439117852,-65.06127021745328,732155515
sw,-64.9041595458984,-88.3025741577148,20.994070465131365,-89.08923960257486,732172182
sw,-65.280288696289,-87.1772155761718,22.064491096627272,-111.14794523160187,732188849
sw,-65.7361221313476,-85.1451797485351,23.14945795735154,-129.89778534588908,732205516
sw,-66.3606262207031,-82.5124588012695,24.416867917318303,-144.4500925376428,732222183
sw,-67.1373977661132,-79.5492706298828,25.85147153670627,-154.49346010923324,732238850
sw,-68.0291442871093,-76.6613159179687,27.24647660161719,-160.28278838395224,732255517
sw,-68.9067840576171,-74.0440444946289,28.297719749015506,-162.48350985183123,732272184
sw,-69.851318359375,-71.4624481201171,28.756033926681173,-161.91685364701172,732288851
sw,-70.5984649658203,-68.8897018432617,28.564902557508084,-159.29474868059984,732305518
sw,-71.1449661254882,-66.3764343261718,27.916185500530002,-155.03696783620975,732322185
sw,-71.7687454223632,-63.9289474487304,27.19810938933202,-149.2241579169677,732338852
sw,-72.5244903564453,-61.6303634643554,26.863283693253422,-141.68221126983255,732355519
sw,-73.3175430297851,-59.4923019409179,27.27694300509858,-132.1465305189397,732372186
sw,-74.0984878540039,-57.5596084594726,28.60206801895355,-120.43581670637467,732388853
sw,-74.7876434326171,-55.8670768737793,30.75175578933448,-106.57405001005915,732405520
sw,-75.4093627929687,-54.4360389709472,33.41291937537253,-90.8272619902416,732422187
sw,-76.0514144897461,-53.3177413940429,36.12979428094201,-73.65692236148462,732438854
sw,-76.7515411376953,-52.5205688476562,38.42712364988722,-55.62289984818386,732455521
sw,-77.5594711303711,-52.0605239868164,39.94470651966061,-37.28625649224233,732472188
sw,-78.4148941040039,-51.9316825866699,40.54752278034342,-19.159125538332457,732488855
sw,-79.2504348754882,-51.9342651367187,40.37594140656983,-1.7242305756829406,732505522
sw,-80.0075759887695,-52.0964469909668,39.81448022595011,14.493811694054546,732522189
sw,-80.6831893920898,-52.2575950622558,39.38284767858568,28.86333597867449,732538856
sw,-81.3387756347656,-53.026123046875,39.57928525027923,40.65905619995774,732555523
sw,-82.0230178833007,-54.3399696350097,40.722185596059695,49.19405856694156,732572190
sw,-82.7396926879882,-55.7086372375488,42.8359071861344,54.03727410035564,732588857
sw,-83.5170822143554,-56.737247467041,45.612281235625936,55.21447392023256,732605524
sw,-84.4016799926757,-57.5860481262207,48.456440965653286,53.280549057271145,732622191
sw,-85.3674774169921,-58.2823753356933,50.60119500710289,49.21271917182517,732638858
sw,-86.2879638671875,-58.8621559143066,51.25535809791985,44.165954591627674,732655525
sw,-87.0924911499023,-59.5030174255371,49.74513627836613,39.19425305639549,732672192
sw,-87.7936248779296,-60.1419525146484,45.616699985115005,35.045690812120945,732688859
sw,-88.375503540039,-60.8020439147949,38.68719569882936,32.095870700009826,732705526
sw,-88.7795486450195,-61.4280242919921,29.04971659009443,30.421598795411594,732722193
sw,-89.0296478271484,-62.2269439697265,17.046885182254275,29.95893691784039,732738860
sw,-89.1266555786132,-63.1207008361816,3.226944578028359,30.654401722340534,732755527
sw,-88.9932250976562,-63.5171737670898,-11.710463299592046,32.52110588829527,732772194
sw,-88.5731735229492,-63.6875,-26.980119522580928,35.56383946586282,732788861
sw,-87.8049240112304,-64.105484008789,-41.7954609960419,39.622231100451934,732805528
sw,-86.5768051147461,-64.8916244506836,-55.47406243891447,44.24682591982327,732822195
sw,-84.9307861328125,-66.0668563842773,-67.55014463236054,48.71565517741889,732838862
sw,-83.0916442871093,-67.4240188598632,-77.85796055343216,52.215914345896195,732855529
sw,-81.0732192993164,-68.6453170776367,-86.54211947982078,54.112658336945884,732872196
sw,-78.9691467285156,-69.6899719238281,-93.97069324525971,54.172448038480745,732888863
sw,-76.8106002807617,-70.5515975952148,-100.56763954218671,52.63441199823858,732905530
sw,-74.7120513916015,-71.237319946289,-106.62034163367154,50.10164035146111,732922197
sw,-72.663459777832,-71.9269027709961,-112.13436584093989,47.311497183893614,732938864
sw,-70.6756515502929,-72.7438430786132,-116.79200016839187,44.890202055928185,732955531
sw,-68.715103149414,-73.6614303588867,-120.030430467533,43.188430289166746,732972198
sw,-66.7211151123046,-74.6388549804687,-121.20798035639193,42.24426031869195,732988865
sw,-64.7268905639648,-75.5656051635742,-119.79363996600075,41.85938645792731,733005532
sw,-62.9171066284179,-76.3738632202148,-115.50991934250912,41.73456495097439,733022199
sw,-61.4129829406738,-77.1205291748046,-108.38384327387587,41.60340892270561,733038866
sw,-60.0749626159668,-77.8361206054687,-98.70454616813528,41.32222411059795,733055533
sw,-58.8322372436523,-78.5156478881836,-86.92633262250439,40.900297034710896,733072200
sw,-57.7277641296386,-79.1846084594726,-73.57149217843056,40.476391033274986,733088867
sw,-56.815372467041,-79.8476257324218,-59.17247354052747,40.259145047985356,733105534
sw,-56.222671508789,-80.5143356323242,-44.263173472457325,40.453489933843564,733122201
sw,-55.8990020751953,-81.2039566040039,-29.40381227207325,41.19422300450415,733138868
sw,-55.802490234375,-81.9435348510742,-15.211131069781583,42.50240976866884,733155535
sw,-55.8327865600585,-82.7149200439453,-2.3616988492399513,44.271695463142166,733172202
sw,-56.1868209838867,-83.5045166015625,8.460829512999672,46.28270364972295,733188869
sw,-57.2052955627441,-84.312141418457,16.685328667516774,48.2372933898802,733205536
sw,-58.2587280273437,-85.1835021972656,22.011221224117797,49.80124766896212,733222203
sw,-58.9888610839843,-86.1092224121093,24.53475684310537,50.642501715264736,733238870
sw,-59.3737907409668,-87.0162658691406,24.76768205764143,50.451475126323345,733255537
sw,-59.6930122375488,-87.7451934814453,23.52076744285825,48.932905621138424,733272204
sw,-60.2117919921875,-88.1442794799804,21.696554394016413,45.76881771740509,733288871
sw,-60.8639259338378,-88.1651763916015,20.077818795037512,40.5699455607676,733305538
sw,-61.5342254638671,-87.9919204711914,19.185696762534974,32.85056058315006,733322205
sw,-62.3771286010742,-87.8347244262695,19.234181721328994,22.06707198602747,733338872
sw,-63.188232421875,-87.73583984375,20.16325736068651,7.744650049399764,733355539
sw,-63.3812675476074,-87.6583251953125,21.71503456120714,-10.321024548875952,733372206
sw,-63.7059860229492,-87.6051025390625,23.526167886405393,-31.84472330872576,733388873
sw,-64.3544769287109,-87.4730758666992,25.22622737265051,-55.903620084613834,733405540
sw,-65.0022888183593,-86.9057922363281,26.532774642493305,-80.94405583218317,733422207
sw,-65.431770324707,-85.6132278442382,27.31943182925903,-104.98226181978579,733438874
sw,-65.9985961914062,-83.6388397216796,27.628079127374384,-125.96851343293918,733455541
sw,-66.6109848022461,-81.0610580444336,27.61682805365047,-142.21813604957453,733472208
sw,-67.2626266479492,-78.1189575195312,27.46850455104729,-152.77780466310887,733488875
sw,-67.9808349609375,-75.1378326416015,27.306063903608326,-157.60690137687294,733505542
sw,-68.8222045898437,-72.3288879394531,27.15869106952637,-157.51047497762588,733522209
sw,-69.7316665649414,-69.8151245117187,26.99572051510196,-153.84476463547654,733538876
sw,-70.5678787231445,-67.6038970947265,26.80718936783982,-148.09617800269174,733555543
sw,-71.2380828857421,-65.5611801147461,26.68182773955916,-141.47601670628652,733572210
sw,-71.8855361938476,-63.508056640625,26.833947924557012,-134.65851478547094,733588877
sw,-72.5921325683593,-61.4864158630371,27.55872574730607,-127.72768952705275,733605544
sw,-73.3316574096679,-59.5198669433593,29.131055714071376,-120.31832553399579,733622211
sw,-74.0838928222656,-57.618854522705,31.686616483437675,-111.87156744327247,733638878
sw,-74.8437118530273,-55.921646118164,35.12884315923499,-101.89834140764256,733655545
sw,-75.59423828125,-54.4946174621582,39.09663876635194,-90.15875647346755,733672212
sw,-76.3745880126953,-53.3099632263183,43.01043472614198,-76.71197149847532,733688879
sw,-77.2491760253906,-52.4130744934082,46.19220664038104,-61.84832195013405,733705546
sw,-78.1578674316406,-51.8275985717773,48.03217834360875,-45.961206538184136,733722213
sw,-79.0864028930664,-51.5901222229003,48.15721777429669,-29.434398692491904,733738880
sw,-80.0222015380859,-51.6303749084472,46.550206613847884,-12.606585154324634,733755547
sw,-80.8833541870117,-51.7409744262695,43.57998031003439,4.165694501804242,733772214
sw,-81.6174926757812,-51.9677047729492,39.92618722689457,20.38014588496879,733788881
sw,-82.2529907226562,-52.2325363159179,36.415645822548534,35.276551230199765,733805548
sw,-82.8427810668945,-53.0026931762695,33.81587322995607,47.83381974157618,733822215
sw,-83.4086990356445,-54.2487106323242,32.646023105713745,56.92988450042593,733838882
sw,-83.9945907592773,-55.6598739624023,33.05864653814267,61.636397871305405,733855549
sw,-84.6515197753906,-56.8626670837402,34.8197996432568,61.54047156565466,733872216
sw,-85.3816604614257,-57.8886413574218,37.380945166779114,56.95799596503248,733888883
sw,-86.0951538085937,-58.8254776000976,40.00806814394536,48.94446221779307,733905550
sw,-86.7303848266601,-59.4905242919921,41.92272132445021,39.09223334275454,733922217
sw,-87.309211730957,-59.8852500915527,42.41911091896105,29.18297047395481,733938884
sw,-87.8582611083984,-60.2065963745117,40.942988495344046,20.809681928770303,733955551
sw,-88.3329391479492,-60.6042213439941,37.13827602737698,15.08439671394556,733972218
sw,-88.6810684204101,-60.9365730285644,30.875574737233777,12.507915691369366,733988885
sw,-88.8802261352539,-61.3090896606445,22.271547846954647,13.013032536018999,734005552
sw,-88.9605255126953,-61.9659957885742,11.69552358962993,16.128620365460534,734022219
sw,-89.0186233520507,-62.5839500427246,-0.2519628440065701,21.175582590326716,734038886
sw,-89.0440673828125,-62.8504180908203,-12.807187392253741,27.412379140571165,734055553
sw,-88.9398345947265,-63.1139335632324,-25.16720433635642,34.096185823347824,734072220
sw,-88.4110717773437,-63.6035079956054,-36.65799136256405,40.49090394132221,734088887
sw,-87.2309112548828,-64.5343017578125,-46.90643657971087,45.89192827033203,734105554
sw,-85.6641540527343,-65.7914352416992,-55.95159761681855,49.71817170051903,734122221
sw,-84.0927658081054,-67.0912246704101,-64.23016769152771,51.65623315283746,734138888
sw,-82.4755859375,-68.1184768676757,-72.40917977202675,51.78057087867744,734155555
sw,-80.6958694458007,-68.9044952392578,-81.10633861533795,50.56554442661018,734172222
sw,-78.785041809082,-69.6406097412109,-90.59895998195914,48.75679314239648,734188889
sw,-76.7874984741211,-70.3542938232421,-100.63832115073107,47.142972544312066,734205556
sw,-74.7607650756836,-71.1519393920898,-110.44622177666133,46.31652181196798,734222223
sw,-72.7924194335937,-72.0602035522461,-118.8966306244477,46.51141211414226,734238890
sw,-70.8953094482421,-73.0136260986328,-124.81518674866173,47.566838011107606,734255557
sw,-68.9886703491211,-73.9929122924804,-127.29318140268448,49.01471678387062,734272224
sw,-67.0333862304687,-74.9580993652343,-125.91826189243206,50.24915129504848,734288891
sw,-65.1173782348632,-75.8734130859375,-120.85898992654948,50.71889856235339,734305558
sw,-63.3638153076171,-76.7652816772461,-112.78682495789292,50.08798201373682,734322225
sw,-61.8268585205078,-77.6169509887695,-102.66541731229931,48.326669513037075,734338892
sw,-60.4542427062988,-78.4307861328125,-91.4752768678062,45.71669631173576,734355559
sw,-59.1797256469726,-79.1445159912109,-79.96151665394079,42.77574954427833,734372226
sw,-58.0350036621093,-79.7589035034179,-68.48417677818942,40.12463656544151,734388893
sw,-57.0992164611816,-80.340835571289,-57.01587539749075,38.33397884857654,734405560
sw,-56.4305114746093,-80.9645462036132,-45.28365868526714,37.791645063821555,734422227
sw,-56.0245857238769,-81.6487274169921,-33.007285044559794,38.6240886882942,734438894
sw,-55.768196105957,-82.3956909179687,-20.154874936778224,40.68614293634112,734455561
sw,-55.713020324707,-83.1698760986328,-7.123538476001378,43.612344800213876,734472228
sw,-55.8572540283203,-83.9791717529296,5.236662516550525,46.90699287180982,734488895
sw,-56.5398292541503,-84.8267669677734,15.794053714602002,50.043698430280074,734505562
sw,-57.731647491455,-85.7117080688476,23.46619216338032,52.54678015109332,734522229
sw,-58.7338371276855,-86.5900421142578,27.593287763347053,54.03357620074353,734538896
sw,-59.3965415954589,-87.3722152709961,28.19698392001476,54.207399245958044,734555563
sw,-59.7417945861816,-87.9019317626953,26.006325263048932,52.805701527342045,734572230
sw,-60.1287574768066,-88.1088638305664,22.239000157567766,49.52581707367066,734588897
sw,-60.54296875,-88.0476608276367,18.23590493790334,43.96601532518539,734605564
sw,-60.9881057739257,-87.8742218017578,15.097466041468707,35.62384479982584,734622231
sw,-61.504295349121,-87.7143249511718,13.44668526984888,23.979994993564734,734638898
sw,-61.8633384704589,-87.5962982177734,13.37778326368443,8.664908424129166,734655565
sw,-62.2040824890136,-87.5774765014648,14.578944313545922,-10.332795527713644,734672232
sw,-62.7610511779785,-87.726692199707,16.562679473294427,-32.486643254410495,734688899
sw,-63.2903099060058,-87.9667358398437,18.904347739423343,-56.658463414890335,734705566
sw,-63.444351196289,-87.8488693237304,21.38894425433977,-81.18433198868084,734722233
sw,-63.5473365783691,-86.7913055419921,24.010101153470096,-104.12639900798685,734738900
sw,-63.9915313720703,-84.8464202880859,26.84195124523017,-123.63910421313203,734755567
sw,-64.6930923461914,-82.2706909179687,29.871570270042064,-138.3509441443327,734772234
sw,-65.6461486816406,-79.4496536254882,32.89477432003959,-147.6448529984744,734788901
sw,-66.6794052124023,-76.7055969238281,35.53503546300136,-151.7436286774096,734805568
sw,-67.6344833374023,-74.1502838134765,37.37481647082387,-151.5698378243736,734822235
sw,-68.602554321289,-71.7390441894531,38.13112246417764,-148.4303064233932,734838902
sw,-69.5580444335937,-69.4027023315429,37.78880588544551,-143.63713634237843,734855569
sw,-70.3162078857421,-67.1253356933593,36.62974626343261,-138.19021507451097,734872236
sw,-70.9923248291015,-64.902603149414,35.1478553255016,-132.60754249040542,734888903
sw,-71.7732543945312,-62.7240867614746,33.89224354614868,-126.92383697629172,734905570
sw,-72.7058563232421,-60.6978759765625,33.306700135204146,-120.81790182783388,734922237
sw,-73.6978530883789,-58.8335914611816,33.62126751518411,-113.79787268393432,734938904
sw,-74.5546722412109,-57.1990242004394,34.81585379210072,-105.37593205932647,734955571
sw,-75.2308502197265,-55.7961769104003,36.64552932578771,-95.1908184367821,734972238
sw,-75.8938751220703,-54.5544815063476,38.70865754999372,-83.0702153317082,734988905
sw,-76.611587524414,-53.5027923583984,40.54402218372717,-69.04935947725805,735005572
sw,-77.3667755126953,-52.7143745422363,41.744029128176265,-53.368890166338815,735022239
sw,-78.1714324951171,-52.2152137756347,42.06244797718978,-36.46739930774559,735038906
sw,-78.9868469238281,-52.0902404785156,41.48700380544667,-18.972112218257728,735055573
sw,-79.7527770996093,-52.1504287719726,40.2510172566321,-1.6818499967884744,735072240
sw,-80.4679565429687,-52.5008850097656,38.77572311491143,14.469485373823955,735088907
sw,-81.1512985229492,-52.8611335754394,37.55774000894788,28.48447617751572,735105574
sw,-81.8002014160156,-53.5955200195312,37.033754719023946,39.42236403319956,735122241
sw,-82.4553527832031,-54.5807723999023,37.45996506594537,46.56567298716523,735138908
sw,-83.1785202026367,-55.73095703125,38.83654669594282,49.60070064483349,735155575
sw,-83.9386138916015,-56.7015762329101,40.89163804752375,48.74994115940668,735172242
sw,-84.7086868286132,-57.5821495056152,43.12177275586079,44.79099656048065,735188909
sw,-85.4988555908203,-58.3229942321777,44.87290188278287,38.929944647115,735205576
sw,-86.2909698486328,-58.826358795166,45.44145434555261,32.55271455073761,735222243
sw,-87.0231704711914,-59.1770133972168,44.176892045304314,26.927780831030695,735238910
sw,-87.6080474853515,-59.6077041625976,40.57230246638547,22.955463208097704,735255577
sw,-88.0332794189453,-60.0282325744628,34.334953431769634,21.044339958700963,735272244
sw,-88.352783203125,-60.4510421752929,25.432480577785757,21.147347248077068,735288911
sw,-88.5646896362304,-61.2251472473144,14.110880370128495,22.92579759607023,735305578
sw,-88.6370010375976,-61.9432106018066,0.8784056751017997,25.956262662779494,735322245
sw,-88.5394134521484,-62.3015174865722,-13.551113502637872,29.88160824694436,735338912
sw,-88.1922531127929,-62.6203994750976,-28.35681981904597,34.44633511112281,735355579
sw,-87.4788131713867,-63.2420806884765,-42.741083136460915,39.428092459543386,735372246
sw,-86.3020782470703,-64.0294418334961,-56.06665789184684,44.535814662425565,735388913
sw,-84.7229995727539,-65.0327758789062,-67.96353823027835,49.35463151304459,735405580
sw,-82.9993286132812,-66.1497650146484,-78.3664258743508,53.381132769136755,735422247
sw,-81.2056808471679,-67.3246307373046,-87.46064727249379,56.13902431907677,735438914
sw,-79.1094818115234,-68.5165634155273,-95.54840126834367,57.322955851844945,735455581
sw,-76.8348999023437,-69.5915832519531,-102.88129914163316,56.90323920446021,735472248
sw,-74.5035018920898,-70.4417648315429,-109.51866690883374,55.14109524861164,735488915
sw,-72.2970352172851,-71.1737899780273,-115.25845865798631,52.50591020369037,735505582
sw,-70.2384872436523,-71.9547424316406,-119.6605297862905,49.53273336662806,735522249
sw,-68.2888641357421,-72.8563842773437,-122.15447200851649,46.684107898764424,735538916
sw,-66.3818893432617,-73.8835678100586,-122.20175298613333,44.269969717172636,735555583
sw,-64.4220581054687,-74.916030883789,-119.46483387270048,42.44092796035334,735572250
sw,-62.5051231384277,-75.7875900268554,-113.92758884905679,41.23074906600457,735588917
sw,-60.8448677062988,-76.4962997436523,-105.9198697162602,40.608512190091965,735605584
sw,-59.5212669372558,-77.1465225219726,-96.02989666634106,40.514190273737654,735622251
sw,-58.4120178222656,-77.8303604125976,-84.9337119069053,40.876175306586205,735638918
sw,-57.3992500305175,-78.5765914916992,-73.20920891220898,41.62364866443703,735655585
sw,-56.461498260498,-79.361572265625,-61.21044652360816,42.70259639771106,735672252
sw,-55.6641044616699,-80.1922607421875,-49.050589966742876,44.09054069573489,735688919
sw,-55.1683349609375,-81.0513076782226,-36.69518864726853,45.79597339090134,735705586
sw,-54.9506568908691,-81.8589324951171,-24.125690941453072,47.83177100590215,735722253
sw,-54.9247131347656,-82.6206512451171,-11.510080483745954,50.16573208905975,735738920
sw,-55.0952644348144,-83.4189987182617,0.6868615307647986,52.66760470185336,735755587
sw,-55.4327774047851,-84.3106689453125,11.709593246386529,55.080387235040845,735772254
sw,-56.3895187377929,-85.2819595336914,20.65787897410179,57.03742528809772,735788921
sw,-57.5338821411132,-86.3380432128906,26.740694395415183,58.127156150156715,735805588
sw,-58.4597473144531,-87.4514007568359,29.54487962285043,57.983498081616744,735822255
sw,-59.0029792785644,-88.4860000610351,29.20085116978086,56.36363983316098,735838922
sw,-59.3411636352539,-89.0872192382812,26.368405257887126,53.175263105015276,735855589
sw,-59.8225402832031,-88.8760375976562,22.052167040179576,48.434796432096086,735872256
sw,-60.3902511596679,-88.3974533081054,17.33173179937799,42.17118016586649,735888923
sw,-60.8781661987304,-87.9958190917968,13.113048662331138,34.320859384428786,735905590
sw,-61.4379005432128,-87.636116027832,9.977759510214856,24.671569146906208,735922257
sw,-62.1816596984863,-87.315689086914,8.156485421093741,12.895460183014032,735938924
sw,-62.5089225769043,-87.1147308349609,7.605772629108777,-1.3271145434084053,735955591
sw,-62.8311767578125,-87.0891342163086,8.137892623401651,-18.133258958564895,735972258
sw,-63.3627777099609,-87.2088775634765,9.542524681851953,-37.31599874867504,735988925
sw,-63.5693283081054,-87.3581085205078,11.650540012381265,-58.23607658170341,736005592
sw,-63.6210823059082,-87.2606964111328,14.32108175834241,-79.84448800137193,736022259
sw,-63.7811813354492,-86.5011672973632,17.376432039686954,-100.82050564015337,736038926
sw,-64.234375,-84.9451828002929,20.542914851138026,-119.79622367809613,736055593
sw,-65.031982421875,-82.6703033447265,23.45392305532311,-135.61032295961346,736072260
sw,-66.0711059570312,-79.9621658325195,25.73066892614022,-147.51825779891652,736088927
sw,-66.8981552124023,-77.1843109130859,27.105987677608198,-155.29233248304158,736105594
sw,-67.6237258911132,-74.5539932250976,27.530285500966702,-159.1786087871469,736122261
sw,-68.4363479614257,-72.0138626098632,27.209157860901264,-159.73082872460301,736138928
sw,-69.1739196777343,-69.5526428222656,26.556548912290936,-157.59058408852457,736155595
sw,-69.7780456542968,-67.1117935180664,26.08302180772868,-153.3002168732485,736172262
sw,-70.4970016479492,-64.66845703125,26.260596482966807,-147.21052163796355,736188929
sw,-71.3347778320312,-62.3810806274414,27.408403886471028,-139.49515564755984,736205596
sw,-72.1409149169921,-60.3477668762207,29.628154979306803,-130.2366962080782,736222263
sw,-72.8833618164062,-58.5069770812988,32.79506473342798,-119.52745848298791,736238930
sw,-73.601806640625,-56.8382873535156,36.59365454396528,-107.53517867434357,736255597
sw,-74.3706359863281,-55.3656845092773,40.58468295744028,-94.50839516039008,736272264
sw,-75.2152404785156,-54.1241760253906,44.291469767925044,-80.72517566538653,736288931
sw,-76.1180572509765,-53.1987609863281,47.29261713872832,-66.41348249990858,736305598
sw,-77.072525024414,-52.5591239929199,49.30447987303206,-51.68704953879648,736322265
sw,-78.0853271484375,-52.1680755615234,50.23605989509898,-36.5411094466745,736338932
sw,-79.0629425048828,-51.960952758789,50.203293753757684,-20.932188338016857,736355599
sw,-79.9658508300781,-51.911766052246,49.49765316548592,-4.927613378468586,736372266
sw,-80.8248062133789,-51.9012336730957,48.514279772427344,11.132576490401227,736388933
sw,-81.6841735839843,-52.1910858154296,47.65561283646773,26.543622834218077,736405600
sw,-82.5580062866211,-53.0187911987304,47.23351266226847,40.28320140256627,736422267
sw,-83.4467163085937,-54.2420082092285,47.39249537609498,51.212178195685105,736438934
sw,-84.3130111694336,-55.4849014282226,48.06928407084243,58.37001211125613,736455601
sw,-85.1657257080078,-56.6250648498535,48.993532188288555,61.256169229984614,736472268
sw,-86.0010604858398,-57.7170524597168,49.72556831119622,59.99398531735805,736488935
sw,-86.7497177124023,-58.6572494506835,49.72169479380277,55.32674635894445,736505602
sw,-87.3959426879882,-59.4910354614257,48.41642717263195,48.461484215028996,736522269
sw,-87.9544525146484,-60.172866821289,45.31275822794362,40.82116701484847,736538936
sw,-88.3869934082031,-60.7600669860839,40.07269641447759,33.78037589967857,736555603
sw,-88.6311264038086,-61.2536239624023,32.59753724862358,28.449745534910196,736572270
sw,-88.7103271484375,-61.6616973876953,23.08091341998664,25.549538438011382,736588937
sw,-88.6368560791015,-62.2685623168945,12.012720068250426,25.378998369644883,736605604
sw,-88.5848693847656,-63.1224517822265,0.11512883522726224,27.853630884082776,736622271
sw,-88.6204452514648,-63.6042327880859,-11.792820251876703,32.56319512116055,736638938
sw,-88.4248046875,-63.9086532592773,-22.980068081066936,38.816906669511745,736655605
sw,-87.828857421875,-64.4322052001953,-32.990267343130014,45.68687461037649,736672272
sw,-86.8400573730468,-65.4122238159179,-41.77100876690811,52.09976970640511,736688939
sw,-85.5268783569336,-66.7790451049804,-49.69537433037534,57.016071072763815,736705606
sw,-84.0108108520507,-68.2322921752929,-57.452745364742896,59.672510312917936,736722273
sw,-82.2687911987304,-69.4426193237304,-65.8232815265933,59.795543526879165,736738940
sw,-80.4255905151367,-70.4002380371093,-75.39054770886221,57.68010284373157,736755607
sw,-78.5640640258789,-71.2205505371093,-86.27783136622104,54.0839721320883,736772274
sw,-76.6665267944336,-71.9073028564453,-98.00028503031047,49.97658140073719,736788941
sw,-74.7430648803711,-72.6417694091796,-109.49715260590001,46.246061932768626,736805608
sw,-72.7859573364257,-73.50830078125,-119.35145778817918,43.47659468054635,736822275
sw,-70.8104095458984,-74.4335556030273,-126.13929137403672,41.8633812330736,736838942
sw,-68.8271484375,-75.3591690063476,-128.802890872226,41.265533434676776,736855609
sw,-66.8920288085937,-76.2145156860351,-126.92996810132405,41.34372688832138,736872276
sw,-65.1514282226562,-76.9705352783203,-120.85120070526969,41.71146476519653,736888943
sw,-63.643383026123,-77.6700820922851,-111.5282154670365,42.04565058184343,736905610
sw,-62.29927444458,-78.3231048583984,-100.27379069677612,42.136737099723995,736922277
sw,-61.0468788146972,-78.9721298217773,-88.39836884603903,41.89048838997769,736938944
sw,-59.8360023498535,-79.645751953125,-76.8932672788144,41.3088027642573,736955611
sw,-58.707462310791,-80.3907775878906,-66.23878635750722,40.473167137186884,736972278
sw,-57.7712974548339,-81.1743698120117,-56.379223344889915,39.53753423404405,736988945
sw,-57.0773429870605,-81.9295578002929,-46.85741077450113,38.719579900952205,737005612
sw,-56.5941429138183,-82.6336898803711,-37.0628860794731,38.2721414315691,737022279
sw,-56.2601509094238,-83.2503204345703,-26.52272953135381,38.42537351095867,737038946
sw,-56.0930290222168,-83.8361434936523,-15.150486365760406,39.30974046914275,737055613
sw,-56.1785583496093,-84.4696960449218,-3.370277615294049,40.88764002755992,737072280
sw,-56.6785011291503,-85.2122650146484,7.939379541160076,42.924759222911845,737088947
sw,-57.6966972351074,-86.0812377929687,17.67962399237912,45.01723612815219,737105614
sw,-58.7417297363281,-87.0063781738281,24.867554619430205,46.66483805252,737122281
sw,-59.6021385192871,-87.8695297241211,28.946823920381284,47.35828444340662,737138948
sw,-60.2069091796875,-88.5319290161132,29.94971975703418,46.643456736202566,737155615
sw,-60.6875686645507,-88.84326171875,28.456201299985704,44.140083224006794,737172282
sw,-61.3620529174804,-88.8243026733398,25.388925164109292,39.51970591302063,737188949
sw,-62.0126342773437,-88.6598739624023,21.746553284500102,32.472625239586904,737205616
sw,-62.6798667907714,-88.4906539916992,18.379680837597213,22.702714569623364,737222283
sw,-63.4399375915527,-88.3456649780273,15.867407168680774,9.977365059634822,737238950
sw,-63.5930862426757,-88.2595443725586,14.496153309926122,-5.767646593649784,737255617
sw,-63.8044662475585,-88.2778549194336,14.30709561264469,-24.299803261582518,737272284
sw,-64.2791900634765,-88.3129806518554,15.170908646124543,-44.99055940402885,737288951
sw,-64.6144638061523,-88.0420532226562,16.856733762650546,-66.79847443233527,737305618
sw,-64.8204956054687,-87.1292877197265,19.077223181175068,-88.36625864234665,737322285
sw,-65.371597290039,-85.5082168579101,21.51209366830007,-108.22512269231652,737338952
sw,-66.0852127075195,-83.2529678344726,23.83095760113212,-125.05813841857955,737355619
sw,-66.878433227539,-80.628791809082,25.736660757880962,-137.94469774449448,737372286
sw,-67.7034301757812,-77.9235153198242,27.030951134664463,-146.5056427294801,737388953
sw,-68.537368774414,-75.2591705322265,27.681464155305513,-150.9002712486537,737405620
sw,-69.3855209350586,-72.7473678588867,27.8581234279276,-151.68234295761684,737422287
sw,-70.1501235961914,-70.4396591186523,27.91197971739987,-149.57655934953564,737438954
sw,-70.7474822998046,-68.2169418334961,28.28844131318275,-145.26286916847994,737455621
sw,-71.3969421386718,-65.9805221557617,29.394596884398954,-139.24208016933096,737472288
sw,-72.1939163208007,-63.8337211608886,31.46434347507571,-131.81213849665835,737488955
sw,-73.0335845947265,-61.8853378295898,34.46991990961877,-123.13359931653079,737505622
sw,-73.8472290039062,-60.0834045410156,38.11023462444801,-113.32964525409807,737522289
sw,-74.6603317260742,-58.4648094177246,41.87762989844813,-102.56259426824107,737538956
sw,-75.4857559204101,-57.059398651123,45.181518407155025,-91.05085887944117,737555623
sw,-76.3848800659179,-55.8357429504394,47.495564522407356,-79.02423630213691,737572290
sw,-77.3295822143554,-54.8285789489746,48.49198303262786,-66.64724672206744,737588957
sw,-78.2572479248046,-54.0848884582519,48.1295631282343,-53.9588889685458,737605624
sw,-79.1347122192382,-53.5539474487304,46.6719777448093,-40.87525903019342,737622291
sw,-79.9850997924804,-53.201416015625,44.63014946725417,-27.27703964476176,737638958
sw,-80.7836456298828,-52.9262733459472,42.64289424439607,-13.162768207941236,737655625
sw,-81.5571517944336,-52.8084907531738,41.32638953153778,1.1935539449526176,737672292
sw,-82.3267593383789,-52.9652214050293,41.129500077531524,15.16287897570167,737688959
sw,-83.1058731079101,-53.6717491149902,42.227912541583315,27.822217274363684,737705626
sw,-83.911506652832,-54.6558952331543,44.47843122468858,38.15910182760711,737722293
sw,-84.7622146606445,-55.6156921386718,47.439544650662704,45.350388468664704,737738960
sw,-85.6572494506836,-56.38232421875,50.44882551554696,49.00621817401738,737755627
sw,-86.5732040405273,-57.2242927551269,52.73518606998285,49.28686653253691,737772294
sw,-87.4019546508789,-58.0801849365234,53.53824408350741,46.85999631178249,737788961
sw,-88.0684204101562,-58.8476181030273,52.210884535655595,42.72882405091987,737805628
sw,-88.5554428100586,-59.5542640686035,48.29337403750211,37.99755278923848,737822295
sw,-88.7718811035156,-60.1443099975585,41.56142287367685,33.64532982871498,737838962
sw,-88.6880645751953,-60.6366920471191,32.05741983530214,30.365694186504193,737855629
sw,-88.4857406616211,-60.9968605041503,20.1090123491564,28.50497107809187,737872296
sw,-88.315185546875,-61.5069999694824,6.325975783347566,28.103066553938195,737888963
sw,-88.3562240600586,-62.4895591735839,-8.444996620048814,29.004922764301906,737905630
sw,-88.5958404541015,-63.2231559753418,-23.22695469806441,30.981016505898264,737922297
sw,-88.8687515258789,-63.5786476135253,-37.0825273839371,33.79328491747119,737938964
sw,-88.5757751464843,-63.9383583068847,-49.31915059545189,37.183780417790445,737955631
sw,-87.2624740600586,-64.5886459350586,-59.67238129472509,40.826166511581754,737972298
sw,-85.4822616577148,-65.6160125732421,-68.39514320617529,44.313577843964346,737988965
sw,-83.5940322875976,-66.8480758666992,-76.1942123650149,47.227522622121874,738005632
sw,-81.5699081420898,-68.0042343139648,-84.00177441827934,49.26371704878507,738022299
sw,-79.4057083129882,-68.9660415649414,-92.63543704100371,50.33924134841434,738038966
sw,-77.1275482177734,-69.7869491577148,-102.45463421788324,50.61069622071647,738055633
sw,-74.8594207763671,-70.5066604614257,-113.137564443744,50.38701511280807,738072300
sw,-72.6736984252929,-71.2711639404296,-123.671413342286,49.98196752652669,738088967
sw,-70.5470886230468,-72.1703491210937,-132.57877675848962,49.58135546046214,738105634
sw,-68.4198608398437,-73.1708374023437,-138.3174606582169,49.18592600947444,738122301
sw,-66.2773666381836,-74.2302474975586,-139.7215410819506,48.64748823455449,738138968
sw,-64.2364273071289,-75.2646484375,-136.3308170301114,47.76999440375877,738155635
sw,-62.379898071289,-76.1856613159179,-128.4969598929158,46.42277608458973,738172302
sw,-60.7180671691894,-76.9703826904296,-117.24051886058302,44.61767635013192,738188969
sw,-59.1744651794433,-77.6694259643554,-103.92379787867867,42.52706149917876,738205636
sw,-57.7599182128906,-78.3328552246093,-89.86161798426697,40.448644595266096,738222303
sw,-56.5161209106445,-78.9847717285156,-75.99800694268842,38.74096978477691,738238970
sw,-55.5466156005859,-79.6594619750976,-62.740957669482746,37.75519208821117,738255637
sw,-54.7972145080566,-80.3601303100586,-49.99187396677292,37.77904168657176,738272304
sw,-54.266616821289,-81.0896301269531,-37.3495249658868,38.99630228659578,738288971
sw,-53.9131774902343,-81.8464050292968,-24.418663029369345,41.45699444788028,738305638
sw,-53.7713241577148,-82.6078491210937,-11.117062209800961,45.05304169888733,738322305
sw,-53.8933486938476,-83.3812103271484,2.13616866147071,49.500629382286064,738338972
sw,-54.4535751342773,-84.2058639526367,14.43872974930863,54.3391582164897,738355639
sw,-55.6711769104003,-85.1443328857421,24.644222906459152,58.96078055809535,738372306
sw,-57.0115776062011,-86.2553558349609,31.740788290919085,62.6781127710659,738388973
sw,-57.9713668823242,-87.5157241821289,35.21552614886236,64.82058825452383,738405640
sw,-58.6041641235351,-88.6974945068359,35.24969972422275,64.83033047576176,738422307
sw,-59.2269210815429,-89.1484375,32.668550841420675,62.320390225965916,738438974
sw,-59.8430786132812,-88.6014251708984,28.68244716931532,57.072085037249614,738455641
sw,-60.3860321044921,-87.9983596801757,24.537131661846608,48.98046479460169,738472308
sw,-61.0879211425781,-87.4957962036132,21.20600583672607,37.98874284869131,738488975
sw,-61.8422470092773,-87.1067352294921,19.21771697747422,24.06181085860721,738505642
sw,-62.2590255737304,-86.8694305419921,18.649379975036055,7.227710905795509,738522309
sw,-62.815372467041,-86.839126586914,19.25670329437307,-12.323083652565675,738538976
sw,-63.6119842529296,-87.0878524780273,20.671243267568812,-34.12435961744195,738555643
sw,-64.1944808959961,-87.4808349609375,22.57778445938413,-57.362024352883026,738572310
sw,-64.2536697387695,-87.6105041503906,24.79879060604283,-80.88567808465025,738588977
sw,-64.550910949707,-86.9500885009765,27.261892465140455,-103.31928070610664,738605644
sw,-65.149543762207,-85.4247436523437,29.890568647203146,-123.25604382661636,738622311
sw,-65.9623184204101,-83.2145004272461,32.49716889105753,-139.49611513253407,738638978
sw,-66.9067230224609,-80.4612579345703,34.747872710113114,-151.26654935384454,738655645
sw,-67.9087600708007,-77.5988464355468,36.2253188190549,-158.35795568279278,738672312
sw,-68.8520736694336,-74.8262481689453,36.56587151635088,-161.12977181577764,738688979
sw,-69.8088150024414,-72.1285781860351,35.61373615958257,-160.37705574716733,738705646
sw,-70.7053298950195,-69.5202407836914,33.522365260818624,-157.1000087629583,738722313
sw,-71.340591430664,-66.9906997680664,30.75100208671707,-152.24818621725134,738738980
sw,-71.8976898193359,-64.6381225585937,27.94870214738431,-146.5106934026127,738755647
sw,-72.5825881958007,-62.5123634338378,25.770209038932887,-140.1989112586264,738772314
sw,-73.3420181274414,-60.55122756958,24.696946088021683,-133.23724017188175,738788981
sw,-74.1244277954101,-58.6245040893554,24.924695437892883,-125.25168093508523,738805648
sw,-74.8011856079101,-56.7963790893554,26.340605031881825,-115.72707113967185,738822315
sw,-75.3192596435546,-55.1229209899902,28.576900406698236,-104.19035230277808,738838982
sw,-75.8518981933593,-53.6287155151367,31.115562554640338,-90.37242522943708,738855649
sw,-76.5179214477539,-52.4623641967773,33.42040871624748,-74.3093839772685,738872316
sw,-77.2554244995117,-51.686180114746,35.073196786246996,-56.364950815409216,738888983
sw,-78.0191955566406,-51.304889678955,35.883239275796356,-37.183159242239306,738905650
sw,-78.7907485961914,-51.2956390380859,35.936692750314414,-17.60274081001532,738922317
sw,-79.5030441284179,-51.4484024047851,35.56418794071065,1.429452950575866,738938984
sw,-80.1077499389648,-51.7777595520019,35.232334582689326,18.925192504374955,738955651
sw,-80.6558227539062,-52.0017890930175,35.392831065182605,33.91251819649116,738972318
sw,-81.2664184570312,-52.6903343200683,36.3383355532071,45.51955764917779,738988985
sw,-81.9681854248046,-53.8547592163085,38.10953344381662,53.11202268696639,739005652
sw,-82.7332611083984,-55.2106399536132,40.47569254465898,56.46620590646789,739022319
sw,-83.5593185424804,-56.318359375,42.98309192622056,55.9050291651589,739038986
sw,-84.4388122558593,-57.2543258666992,45.0454322967423,52.30887345484434,739055653
sw,-85.299934387207,-58.0236206054687,46.04457389686106,46.957240102228894,739072320
sw,-86.0579681396484,-58.5411834716796,45.41739426191734,41.236229196868166,739088987
sw,-86.7454452514648,-58.994529724121,42.71936145579423,36.31216560219376,739105654
sw,-87.4089813232421,-59.5131072998046,37.66977090456632,32.890568917658214,739122321
sw,-88.0444564819336,-60.1071815490722,30.18926273922508,31.147055874647062,739138988
sw,-88.648681640625,-60.773323059082,20.432994014618828,30.847159206695668,739155655
sw,-89.1315994262695,-61.8428840637207,8.807336686152627,31.59129241833703,739172322
sw,-89.2272186279296,-62.8233909606933,-4.0534886552538545,33.06255038086264,739188989
sw,-88.8839035034179,-63.1627693176269,-17.370093743141265,35.15217184934728,739205656
sw,-88.1419601440429,-63.3442344665527,-30.356932617645718,37.904507614371795,739222323
sw,-87.0188293457031,-63.8868446350097,-42.38476432813353,41.33078386326415,739238990
sw,-85.6827163696289,-64.6629104614257,-53.112965086371105,45.22108314552899,739255657
sw,-84.372802734375,-65.6909637451171,-62.54073212536495,49.08198043270137,739272324
sw,-82.9633560180664,-66.9268417358398,-70.95524239733645,52.248292076658785,739288991
sw,-81.2145004272461,-68.1612548828125,-78.7961987262602,54.11636117100992,739305658
sw,-79.1658096313476,-69.2758102416992,-86.48509769324903,54.38161345791132,739322325
sw,-76.9959335327148,-70.2157821655273,-94.26939992240933,53.1638991015737,739338992
sw,-74.7667083740234,-70.9142761230468,-102.11540523426628,50.963356247052644,739355659
sw,-72.58056640625,-71.567268371582,-109.66763167878344,48.47264755824068,739372326
sw,-70.5027999877929,-72.3699417114257,-116.2837433386563,46.33492315004924,739388993
sw,-68.4780120849609,-73.3278427124023,-121.14583166719154,44.95055238569952,739405660
sw,-66.4964904785156,-74.3674240112304,-123.43381019273477,44.39839659070946,739422327
sw,-64.5093765258789,-75.3899307250976,-122.52542195728958,44.47638690404925,739438994
sw,-62.5140190124511,-76.2767333984375,-118.1681811744688,44.81778698705362,739455661
sw,-60.7040710449218,-77.0574340820312,-110.56371314270308,45.0250596339527,739472328
sw,-59.2352447509765,-77.8087615966796,-100.32447003062424,44.77892744904227,739488995
sw,-57.9976921081543,-78.5575256347656,-88.30616224795905,43.90637293110522,739505662
sw,-56.8939323425293,-79.264533996582,-75.37009080760589,42.40995699146652,739522329
sw,-55.8960800170898,-79.9443740844726,-62.16222382144227,40.46647218547337,739538996
sw,-55.0862197875976,-80.6532592773437,-48.9926934570779,38.400388394344674,739555663
sw,-54.5674209594726,-81.3567352294921,-35.86272297746476,36.633394630789525,739572330
sw,-54.2845153808593,-81.9954147338867,-22.63247740734179,35.60997665751341,739588997
sw,-54.1464195251464,-82.5653686523437,-9.270082479819784,35.70323849314337,739605664
sw,-54.1807785034179,-83.135871887207,3.918003678766217,37.1151274361876,739622331
sw,-54.480785369873,-83.75537109375,16.187144629830318,39.79549543622893,739638998
sw,-55.4872207641601,-84.4638519287109,26.463422151535582,43.406505094072685,739655665
sw,-56.9418144226074,-85.338394165039,33.655162335266006,47.34778818619527,739672332
sw,-58.3197021484375,-86.3570175170898,37.05510400804738,50.836421917771304,739688999
sw,-59.1578521728515,-87.379524230957,36.6550291807364,53.014188482228725,739705666
sw,-59.657958984375,-88.1443862915039,33.22074383160786,53.045412953148364,739722333
sw,-60.1854972839355,-88.402473449707,28.087471044849455,50.18023223007881,739739000
sw,-60.7043380737304,-88.1713714599609,22.765647452840106,43.78661860366916,739755667
sw,-61.2556571960449,-87.7853012084961,18.51949095251445,33.38264953183238,739772334
sw,-61.9668045043945,-87.4692840576171,16.06951250701126,18.707485786377212,739789001
sw,-62.5585021972656,-87.2428131103515,15.501635349454183,-0.1546134533645094,739805668
sw,-62.7025108337402,-87.0883865356445,16.382842965494607,-22.628481283509544,739822335
sw,-63.0919876098632,-86.9907913208007,18.01741664117437,-47.5527307852196,739839002
sw,-63.6837692260742,-86.7059783935546,19.74165401147577,-73.21548441771542,739855669
sw,-63.8286514282226,-85.7449035644531,21.151925959454694,-97.56447048062877,739872336
sw,-64.0367584228515,-83.970718383789,22.193528018947557,-118.56523485123323,739889003
sw,-64.5576553344726,-81.606086730957,23.098189759005066,-134.61203350004263,739905670
sw,-65.1332931518554,-78.8750076293945,24.217935899414698,-144.8610694955986,739922337
sw,-65.7545394897461,-76.1252059936523,25.833211882024003,-149.37278399528262,739939004
sw,-66.5167617797851,-73.61181640625,28.00967838854391,-149.01374197122456,739955671
sw,-67.2995376586914,-71.2956161499023,30.55305716418788,-145.1542622697666,739972338
sw,-68.1965713500976,-69.1541061401367,33.07361418949577,-139.2692299081905,739989005
sw,-69.1733016967773,-67.1266250610351,35.12924794467097,-132.57492921979872,740005672
sw,-70.0226211547851,-65.1558837890625,36.38481602613873,-125.80565938658023,740022339
sw,-70.7431945800781,-63.3062934875488,36.72264840347157,-119.17035662430942,740039006
sw,-71.4500732421875,-61.5558853149414,36.26800890193684,-112.46487030599562,740055673
sw,-72.2481613159179,-59.9028701782226,35.335033228180755,-105.27453060861201,740072340
sw,-73.1285629272461,-58.3011856079101,34.326658879392454,-97.18993974763399,740089007
sw,-73.9692916870117,-56.8456115722656,33.62476680873659,-87.96960282217313,740105674
sw,-74.6587753295898,-55.6468391418457,33.49521205932327,-77.60803773441005,740122341
sw,-75.2436904907226,-54.7421760559082,34.02358865427207,-66.3023323486317,740139008
sw,-75.8283004760742,-54.1371955871582,35.09562057012395,-54.34705880661675,740155675
sw,-76.4686508178711,-53.765941619873,36.43211703024045,-42.014871404656006,740172342
sw,-77.2023620605468,-53.5270080566406,37.67469711947066,-29.48487235168631,740189009
sw,-77.9692993164062,-53.3878135681152,38.49861836852482,-16.85776950588939,740205676
sw,-78.7179870605468,-53.3564300537109,38.714958855436464,-4.253893261993419,740222343
sw,-79.4389724731445,-53.3248825073242,38.32588243555092,8.054398088157749,740239010
sw,-80.0981750488281,-53.58736038208,37.5144009317581,19.549934285121918,740255677
sw,-80.6879119873046,-54.1551971435546,36.57589779131461,29.48380048193031,740272344
sw,-81.2692947387695,-55.0294113159179,35.820990081149276,37.01821030031789,740289011
sw,-81.9206314086914,-55.9862937927246,35.488010168445214,41.462901628896965,740305678
sw,-82.6473693847656,-56.8603439331054,35.69433135473633,42.52039989583282,740322345
sw,-83.4396286010742,-57.6850128173828,36.433595945924054,40.4443983992934,740339012
sw,-84.2698135375976,-58.4950103759765,37.602697403028046,36.045035261793764,740355679
sw,-85.0444869995117,-59.1570053100585,39.03073660429754,30.52753818842284,740372346
sw,-85.7266693115234,-59.5494956970214,40.48776782752723,25.20561845328855,740389013
sw,-86.3541717529296,-59.7673454284668,41.66977333418328,21.174727845415426,740405680
sw,-86.9405975341796,-60.0391387939453,42.17648900454141,19.051805993687463,740422347
sw,-87.4435806274414,-60.4846115112304,41.508593471664966,18.874045735469604,740439014
sw,-87.8314743041992,-60.9512290954589,39.10571016014826,20.194743109808623,740455681
sw,-88.1063842773437,-61.6576499938964,34.43099106164984,22.336842360746196,740472348
sw,-88.2270126342773,-62.5411682128906,27.089722918156976,24.69838784646839,740489015
sw,-88.2113037109375,-63.1750221252441,16.954189674486674,26.98012337367981,740505682
sw,-88.0772552490234,-63.4089241027832,4.2574953890582465,29.23863385284554,740522349
sw,-87.9002532958984,-63.5107460021972,-10.382588748025073,31.749853466931665,740539016
sw,-87.6727447509765,-63.8972282409668,-26.03775916053933,34.76139824716315,740555683
sw,-87.1488571166992,-64.5949401855468,-41.64138202192834,38.26723219768854,740572350
sw,-86.1381683349609,-65.57666015625,-56.21895024916948,41.92185882949884,740589017
sw,-84.7955322265625,-66.7453155517578,-69.10409045768336,45.134067825201456,740605684
sw,-83.2005310058593,-67.8865814208984,-80.06344100350346,47.28835513025064,740622351
sw,-81.3700561523437,-68.8854370117187,-89.28489358770733,47.98521898498584,740639018
sw,-79.3236999511718,-69.758430480957,-97.23440481699109,47.1937004869096,740655685
sw,-77.2282791137695,-70.4922485351562,-104.43219341920798,45.26015112193194,740672352
sw,-75.0423355102539,-71.1757888793945,-111.22277452248018,42.78364888394515,740689019
sw,-72.8678436279296,-71.9195327758789,-117.61122235275549,40.41838643821989,740705686
sw,-70.8476409912109,-72.7160186767578,-123.21543941527256,38.680092499047696,740722353
sw,-68.819351196289,-73.4699249267578,-127.34979308934562,37.81882252961718,740739020
sw,-66.7722854614257,-74.2374725341796,-129.21744266632433,37.78796408013448,740755687
sw,-64.7534484863281,-75.0176086425781,-128.15375113102286,38.304812249020074,740772354
sw,-62.7813644409179,-75.7897338867187,-123.84107866429763,38.97194417222723,740789021
sw,-61.0389213562011,-76.5656967163086,-116.41932393525009,39.41522857757903,740805688
sw,-59.5808410644531,-77.3267517089843,-106.45297601321596,39.39491548526621,740822355
sw,-58.266990661621,-78.0126190185546,-94.77182783716259,38.859754254689804,740839022
sw,-57.0056419372558,-78.6129302978515,-82.25124496961392,37.936091106469476,740855689
sw,-55.8951797485351,-79.1798553466796,-69.61400979647142,36.86682264852644,740872356
sw,-54.9774780273437,-79.7852935791015,-57.315124574961054,35.929934102926346,740889023
sw,-54.3117942810058,-80.4465255737304,-45.53123193690356,35.36683355839251,740905690
sw,-53.921630859375,-81.1194458007812,-34.239894502365075,35.33814986221827,740922357
sw,-53.7043685913085,-81.7702560424804,-23.351755121483073,35.90829005496281,740939024
sw,-53.6070594787597,-82.4226837158203,-12.849304888913064,37.05004055776135,740955691
sw,-53.7063636779785,-83.0881195068359,-2.8859428210656715,38.66017063881591,740972358
sw,-53.9278602600097,-83.7906341552734,6.191053665105385,40.5817978451105,740989025
sw,-54.3543586730957,-84.5138092041015,13.907558370523159,42.632585113289075,741005692
sw,-54.9858894348144,-85.281379699707,19.80127294703442,44.63665605382807,741022359
sw,-55.6950759887695,-86.1385192871093,23.582439303214343,46.453697938232,741039026
sw,-56.3889617919921,-87.0345001220703,25.25178756508358,47.99425625839239,741055693
sw,-57.0000648498535,-87.8940200805664,25.123494206991726,49.209432559649215,741072360
sw,-57.5596389770507,-88.6686630249023,23.740355003603955,50.04941417920451,741089027
sw,-58.1500587463378,-89.2472305297851,21.716816186139308,50.398627835597196,741105694
sw,-58.7832984924316,-89.1952133178711,19.576826667465248,50.01031703606092,741122361
sw,-59.4337654113769,-88.6101303100586,17.650985343861436,48.471178684603835,741139028
sw,-60.1163825988769,-87.8735809326171,16.0651279057868,45.22121935720957,741155695
sw,-60.8608169555664,-87.1387176513671,14.809781606924634,39.636122328127826,741172362
sw,-61.4465065002441,-86.5600357055664,13.8471109306714,31.156907550253756,741189029
sw,-62.0663452148437,-86.1617660522461,13.200466145841505,19.434561411789776,741205696
sw,-62.4304847717285,-85.9908828735351,12.983764679152813,4.451742178626431,741222363
sw,-62.6303558349609,-86.1153106689453,13.359241159193106,-13.410737711460875,741239030
sw,-62.8299598693847,-86.5645904541015,14.449945876343442,-33.381843512294495,741255697
sw,-63.0579605102539,-87.2897872924804,16.25742543712268,-54.38449550869226,741272364
sw,-63.6217918395996,-87.9666442871093,18.62912693480901,-75.17970508846136,741289031
sw,-64.3715362548828,-87.7908782958984,21.288295553280513,-94.54065201938349,741305698
sw,-65.0539093017578,-86.4335556030273,23.905858860027994,-111.42152085302101,741322365
sw,-65.8484954833984,-84.3112106323242,26.182321674222155,-125.0887655800932,741339032
sw,-66.7713775634765,-81.8771896362304,27.917618131538386,-135.18981405739925,741355699
sw,-67.6985397338867,-79.4348449707031,29.057445673889134,-141.74558976973083,741372366
sw,-68.47021484375,-77.0243911743164,29.703810074817678,-145.07121399241223,741389033
sw,-69.1176071166992,-74.6660232543945,30.077801668993065,-145.6510450159801,741405700
sw,-69.7674255371093,-72.3865051269531,30.43946811154966,-144.00841330422483,741422367
sw,-70.5306091308593,-70.1703491210937,30.99518474924909,-140.6072863407045,741439034
sw,-71.3908157348632,-68.0447616577148,31.833333931094327,-135.80495163927313,741455701
sw,-72.2276840209961,-66.068733215332,32.91319061561341,-129.85301592085088,741472368
sw,-72.9894790649414,-64.1948623657226,34.10285352794251,-122.92863847807808,741489035
sw,-73.7282333374023,-62.4056167602539,35.24168313400813,-115.1721683833406,741505702
sw,-74.5052719116211,-60.6610069274902,36.200437693598545,-106.70956552474843,741522369
sw,-75.2936477661132,-59.053897857666,36.92149830767577,-97.64623162484584,741539036
sw,-76.0710906982421,-57.6912841796875,37.43182673610328,-88.03290377547235,741555703
sw,-76.8555221557617,-56.5863914489746,37.82876355581195,-77.82236406901735,741572370
sw,-77.6193923950195,-55.6722373962402,38.244919972252966,-66.85050420879469,741589037
sw,-78.3690185546875,-54.9211502075195,38.80397605515295,-54.87554934168304,741605704
sw,-79.1292419433593,-54.3434906005859,39.58222563691069,-41.688881318960306,741622371
sw,-79.9271240234375,-53.9028549194335,40.58877654531724,-27.27598411658399,741639038
sw,-80.7413330078125,-53.6443099975585,41.77001046594971,-11.972284092157366,741655705
sw,-81.5682601928711,-53.643211364746,43.033826267075916,3.4572033063571626,741672372
sw,-82.4235305786132,-53.913719177246,44.28090377777223,17.87263919962036,741689039
sw,-83.2536926269531,-54.6056938171386,45.427743244165114,29.96422989804023,741705706
sw,-84.041389465332,-55.5765838623046,46.41082893224386,38.56303893370202,741722373
sw,-84.8344955444336,-56.4602928161621,47.17060217090617,42.96179423395217,741739040
sw,-85.672378540039,-57.213523864746,47.62280480706645,43.13432257197451,741755707
sw,-86.5649871826171,-58.0845832824707,47.62834871020877,39.77523127408607,741772374
sw,-87.4267196655273,-58.7412185668945,46.971053515663854,34.146979915212356,741789041
sw,-88.2156753540039,-59.129638671875,45.35009001241078,27.78780428360197,741805708
sw,-88.9191741943359,-59.4215469360351,42.394524707825475,22.17594014158087,741822375
sw,-89.5285339355468,-59.8321113586425,37.708436245121504,18.451816496534047,741839042
sw,-89.697395324707,-60.2013435363769,30.95003907198917,17.268709783682745,741855709
sw,-89.2629928588867,-60.6050834655761,21.934163022671946,18.785126117702823,741872376
sw,-88.9461288452148,-61.4139060974121,10.72979145273191,22.75512888493224,741889043
sw,-88.8868865966796,-61.9288940429687,-2.2858901600732358,28.644670102528128,741905710
sw,-88.9870223999023,-62.1684112548828,-16.449713573261775,35.71814922150026,741922377
sw,-88.9518966674804,-62.628490447998,-30.921834275719192,43.09148004358241,741939044
sw,-88.4018630981445,-63.4989166259765,-44.86250270514972,49.7993868403107,741955711
sw,-87.2457275390625,-64.7650680541992,-57.62797055737694,54.930040755150294,741972378
sw,-85.6752777099609,-66.2329330444336,-68.92030729479787,57.82713767832696,741989045
sw,-83.9177169799804,-67.5597381591796,-78.8311545621102,58.28773296314908,742005712
sw,-81.9152221679687,-68.5994186401367,-87.75213033283121,56.65240370465415,742022379
sw,-79.651382446289,-69.4214630126953,-96.17503322427994,53.72049837018948,742039046
sw,-77.2579040527343,-70.1215591430664,-104.44968565005435,50.50495374301097,742055713
sw,-74.9554672241211,-70.8686141967773,-112.58528948687916,47.91722594591794,742072380
sw,-72.8372802734375,-71.7596817016601,-120.16737947840731,46.50137915487535,742089047
sw,-70.7591247558593,-72.7304382324218,-126.4242050233282,46.30869166897065,742105714
sw,-68.661506652832,-73.7069320678711,-130.42551938054774,46.94245205433947,742122381
sw,-66.5126953125,-74.7298355102539,-131.3490164739841,47.739931255008,742139048
sw,-64.3960723876953,-75.7525253295898,-128.72375595840313,48.018617304996965,742155715
sw,-62.3903694152832,-76.7204895019531,-122.56822939858077,47.30390585605641,742172382
sw,-60.6219940185546,-77.5949401855468,-113.38006823896718,45.47146107589231,742189049
sw,-59.078628540039,-78.3330307006836,-101.98786351121315,42.770942587592,742205716
sw,-57.7108306884765,-78.9410018920898,-89.32208275983072,39.737724277199455,742222383
sw,-56.5064430236816,-79.5139541625976,-76.18547272824513,37.0326731307259,742239050
sw,-55.5417671203613,-80.0973205566406,-63.0980680714418,35.26608169669578,742255717
sw,-54.8010101318359,-80.6978149414062,-50.26355279162223,34.8568365930431,742272384
sw,-54.3144416809082,-81.3425903320312,-37.66315006151012,35.957490439388536,742289051
sw,-53.9818954467773,-82.0559387207031,-25.24015843135048,38.45107724941156,742305718
sw,-53.797550201416,-82.8199615478515,-13.101304565949896,42.00579511930711,742322385
sw,-53.7979469299316,-83.6295166015625,-1.64282521999726,46.1632069111576,742339052
sw,-54.4192466735839,-84.5081710815429,8.473620046662809,50.43370537642822,742355719
sw,-55.4979667663574,-85.5048141479492,16.509007461458925,54.37641184507703,742372386
sw,-56.6314010620117,-86.5371170043945,21.926711519327892,57.64618719797708,742389053
sw,-57.399803161621,-87.5567245483398,24.629805860746117,59.997464122123844,742405720
sw,-57.7745208740234,-88.4307708740234,25.03218234562618,61.245272792099236,742422387
sw,-58.1901054382324,-88.9374389648437,23.924861233415108,61.19883443665319,742439054
sw,-58.8303108215332,-88.7979736328125,22.204673616177395,59.59777478199029,742455721
sw,-59.5131072998046,-88.2274551391601,20.59177851360771,56.08636399255372,742472388
sw,-60.2500915527343,-87.4477157592773,19.44932596595738,50.24981536486262,742489055
sw,-61.084602355957,-86.5972290039062,18.758538512186103,41.70983278305928,742505722
sw,-61.9167785644531,-86.0347442626953,18.236863849602507,30.24718326134646,742522389
sw,-62.2956771850585,-85.7946319580078,17.5404957944936,15.905022192252595,742539056
sw,-62.8259582519531,-85.750244140625,16.471744309270072,-0.9634893671589218,742555723
sw,-63.4149894714355,-86.032958984375,15.114274796759146,-19.715058999461164,742572390
sw,-63.4038734436035,-86.642463684082,13.84244105095287,-39.49256933648973,742589057
sw,-63.3194618225097,-87.4901733398437,13.194946465262055,-59.33446589759811,742605724
sw,-63.416259765625,-88.348030090332,13.660060675208276,-78.29088111338982,742622391
sw,-63.8009071350097,-88.2703704833984,15.462611795491203,-95.52366728392276,742639058
sw,-64.4555740356445,-86.8973922729492,18.444369427888258,-110.37618951090813,742655725
sw,-65.3109283447265,-84.8704605102539,22.08920185717971,-122.40936708952141,742672392
sw,-66.2440948486328,-82.5268783569336,25.68559130832674,-131.40802267602857,742689059
sw,-67.213150024414,-80.0227355957031,28.565198541789826,-137.36389805190095,742705726
sw,-68.1551284790039,-77.5058898925781,30.324832300147477,-140.4415927103281,742722393
sw,-68.9194793701171,-75.0186080932617,30.94436981744307,-140.93490601544175,742739060
sw,-69.5693817138671,-72.5893249511718,30.7573206536825,-139.2227764933321,742755727
sw,-70.2173995971679,-70.2428970336914,30.295628098733694,-135.73198830207014,742772394
sw,-70.9526977539062,-68.0218353271484,30.08298035667555,-130.90689377423854,742789061
sw,-71.7928161621093,-65.9796524047851,30.464164952023747,-125.1793831914488,742805728
sw,-72.5916671752929,-64.1625823974609,31.529080938697867,-118.93159736892066,742822395
sw,-73.2865447998046,-62.5142822265625,33.14055179494152,-112.45106279325726,742839062
sw,-73.9893035888671,-60.9511413574218,35.033293312850724,-105.88816378074071,742855729
sw,-74.7917709350586,-59.4154968261718,36.93330428029793,-99.23167086640393,742872396
sw,-75.6166000366211,-57.982624053955,38.65150839668752,-92.31528152485738,742889063
sw,-76.4397506713867,-56.6893196105957,40.12350493317568,-84.85878700495445,742905730
sw,-77.2784347534179,-55.493350982666,41.39061738318142,-76.53683277223844,742922397
sw,-78.0791549682617,-54.4589004516601,42.53941997047292,-67.06046717440523,742939064
sw,-78.858413696289,-53.7002410888671,43.63066779528617,-56.25435214473626,742955731
sw,-79.7002182006836,-53.2447204589843,44.64942643260185,-44.11746164744462,742972398
sw,-80.5625839233398,-52.9666366577148,45.496828951330606,-30.864899205454556,742989065
sw,-81.4386749267578,-52.7787208557128,46.02562221533856,-16.95343968745438,743005732
sw,-82.3221817016601,-52.520523071289,46.10383169992636,-3.0840878189105805,743022399
sw,-83.2061614990234,-52.4837608337402,45.67976298620228,9.843734428560584,743039066
sw,-84.0234146118164,-52.9576835632324,44.820527956870656,20.857627391440058,743055733
sw,-84.757942199707,-53.8140144348144,43.70560968847447,29.120843540391554,743072400
sw,-85.4662857055664,-54.6815643310546,42.57344496932272,34.17332261001397,743089067
sw,-86.1978454589843,-55.5079307556152,41.6356688411325,36.11107539021236,743105734
sw,-86.8874969482421,-56.2757301330566,40.98352868932291,35.61492959388897,743122401
sw,-87.5024490356445,-56.9050903320312,40.51242589897742,33.79559428168822,743139068
sw,-88.0978240966796,-57.4045448303222,39.886938647119685,31.897075222619232,743155735
sw,-88.6655807495117,-57.8759422302246,38.562157323572556,30.95698960788144,743172402
sw,-89.0721206665039,-58.4708518981933,35.86626748841743,31.538542843316836,743189069
sw,-89.1237411499023,-59.1404228210449,31.13369947417131,33.622454547650214,743205736
sw,-88.8889999389648,-59.811279296875,23.86209892590139,36.69042776330785,743222403
sw,-88.6309814453125,-60.6443367004394,13.855838053891258,39.9654242263667,743239070
sw,-88.5069503784179,-61.7479286193847,1.3173618227449888,42.7187757316499,743255737
sw,-88.4881973266601,-62.5245552062988,-13.144084316507273,44.52808141840537,743272404
sw,-88.4933776855468,-62.9846572875976,-28.60034700707084,45.38825605278941,743289071
sw,-88.2914352416992,-63.5387115478515,-43.980789556476516,45.64231220345045,743305738
sw,-87.4710540771484,-64.30615234375,-58.30373965045318,45.78035359340362,743322405
sw,-85.9047088623046,-65.1949462890625,-70.90407009515722,46.20875287002882,743339072
sw,-83.835952758789,-66.1790618896484,-81.58231413170392,47.08936555276746,743355739
sw,-81.6730804443359,-67.2407302856445,-90.61076745095197,48.301449176845885,743372406
sw,-79.3940505981445,-68.2925186157226,-98.57695047255926,49.51859645402409,743389073
sw,-77.064208984375,-69.3289337158203,-106.11034319564448,50.34857397364243,743405740
sw,-74.8337020874023,-70.2248229980468,-113.59050134665546,50.47098370865258,743422407
sw,-72.6981811523437,-71.0127487182617,-120.9453712518642,49.725729079703264,743439074
sw,-70.5017318725586,-71.8206405639648,-127.61486306073218,48.13952571849247,743455741
sw,-68.2207870483398,-72.7474365234375,-132.69382303462731,45.90648477410382,743472408
sw,-66.0951309204101,-73.7871704101562,-135.20402318372112,43.346590106723205,743489075
sw,-63.9327850341796,-74.7498321533203,-134.39903067447491,40.854016723100635,743505742
sw,-61.8802986145019,-75.5454940795898,-129.99470428341746,38.8325058274095,743522409
sw,-60.0625686645507,-76.1808471679687,-122.24537297657065,37.614635045519144,743539076
sw,-58.5038909912109,-76.7491226196289,-111.84261210162911,37.37748543119387,743555743
sw,-57.1445617675781,-77.3469924926757,-99.68062460920821,38.08413356187184,743572410
sw,-55.9238662719726,-78.0056686401367,-86.58315687066006,39.4818257348476,743589077
sw,-54.8123626708984,-78.7619552612304,-73.09878770303033,41.16929270674728,743605744
sw,-53.852481842041,-79.611343383789,-59.439193548944694,42.717129109336426,743622411
sw,-53.2082176208496,-80.4861602783203,-45.5748393190899,43.80144457061773,743639078
sw,-52.8500633239746,-81.3098678588867,-31.441383052579685,44.30343113155013,743655745
sw,-52.6807556152343,-82.0573501586914,-17.170062147732533,44.33965446498385,743672412
sw,-52.7072792053222,-82.738525390625,-3.245525980947457,44.2146584413019,743689079
sw,-53.0402641296386,-83.4204635620117,9.485077845043701,44.31675481657797,743705746
sw,-53.9548454284668,-84.1840591430664,19.97918523454291,44.99590474068486,743722413
sw,-55.141185760498,-85.0408172607421,27.29915742920435,46.46151753237392,743739080
sw,-56.1533470153808,-85.9705581665039,30.935420881549835,48.720632363772,743755747
sw,-56.7374572753906,-86.9254074096679,31.016727446375416,51.5550664312415,743772414
sw,-57.1297645568847,-87.8788299560546,28.314290284911568,54.52269188291,743789081
sw,-57.6614418029785,-88.724365234375,24.037771861278365,56.96932007052562,743805748
sw,-58.3481636047363,-89.1327285766601,19.5072397130877,58.05074227761368,743822415
sw,-59.0256958007812,-88.8087615966796,15.821592816222628,56.77997265519908,743839082
sw,-59.652961730957,-88.1544342041015,13.626500793880059,52.12177779147758,743855749
sw,-60.3221549987793,-87.4792022705078,13.038559218942579,43.147696778410946,743872416
sw,-61.1235542297363,-86.8834762573242,13.730244450467268,29.240511713241165,743889083
sw,-61.6615905761718,-86.4853210449218,15.132842494199386,10.307139014990865,743905750
sw,-62.2364997863769,-86.3749618530273,16.680779691342003,-13.062776041525524,743922417
sw,-62.8781013488769,-86.6780471801757,18.01209609370871,-39.55701821953769,743939084
sw,-63.1932678222656,-87.3037567138671,19.060331269154617,-67.26130451158274,743955751
sw,-63.3092308044433,-87.5951538085937,20.015765943889242,-93.93863228812688,743972418
sw,-63.5608863830566,-86.6399002075195,21.184153281152856,-117.41590223782698,743989085
sw,-64.0677185058593,-84.5974578857421,22.808791693151694,-135.9867519219685,744005752
sw,-64.7045135498046,-81.9349670410156,24.93077420911248,-148.72472038433375,744022419
sw,-65.6124191284179,-79.0812301635742,27.342936237400775,-155.61683327782737,744039086
sw,-66.5558700561523,-76.3205871582031,29.657286082764823,-157.47345559122772,744055753
sw,-67.5618438720703,-73.7667160034179,31.462257532103372,-155.63705513014258,744072420
sw,-68.5626525878906,-71.4285736083984,32.50439908086328,-151.57992644312404,744089087
sw,-69.331672668457,-69.2328872680664,32.80981878466211,-146.52022237695638,744105754
sw,-69.95263671875,-67.0145416259765,32.6840482989853,-141.17551004906318,744122421
sw,-70.6269226074218,-64.7548217773437,32.58943017849077,-135.7153057737842,744139088
sw,-71.4468688964843,-62.5734329223632,32.9605554340925,-129.8948927001896,744155755
sw,-72.3464736938476,-60.5619850158691,34.04165264140439,-123.28860094026172,744172422
sw,-73.2261276245117,-58.6854019165039,35.806521904057945,-115.51803025338006,744189089
sw,-73.9734115600586,-57.0189628601074,37.97635913768742,-106.39292850038588,744205756
sw,-74.6726379394531,-55.592674255371,40.114337854475316,-95.93288138432304,744222423
sw,-75.4112701416015,-54.3703498840332,41.76027398324658,-84.29249188014506,744239090
sw,-76.2503967285156,-53.3759803771972,42.567541185697266,-71.65051948660803,744255757
sw,-77.1208724975586,-52.5853385925293,42.407610258621816,-58.13201955871229,744272424
sw,-77.9704513549804,-52.0116806030273,41.41315689922204,-43.81065012389209,744289091
sw,-78.765022277832,-51.6357917785644,39.94318625140565,-28.7963994233437,744305758
sw,-79.440689086914,-51.375991821289,38.47526210281892,-13.369256757318846,744322425
sw,-80.03466796875,-51.3660202026367,37.45524930157123,1.911038743150507,744339092
sw,-80.6445159912109,-51.5043220520019,37.15328782247924,16.19212860656648,744355759
sw,-81.2968292236328,-52.1184425354003,37.57622346948186,28.455380541218588,744372426
sw,-82.0250701904296,-53.1343154907226,38.46825551167888,37.764445875661096,744389093
sw,-82.8196029663086,-54.2094993591308,39.399288124784526,43.55334149312184,744405760
sw,-83.6611709594726,-55.0768585205078,39.90733529695145,45.835337187517666,744422427
sw,-84.4726333618164,-55.8786392211914,39.6407836034304,45.235456697754486,744439094
sw,-85.1621627807617,-56.5482482910156,38.44682574810438,42.82275956783997,744455761
sw,-85.7336807250976,-57.1397285461425,36.37436869260994,39.8041932862046,744472428
sw,-86.2273788452148,-57.7700881958007,33.5946676123362,37.19543277995695,744489095
sw,-86.6584854125976,-58.4977569580078,30.276134705033932,35.58504346114255,744505762
sw,-87.0652236938476,-59.2850914001464,26.467275035131532,35.06411776074028,744522429
sw,-87.4590911865234,-60.1682243347168,22.037019708162134,35.32829919704934,744539096
sw,-87.8042068481445,-60.9477043151855,16.697761736462482,35.89897252715921,744555763
sw,-88.0625534057617,-61.8332443237304,10.103245059447957,36.373441259782766,744572430
sw,-88.0904312133789,-62.7778282165527,1.984370848548238,36.60744779119391,744589097
sw,-87.8939208984375,-63.3449363708496,-7.728115429997,36.7583287606616,744605764
sw,-87.5368499755859,-63.6431236267089,-18.840691297179873,37.17119390266025,744622431
sw,-86.8759536743164,-63.9757041931152,-30.9209883947887,38.16147283290297,744639098
sw,-85.6719284057617,-64.5365219116211,-43.405657527729865,39.80395802871308,744655765
sw,-84.1193695068359,-65.49169921875,-55.75425185192457,41.84300359821544,744672432
sw,-82.5604553222656,-66.7156448364257,-67.5853477823977,43.77749984160911,744689099
sw,-80.721694946289,-67.8617553710937,-78.73385796977855,45.078756139414004,744705766
sw,-78.601936340332,-68.7893371582031,-89.20404611167193,45.427748678082054,744722433
sw,-76.4450302124023,-69.6071701049804,-99.04066835085301,44.85329928948097,744739100
sw,-74.2719116210937,-70.2912979125976,-108.17504855743239,43.71169618320267,744755767
sw,-72.11962890625,-70.8968963623046,-116.31200429675263,42.52990229982121,744772434
sw,-70.0550155639648,-71.5785217285156,-122.90790242250782,41.79349436620507,744789101
sw,-68.0582656860351,-72.4076690673828,-127.25636515251195,41.773362638538316,744805768
sw,-66.1127853393554,-73.3733825683593,-128.65920815611994,42.45460274542762,744822435
sw,-64.1138153076171,-74.3481521606445,-126.63032263600924,43.578359843784604,744839102
sw,-62.1486778259277,-75.2168426513671,-121.06662810924998,44.76099126164794,744855769
sw,-60.3606414794921,-76.0491333007812,-112.32445083096022,45.63473848971866,744872436
sw,-58.8154907226562,-76.8777847290039,-101.16357970396814,45.96134027442911,744889103
sw,-57.5524787902832,-77.681526184082,-88.56403660362199,45.6913208508373,744905770
sw,-56.5497817993164,-78.4239196777343,-75.47064205844822,44.963193963046024,744922437
sw,-55.7281303405761,-79.1095504760742,-62.5560743848341,44.05296807991011,744939104
sw,-55.0929260253906,-79.7915725708007,-50.09448664383984,43.29481081433965,744955771
sw,-54.6100387573242,-80.5065155029296,-37.999380970919056,42.99742509135331,744972438
sw,-54.3089332580566,-81.2858276367187,-26.014423654962023,43.3760798060438,744989105
sw,-54.2025527954101,-82.0979614257812,-13.980351252073048,44.509698948194576,745005772
sw,-54.2209434509277,-82.897346496582,-2.0629000638430792,46.32263134028117,745022439
sw,-54.64501953125,-83.6944732666015,9.165402062832687,48.58746375569822,745039106
sw,-55.700870513916,-84.5405960083007,18.839584201460983,50.94795208974069,745055773
sw,-56.7789649963378,-85.446548461914,26.07441349233665,52.96342826728259,745072440
sw,-57.6564407348632,-86.4058303833007,30.27789503808262,54.172099677083324,745089107
sw,-58.2546081542968,-87.3349380493164,31.368336411718424,54.16131557765653,745105774
sw,-58.7840843200683,-88.0988540649414,29.80873609896655,52.62513412882163,745122441
sw,-59.3520240783691,-88.5566711425781,26.46298543373134,49.39058761926422,745139108
sw,-60.0368843078613,-88.6308364868164,22.352177653255858,44.40538687209772,745155775
sw,-60.7241401672363,-88.4565505981445,18.411238819414717,37.695730916712435,745172442
sw,-61.3694267272949,-88.1779098510742,15.320245220666953,29.314419989123124,745189109
sw,-61.9741783142089,-87.9023056030273,13.439019173352907,19.300799802983022,745205776
sw,-62.3037109375,-87.7227401733398,12.833756617639738,7.666498890445218,745222443
sw,-62.5823211669921,-87.7039031982421,13.361244353284757,-5.589091804060589,745239110
sw,-62.9817504882812,-87.8576278686523,14.7690813497371,-20.43659136083825,745255777
sw,-63.2550392150878,-88.0362701416015,16.776533136482566,-36.75434728382701,745272444
sw,-63.4604148864746,-87.9996337890625,19.1183881617143,-54.25725768519007,745289111
sw,-63.7675056457519,-87.4685821533203,21.557316627533506,-72.43593756562373,745305778
sw,-64.3731384277343,-86.4098129272461,23.884866832773852,-90.53406638814467,745322445
sw,-65.1106033325195,-84.8618392944336,25.926433446189833,-107.59210772853992,745339112
sw,-65.7765960693359,-82.7326126098632,27.54923030033736,-122.56969231764384,745355779
sw,-66.5042037963867,-80.2279281616211,28.6656100134691,-134.5279566602588,745372446
sw,-67.3263473510742,-77.5643081665039,29.23406519154843,-142.8209172789259,745389113
sw,-68.2408828735351,-74.8604507446289,29.269107764264685,-147.23114845085752,745405780
sw,-69.0816574096679,-72.2514724731445,28.861168962351705,-148.00013911344263,745422447
sw,-69.7005310058593,-69.8656158447265,28.187645354188867,-145.74063949689324,745439114
sw,-70.2661361694336,-67.6937179565429,27.491876285252104,-141.25918910807408,745455781
sw,-70.9354248046875,-65.6692581176757,27.027130114750015,-135.34567312746873,745472448
sw,-71.6672973632812,-63.7642707824707,26.98831687384,-128.59442211208304,745489115
sw,-72.3794403076171,-61.9675216674804,27.46170694616822,-121.3068342554721,745505782
sw,-73.076675415039,-60.2179260253906,28.410476600777013,-113.49479041887594,745522449
sw,-73.7209014892578,-58.4921760559082,29.696770128928755,-104.96885290477228,745539116
sw,-74.3407745361328,-56.8539428710937,31.130765505921214,-95.46849734593896,745555783
sw,-74.99755859375,-55.3941116333007,32.5333057297779,-84.78348910814175,745572450
sw,-75.7258911132812,-54.2068977355957,33.79568529956629,-72.8289466055902,745589117
sw,-76.4970321655273,-53.3758811950683,34.91700652881662,-59.664950419824024,745605784
sw,-77.2469863891601,-52.8534965515136,36.000931531469924,-45.48026783186735,745622451
sw,-77.940559387207,-52.5798225402832,37.20533153255465,-30.57354831435761,745639118
sw,-78.6289978027343,-52.4315757751464,38.65915904010781,-15.35650112954636,745655785
sw,-79.3471374511718,-52.4568252563476,40.38023749768402,-0.37695638839864676,745672452
sw,-80.1441192626953,-52.5886116027832,42.23236069663992,13.66884126869218,745689119
sw,-81.0164413452148,-52.9411010742187,43.945074243717926,25.97697179159559,745705786
sw,-81.9281463623046,-53.6824951171875,45.192172635063855,35.75498676529329,745722453
sw,-82.8220901489257,-54.6498489379882,45.699549474562815,42.40341632379843,745739120
sw,-83.6787643432617,-55.5753555297851,45.34119160568384,45.69910466153158,745755787
sw,-84.5208892822265,-56.3785591125488,44.18684857588699,45.90155670838833,745772454
sw,-85.3260498046875,-57.1359214782714,42.48152877215197,43.727487428250235,745789121
sw,-86.0388412475586,-57.886619567871,40.55835710600406,40.19285546699173,745805788
sw,-86.6052932739257,-58.4841728210449,38.70722360648054,36.37458438575729,745822455
sw,-87.1203689575195,-59.0490341186523,37.03816691632249,33.17091181606283,745839122
sw,-87.63330078125,-59.6611175537109,35.385599850908775,31.13472952042632,745855789
sw,-88.0914611816406,-60.3179740905761,33.29250127982605,30.426178966279085,745872456
sw,-88.4294052124023,-61.022174835205,30.092388197502896,30.889265189471864,745889123
sw,-88.5966796875,-61.823558807373,25.077007592407295,32.21325136767233,745905790
sw,-88.5311279296875,-62.8407821655273,17.707871371468286,34.10675025295342,745922457
sw,-88.3210067749023,-63.6175231933593,7.809020679819009,36.40552982712169,745939124
sw,-88.0614471435546,-63.9899673461914,-4.3248413629540226,39.06435702757741,745955791
sw,-87.7794799804687,-64.3369903564453,-17.951708884096202,42.04387774641709,745972458
sw,-87.3049926757812,-64.9032897949218,-32.045137827725846,45.166780479151505,745989125
sw,-86.430923461914,-65.7959747314453,-45.55593484391725,48.04196033209041,746005792
sw,-85.1565322875976,-66.9590148925781,-57.68968741705715,50.119646765212565,746022459
sw,-83.6878890991211,-68.1976623535156,-68.1008472447621,50.86452320416553,746039126
sw,-82.1040496826171,-69.2406158447265,-76.92825964906909,49.96557587607535,746055793
sw,-80.342903137207,-70.0729598999023,-84.65797435504369,47.4814075414066,746072460
sw,-78.3683776855468,-70.808235168457,-91.86961536251282,43.85512632967675,746089127
sw,-76.2802581787109,-71.4660034179687,-98.96630177970536,39.79694151280394,746105794
sw,-74.1630096435546,-72.0907974243164,-105.98563170331222,36.0876552650905,746122461
sw,-72.1419296264648,-72.7332153320312,-112.54931437934248,33.37892044889387,746139128
sw,-70.2226104736328,-73.4284973144531,-117.95629569102498,32.0547948060757,746155795
sw,-68.3839340209961,-74.1842880249023,-121.38008861291321,32.186065938195085,746172462
sw,-66.5469665527343,-74.9584274291992,-122.10520035458964,33.57102080931838,746189129
sw,-64.692398071289,-75.7010345458984,-119.73086768231894,35.82937114809544,746205796
sw,-62.9314651489257,-76.4308929443359,-114.28117354531622,38.508614636580816,746222463
sw,-61.3735656738281,-77.1462326049804,-106.1882070438189,41.172560238339486,746239130
sw,-60.0421867370605,-77.8458099365234,-96.15588107304114,43.46041828330493,746255797
sw,-58.8228530883789,-78.5475387573242,-84.95450128766403,45.120830474293605,746272464
sw,-57.7050323486328,-79.2947616577148,-73.22149834915591,46.031915663876504,746289131
sw,-56.7245559692382,-80.0808715820312,-61.338728032183305,46.21502380059563,746305798
sw,-55.9940223693847,-80.9339141845703,-49.424807156271896,45.840204339989896,746322465
sw,-55.5392265319824,-81.7952270507812,-37.43864376814976,45.21208509661835,746339132
sw,-55.3027534484863,-82.5902481079101,-25.35353399573056,44.72303581566523,746355799
sw,-55.2580909729003,-83.3253555297851,-13.336781524966854,44.7699216706085,746372466
sw,-55.2758598327636,-84.0192947387695,-1.8601702120213242,45.64832815958068,746389133
sw,-55.7288589477539,-84.7619857788086,8.321396508907446,47.4540920000267,746405800
sw,-56.6952857971191,-85.597671508789,16.342863279007894,50.025554132279865,746422467
sw,-57.6871032714843,-86.5413589477539,21.50452439649246,52.94699664743907,746439134
sw,-58.4177551269531,-87.4957122802734,23.539278223365184,55.61000070499238,746455801
sw,-58.8682060241699,-88.2623519897461,22.751026574949986,57.307414128436086,746472468
sw,-59.2557563781738,-88.508918762207,19.960782684876623,57.32603510786199,746489135
sw,-59.779052734375,-88.1541137695312,16.28677857229493,55.0131707575609,746505802
sw,-60.3653373718261,-87.5933685302734,12.851817845507101,49.81307778145499,746522469
sw,-60.7849693298339,-87.0927658081054,10.52458368200092,41.289786205317064,746539136
sw,-61.3244247436523,-86.7040786743164,9.770221700536501,29.16138884773584,746555803
sw,-61.9051208496093,-86.4414138793945,10.6355264960479,13.362347227143964,746572470
sw,-62.1420173645019,-86.3659515380859,12.845714954159972,-5.871628259019122,746589137
sw,-62.7224617004394,-86.489273071289,15.95563545216628,-27.92588258608056,746605804
sw,-63.2588081359863,-86.8130950927734,19.48902596603195,-51.77939092334913,746622471
sw,-63.3709068298339,-87.0959320068359,23.02012650678907,-76.0644103396482,746639138
sw,-63.6618576049804,-86.7774887084961,26.1938457062799,-99.22461978507928,746655805
sw,-64.3595886230468,-85.5298995971679,28.718764794202066,-119.74805214111142,746672472
sw,-65.1920013427734,-83.4701843261718,30.374376652528994,-136.4200252024269,746689139
sw,-66.2183990478515,-80.8216857910156,31.048043700459637,-148.52594288780693,746705806
sw,-67.1902923583984,-77.9542694091796,30.784789944682323,-155.9407831789149,746722473
sw,-68.0678787231445,-75.2302551269531,29.818405646005658,-159.07278342674417,746739140
sw,-68.8848419189453,-72.6798629760742,28.557189959529385,-158.67742947405063,746755807
sw,-69.6363372802734,-70.3019714355468,27.51339985104851,-155.60672966527085,746772474
sw,-70.2597274780273,-68.0408630371093,27.186601748229847,-150.58314813860264,746789141
sw,-70.9083938598632,-65.8474884033203,27.932616519120206,-144.0725732623101,746805808
sw,-71.6864471435546,-63.7589988708496,29.861914698629853,-136.28419335035483,746822475
sw,-72.5729675292968,-61.7958374023437,32.8040802098215,-127.27186129161977,746839142
sw,-73.4732131958007,-59.8719635009765,36.34901358709615,-117.07525070684399,746855809
sw,-74.3075790405273,-58.1245002746582,39.946135180581166,-105.83092999071877,746872476
sw,-75.0574111938476,-56.6319313049316,43.02756362465061,-93.80255108264716,746889143
sw,-75.8473587036132,-55.3871192932128,45.12454217300531,-81.31798398276409,746905810
sw,-76.7197723388671,-54.4168014526367,45.95829480918472,-68.64610200639683,746922477
sw,-77.6141738891601,-53.7154693603515,45.49492669215118,-55.878837911986246,746939144
sw,-78.4610900878906,-53.2033920288085,43.95626137147577,-42.88890588492872,746955811
sw,-79.279182434082,-52.8921241760253,41.78093889672646,-29.405399898396364,746972478
sw,-80.0397033691406,-52.674388885498,39.538309620301014,-15.198307278853827,746989145
sw,-80.6996154785156,-52.6026535034179,37.81022687400749,-0.3091050673789266,747005812
sw,-81.3325653076171,-52.6753425598144,37.066875341117026,14.769572688462773,747022479
sw,-82.0192794799804,-53.0783615112304,37.566722579303764,29.059571854083476,747039146
sw,-82.7724304199218,-53.9658660888671,39.304419771220324,41.25724048267438,747055813
sw,-83.5668182373046,-55.1110000610351,42.01507743953281,50.06065480449672,747072480
sw,-84.3741989135742,-56.2553939819335,45.225316692936694,54.56075948589597,747089147
sw,-85.1848526000976,-57.3046875,48.329571099876254,54.55558833095117,747105814
sw,-85.9832153320312,-58.3286819458007,50.669260074335135,50.669061028735555,747122481
sw,-86.7214126586914,-59.2429237365722,51.60120061220089,44.226762291413685,747139148
sw,-87.3720016479492,-59.7819557189941,50.554042362176105,36.927075736160226,747155815
sw,-87.8981094360351,-60.1288146972656,47.08062883046924,30.414699336000346,747172482
sw,-88.2347564697265,-60.5393333435058,40.914751071495154,25.894717242909973,747189149
sw,-88.3610000610351,-60.9865417480468,32.03151500410099,23.908999495151964,747205816
sw,-88.3563461303711,-61.4265899658203,20.695667216727912,24.33530308104474,747222483
sw,-88.3428268432617,-62.3152236938476,7.470365993721714,26.584106922132825,747239150
sw,-88.3814163208007,-63.2771949768066,-6.84084962071118,29.89332997834322,747255817
sw,-88.4645614624023,-63.7511138916015,-21.329356369139116,33.590685204306176,747272484
sw,-88.1951751708984,-64.0528564453125,-35.17457340888674,37.226311843323685,747289151
sw,-87.2537689208984,-64.6091384887695,-47.843366684551114,40.56024930698705,747305818
sw,-85.8148880004882,-65.4706726074218,-59.22525510318046,43.46928067562899,747322485
sw,-84.1377334594726,-66.5786895751953,-69.64110413140946,45.86260338269651,747339152
sw,-82.3261947631836,-67.7378005981445,-79.7018726461485,47.65724163160871,747355819
sw,-80.2973327636718,-68.7310943603515,-90.05080012836423,48.802943158239884,747372486
sw,-78.1509094238281,-69.6125946044921,-101.07168105022659,49.31166624129754,747389153
sw,-75.9395751953125,-70.4827728271484,-112.66362432706327,49.25594106840476,747405820
sw,-73.8188323974609,-71.3264846801757,-124.16152580299426,48.73393006157434,747422487
sw,-71.7696762084961,-72.2132492065429,-134.43324227045085,47.826095029097274,747439154
sw,-69.6515960693359,-73.1766738891601,-142.12925224050167,46.572752934349836,747455821
sw,-67.4427261352539,-74.1979904174804,-146.01469617057563,44.98670553267102,747472488
sw,-65.2363739013671,-75.1927032470703,-145.2875130636674,43.093122219424316,747489155
sw,-63.0981903076171,-76.0505065917968,-139.78798681391316,40.97271111334924,747505822
sw,-61.158088684082,-76.7621688842773,-130.03761921172267,38.782277785293495,747522489
sw,-59.4194984436035,-77.3844299316406,-117.10001879651918,36.739305895451636,747539156
sw,-57.8916320800781,-77.9824981689453,-102.31287388758676,35.075917757122554,747555823
sw,-56.5966911315918,-78.5534286499023,-86.97687104433929,33.98155586051572,747572490
sw,-55.5358200073242,-79.0839309692382,-72.0939957077175,33.55717908255179,747589157
sw,-54.6428031921386,-79.6319046020507,-58.22592200373295,33.79799120333411,747605824
sw,-53.9616966247558,-80.2735900878906,-45.50243225713114,34.610697385027684,747622491
sw,-53.4995193481445,-80.9789505004882,-33.76212901149407,35.85816645054099,747639158
sw,-53.2102355957031,-81.6819229125976,-22.76638103112651,37.41292079256555,747655825
sw,-53.0902862548828,-82.370002746582,-12.40423566143006,39.19671068098189,747672492
sw,-53.1032257080078,-83.0757522583007,-2.8082064151073904,41.190050960686264,747689159
sw,-53.5330200195312,-83.7860260009765,5.668804771372228,43.40962634608294,747705826
sw,-54.3816909790039,-84.5452651977539,12.60957486347017,45.86442592904278,747722493
sw,-55.2408943176269,-85.4090957641601,17.751098711363948,48.506428091633765,747739160
sw,-55.8603553771972,-86.3524551391601,21.154807864953817,51.18783170076295,747755827
sw,-56.282901763916,-87.2372817993164,23.23420872457421,53.629561930109986,747772494
sw,-56.7638511657714,-87.9726181030273,24.61817446799589,55.40292436284387,747789161
sw,-57.3461608886718,-88.5143051147461,25.913957220520754,55.931539556468174,747805828
sw,-58.0417442321777,-88.7066879272461,27.481337589602433,54.52842264149349,747822495
sw,-58.8726463317871,-88.392219543457,29.31684541241572,50.48197590736271,747839162
sw,-59.8671073913574,-87.8108139038086,31.0907910697008,43.18888273803759,747855829
sw,-60.9786987304687,-87.2061386108398,32.312376568607455,32.30781140626351,747872496
sw,-61.8511123657226,-86.7747573852539,32.54863829654123,17.88944033086082,747889163
sw,-62.3387565612793,-86.6164474487304,31.609685614172744,0.43699550012131994,747905830
sw,-62.9309577941894,-86.8135299682617,29.637030805760133,-19.130456122322638,747922497
sw,-63.3644294738769,-87.2962951660156,27.075837945920824,-39.60930388388519,747939164
sw,-63.591438293457,-87.7902603149414,24.5514986851767,-59.70440414481745,747955831
sw,-64.0794067382812,-87.7680511474609,22.693804800996976,-78.23319541654749,747972498
sw,-64.5725708007812,-86.8532791137695,21.95922023760774,-94.2911178483773,747989165
sw,-65.1580581665039,-85.3013916015625,22.498766568469048,-107.34477864589664,748005832
sw,-65.8067321777343,-83.3275909423828,24.110447198178903,-117.24179860042238,748022499
sw,-66.6994857788086,-81.053237915039,26.299351031455565,-124.14642968770262,748039166
sw,-67.7153854370117,-78.6742401123046,28.437860514690357,-128.42422716471933,748055833
sw,-68.6217651367187,-76.3740921020507,29.975792283098873,-130.50783808536505,748072500
sw,-69.4149703979492,-74.1148986816406,30.620426401467036,-130.7796719912207,748089167
sw,-70.1053771972656,-71.8760299682617,30.415085974072262,-129.50272859473415,748105834
sw,-70.7431106567382,-69.7194290161132,29.69111573740113,-126.81471635041657,748122501
sw,-71.4571533203125,-67.679443359375,28.923693573477777,-122.77648216506186,748139168
sw,-72.276123046875,-65.8116226196289,28.55612620847196,-117.44562669402178,748155835
sw,-73.0967102050781,-64.1245727539062,28.85738063361021,-110.94084716335625,748172502
sw,-73.8215560913086,-62.6100234985351,29.852226586065598,-103.47260545024278,748189169
sw,-74.4894409179687,-61.1878280639648,31.331869146428293,-95.33268183722258,748205836
sw,-75.1687545776367,-59.8306770324707,32.93015023776653,-86.84976781051121,748222503
sw,-75.8974304199218,-58.6468315124511,34.23878683150157,-78.32664723104898,748239170
sw,-76.673843383789,-57.6654357910156,34.929931364772706,-69.97817819052658,748255837
sw,-77.4316253662109,-56.7780075073242,34.85324916729098,-61.88977273116995,748272504
sw,-78.1317138671875,-55.9297828674316,34.08050697402616,-54.011245612287134,748289171
sw,-78.7833557128906,-55.2135314941406,32.885539091670374,-46.18892670786817,748305838
sw,-79.4282608032226,-54.6731872558593,31.66728302051255,-38.22510656786673,748322505
sw,-80.01123046875,-54.3574066162109,30.839996512039605,-29.94801913894975,748339172
sw,-80.5323028564453,-54.1958847045898,30.722279463269697,-21.280338508167876,748355839
sw,-81.0625991821289,-54.1035995483398,31.455169370209806,-12.300181627409245,748372506
sw,-81.6714553833007,-53.9317970275878,32.971110882370176,-3.2844302202830806,748389173
sw,-82.34716796875,-53.8692207336425,35.021028633694215,5.2890414517809585,748405840
sw,-83.0346374511718,-54.1554298400878,37.2490523850258,12.809055955605034,748422507
sw,-83.7527999877929,-54.7404289245605,39.28995460775825,18.6771781916262,748439174
sw,-84.551513671875,-55.4050521850585,40.85844382726778,22.496882000052256,748455841
sw,-85.3655776977539,-55.9978981018066,41.802882960723764,24.232019821023023,748472508
sw,-86.1220245361328,-56.4883422851562,42.106832628941994,24.2593706327651,748489175
sw,-86.8084945678711,-56.9507102966308,41.838107689425065,23.28227778792005,748505842
sw,-87.4695129394531,-57.4217338562011,41.06326951350187,22.133623136006072,748522509
sw,-88.0975189208984,-57.8587532043457,39.75899608161059,21.54237449743453,748539176
sw,-88.6718978881836,-58.3614540100097,37.754282545271586,21.94864475501124,748555843
sw,-89.1228561401367,-58.9169311523437,34.72775648161277,23.42831835785481,748572510
sw,-89.2715377807617,-59.557746887207,30.266541959891075,25.743892106780123,748589177
sw,-89.0674896240234,-60.112548828125,23.97301374830237,28.491739296966212,748605844
sw,-88.7909927368164,-60.7571296691894,15.58932760198996,31.284044525227035,748622511
sw,-88.6074600219726,-61.6190910339355,5.10188217921071,33.8951374617163,748639178
sw,-88.4669876098632,-62.2449417114257,-7.208519371561298,36.31722516366485,748655845
sw,-88.3319931030273,-62.5900726318359,-20.791467277959747,38.705983789548775,748672512
sw,-88.1254959106445,-63.1511039733886,-34.92765398378125,41.244298206688256,748689179
sw,-87.5041732788086,-63.941307067871,-48.88392482142883,43.99330998767719,748705846
sw,-86.3136367797851,-64.9037399291992,-62.079716787943795,46.80846253204627,748722513
sw,-84.7255630493164,-66.0191268920898,-74.21020723649585,49.36530931454399,748739180
sw,-82.9054946899414,-67.1802597045898,-85.2799784558312,51.283557958229835,748755847
sw,-80.7337188720703,-68.2752838134765,-95.53118697105891,52.289079371841055,748772514
sw,-78.2992172241211,-69.2880401611328,-105.28827950442373,52.33623440668753,748789181
sw,-75.8951263427734,-70.1391143798828,-114.76841001128993,51.63351851946156,748805848
sw,-73.6012878417968,-70.8955993652343,-123.91525336397565,50.56241453524488,748822515
sw,-71.4356460571289,-71.6958847045898,-132.30818858936826,49.5285759981009,748839182
sw,-69.2943496704101,-72.6089553833007,-139.18251457053157,48.81234132988614,748855849
sw,-67.1747131347656,-73.5961227416992,-143.56845149183744,48.480564296177505,748872516
sw,-64.9962768554687,-74.5968246459961,-144.51992670853,48.38980379834841,748889183
sw,-62.7799110412597,-75.5560836791992,-141.36975209144987,48.27074129375966,748905850
sw,-60.6471366882324,-76.4640884399414,-133.93033225149136,47.85434672485163,748922517
sw,-58.7854919433593,-77.3368453979492,-122.56933089544442,46.9908834718197,748939184
sw,-57.2248153686523,-78.1382446289062,-108.12931364310093,45.72147131270685,748955851
sw,-55.8994712829589,-78.8514022827148,-91.71715687340519,44.28150145763318,748972518
sw,-54.8488121032714,-79.5399398803711,-74.43921336981148,43.03828503407641,748989185
sw,-54.0643081665039,-80.2255172729492,-57.17867668057858,42.385331485514705,749005852
sw,-53.5428886413574,-80.9095993041992,-40.493327510074444,42.62717449422227,749022519
sw,-53.2387313842773,-81.6039199829101,-24.663074980207735,43.88917707724801,749039186
sw,-53.1100425720214,-82.3576126098632,-9.85557503884042,46.07759228569082,749055853
sw,-53.0500946044921,-83.2022018432617,3.6742866115558437,48.899893897525004,749072520
sw,-53.368293762207,-84.1202011108398,15.457881551008827,51.93797728100608,749089187
sw,-54.3021430969238,-85.0878982543945,24.841525667781855,54.751333584203024,749105854
sw,-55.5193557739257,-86.1273803710937,31.179969531006194,56.97752677457198,749122521
sw,-56.6884422302246,-87.1940460205078,34.11356085309473,58.39564335687515,749139188
sw,-57.3667526245117,-88.0852127075195,33.792565423131556,58.92594434102129,749155855
sw,-57.7947807312011,-88.5288696289062,30.931898285043648,58.55669426154959,749172522
sw,-58.3499450683593,-88.3963623046875,26.664030120043805,57.216170174022494,749189189
sw,-58.9506187438964,-87.9556045532226,22.251922628547533,54.63687135131334,749205856
sw,-59.5282821655273,-87.4567108154296,18.77401061683017,50.275936442385834,749222523
sw,-60.1039733886718,-86.9324188232421,16.886884286818677,43.34767004197853,749239190
sw,-60.8925590515136,-86.3722076416015,16.730233623303675,32.988374411105205,749255857
sw,-61.5053977966308,-85.8827743530273,17.987135080952903,18.52181980908793,749272524
sw,-61.9518394470214,-85.6045303344726,20.06458187972966,-0.2533035909200557,749289191
sw,-62.6797943115234,-85.6895675659179,22.324737987945475,-22.853515725148434,749305858
sw,-63.2492332458496,-86.1971893310546,24.28650077273474,-48.06155073303103,749322525
sw,-63.3683700561523,-86.9931335449218,25.734146679448482,-74.07281039642405,749339192
sw,-63.664623260498,-87.422004699707,26.710544095099333,-98.80896856955141,749355859
sw,-64.1299285888671,-86.5010070800781,27.41885081364775,-120.3168522446577,749372526
sw,-64.8202362060546,-84.4862976074218,28.085203570381104,-137.1449236131148,749389193
sw,-65.6367492675781,-81.9159469604492,28.83763893729556,-148.59778068678162,749405860
sw,-66.4961013793945,-79.0785751342773,29.64416738098655,-154.80467459387677,749422527
sw,-67.3943786621093,-76.3314666748046,30.33336497129647,-156.589076985858,749439194
sw,-68.3606719970703,-73.7517929077148,30.69115226200226,-155.18102964494477,749455861
sw,-69.2959976196289,-71.3513565063476,30.591581721828025,-151.8593854817113,749472528
sw,-70.0186996459961,-69.1556015014648,30.097341872835123,-147.63117795065958,749489195
sw,-70.6538543701171,-66.9795913696289,29.476778784828166,-143.03899325265647,749505862
sw,-71.356689453125,-64.829345703125,29.125897442731016,-138.13873887542292,749522529
sw,-72.1471328735351,-62.7336540222168,29.429714788782704,-132.62974540335333,749539196
sw,-72.953125,-60.6877326965332,30.619895284173623,-126.07093726665782,749555863
sw,-73.7103958129882,-58.6798019409179,32.67885848720016,-118.09679822471236,749572530
sw,-74.3996658325195,-56.8822364807128,35.31873846143566,-108.55829487563115,749589197
sw,-75.0815658569336,-55.4048957824707,38.04137319876551,-97.55044108825344,749605864
sw,-75.8283615112304,-54.2269973754882,40.26613890557454,-85.33711145234153,749622531
sw,-76.6797103881836,-53.2813034057617,41.49355352143189,-72.22655878582155,749639198
sw,-77.5235824584961,-52.4676818847656,41.457065602645365,-58.46815530774118,749655865
sw,-78.3366622924804,-51.8484077453613,40.21298608559129,-44.223230606163746,749672532
sw,-79.0816574096679,-51.4036407470703,38.13618535374792,-29.620645508521456,749689199
sw,-79.7456665039062,-51.1455154418945,35.822085332987015,-14.863527703753784,749705866
sw,-80.3549194335937,-51.0371360778808,33.92842896550042,-0.32723073450925794,749722533
sw,-80.9648208618164,-51.217041015625,33.00851623510205,13.411375335137404,749739200
sw,-81.5998306274414,-51.8318710327148,33.385146990313785,25.647150044025295,749755867
sw,-82.2792282104492,-52.7850189208984,35.09503469089006,35.71125248536383,749772534
sw,-83.0345230102539,-53.7692527770996,37.906345064105494,43.16837747572924,749789201
sw,-83.8291473388671,-54.6427040100097,41.38809288208176,47.96341149091823,749805868
sw,-84.630386352539,-55.5366973876953,44.9978077334563,50.450516788669745,749822535
sw,-85.4458618164062,-56.4672088623046,48.15633169006177,51.28794396121697,749839202
sw,-86.2554550170898,-57.3194122314453,50.292973575075386,51.23794863997727,749855869
sw,-86.9923477172851,-58.1871871948242,50.86347785622021,50.945864254967255,749872536
sw,-87.6663665771484,-59.1420745849609,49.35937766635667,50.77572816373457,749889203
sw,-88.263931274414,-60.0716590881347,45.33348089591069,50.75673470519549,749905870
sw,-88.6649932861328,-61.0771560668945,38.458484445887805,50.65570604405013,749922537
sw,-88.7717208862304,-62.0739479064941,28.615808207408634,50.14708002249339,749939204
sw,-88.6714630126953,-63.1811141967773,15.988655231370126,49.01483888371166,749955871
sw,-88.5801773071289,-64.1962203979492,1.1189584206718042,47.30245248543167,749972538
sw,-88.5350036621093,-64.7745742797851,-15.109938848254409,45.34007888947736,749989205
sw,-88.4966278076171,-65.0889205932617,-31.58419763046705,43.628044703004484,750005872
sw,-88.1324005126953,-65.7001342773437,-47.15368208269436,42.62528135764548,750022539
sw,-87.1187362670898,-66.4309692382812,-60.86716511226115,42.54269074345438,750039206
sw,-85.5607604980468,-67.2705764770507,-72.182380337331,43.241303291911784,750055873
sw,-83.7126922607421,-68.2727584838867,-81.08062674393807,44.28356165535327,750072540
sw,-81.7468338012695,-69.3546142578125,-88.03847658522864,45.11340022389835,750089207
sw,-79.5779495239257,-70.334846496582,-93.85392687182618,45.2833982790914,750105874
sw,-77.3902816772461,-71.2243423461914,-99.3736995092584,44.62978364192359,750122541
sw,-75.2284698486328,-71.9378204345703,-105.20266496109488,43.323900109673936,750139208
sw,-73.153579711914,-72.5517425537109,-111.48390926316777,41.78642656197264,750155875
sw,-71.2146987915039,-73.1972732543945,-117.81757308007724,40.50955788278018,750172542
sw,-69.3023681640625,-73.9344787597656,-123.34516274897432,39.86608559929044,750189209
sw,-67.2827758789062,-74.775634765625,-126.97607992601262,39.98076383416812,750205876
sw,-65.2223434448242,-75.691047668457,-127.68913325526728,40.70471103803899,750222543
sw,-63.2306938171386,-76.5436630249023,-124.8169636614651,41.687776358218386,750239210
sw,-61.4056205749511,-77.3446502685546,-118.22566653562312,42.508962030005144,750255877
sw,-59.7635269165039,-78.1252059936523,-108.33737373961237,42.81337627954181,750272544
sw,-58.2919235229492,-78.8799438476562,-95.9979808006524,42.41351430690579,750289211
sw,-56.9570007324218,-79.5627059936523,-82.24285378226145,41.33226500318604,750305878
sw,-55.8278923034668,-80.1893920898437,-68.04087656213,39.78551675049613,750322545
sw,-54.9709777832031,-80.8173828125,-54.09628295005497,38.118638905068806,750339212
sw,-54.3713455200195,-81.4593734741211,-40.76490761096398,36.720294236317564,750355879
sw,-54.0204772949218,-82.0949783325195,-28.105512007300632,35.93724171609513,750372546
sw,-53.8118629455566,-82.7069854736328,-16.04343275066616,36.007274252427116,750389213
sw,-53.6226158142089,-83.3334732055664,-4.579918428271984,37.019528269362205,750405880
sw,-53.5605201721191,-84.0056991577148,6.048664954694012,38.9053941037887,750422547
sw,-54.1458892822265,-84.7254943847656,15.34981312017075,41.45799313489334,750439214
sw,-55.2548599243164,-85.5368728637695,22.72168597087269,44.371363760683714,750455881
sw,-56.3478546142578,-86.4431762695312,27.706346887123793,47.28291136196062,750472548
sw,-57.0152702331543,-87.305793762207,30.218545746271612,49.79892554915384,750489215
sw,-57.4209861755371,-87.9602966308593,30.625097977762252,51.4887863522002,750505882
sw,-57.9701538085937,-88.2528076171875,29.63349888649119,51.85100382530048,750522549
sw,-58.6869888305664,-88.1775894165039,28.051938078502616,50.277336935978816,750539216
sw,-59.4690704345703,-87.9001541137695,26.53901667730189,46.05617714255833,750555883
sw,-60.3819274902343,-87.5585556030273,25.44693226019617,38.45024765550554,750572550
sw,-61.3475646972656,-87.1972579956054,24.80212234570354,26.854439538399987,750589217
sw,-61.9224739074707,-86.8865585327148,24.404129709662413,10.99923262945354,750605884
sw,-62.1963233947753,-86.7938690185546,23.98594090337288,-8.866357942965674,750622551
sw,-62.783462524414,-86.9770278930664,23.37253107445301,-31.88383941626007,750639218
sw,-63.2950439453125,-87.2935485839843,22.585473833441075,-56.63292017981239,750655885
sw,-63.4340782165527,-87.2622680664062,21.85866225221398,-81.32034728788732,750672552
sw,-63.7657051086425,-86.3738250732421,21.556197765693476,-104.0686432055057,750689219
sw,-64.3361129760742,-84.7001037597656,22.02004611110573,-123.23581038771559,750705886
sw,-64.9257888793945,-82.4519500732421,23.407507957515136,-137.69088242764946,750722553
sw,-65.634407043457,-79.7961349487304,25.588710280350828,-146.98217231450914,750739220
sw,-66.5735931396484,-77.0276184082031,28.155820922175863,-151.35971550577491,750755887
