Label,Left_Hip_q,Right_Hip_q,Left_Hip_qd,Right_Hip_qd,SampleTimeFine
sw,-59.3912963867187,-85.1180953979492,51.0909919738769,44.2813835144043,4194989502
sw,-60.008430480957,-85.8700942993164,24.045544455196204,47.498032632867336,4195006169
sw,-60.6467857360839,-86.5509338378906,23.15864365634415,47.32175130808444,4195022836
sw,-61.3974533081054,-87.0728378295898,22.490181963259968,46.30842044027629,4195039503
sw,-62.1753158569335,-87.4345626831054,22.229426000189925,43.53116230075615,4195056170
sw,-62.8141555786132,-87.6400909423828,22.50635249283899,38.03173444844385,4195072837
sw,-63.3935966491699,-87.6976928710937,23.35861035092861,28.911799049444785,4195089504
sw,-64.006721496582,-87.65673828125,24.70488045521196,15.497780815601983,4195106171
sw,-64.3610153198242,-87.5355834960937,26.344030408367576,-2.456879053488821,4195122838
sw,-64.7170104980468,-87.3652267456054,27.997226423188714,-24.594058740038957,4195139505
sw,-65.286880493164,-87.047134399414,29.393048114989845,-49.86681325494432,4195156172
sw,-65.949951171875,-86.3173599243164,30.368172727565995,-76.60090835842661,4195172839
sw,-66.3673248291015,-84.9914016723632,30.93402915936961,-102.71614593145965,4195189506
sw,-66.8621139526367,-82.998794555664,31.265521468725275,-126.07233629913858,4195206173
sw,-67.416015625,-80.3804397583007,31.60839082415027,-144.8598400438688,4195222840
sw,-68.1664505004882,-77.4600372314453,32.15172729939871,-157.9307021612233,4195239507
sw,-69.1222839355468,-74.3955307006836,32.93403210501995,-164.97571329910886,4195256174
sw,-70.0772171020507,-71.3988418579101,33.8304174473368,-166.4962360473293,4195272841
sw,-71.0629119873046,-68.6190643310546,34.622202591915354,-163.58326313540977,4195289508
sw,-71.9524688720703,-66.1733093261718,35.10851962702861,-157.57599510914596,4195306175
sw,-72.6912994384765,-64.0159378051757,35.20407789450306,-149.70653392608162,4195322842
sw,-73.4201354980468,-62.0188407897949,34.98109242134155,-140.83545357839887,4195339509
sw,-74.1599731445312,-60.1085472106933,34.643949667639674,-131.34683268106062,4195356176
sw,-74.9449462890625,-58.2042427062988,34.4539972468288,-121.21324052910248,4195372843
sw,-75.7397079467773,-56.3688430786132,34.63623105215052,-110.18154213771756,4195389510
sw,-76.4550170898437,-54.6973495483398,35.2990007537328,-97.99189781740117,4195406177
sw,-77.1247253417968,-53.2681541442871,36.389621259830314,-84.54085622607083,4195422844
sw,-77.78857421875,-52.2022552490234,37.69906182150173,-69.93571894623558,4195439511
sw,-78.4703292846679,-51.5201606750488,38.91781809251703,-54.44485249258011,4195456178
sw,-79.1811828613281,-51.153881072998,39.73089270971002,-38.39975639835049,4195472845
sw,-79.9494247436523,-50.9706497192382,39.92500294287382,-22.123145116388905,4195489512
sw,-80.7805404663086,-50.9978523254394,39.47239932545466,-5.931862733063322,4195506179
sw,-81.5783462524414,-50.8693695068359,38.558655062269445,9.793190502621943,4195522846
sw,-82.297119140625,-51.2077369689941,37.53735912049997,24.5324731618549,4195539513
sw,-82.9379806518554,-52.1325454711914,36.81872025765106,37.6261507075718,4195556180
sw,-83.5391387939453,-53.4294548034668,36.72345649297246,48.38274045337359,4195572847
sw,-84.1538772583007,-54.5720443725585,37.3480281691738,56.26312672363884,4195589514
sw,-84.8310775756836,-55.6529998779296,38.48535669230771,61.05236805472511,4195606181
sw,-85.5752182006836,-56.8118247985839,39.62705798988552,62.93584411968274,4195622848
sw,-86.284797668457,-57.8436012268066,40.04669555809592,62.4480415782768,4195639515
sw,-86.8586349487304,-58.7957115173339,38.93985381361151,60.3219882565867,4195656182
sw,-87.2808456420898,-59.7697029113769,35.58492100055188,57.303390518782805,4195672849
sw,-87.5339889526367,-60.7140655517578,29.490216190863705,53.99816980684628,4195689516
sw,-87.6438293457031,-61.6324577331543,20.502713995050396,50.8019230292425,4195706183
sw,-87.6729202270507,-62.5469818115234,8.862713968612068,47.92493281651703,4195722850
sw,-87.6395950317382,-63.5127601623535,-4.8068943168720715,45.48698777753144,4195739517
sw,-87.4704437255859,-64.5139083862304,-19.585449930287705,43.62404788071741,4195756184
sw,-87.0480651855468,-65.2232208251953,-34.413061764745706,42.53900141723238,4195772851
sw,-86.2478790283203,-65.8193588256836,-48.30187833176208,42.455077719250106,4195789518
sw,-84.9166183471679,-66.402717590332,-60.551670154159424,43.48854793663969,4195806185
sw,-83.0341873168945,-67.0804138183593,-70.90156587051827,45.51533028205877,4195822852
sw,-81.1151580810546,-68.1034088134765,-79.55413107693876,48.122259563594035,4195839519
sw,-79.1593704223632,-69.3418960571289,-87.04493013715646,50.690658464538245,4195856186
sw,-76.9918060302734,-70.556167602539,-93.99120634848423,52.58264409670688,4195872853
sw,-74.7715530395507,-71.6146697998046,-100.8087952244381,53.34072323374742,4195889520
sw,-72.4890823364257,-72.4434967041015,-107.50507956163932,52.80762915651451,4195906187
sw,-70.2965316772461,-73.175796508789,-113.62618675519097,51.12388932292206,4195922854
sw,-68.4324493408203,-73.9611587524414,-118.37441253729546,48.62738992973832,4195939521
sw,-66.8211212158203,-74.8252410888671,-120.8476647855552,45.72002470021763,4195956188
sw,-64.9050140380859,-75.7465438842773,-120.31376985452528,42.76350216237381,4195972855
sw,-63.3270683288574,-76.6286239624023,-116.42923449368323,40.03206767632153,4195989522
sw,-61.8306922912597,-77.3716583251953,-109.33821727487594,37.712322722919275,4196006189
sw,-60.2883796691894,-77.9750366210937,-99.62917601168802,35.92190974726422,4196022856
sw,-59.0474853515625,-78.5127792358398,-88.16927734453408,34.72393619336742,4196039523
sw,-58.0882453918457,-79.0374145507812,-75.86959844803208,34.13108912717396,4196056190
sw,-57.2899932861328,-79.5759887695312,-63.45330766282896,34.106964029205734,4196072857
sw,-56.6672935485839,-80.195068359375,-51.30104424538197,34.574161057741485,4196089524
sw,-56.2014465332031,-80.8740692138671,-39.42733422424819,35.431407597302425,4196106191
sw,-55.93404006958,-81.561294555664,-27.600565764317405,36.57303116791452,4196122858
sw,-55.7881278991699,-82.2200698852539,-15.56927747649895,37.90059493290918,4196139525
sw,-55.789680480957,-82.8533706665039,-3.3148144696480544,39.32091539136955,4196156192
sw,-55.9457359313964,-83.5264053344726,8.771788296645111,40.733576032428076,4196172859
sw,-56.6670112609863,-84.2282104492187,19.878784529651313,42.01739000391122,4196189526
sw,-57.9198760986328,-84.9901123046875,28.96263017786725,43.02385348865719,4196206193
sw,-59.318431854248,-85.79052734375,35.08221702966399,43.57732930736694,4196222860
sw,-60.3909683227539,-86.5365524291992,37.74502485372273,43.472841991102776,4196239527
sw,-61.0888442993164,-87.1222076416015,37.11509506710052,42.460502682509116,4196256194
sw,-61.7634811401367,-87.47998046875,33.99506821589624,40.21448246829655,4196272861
sw,-62.4961700439453,-87.6006927490234,29.597046021038334,36.30075959164403,4196289528
sw,-63.107192993164,-87.5871124267578,25.19822161329799,30.17203223083419,4196306195
sw,-63.6790695190429,-87.5708618164062,21.80441837966821,21.2200433968429,4196322862
sw,-64.2524108886718,-87.5694122314453,19.92659641254813,8.900325671719914,4196339529
sw,-64.4612426757812,-87.5766677856445,19.533365657062284,-7.084903383590123,4196356196
sw,-64.9608764648437,-87.5552825927734,20.18695325262959,-26.593140714316,4196372863
sw,-65.7139358520507,-87.3446502685546,21.30581537935747,-48.90714692869918,4196389530
sw,-66.1294555664062,-86.6768112182617,22.441700613011957,-72.72708396250312,4196406197
sw,-66.3324661254882,-85.4411697387695,23.446364791866003,-96.32369431407794,4196422864
sw,-66.6093444824218,-83.5163879394531,24.456769660554592,-117.83182241467456,4196439531
sw,-66.9824142456054,-80.9730911254882,25.72554572694448,-135.60744384060024,4196456198
sw,-67.7137985229492,-78.3144378662109,27.405202370875593,-148.5399977916177,4196472865
sw,-68.7076339721679,-75.6739654541015,29.409966462518565,-156.2237196446112,4196489532
sw,-69.6703796386718,-72.9999313354492,31.425085445271726,-158.94497833671264,4196506199
sw,-70.619400024414,-70.2908477783203,33.048137663738416,-157.51049500622383,4196522866
sw,-71.5068817138671,-67.7372512817382,33.97989885983021,-152.98868400804707,4196539533
sw,-72.2181625366211,-65.4381256103515,34.165404462365736,-146.44666603639982,4196556200
sw,-72.8581161499023,-63.2624778747558,33.820470873160396,-138.74746675561434,4196572867
sw,-73.5785369873046,-61.1887550354003,33.34107962839393,-130.44204702655378,4196589534
sw,-74.4246597290039,-59.2214889526367,33.14714703883874,-121.75895017241585,4196606201
sw,-75.2925796508789,-57.3742332458496,33.53104325837212,-112.66650114516703,4196622868
sw,-76.0537033081054,-55.6653594970703,34.56346616350585,-102.96669920628432,4196639535
sw,-76.7117309570312,-54.151683807373,36.076973406437375,-92.3828137628933,4196656202
sw,-77.3448867797851,-52.9309120178222,37.72290752821367,-80.62273055934098,4196672869
sw,-78.0615997314453,-52.0159645080566,39.084704378685615,-67.42647403814175,4196689536
sw,-78.8560638427734,-51.3038063049316,39.82035578570257,-52.623028808548725,4196706203
sw,-79.6854629516601,-50.6844367980957,39.794240669215,-36.21532762070793,4196722870
sw,-80.4883117675781,-50.3596572875976,39.151681902634756,-18.48300068459766,4196739537
sw,-81.21923828125,-50.1429176330566,38.30052956938096,-0.05826504495642887,4196756204
sw,-81.8706359863281,-50.4845428466796,37.794721322344834,18.082444745958952,4196772871
sw,-82.4994125366211,-51.3099365234375,38.152441069966216,34.74460943450811,4196789538
sw,-83.1738967895507,-52.4526062011718,39.66736671969184,48.74131081884075,4196806205
sw,-83.928466796875,-53.5525207519531,42.273292192717236,59.15023275800696,4196822872
sw,-84.768081665039,-54.7155685424804,45.50134457861106,65.51637352010188,4196839539
sw,-85.6691741943359,-55.9360656738281,48.53714346807217,67.9390172970107,4196856206
sw,-86.5480499267578,-57.0954513549804,50.35687988995105,67.02782266404299,4196872873
sw,-87.2410354614257,-58.1610298156738,49.905720799271144,63.7536054779816,4196889540
sw,-87.6635971069336,-59.1409492492675,46.281114705531266,59.241356839000495,4196906207
sw,-87.8223724365234,-60.0296936035156,38.892994557325686,54.559213543560624,4196922874
sw,-87.8204040527343,-60.8262977600097,27.584158553078275,50.55286459959461,4196939541
sw,-87.7624435424804,-61.6101493835449,12.699681577453285,47.7598123896263,4196956208
sw,-87.6909027099609,-62.7160148620605,-4.907700939569864,46.40995924185196,4196972875
sw,-87.6030654907226,-63.6456985473632,-23.953501445054687,46.48469491784798,4196989542
sw,-87.4265594482421,-64.224136352539,-42.8933437002233,47.786062787708204,4197006209
sw,-86.8625717163086,-64.8307037353515,-60.18755024550653,49.98056048796974,4197022876
sw,-85.5481643676757,-65.7138671875,-74.61979508821067,52.62250531686966,4197039543
sw,-83.5298233032226,-66.8004455566406,-85.58861198159921,55.19417563198525,4197056210
sw,-81.2983474731445,-68.0382919311523,-93.26555874553176,57.19300174702441,4197072877
sw,-79.1497573852539,-69.3085632324218,-98.53397154356898,58.25503453684656,4197089544
sw,-77.0050735473632,-70.5040283203125,-102.69469457622807,58.26314010028159,4197106211
sw,-74.7969894409179,-71.5469360351562,-107.0211643812133,57.37991091245449,4197122878
sw,-72.5272979736328,-72.380126953125,-112.31484063851948,55.97644027038971,4197139545
sw,-70.3582687377929,-73.1993942260742,-118.61598676193296,54.4801108081431,4197156212
sw,-68.3909530639648,-74.12353515625,-125.1649402332592,53.206400947096874,4197172879
sw,-66.4626007080078,-75.1684494018554,-130.61734516542035,52.247469996198554,4197189546
sw,-64.290901184082,-76.2956008911132,-133.43282748535444,51.46115294559731,4197206213
sw,-62.5027618408203,-77.3843841552734,-132.30864225201745,50.55638609688365,4197222880
sw,-60.6302528381347,-78.3259201049804,-126.52863286327913,49.23111641276603,4197239547
sw,-58.7502708435058,-79.1258163452148,-116.13589874865185,47.304156239239894,4197256214
sw,-57.2761421203613,-79.8365859985351,-101.89523257928543,44.79465174579616,4197272881
sw,-56.1226997375488,-80.4505462646484,-85.07084649797905,41.92999294164421,4197289548
sw,-55.1962814331054,-81.0111541748046,-67.0959989384083,39.089855581498455,4197306215
sw,-54.5655097961425,-81.6364135742187,-49.24255513438023,36.710716640130116,4197322882
sw,-54.2316703796386,-82.3431701660156,-32.39621636446505,35.17922941372321,4197339549
sw,-54.1615829467773,-83.0417098999023,-17.002897934891543,34.7374263475974,4197356216
sw,-54.199047088623,-83.6560974121093,-3.184757194538354,35.41434426785435,4197372883
sw,-54.1869163513183,-84.2452392578125,9.047690170246403,36.993404750534346,4197389550
sw,-54.9734115600585,-84.8912048339843,19.60740333192331,39.022963715597605,4197406217
sw,-56.4502868652343,-85.6101913452148,28.273355998345796,40.87297107745829,4197422884
sw,-58.1360511779785,-86.3590087890625,34.788651501173355,41.8292345832506,4197439551
sw,-59.2536277770996,-87.0233688354492,39.03497941798073,41.20238388084065,4197456218
sw,-59.7984237670898,-87.4668807983398,41.15648471221028,38.42132422130376,4197472885
sw,-60.5054168701171,-87.6290054321289,41.5520044579714,33.08784343413291,4197489552
sw,-61.4124526977539,-87.5563201904296,40.749358986786355,24.987950313237178,4197506219
sw,-62.3078536987304,-87.3604736328125,39.24078598556853,14.076272511048893,4197522886
sw,-63.17964553833,-87.1707763671875,37.361138727039325,0.4606323121393483,4197539553
sw,-63.9574089050293,-87.003303527832,35.25480868745519,-15.591806846204607,4197556220
sw,-64.38427734375,-86.8004684448242,32.937121130045604,-33.62542226192498,4197572887
sw,-64.9279708862304,-86.4280090332031,30.420332545181108,-52.96642037725362,4197589554
sw,-65.5297546386718,-85.6053314208984,27.8428218884972,-72.7280535059466,4197606221
sw,-65.8042297363281,-84.2526016235351,25.526119650571637,-91.87802279069905,4197622888
sw,-65.9438552856445,-82.5546340942382,23.91010665184052,-109.36703165257548,4197639555
sw,-66.309341430664,-80.4740447998046,23.382739530463304,-124.28472097120247,4197656222
sw,-66.9371032714843,-78.1111679077148,24.089324108844334,-135.99177976166527,4197672889
sw,-67.8224105834961,-75.6248626708984,25.82737059652879,-144.18454411999562,4197689556
sw,-68.7444686889648,-73.0918273925781,28.089403030040422,-148.87591423883666,4197706223
sw,-69.6549682617187,-70.5231781005859,30.237883277020355,-150.30974702711654,4197722890
sw,-70.5336151123046,-67.9814147949218,31.732308984752898,-148.84888984707638,4197739557
sw,-71.3249969482421,-65.5747451782226,32.310413121374,-144.87935145785508,4197756224
sw,-71.9567260742187,-63.3374595642089,32.05503350829543,-138.7565454593602,4197772891
sw,-72.5796279907226,-61.2997245788574,31.334538771834026,-130.79593893922168,4197789558
sw,-73.3445663452148,-59.4319763183593,30.657368095026573,-121.29184578917088,4197806225
sw,-74.246826171875,-57.6767082214355,30.50523009750696,-110.53970747010919,4197822892
sw,-75.0353240966796,-56.0632362365722,31.199240978534228,-98.83871789727336,4197839559
sw,-75.6656188964843,-54.6562347412109,32.825827170809006,-86.46209192004137,4197856226
sw,-76.2839126586914,-53.5915603637695,35.22740448575367,-73.60086759378204,4197872893
sw,-76.9669952392578,-52.8509254455566,38.05355157464768,-60.30919335051167,4197889560
sw,-77.7442169189453,-52.3203163146972,40.86145867370129,-46.49292586501052,4197906227
sw,-78.6176147460937,-51.9271774291992,43.24130234512676,-31.975420431304705,4197922894
sw,-79.5367202758789,-51.6831474304199,44.92843750493872,-16.641046489827932,4197939561
sw,-80.4092102050781,-51.6587715148925,45.86273588833677,-0.6122653735060438,4197956228
sw,-81.2352981567382,-51.7623252868652,46.17222682484194,15.615083732052668,4197972895
sw,-82.0425567626953,-52.3093070983886,46.08710950790411,31.151886933849525,4197989562
sw,-82.8448715209961,-53.2595672607421,45.81714006596029,44.84707808565125,4198006229
sw,-83.6570281982421,-54.5179557800293,45.438041613054445,55.54603373005328,4198022896
sw,-84.4860534667968,-55.7470321655273,44.82695711579176,62.395442045674265,4198039563
sw,-85.3232421875,-56.9577407836914,43.66718758493023,65.08891784917978,4198056230
sw,-86.0922470092773,-58.1065101623535,41.517107477748155,63.967594185495514,4198072897
sw,-86.6897964477539,-59.1825714111328,37.91736309686026,59.943983074539766,4198089564
sw,-87.1005172729492,-60.0410995483398,32.502593881789934,54.27829667979454,4198106231
sw,-87.3652267456054,-60.7800102233886,25.090408428648466,48.28055355070972,4198122898
sw,-87.5186462402343,-61.5014915466308,15.733628944269649,43.02920635767626,4198139565
sw,-87.5988159179687,-62.0910987854003,4.731238389684946,39.186750056004506,4198156232
sw,-87.6006164550781,-62.6576423645019,-7.404992721994591,36.95760862142922,4198172899
sw,-87.3888092041015,-63.6576042175293,-20.031375751665433,36.18161193722376,4198189566
sw,-86.7955780029296,-64.6256408691406,-32.495974552385896,36.50450492888153,4198206233
sw,-85.8634185791015,-65.2708892822265,-44.28210992492532,37.54088135985614,4198222900
sw,-84.63623046875,-65.7951965332031,-55.12960981266593,38.96561350782837,4198239567
sw,-82.9616546630859,-66.4804229736328,-65.08630653925745,40.52784223967578,4198256234
sw,-81.1992034912109,-67.4612503051757,-74.4587203086988,42.03267233484503,4198272901
sw,-79.2618255615234,-68.5536041259765,-83.6656670050631,43.339110509606584,4198289568
sw,-77.0213546752929,-69.5293731689453,-93.03772461341511,44.38302261329336,4198306235
sw,-74.6609649658203,-70.3955535888671,-102.62956138966118,45.19427059288033,4198322902
sw,-72.3529357910156,-71.18994140625,-112.10814172546563,45.87405149261498,4198339569
sw,-70.1359939575195,-71.9513320922851,-120.75270930088172,46.52947876880977,4198356236
sw,-68.0679855346679,-72.8044357299804,-127.56863133501822,47.196915197308016,4198372903
sw,-66.1391296386718,-73.7525100708007,-131.48815517332224,47.79615653029771,4198389570
sw,-64.1062774658203,-74.7280654907226,-131.60941730318734,48.140155952440736,4198406237
sw,-62.158390045166,-75.6639022827148,-127.41294543679318,47.995480435489014,4198422904
sw,-60.692325592041,-76.5192794799804,-118.89874987554484,47.166923282437,4198439571
sw,-59.1240653991699,-77.3269577026367,-106.60967404218002,45.575008142315305,4198456238
sw,-57.6569595336914,-78.1194381713867,-91.53827959082909,43.30336919478614,4198472905
sw,-56.5815963745117,-78.8655624389648,-74.94023933308237,40.6045377485665,4198489572
sw,-55.8121795654296,-79.5156860351562,-58.093857481099434,37.86196911870172,4198506239
sw,-55.3415069580078,-80.0850601196289,-42.06010912667211,35.51414047189038,4198522906
sw,-55.1350364685058,-80.6448898315429,-27.508816926627215,33.95560407202418,4198539573
sw,-55.0708656311035,-81.1768798828125,-14.669363797862921,33.43865388647633,4198556240
sw,-55.1491241455078,-81.6909255981445,-3.4272850303207236,34.00327558567288,4198572907
sw,-55.2231826782226,-82.27978515625,6.471766857907956,35.45853323545589,4198589574
sw,-55.633731842041,-82.9846267700195,15.204195242213348,37.42455882257085,4198606241
sw,-56.7176399230957,-83.7841033935546,22.74294078861602,39.42350571077368,4198622908
sw,-58.1308059692382,-84.6179885864257,28.879999256898586,40.98754950598993,4198639575
sw,-59.2278137207031,-85.4092254638671,33.36386474330033,41.74252291958697,4198656242
sw,-59.7480964660644,-86.0740432739257,36.05543623205412,41.43391811609347,4198672909
sw,-60.302619934082,-86.5742874145507,37.01638773829927,39.88593085737262,4198689576
sw,-61.2215881347656,-86.9133911132812,36.50986836872655,36.914079270636755,4198706243
sw,-62.3898048400878,-87.1160888671875,34.948293802123004,32.23495960923007,4198722910
sw,-63.4043312072753,-87.2034072875976,32.82578988090362,25.42299575264785,4198739577
sw,-64.2330703735351,-87.2221603393554,30.645843522646555,15.950403708668423,4198756244
sw,-64.8653564453125,-87.1665573120117,28.843500576515662,3.3173257435300423,4198772911
sw,-65.1283950805664,-86.996841430664,27.71665583655824,-12.756029727668658,4198789578
sw,-65.6176834106445,-86.6605911254882,27.394128673570215,-32.13225712515239,4198806245
sw,-66.3147277832031,-86.0725479125976,27.853629145225725,-54.123269440150246,4198822912
sw,-66.7578201293945,-85.1344604492187,28.9695824154556,-77.47761299352342,4198839579
sw,-67.1432418823242,-83.7891235351562,30.553593235585367,-100.51323493219492,4198856246
sw,-67.7450485229492,-81.8714065551757,32.36913549804374,-121.37652827160836,4198872913
sw,-68.4703521728515,-79.4397964477539,34.13703056936688,-138.36717059059907,4198889580
sw,-69.3444290161132,-76.7467422485351,35.562856186421094,-150.24376837496632,4198906247
sw,-70.2466278076171,-73.9911956787109,36.39962885083371,-156.42843962154265,4198922914
sw,-71.1863098144531,-71.2394943237304,36.527569488145986,-157.06028935254514,4198939581
sw,-72.1135330200195,-68.6174774169921,36.01178505544818,-152.89526935903413,4198956248
sw,-72.8698043823242,-66.2893142700195,35.10103582310831,-145.09257892784922,4198972915
sw,-73.4376449584961,-64.1996536254882,34.156143886693144,-134.9510431586081,4198989582
sw,-74.0866241455078,-62.2484664916992,33.53244635841306,-123.6604111583544,4199006249
sw,-74.8942031860351,-60.4481315612793,33.465408850895265,-112.11721625083986,4199022916
sw,-75.7407302856445,-58.851390838623,34.00523131351133,-100.8303441443851,4199039583
sw,-76.5376968383789,-57.4155960083007,35.01852149037116,-89.91699823186657,4199056250
sw,-77.2410507202148,-56.0579833984375,36.24452849953101,-79.17295419890067,4199072917
sw,-77.8816986083984,-54.9233016967773,37.37912070193219,-68.19369883576438,4199089584
sw,-78.5092849731445,-54.0580711364746,38.162602648464485,-56.52257511927131,4199106251
sw,-79.181037902832,-53.481689453125,38.455214481191724,-43.80486966200793,4199122918
sw,-79.8962936401367,-53.160587310791,38.28667183518185,-29.92848381834294,4199139585
sw,-80.6461105346679,-53.0113372802734,37.86460699684671,-15.12759629025182,4199156252
sw,-81.4131546020507,-52.8682746887207,37.52965253460049,-0.01645213230645881,4199172919
sw,-82.1510238647461,-53.1981163024902,37.65744187490653,14.481574394976777,4199189586
sw,-82.8329238891601,-54.0088386535644,38.52679028566936,27.321664675519354,4199206253
sw,-83.5029678344726,-55.042984008789,40.19002832154469,37.6033275618454,4199222920
sw,-84.2357788085937,-55.975471496582,42.3873868688422,44.82343730565685,4199239587
sw,-85.0024490356445,-56.8814277648925,44.53827849224941,49.01297816111801,4199256254
sw,-85.7201690673828,-57.7863502502441,45.820611444056375,50.698057907822175,4199272921
sw,-86.3378829956054,-58.5411682128906,45.32318328773796,50.70213163085939,4199289588
sw,-86.7998580932617,-59.2635307312011,42.23533800702944,49.871157646469705,4199306255
sw,-87.0528411865234,-59.9361419677734,36.02831028969221,48.82820260947129,4199322922
sw,-87.1657943725586,-60.627155303955,26.585006543209666,47.846686440810345,4199339589
sw,-87.2317657470703,-61.5250625610351,14.24699082940206,46.884123824850576,4199356256
sw,-87.2745208740234,-62.6029396057128,-0.23481782135442036,45.75542942009657,4199372923
sw,-87.28271484375,-63.7388954162597,-15.838719410203232,44.36407057939018,4199389590
sw,-87.0814056396484,-64.707275390625,-31.470743931162254,42.875536645966804,4199406257
sw,-86.4622726440429,-65.2798538208007,-46.17345824033353,41.73585963770995,4199422924
sw,-85.4662094116211,-65.7033996582031,-59.28802661724971,41.51201308306762,4199439591
sw,-84.0963516235351,-66.2378540039062,-70.52795044146919,42.627733468905355,4199456258
sw,-82.3956909179687,-67.0159759521484,-79.95597962463704,45.13080416685585,4199472925
sw,-80.4467544555664,-68.1017761230468,-87.88631485998037,48.614804574285394,4199489592
sw,-78.2363662719726,-69.3236312866211,-94.7464202389751,52.33645837323892,4199506259
sw,-76.0256729125976,-70.5427932739257,-100.92898909145018,55.469551296188335,4199522926
sw,-73.8194427490234,-71.6939315795898,-106.658595458392,57.375813386327,4199539593
sw,-71.6596374511718,-72.6736755371093,-111.89707368355953,57.779859248909396,4199556260
sw,-69.8310623168945,-73.5308227539062,-116.31266838477795,56.79494362267172,4199572927
sw,-68.1355972290039,-74.3872680664062,-119.33267495846115,54.81891464195128,4199589594
sw,-66.3960952758789,-75.3334732055664,-120.28228505598062,52.36685775430077,4199606261
sw,-64.4290695190429,-76.3375091552734,-118.58183882885618,49.91193054909686,4199622928
sw,-62.5621147155761,-77.2581939697265,-113.93960428970102,47.778958894702015,4199639595
sw,-61.0176391601562,-78.0649185180664,-106.46227415708499,46.10167995171051,4199656262
sw,-59.657371520996,-78.8013305664062,-96.63269792814421,44.83413446340309,4199672929
sw,-58.5237388610839,-79.5111389160156,-85.16538338381854,43.802188255702404,4199689596
sw,-57.4994430541992,-80.2391662597656,-72.80676308492131,42.7821955502202,4199706263
sw,-56.5868339538574,-81.0207595825195,-60.16440049579906,41.590915121990854,4199722930
sw,-55.9566307067871,-81.8118515014648,-47.62356577247109,40.16379555366177,4199739597
sw,-55.5870246887207,-82.5053253173828,-35.36443713727902,38.59524107297796,4199756264
sw,-55.3689613342285,-83.0818557739257,-23.45475131736569,37.12223335373799,4199772931
sw,-55.3239135742187,-83.6167831420898,-11.971494207064067,36.051992312465714,4199789598
sw,-55.428482055664,-84.1932296752929,-1.0986899891355055,35.65596757163737,4199806265
sw,-55.9333572387695,-84.7866897583007,8.844238645565891,36.06430349746277,4199822932
sw,-56.930736541748,-85.3958053588867,17.46237017227032,37.1917830441793,4199839599
sw,-57.9531173706054,-86.0279846191406,24.408350837544837,38.71235896960768,4199856266
sw,-58.8603706359863,-86.6025238037109,29.504547249157447,40.08296982559883,4199872933
sw,-59.4598922729492,-87.0518417358398,32.797021231016735,40.60510572036785,4199889600
sw,-60.0140380859375,-87.3608474731445,34.51563349587102,39.50793228505708,4199906267
sw,-60.986328125,-87.5386810302734,34.972726915371865,36.0390975172389,4199922934
sw,-62.0773582458496,-87.5843505859375,34.464272310141546,29.554347411234016,4199939601
sw,-63.0448951721191,-87.5606460571289,33.22253528676011,19.600590918509262,4199956268
sw,-63.9470672607421,-87.5464859008789,31.427874565180325,5.988694135082314,4199972935
sw,-64.5159683227539,-87.4971237182617,29.254465759589632,-11.146745420596472,4199989602
sw,-64.8377532958984,-87.3487854003906,26.917229887953805,-31.30486134476693,4200006269
sw,-65.4496154785156,-86.9887084960937,24.695527294326737,-53.60439569654133,4200022936
sw,-65.9436416625976,-86.2270584106445,22.917876137201013,-76.81878296960677,4200039603
sw,-66.1299591064453,-84.9749221801757,21.900439105574257,-99.48264760566116,4200056270
sw,-66.3386535644531,-83.085708618164,21.850918941030937,-120.07469511866641,4200072937
sw,-66.8657836914062,-80.5894012451171,22.77691247473384,-137.2479570310341,4200089604
sw,-67.6701202392578,-77.8433837890625,24.45111841791648,-150.04544466759458,4200106271
sw,-68.6274185180664,-75.1400070190429,26.466601035192227,-158.03143081757773,4200122938
sw,-69.5049591064453,-72.4462814331054,28.371859343957368,-161.2968258895882,4200139605
sw,-70.3590011596679,-69.8273773193359,29.83400588319747,-160.34725272916663,4200156272
sw,-71.1417770385742,-67.3704681396484,30.761369956781678,-155.92466167502693,4200172939
sw,-71.747329711914,-65.0992889404296,31.332020958473393,-148.8265938375094,4200189606
sw,-72.3873062133789,-62.9542236328125,31.91455271125295,-139.7720952741442,4200206273
sw,-73.0810241699218,-60.9254913330078,32.913129697575286,-129.33376956620722,4200222940
sw,-73.7909545898437,-59.0616569519043,34.59883206692981,-117.92615142689692,4200239607
sw,-74.6199645996093,-57.4028854370117,36.9914760530296,-105.82275532144718,4200256274
sw,-75.4259185791015,-55.9017639160156,39.83307323554724,-93.1743730982251,4200272941
sw,-76.2304229736328,-54.5859642028808,42.65909932846841,-80.01742158327751,4200289608
sw,-77.0734252929687,-53.589069366455,44.94130317843155,-66.28268060472901,4200306275
sw,-77.9868392944336,-52.9127197265625,46.255094505922315,-51.829030406527934,4200322942
sw,-78.9302902221679,-52.4335594177246,46.41831604849769,-36.52506933877612,4200339609
sw,-79.8459243774414,-52.1460189819335,45.55646833046737,-20.38011742567216,4200356276
sw,-80.6940536499023,-51.8960037231445,44.071676414842415,-3.68943378136238,4200372943
sw,-81.4763870239257,-51.8044662475585,42.52419357094307,12.876125514184956,4200389610
sw,-82.2167129516601,-52.4263610839843,41.46476706433996,28.31087025163945,4200406277
sw,-82.9712524414062,-53.6032104492187,41.27102552100011,41.475945710701204,4200422944
sw,-83.7875061035156,-54.873550415039,42.03525588688197,51.41006590265517,4200439611
sw,-84.671157836914,-56.0340576171875,43.52871004352326,57.625812868005475,4200456278
sw,-85.5788879394531,-57.1028861999511,45.24011772457552,60.26006714985657,4200472945
sw,-86.3874053955078,-57.9811706542968,46.46569277945211,60.01294381002523,4200489612
sw,-87.0288925170898,-58.8298416137695,46.422238565295565,57.906665547662655,4200506279
sw,-87.4925079345703,-59.6652565002441,44.36304379841996,54.96781154344767,4200522946
sw,-87.7912292480468,-60.483039855957,39.68899050318903,51.95477906564375,4200539613
sw,-87.9503479003906,-61.2136917114257,32.053158921976355,49.22335614660228,4200556280
sw,-87.9843292236328,-62.1055870056152,21.45049932138511,46.76787045644679,4200572947
sw,-88.001594543457,-63.1044654846191,8.269846800203377,44.40997274115277,4200589614
sw,-88.0673065185546,-64.3029632568359,-6.72318406227932,42.04513726455525,4200606281
sw,-88.0807189941406,-65.1228408813476,-22.49502066195387,39.82172941826754,4200622948
sw,-87.7457122802734,-65.4439163208007,-37.93926539000659,38.14939681007728,4200639615
sw,-86.9592132568359,-65.7256851196289,-52.11681766043022,37.52028654460239,4200656282
sw,-85.5507125854492,-66.2236557006836,-64.47283154749115,38.23668459483271,4200672949
sw,-83.7519149780273,-67.0839309692382,-74.95765861926569,40.1998537251135,4200689616
sw,-81.9081802368164,-68.2530364990234,-84.00115224230974,42.88202530104295,4200706283
sw,-79.9594268798828,-69.3516235351562,-92.33494654057205,45.49898124068029,4200722950
sw,-77.7755355834961,-70.3365936279296,-100.71061249562442,47.294925409129355,4200739617
sw,-75.452651977539,-71.2918472290039,-109.59994004512072,47.80592977773113,4200756284
sw,-73.1189270019531,-72.1445922851562,-118.97081088210496,46.995516929133736,4200772951
sw,-70.8245239257812,-72.9118347167968,-128.20916421615507,45.225160063330236,4200789618
sw,-68.5051040649414,-73.6228866577148,-136.21498383882368,43.0928935237418,4200806285
sw,-66.2218475341796,-74.3774948120117,-141.64874280496932,41.217259810197284,4200822952
sw,-63.9946784973144,-75.230239868164,-143.2575958236242,40.05046819776559,4200839619
sw,-61.8967514038085,-76.0702209472656,-140.1850715219559,39.77776459782197,4200856286
sw,-59.9346923828125,-76.8387145996093,-132.17543557671786,40.316956206510866,4200872953
sw,-58.1812858581543,-77.582046508789,-119.62077551299541,41.395088982694894,4200889620
sw,-56.6857643127441,-78.3495941162109,-103.45003777360918,42.66181808676638,4200906287
sw,-55.5165634155273,-79.126594543457,-84.9069299033809,43.79982361659909,4200922954
sw,-54.6678390502929,-79.8803482055664,-65.29315674245328,44.6032549662956,4200939621
sw,-54.0172843933105,-80.6501922607421,-45.75578203722093,45.00916484695055,4200956288
sw,-53.6991653442382,-81.4181900024414,-27.171324016881396,45.08105490421388,4200972955
sw,-53.5291328430175,-82.1475219726562,-10.133918601022444,44.9554613599069,4200989622
sw,-53.85205078125,-82.868293762207,4.989132569261641,44.76982502841337,4201006289
sw,-54.921100616455,-83.5994186401367,17.989507959475496,44.591948232047145,4201022956
sw,-56.3187713623046,-84.394790649414,28.77344411900732,44.368274640424985,4201039623
sw,-57.5597953796386,-85.2025375366211,37.33618468332284,43.90085648189576,4201056290
sw,-58.4167594909668,-85.9207611083984,43.72855554074744,42.853821568301974,4201072957
sw,-59.2524261474609,-86.4719696044921,48.00814516235609,40.78374528555548,4201089624
sw,-60.3736190795898,-86.8545303344726,50.20534436564551,37.18746076114761,4201106291
sw,-61.7561111450195,-87.1458358764648,50.344162184845295,31.563586225759312,4201122958
sw,-62.9153251647949,-87.3459091186523,48.523202059315885,23.484957368220897,4201139625
sw,-64.0527420043945,-87.3674545288086,45.01622007684897,12.675268159832994,4201156292
sw,-65.1315612792968,-87.1844329833984,40.335259750066314,-0.9220567355788646,4201172959
sw,-65.5334014892578,-86.8476867675781,35.217982203987354,-17.095715511505194,4201189626
sw,-65.9179382324218,-86.3880004882812,30.53121755552603,-35.34799134152875,4201206293
sw,-66.3303680419921,-85.8148880004882,27.107081350551503,-54.91037226755009,4201222960
sw,-66.5946350097656,-85.0171279907226,25.54661323332405,-74.79689788839926,4201239627
sw,-67.0141677856445,-83.832893371582,26.044663359432068,-93.89848626392016,4201256294
sw,-67.7054138183593,-82.153450012207,28.302953213773367,-111.11530434336667,4201272961
sw,-68.5438385009765,-80.0007629394531,31.58623978775197,-125.50917800923504,4201289628
sw,-69.5272674560546,-77.4886169433593,34.927669011747014,-136.44030893533656,4201306295
sw,-70.5560607910156,-74.9322204589843,37.42224228736914,-143.64578016995074,4201322962
sw,-71.4999923706054,-72.4303207397461,38.500558984015065,-147.23218814240218,4201339629
sw,-72.295783996582,-69.9227142333984,38.07739593028549,-147.58732005137819,4201356296
sw,-73.081802368164,-67.4596786499023,36.52197204413583,-145.2469269608176,4201372963
sw,-73.5425262451171,-65.1264190673828,34.47342341165155,-140.76322105295097,4201389630
sw,-74.2934951782226,-62.9448928833007,32.588453303650184,-134.60948450851092,4201406297
sw,-75.0812606811523,-60.8946838378906,31.327523146228486,-127.13338761185999,4201422964
sw,-75.8975601196289,-58.9346504211425,30.853889742898936,-118.55343967644377,4201439631
sw,-76.5666961669921,-57.1070365905761,31.05815858339099,-108.9826758879624,4201456298
sw,-77.1693420410156,-55.4292411804199,31.667391564530906,-98.46101454200236,4201472965
sw,-77.8126525878906,-54.0256958007812,32.377855122665245,-86.9832579849706,4201489632
sw,-78.4677658081054,-52.9021682739257,32.96231531754575,-74.52242303277197,4201506299
sw,-79.0984954833984,-52.0070838928222,33.327509768641995,-61.06100515668983,4201522966
sw,-79.7143630981445,-51.3334503173828,33.51923528452478,-46.644965774843996,4201539633
sw,-80.3477096557617,-50.862979888916,33.68631579312252,-31.460518114489314,4201556300
sw,-81.0042724609375,-50.6142311096191,34.02140897602495,-15.908247981786811,4201572967
sw,-81.6962203979492,-50.4528121948242,34.697669105775276,-0.6293117412611702,4201589634
sw,-82.4243621826171,-50.7960205078125,35.8168641755181,13.558078750491157,4201606301
sw,-83.1783828735351,-51.5783653259277,37.377938903836444,25.819411530537064,4201622968
sw,-83.9051284790039,-52.5507202148437,39.26712497792817,35.516090581000505,4201639635
sw,-84.5747985839843,-53.3848991394043,41.2643343049814,42.382943333591804,4201656302
sw,-85.2186126708984,-54.1448669433593,43.05833724212421,46.59020165054533,4201672969
sw,-85.8268356323242,-54.8990173339843,44.2655964759717,48.66323016048767,4201689636
sw,-86.3788528442382,-55.7356262207031,44.45275934324273,49.301520213998145,4201706303
sw,-86.8831634521484,-56.6797485351562,43.16810000749109,49.17759706610752,4201722970
sw,-87.3303909301757,-57.6713600158691,39.98979871338548,48.78947234799474,4201739637
sw,-87.6380233764648,-58.574535369873,34.59551287646221,48.40290199259556,4201756304
sw,-87.7540664672851,-59.4860649108886,26.84639239827869,48.079955441907934,4201772971
sw,-87.703987121582,-60.3615913391113,16.86271588127684,47.765589317056495,4201789638
sw,-87.6356964111328,-61.2412796020507,5.056661455255746,47.394316294222484,4201806305
sw,-87.6133728027343,-62.3320083618164,-7.909243660312481,46.97741531294801,4201822972
sw,-87.487678527832,-63.1076583862304,-21.247586759671517,46.63547344140639,4201839639
sw,-87.1036300659179,-63.6878929138183,-34.23149932203964,46.55805200545351,4201856306
sw,-86.3219299316406,-64.3606414794921,-46.38577960260934,46.905717192950156,4201872973
sw,-85.0305938720703,-65.251724243164,-57.61550996404813,47.70532352416814,4201889640
sw,-83.3871612548828,-66.3545608520507,-68.21326365721589,48.800188992235505,4201906307
sw,-81.6226730346679,-67.5292510986328,-78.72045269076737,49.88933345334227,4201922974
sw,-79.8016891479492,-68.6499557495117,-89.67223989097654,50.64062814492619,4201939641
sw,-77.8208389282226,-69.6710739135742,-101.30874039588592,50.82354027507169,4201956308
sw,-75.7378768920898,-70.5837249755859,-113.35974284661421,50.40007382112427,4201972975
sw,-73.5997695922851,-71.4311294555664,-124.9897721117701,49.53671123861084,4201989642
sw,-71.4157333374023,-72.2976150512695,-134.93383654528535,48.53812739662063,4202006309
sw,-69.275390625,-73.1902770996093,-141.78740706003916,47.73525155927418,4202022976
sw,-67.0802536010742,-74.0894927978515,-144.36266782454038,47.37392533658981,4202039643
sw,-64.7881317138671,-75.0537490844726,-142.00197453590343,47.5440734018964,4202056310
sw,-62.8158569335937,-76.0263214111328,-134.75268714118036,48.16862886360425,4202072977
sw,-61.0599784851074,-76.9293365478515,-123.3507499780355,49.04646951686151,4202089644
sw,-59.3785247802734,-77.8244171142578,-109.02075850514723,49.925182803350275,4202106311
sw,-57.9945220947265,-78.721076965332,-93.15693213537466,50.574221303793415,4202122978
sw,-56.9532737731933,-79.5857238769531,-76.98342503404079,50.83603766434187,4202139645
sw,-56.1591567993164,-80.4243087768554,-61.29731295259447,50.64606188141212,4202156312
sw,-55.6097221374511,-81.2487106323242,-46.37553085721539,50.02546328419714,4202172979
sw,-55.2588310241699,-82.1181259155273,-32.07960818371198,49.058488489193266,4202189646
sw,-55.0584564208984,-83.0107955932617,-18.123922708896487,47.865899022467936,4202206313
sw,-54.8726119995117,-83.8534088134765,-4.402321906461143,46.57936060058583,4202222980
sw,-55.1357994079589,-84.6007995605468,8.773376930329386,45.3151163258486,4202239647
sw,-56.2289657592773,-85.299934387207,20.647651564493923,44.14469326618807,4202256314
sw,-57.6782836914062,-86.0235977172851,30.238786514712203,43.06449768725004,4202272981
sw,-59.0676956176757,-86.7345809936523,36.703764292850614,41.96836264800911,4202289648
sw,-59.7718620300293,-87.3377304077148,39.6744410097132,40.62434320663066,4202306315
sw,-60.2775344848632,-87.7047576904296,39.41189630021709,38.654570223610065,4202322982
sw,-61.1365242004394,-87.8141250610351,36.73221194320979,35.52220970496796,4202339649
sw,-62.0270042419433,-87.7719116210937,32.76545380173712,30.542006118744883,4202356316
sw,-62.7974548339843,-87.7049331665039,28.65550355801859,22.939885984760906,4202372983
sw,-63.3147277832031,-87.6311492919921,25.295389446763508,11.980318695298717,4202389650
sw,-63.6427459716796,-87.5392379760742,23.163272239509244,-2.8455006085051227,4202406317
sw,-64.0102920532226,-87.4797439575195,22.29818576697193,-21.611592329499896,4202422984
sw,-64.4912643432617,-87.3570709228515,22.418408381597192,-43.794496735017105,4202439651
sw,-65.2282562255859,-86.8534698486328,23.13079037760415,-68.22165085767799,4202456318
sw,-65.6329574584961,-85.7470245361328,24.132101471449634,-93.17104764785374,4202472985
sw,-65.8918380737304,-84.067626953125,25.30522988305069,-116.61974351789843,4202489652
sw,-66.2941207885742,-81.7534027099609,26.676550557620295,-136.59268456679115,4202506319
sw,-67.0001449584961,-78.9817199707031,28.285990712576787,-151.52787257151974,4202522986
sw,-68.0134963989257,-76.0901489257812,30.066491060956004,-160.56188282076016,4202539653
sw,-68.9852905273437,-73.162483215332,31.807943800933455,-163.6588134307657,4202556320
sw,-69.8293838500976,-70.2929306030273,33.21931022027583,-161.55126801643422,4202572987
sw,-70.6705474853515,-67.6885986328125,34.047881559010754,-155.51607060443635,4202589654
sw,-71.4903335571289,-65.4090576171875,34.19268876897115,-147.05016548107443,4202606321
sw,-72.0659561157226,-63.3869514465332,33.75960400478091,-137.53315699420057,4202622988
sw,-72.746597290039,-61.481143951416,33.036776424372746,-127.9604087187382,4202639655
sw,-73.5595932006836,-59.6094093322753,32.405173345675145,-118.80563911211503,4202656322
sw,-74.4122314453125,-57.7899932861328,32.22296667083669,-110.03009879743024,4202672989
sw,-75.2352218627929,-56.0447616577148,32.72470443645251,-101.21081773364116,4202689656
sw,-75.9640655517578,-54.4580345153808,33.96242703072159,-91.73124685329829,4202706323
sw,-76.6546173095703,-53.2181015014648,35.79933937866483,-80.97498027117136,4202722990
sw,-77.3474502563476,-52.3294486999511,37.9542453651263,-68.48383202347031,4202739657
sw,-78.0752792358398,-51.6701354980468,40.085019955421544,-54.06927072878834,4202756324
sw,-78.8467712402343,-51.1622657775878,41.88933546951287,-37.88163998079013,4202772991
sw,-79.6669387817382,-50.7569351196289,43.192899928443744,-20.435912641181936,4202789658
sw,-80.4872283935546,-50.7243576049804,43.99527571237633,-2.5771332138256757,4202806325
sw,-81.2901840209961,-51.2217941284179,44.45458166051136,14.63314200910269,4202822992
sw,-82.0247497558593,-52.0237045288085,44.812721974883154,30.102763104221868,4202839659
sw,-82.7334518432617,-52.964054107666,45.28440317653203,42.921549220156436,4202856326
sw,-83.4570770263671,-53.9009552001953,45.94672394570733,52.53269442651739,4202872993
sw,-84.210205078125,-54.9259567260742,46.665488546353814,58.809435637348244,4202889660
sw,-84.9608306884765,-56.0126190185546,47.08029773876916,62.02438227143447,4202906327
sw,-85.6858444213867,-57.0626945495605,46.650287578092176,62.739320050231434,4202922994
sw,-86.3317947387695,-58.1299171447753,44.745644688729065,61.66234251624188,4202939661
sw,-86.8277587890625,-59.2200775146484,40.76243294907663,59.51481763919691,4202956328
sw,-87.1459732055664,-60.2019577026367,34.23922434167965,56.93410643862631,4202972995
sw,-87.3831176757812,-61.1159057617187,24.958765628360684,54.42139828313262,4202989662
sw,-87.5439376831054,-62.0772476196289,13.021346746491473,52.33236302172869,4203006329
sw,-87.5633010864257,-63.1932029724121,-1.1235534723007088,50.8980253954628,4203022996
sw,-87.4070129394531,-64.2717971801757,-16.702358015813285,50.25160007877465,4203039663
sw,-87.0484619140625,-64.9030227661132,-32.712245398996274,50.43296100942799,4203056330
sw,-86.416145324707,-65.4702835083007,-48.08768835090347,51.36032890116222,4203072997
sw,-85.2864456176757,-66.3110733032226,-61.916972920571396,52.794698296771486,4203089664
sw,-83.579116821289,-67.4470748901367,-73.65437934063073,54.345985953338115,4203106331
sw,-81.5624618530273,-68.7795944213867,-83.24864117773856,55.55248322214842,4203122998
sw,-79.4487991333007,-70.0375595092773,-91.11613496674548,56.014909655764164,4203139665
sw,-77.2992630004882,-71.0880508422851,-97.94086554060321,55.52309131966493,4203156332
sw,-75.0859756469726,-72.0439910888671,-104.36268946617523,54.11112469056783,4203172999
sw,-72.7908782958984,-72.9197158813476,-110.67479698334012,52.01572879637022,4203189666
sw,-70.5976104736328,-73.7705001831054,-116.65396681100154,49.56344133954715,4203206333
sw,-68.5619735717773,-74.6460876464843,-121.59147342799548,47.04411778885562,4203223000
sw,-66.6677017211914,-75.5521163940429,-124.51019107567805,44.62746622710713,4203239667
sw,-64.5721588134765,-76.5098648071289,-124.48241650262563,42.35230377926694,4203256334
sw,-62.7787361145019,-77.4141082763671,-120.92874263180433,40.181470794639026,4203273001
sw,-61.0982437133789,-78.2300109863281,-113.79115056098266,38.086448661096604,4203289668
sw,-59.6083679199218,-78.9340591430664,-103.52772171953823,36.116417068535036,4203306335
sw,-58.4036178588867,-79.4969711303711,-90.9487830399402,34.41867552040335,4203323002
sw,-57.4139747619628,-79.957778930664,-76.97304033082547,33.20324263043106,4203339669
sw,-56.5946731567382,-80.4554214477539,-62.404146836629465,32.670625238986,4203356336
sw,-55.9201469421386,-81.0427017211914,-47.808238451202385,32.935591988799715,4203373003
sw,-55.5308876037597,-81.6999130249023,-33.52312261617156,33.97613939555689,4203389670
sw,-55.4070663452148,-82.3742980957031,-19.772029944618655,35.62114593289256,4203406337
sw,-55.3724479675293,-83.0330047607421,-6.811159958732997,37.57391538824832,4203423004
sw,-55.8501739501953,-83.678482055664,4.974246451520982,39.459981312158526,4203439671
sw,-57.0285949707031,-84.3731918334961,15.086879659689021,40.885843256466856,4203456338
sw,-58.5250930786132,-85.1448593139648,23.04835708164966,41.495456154973404,4203473005
sw,-59.5921516418457,-85.9447937011718,28.57491805806308,41.01007681636242,4203489672
sw,-60.1532859802246,-86.6828842163086,31.698027443656503,39.23683306823833,4203506339
sw,-60.7613449096679,-87.2343063354492,32.76751919240995,36.0374785616875,4203523006
sw,-61.5566520690918,-87.5287628173828,32.349396830244515,31.26373885675163,4203539673
sw,-62.3994941711425,-87.6214218139648,31.080119328659613,24.685037346679028,4203556340
sw,-63.2873382568359,-87.6276016235351,29.535968169221434,15.947895867330288,4203573007
sw,-64.0440063476562,-87.5220413208007,28.144865571643518,4.603638633815843,4203589674
sw,-64.5673828125,-87.2599792480468,27.145960739003964,-9.780539096418314,4203606341
sw,-64.8003387451171,-86.8156814575195,26.598746638665222,-27.444498703198512,4203623008
sw,-65.4413223266601,-86.1403427124023,26.441038440145185,-48.23896695184112,4203639675
sw,-66.0831832885742,-85.1857833862304,26.577313115832727,-71.47324549110654,4203656342
sw,-66.3678817749023,-83.9445037841796,26.954490815040227,-95.86886913870195,4203673009
sw,-66.8356246948242,-82.1942825317382,27.581035984509857,-119.66203752232188,4203689676
sw,-67.4635848999023,-79.755874633789,28.48138117440815,-140.85892113196627,4203706343
sw,-68.2627258300781,-76.871597290039,29.625225904540194,-157.5951181078849,4203723010
sw,-69.2465209960937,-73.7403869628906,30.890112303519977,-168.5033458151664,4203739677
sw,-70.1995468139648,-70.5652618408203,32.09216105127043,-172.97826070490154,4203756344
sw,-71.1533508300781,-67.5528106689453,33.072881916091205,-171.2566250697402,4203773011
sw,-72.0893249511718,-64.9296951293945,33.79046908155845,-164.29298168390542,4203789678
sw,-72.7950897216796,-62.7194747924804,34.35595570906874,-153.47881225603848,4203806345
sw,-73.3537979125976,-60.7482032775878,34.98411219388491,-140.30046808275515,4203823012
sw,-73.9705047607421,-58.9016876220703,35.87955299463924,-126.04066245708435,4203839679
sw,-74.7467422485351,-57.156867980957,37.11815354318641,-111.59760018897276,4203856346
sw,-75.5946884155273,-55.5431404113769,38.586539292528386,-97.44115832880891,4203873013
sw,-76.4274139404296,-54.0632934570312,40.00907015871395,-83.67496895152186,4203889680
sw,-77.2031707763671,-52.7936134338378,41.04785284992481,-70.14971111786357,4203906347
sw,-77.9950637817382,-51.9299659729003,41.432767342232225,-56.58164602747231,4203923014
sw,-78.7839736938476,-51.4379539489746,41.07343997133599,-42.65909264746524,4203939681
sw,-79.5257110595703,-51.1396980285644,40.11667703210409,-28.145743341703806,4203956348
sw,-80.2662506103515,-51.0592765808105,38.93146970257385,-12.992107935580357,4203973015
sw,-81.0129241943359,-50.8825721740722,38.023172888151564,2.5601756839785854,4203989682
sw,-81.7480773925781,-51.1845512390136,37.89549396552714,17.930809352004516,4204006349
sw,-82.4783020019531,-52.0764579772949,38.89164205261817,32.265459906309026,4204023016
sw,-83.2084655761718,-53.3220825195312,41.053404411030044,44.62458801275348,4204039683
sw,-83.9802780151367,-54.4020843505859,44.03738454712649,54.23775888668808,4204056350
sw,-84.8094100952148,-55.471939086914,47.11850332623203,60.71867535002026,4204073017
sw,-85.6486434936523,-56.6223831176757,49.29130237242554,64.15131988137705,4204089684
sw,-86.4274139404296,-57.5752029418945,49.453707045275394,65.02195551666202,4204106351
sw,-87.0773849487304,-58.5169639587402,46.634118248038874,64.04133457991368,4204123018
sw,-87.5446548461914,-59.4617767333984,40.20925903173387,61.94001092290402,4204139685
sw,-87.809829711914,-60.3943786621093,30.060801432544412,59.317094181525086,4204156352
sw,-87.9282150268554,-61.3979988098144,16.631953987146645,56.58838074377479,4204173019
sw,-87.9912414550781,-62.4092369079589,0.8668274510896972,54.0305524744993,4204189686
sw,-87.9957275390625,-63.5252265930175,-15.958878610042257,51.87262696416607,4204206353
sw,-87.743537902832,-64.4754562377929,-32.482170130845034,50.36258486407119,4204223020
sw,-87.0751724243164,-65.1811752319336,-47.51928592472324,49.75169209817485,4204239687
sw,-85.9643478393554,-65.8436889648437,-60.294095239481564,50.192322902377846,4204256354
sw,-84.3825988769531,-66.687873840332,-70.57404486168623,51.6099660361457,4204273021
sw,-82.5637283325195,-67.7702713012695,-78.67703775934358,53.64112297194587,4204289688
sw,-80.6997604370117,-69.0838088989257,-85.33908803282144,55.69834164781016,4204306355
sw,-78.6373596191406,-70.3507003784179,-91.46621778878993,57.149347966118874,4204323022
sw,-76.43408203125,-71.4486083984375,-97.82987692213204,57.52949397824537,4204339689
sw,-74.177978515625,-72.4098892211914,-104.79072936748705,56.68857521606467,4204356356
sw,-71.8558959960937,-73.2730636596679,-112.13661225623669,54.810686065280414,4204373023
sw,-69.6925735473632,-74.1219253540039,-119.09093661154274,52.31074211915952,4204389690
sw,-67.6939392089843,-75.0101089477539,-124.49577052514448,49.6652906741036,4204406357
sw,-65.6945495605468,-75.9648284912109,-127.11808770272437,47.253906017875615,4204423024
sw,-63.7499122619628,-76.9482269287109,-125.98778774067527,45.269164806310236,4204439691
sw,-61.7864799499511,-77.8228454589843,-120.66447910288065,43.714243551885446,4204456358
sw,-60.1628875732421,-78.5974731445312,-111.35104170409204,42.470032169172164,4204473025
sw,-58.7975463867187,-79.3538208007812,-98.8217289325655,41.39355770599329,4204489692
sw,-57.5807075500488,-80.1031799316406,-84.19525233107011,40.40794362364661,4204506359
sw,-56.6721038818359,-80.8091812133789,-68.63443572616433,39.55405321291701,4204523026
sw,-56.017333984375,-81.4673309326171,-53.074344225907275,38.989205499036224,4204539693
sw,-55.5859146118164,-82.1521224975586,-38.06647360520327,38.935636595509614,4204556360
sw,-55.3752288818359,-82.8809051513671,-23.785160975457085,39.59646401006319,4204573027
sw,-55.3631019592285,-83.6107635498046,-10.18482237147297,41.06475326780962,4204589694
sw,-55.3671188354492,-84.3100433349609,2.7624236547088854,43.25074840269898,4204606361
sw,-55.711082458496,-85.0412521362304,14.858229091132868,45.84665013743616,4204623028
sw,-56.7829322814941,-85.8454132080078,25.602989496811187,48.33992217638747,4204639695
sw,-58.1733093261718,-86.7070541381836,34.299083930361334,50.074359383062884,4204656362
sw,-59.4909553527832,-87.5095901489257,40.28646596982804,50.34393568408127,4204673029
sw,-60.3404464721679,-88.0489654541015,43.19722812261449,48.4938162901556,4204689696
sw,-61.0683326721191,-88.2027816772461,43.11549690384713,44.00319248961434,4204706363
sw,-62.0444908142089,-88.0525817871093,40.58853197158028,36.53681132514015,4204723030
sw,-62.9207878112793,-87.8099136352539,36.505133540581035,25.96850991116806,4204739697
sw,-63.7237663269043,-87.6268615722656,31.897847084129136,12.38985808866997,4204756364
sw,-64.4276962280273,-87.5184860229492,27.733007706569502,-3.8854379058626587,4204773031
sw,-64.6697921752929,-87.4736938476562,24.743260825401446,-22.321820576979373,4204789698
sw,-65.1718444824218,-87.3600311279296,23.337697520563175,-42.177492821561756,4204806365
sw,-65.9133224487304,-86.9931335449218,23.594187404245837,-62.54723692238172,4204823032
sw,-66.4569015502929,-86.1965103149414,25.306853896011912,-82.43605697889365,4204839699
sw,-66.8161697387695,-84.8951187133789,28.05181370535167,-100.85563565510573,4204856366
sw,-67.4671936035156,-83.1562805175781,31.255972875589006,-116.92723080028644,4204873033
sw,-68.3017425537109,-81.0276718139648,34.28254760915361,-129.97188835345565,4204889700
sw,-69.2637176513671,-78.5521240234375,36.548127009525174,-139.5706219147391,4204906367
sw,-70.2375564575195,-76.0149459838867,37.656041387956876,-145.58272800250612,4204923034
sw,-71.1384353637695,-73.4820709228515,37.50020397079255,-148.12047342375007,4204939701
sw,-71.9324264526367,-70.9544830322265,36.29173168540765,-147.49142725103616,4204956368
sw,-72.697998046875,-68.5212707519531,34.48991360442565,-144.12851154669625,4204973035
sw,-73.4077377319336,-66.2733840942382,32.659435472385574,-138.52559513147827,4204989702
sw,-74.1513748168945,-64.2621383666992,31.30364604188274,-131.18595466752566,4205006369
sw,-74.8921813964843,-62.4017372131347,30.72763205890826,-122.5821926900444,4205023036
sw,-75.5952377319336,-60.6612396240234,30.96901696669567,-113.12456380484056,4205039703
sw,-76.3067321777343,-59.0326347351074,31.81046154010993,-103.13654084007106,4205056370
sw,-77.0370864868164,-57.5113258361816,32.86527520101858,-92.83708912030673,4205073037
sw,-77.8094177246093,-56.1176948547363,33.70977487598741,-82.32913693931498,4205089704
sw,-78.6056137084961,-54.9509811401367,34.02383003238215,-71.59655495465341,4205106371
sw,-79.3639450073242,-54.0915451049804,33.69700963542092,-60.518016333757686,4205123038
sw,-80.0255355834961,-53.511173248291,32.866137490867644,-48.91080927385881,4205139705
sw,-80.6094741821289,-53.0571212768554,31.871965789818386,-36.61354446480782,4205156372
sw,-81.1922149658203,-52.6825332641601,31.151489748971517,-23.598944814545202,4205173039
sw,-81.819953918457,-52.3566093444824,31.105048145431375,-10.081648605345666,4205189706
sw,-82.4755401611328,-52.3393440246582,31.982519959487597,3.431807023509927,4205206373
sw,-83.1390762329101,-52.7968559265136,33.81988630142841,16.194023401038592,4205223040
sw,-83.8250579833984,-53.5024108886718,36.435668106417936,27.371399892554436,4205239707
sw,-84.55712890625,-54.2709617614746,39.47710726353239,36.25400189997187,4205256374
sw,-85.3245468139648,-55.028392791748,42.49357010453584,42.4430810387799,4205273041
sw,-86.0738449096679,-55.8515281677246,45.0101673731292,45.94948944210957,4205289708
sw,-86.7772979736328,-56.7177429199218,46.57834520431827,47.1766956963131,4205306375
sw,-87.3850631713867,-57.5775260925293,46.79233661987011,46.80551260250839,4205323042
sw,-87.8637542724609,-58.3899574279785,45.27795289324147,45.623867375511594,4205339709
sw,-88.193115234375,-59.0789527893066,41.67657583707485,44.35140335657999,4205356376
sw,-88.3545608520507,-59.7470741271972,35.65442627282204,43.50347299878329,4205373043
sw,-88.3429412841796,-60.5458450317382,26.959408104493246,43.3276311552797,4205389710
sw,-88.1976699829101,-61.4338226318359,15.524737881741567,43.825707224650316,4205406377
sw,-88.0242385864257,-62.4279632568359,1.5877455374096552,44.844136724363544,4205423044
sw,-87.9412002563476,-63.416748046875,-14.232004756022384,46.18505051371935,4205439711
sw,-87.8843765258789,-63.9841423034668,-30.95395424837216,47.68183024249395,4205456378
sw,-87.7451934814453,-64.5126342773437,-47.38999908188682,49.208639238847184,4205473045
sw,-87.1413116455078,-65.301284790039,-62.412866638513016,50.640677884371,4205489712
sw,-85.6097412109375,-66.3473968505859,-75.26308674718238,51.815709093638304,4205506379
sw,-83.591796875,-67.5310134887695,-85.7758395566611,52.54120763852169,4205523046
sw,-81.4837341308593,-68.6962585449218,-94.41386474654965,52.65242934292069,4205539713
sw,-79.4159164428711,-69.7683334350586,-102.06045905013119,52.08709431522292,4205556380
sw,-77.288703918457,-70.7805252075195,-109.63390322921114,50.92962816675359,4205573047
sw,-74.8373489379882,-71.6514434814453,-117.67295469668201,49.39600594821767,4205589714
sw,-72.3527908325195,-72.4191741943359,-126.0595735431681,47.76392182061112,4205606381
sw,-70.0339202880859,-73.2476425170898,-133.98353260301226,46.281622810160485,4205623048
sw,-67.8484191894531,-74.1769485473632,-140.15395377185686,45.09745055335635,4205639715
sw,-65.704345703125,-75.1741561889648,-143.17474591940524,44.23792161912008,4205656382
sw,-63.5908393859863,-76.1528091430664,-141.95318351796544,43.635189993594174,4205673049
sw,-61.4898109436035,-77.0082778930664,-136.01008221558376,43.182151278718855,4205689716
sw,-59.5977592468261,-77.7686614990234,-125.60048854320871,42.78731863378406,4205706383
sw,-57.960651397705,-78.505386352539,-111.62045502859797,42.41077163701354,4205723050
sw,-56.539981842041,-79.2248229980468,-95.34559076438734,42.076329828935464,4205739717
sw,-55.384895324707,-79.9084091186523,-78.09743989497464,41.864311243271395,4205756384
sw,-54.5561637878418,-80.610481262207,-60.94969683945973,41.891979692486096,4205773051
sw,-54.0691223144531,-81.4016342163086,-44.566218890834016,42.28777628894107,4205789718
sw,-53.7941703796386,-82.2102890014648,-29.214657876174755,43.162874745553324,4205806385
sw,-53.6038970947265,-82.9740371704101,-14.934571782615041,44.58109468798998,4205823052
sw,-53.4485244750976,-83.7532043457031,-1.7731750786337583,46.52800023314451,4205839719
sw,-53.8044624328613,-84.5968017578125,10.036898954138817,48.88244158990395,4205856386
sw,-55.0858840942382,-85.4785766601562,20.06231269105935,51.395589445295606,4205873053
sw,-56.6680259704589,-86.3304061889648,27.83122692323894,53.68099379015638,4205889720
sw,-57.9188041687011,-87.0909423828125,33.07564464551261,55.21644736066133,4205906387
sw,-58.4827842712402,-87.6641006469726,35.90240417889173,55.358572470545845,4205923054
sw,-58.8482475280761,-87.9494857788086,36.791946137782745,53.375015062505454,4205939721
sw,-59.57958984375,-87.966926574707,36.43955711900993,48.5036767560521,4205956388
sw,-60.6356811523437,-87.8128662109375,35.54182564218251,40.04848455379061,4205973055
sw,-61.6142501831054,-87.6016693115234,34.63448599486687,27.512554763046236,4205989722
sw,-62.3970985412597,-87.4366912841796,34.02978912539709,10.751940162348893,4206006389
sw,-63.0996437072753,-87.3838653564453,33.84304011450487,-9.88735894448683,4206023056
sw,-63.8505630493164,-87.4614028930664,34.070708072245644,-33.498655226990316,4206039723
sw,-64.699462890625,-87.5033874511718,34.67674617297274,-58.65365398757345,4206056390
sw,-65.2958068847656,-87.0542984008789,35.64559854778165,-83.56845086432159,4206073057
sw,-65.7064819335937,-85.76904296875,36.974730356221976,-106.37433016024622,4206089724
sw,-66.3276977539062,-83.8721542358398,38.612898329267246,-125.43395379967609,4206106391
sw,-67.1879196166992,-81.5541305541992,40.38860476121633,-139.62312480667754,4206123058
sw,-68.1127777099609,-78.8928909301757,41.988305731271296,-148.5030103102361,4206139725
sw,-69.1834640502929,-76.1399230957031,43.020889024172696,-152.33626241280143,4206156392
sw,-70.2602386474609,-73.500373840332,43.15573240723575,-151.94453476322118,4206173059
sw,-71.2561569213867,-70.9995574951171,42.27546868388446,-148.4518063392499,4206189726
sw,-72.641845703125,-68.7689743041992,40.56762729110443,-142.9920434213288,4206206393
sw,-73.1235275268554,-66.6701354980468,38.501158334117534,-136.46707323594592,4206223060
sw,-73.810302734375,-64.6373901367187,36.68513244456729,-129.4170657015868,4206239727
sw,-74.4980926513671,-62.6618995666503,35.66328993592705,-122.0213693364988,4206256394
sw,-75.3306732177734,-60.781150817871,35.728947709026286,-114.2003027494104,4206273061
sw,-76.2635803222656,-59.0405044555664,36.83197619294446,-105.75787150017024,4206289728
sw,-77.0576858520507,-57.5197830200195,38.60384527513624,-96.50249298560746,4206306395
sw,-77.8242111206054,-56.2248420715332,40.47878541561588,-86.3064319725499,4206323062
sw,-78.586067199707,-55.1251411437988,41.86306545149433,-75.10192044000802,4206339729
sw,-79.3715896606445,-54.2597160339355,42.302496115471044,-62.84479846596583,4206356396
sw,-80.1873474121093,-53.6319694519043,41.60820003852718,-49.490741327199196,4206373063
sw,-80.9807586669921,-53.2289276123046,39.912507816392086,-35.02047782008932,4206389730
sw,-81.7184524536132,-53.0272789001464,37.640482658716486,-19.524018811847213,4206406397
sw,-82.3868179321289,-53.0029907226562,35.40132040343547,-3.319910625666654,4206423064
sw,-82.9761886596679,-53.051155090332,33.82556447101697,12.944166157871454,4206439731
sw,-83.5658111572265,-53.3551635742187,33.39060272707424,28.27562325927443,4206456398
sw,-84.1893463134765,-54.1844940185546,34.28052111070704,41.455486394979154,4206473065
sw,-84.8336181640625,-55.4443893432617,36.315484112143466,51.29104018852665,4206489732
sw,-85.4838638305664,-56.7176933288574,38.96562848145447,56.93572979479637,4206506399
sw,-86.1314315795898,-57.860725402832,41.44298137531106,58.16159810994057,4206523066
sw,-86.7212295532226,-58.9724426269531,42.84796310581464,55.47330968411163,4206539733
sw,-87.1537322998046,-59.8145561218261,42.33697883763657,50.00994794245389,4206556400
sw,-87.3931579589843,-60.4112892150878,39.27559770285923,43.26163986209464,4206573067
sw,-87.4757843017578,-60.9089965820312,33.34846969072447,36.696375271238516,4206589734
sw,-87.5073089599609,-61.4021186828613,24.61004325257665,31.42352586181326,4206606401
sw,-87.5571975708007,-61.9179534912109,13.473316419572393,28.004144526815328,4206623068
sw,-87.6201858520507,-62.4026298522949,0.6419773963798182,26.459214004088416,4206639735
sw,-87.6868362426757,-63.1424026489257,-13.005316021198617,26.447682351874803,4206656402
sw,-87.7324676513671,-63.9446563720703,-26.565600748332507,27.51886013128648,4206673069
sw,-87.5318527221679,-64.3716659545898,-39.274958357885964,29.319623375703646,4206689736
sw,-86.9054794311523,-64.5926437377929,-50.65072429908826,31.671719512119907,4206706403
sw,-85.8022232055664,-65.1037216186523,-60.57408727824377,34.5128380300681,4206723070
sw,-84.3126602172851,-65.8531799316406,-69.28390059123736,37.76966305180951,4206739737
sw,-82.5029220581054,-66.7537307739257,-77.27471518742533,41.2556485196198,4206756404
sw,-80.5367889404296,-67.7425689697265,-85.12039640166624,44.65381637009173,4206773071
sw,-78.4574203491211,-68.8403854370117,-93.27032903149096,47.58671154142741,4206789738
sw,-76.1098709106445,-69.9195556640625,-101.8770788004311,49.728691446733116,4206806405
sw,-73.9005813598632,-70.8587799072265,-110.70395555282342,50.9003032251084,4206823072
sw,-71.9440078735351,-71.6712493896484,-119.13332113838786,51.10261693222526,4206839739
sw,-70.0414428710937,-72.5074844360351,-126.26951086214474,50.48767802566847,4206856406
sw,-67.9781875610351,-73.4537582397461,-131.11494208471584,49.295754697778655,4206873073
sw,-65.8310928344726,-74.5404586791992,-132.78725373765647,47.79944208110305,4206889740
sw,-63.7068901062011,-75.6404342651367,-130.72963255398764,46.27558506230752,4206906407
sw,-61.7196540832519,-76.6160888671875,-124.85333905722364,44.9959188145948,4206923074
sw,-59.9557914733886,-77.3883895874023,-115.55949246584659,44.210895541958635,4206939741
sw,-58.4294967651367,-78.0089492797851,-103.62391452260567,44.11044263327111,4206956408
sw,-57.130256652832,-78.6477279663086,-89.98030288784761,44.770813792766965,4206973075
sw,-56.0644454956054,-79.4041671752929,-75.47823851355463,46.11611864443694,4206989742
sw,-55.2550544738769,-80.255630493164,-60.70449296537441,47.920913333525796,4207006409
sw,-54.6608123779296,-81.209358215332,-45.93391231263102,49.85901191150268,4207023076
sw,-54.3095169067382,-82.2341842651367,-31.227168482955772,51.57934396566557,4207039743
sw,-54.1162109375,-83.2100524902343,-16.631876438144257,52.77749024794464,4207056410
sw,-53.9330406188964,-84.0712661743164,-2.391807449626588,53.23693703816787,4207073077
sw,-54.6100959777832,-84.8958511352539,10.94759583334589,52.8322088047995,4207089744
sw,-55.9894943237304,-85.7757568359375,22.607910538424214,51.50508032853792,4207106411
sw,-57.4989776611328,-86.7121658325195,31.798437439430064,49.232718787427636,4207123078
sw,-58.4456214904785,-87.5941772460937,37.97631589425799,45.99907537872254,4207139745
sw,-59.0044555664062,-88.2452087402343,41.014550165856136,41.76719451361425,4207156412
sw,-59.8237075805664,-88.5287399291992,41.21478192457918,36.444896151704576,4207173079
sw,-60.8136558532714,-88.4931182861328,39.19658485051829,29.846096459910715,4207189746
sw,-61.8555107116699,-88.3507614135742,35.7419756013296,21.667072457855568,4207206413
sw,-62.8887977600097,-88.2174301147461,31.656815310636244,11.505911976119547,4207223080
sw,-63.8218765258789,-88.0701446533203,27.670268800833774,-1.0555377041370246,4207239747
sw,-64.4120712280273,-87.8358078002929,24.369380239015733,-16.311892294867313,4207256414
sw,-64.6413192749023,-87.502212524414,22.163555529280387,-34.2690415254165,4207273081
sw,-65.2240982055664,-87.0352249145507,21.275934343511018,-54.50585991770946,4207289748
sw,-65.6983108520507,-86.2475662231445,21.75151603553682,-76.11895633841982,4207306415
sw,-65.851203918457,-85.0176086425781,23.46264612752084,-97.7898897558747,4207323082
sw,-66.1614913940429,-83.2741928100586,26.10229149054922,-117.97839045522618,4207339749
sw,-66.7381134033203,-80.8754959106445,29.18707997880189,-135.19988993263925,4207356416
sw,-67.7174377441406,-78.0926742553711,32.11318726735496,-148.30827506850991,4207373083
sw,-68.8456268310546,-75.2791290283203,34.286566655302934,-156.69440373942956,4207389750
sw,-69.8104553222656,-72.5102462768554,35.29531054606986,-160.3386073927162,4207406417
sw,-70.6963348388671,-69.7827377319336,35.05076695215259,-159.71212654333402,4207423084
sw,-71.5341644287109,-67.2319183349609,33.828192967153306,-155.57906444561502,4207439751
sw,-72.1897964477539,-64.8578567504882,32.18229104387954,-148.77788421356067,4207456418
sw,-72.758544921875,-62.6744384765625,30.768723228253492,-140.0519057569489,4207473085
sw,-73.4586029052734,-60.6185188293457,30.140816796362657,-129.96496249406226,4207489752
sw,-74.3015899658203,-58.66943359375,30.594980162302427,-118.90007357333349,4207506419
sw,-75.1372604370117,-56.8830642700195,32.10975583259735,-107.1094872186092,4207523086
sw,-75.8552093505859,-55.3141937255859,34.381072754551084,-94.77225244917258,4207539753
sw,-76.525634765625,-53.9463386535644,36.925569125444866,-82.02405376960087,4207556420
sw,-77.2724151611328,-52.8684844970703,39.21600553165308,-68.94922133481583,4207573087
sw,-78.1039962768554,-52.105369567871,40.81838721261078,-55.55450309365099,4207589754
sw,-79.0013046264648,-51.659439086914,41.50479880193605,-41.76324430251856,4207606421
sw,-79.8876953125,-51.3730430603027,41.315919766739476,-27.465424199719994,4207623088
sw,-80.7195968627929,-51.2309608459472,40.55098335958863,-12.630697402448579,4207639755
sw,-81.4451217651367,-51.0266380310058,39.67836579872844,2.551601040251374,4207656422
sw,-82.0750885009765,-51.1521873474121,39.185514086538504,17.576266410673664,4207673089
sw,-82.7046432495117,-51.8078994750976,39.41182893322912,31.64027334854392,4207689756
sw,-83.4097137451171,-52.9025154113769,40.41884530564498,43.79922321936535,4207706423
sw,-84.1801528930664,-54.0594329833984,41.94075079645916,53.21496532948686,4207723090
sw,-84.9744567871093,-55.1276817321777,43.42902215982069,59.395469943294955,4207739757
sw,-85.751724243164,-56.2859153747558,44.17203408601703,62.33067295320701,4207756424
sw,-86.4201889038086,-57.4291038513183,43.44909745048419,62.47942743851177,4207773091
sw,-86.951171875,-58.5289039611816,40.67562492929334,60.625286538539825,4207789758
sw,-87.3455429077148,-59.5621337890625,35.50879897573703,57.65941754674289,4207806425
sw,-87.6148452758789,-60.4617309570312,27.901520930455902,54.361099077616664,4207823092
sw,-87.7993087768554,-61.1841659545898,18.106519928699026,51.24051921610902,4207839759
sw,-87.9192581176757,-61.959056854248,6.637437638003578,48.49157866750887,4207856426
sw,-87.914566040039,-62.9447479248046,-5.808109352975425,46.070050701757324,4207873093
sw,-87.6759414672851,-64.1864929199218,-18.459855054574,43.862680596153275,4207889760
sw,-87.1228790283203,-65.0977401733398,-30.611597207676937,41.863435890477234,4207906427
sw,-86.286750793457,-65.56884765625,-41.7620258959813,40.260061899902574,4207923094
sw,-85.2084197998046,-66.0913314819336,-51.725608679008836,39.37974640009531,4207939761
sw,-83.7725753784179,-66.7187728881836,-60.674698267693636,39.524844962776875,4207956428
sw,-82.0274047851562,-67.490608215332,-69.08348789575852,40.79332897827956,4207973095
sw,-80.0906372070312,-68.4290466308593,-77.57014757289403,42.983227159725615,4207989762
sw,-78.0451965332031,-69.4602355957031,-86.6705948132235,45.62927250564832,4208006429
sw,-75.7720947265625,-70.5460739135742,-96.61087354074839,48.14928192259055,4208023096
sw,-73.4568481445312,-71.6365585327148,-107.15479193041585,50.02716360142908,4208039763
sw,-71.2816390991211,-72.5466766357421,-117.57988495278862,50.95135548161829,4208056430
sw,-69.282730102539,-73.3079071044921,-126.79000661778211,50.86020485368375,4208073097
sw,-67.3511810302734,-74.1051712036132,-133.53037797996902,49.897519432364994,4208089764
sw,-65.4149932861328,-75.0122833251953,-136.64640715207113,48.32229662654669,4208106431
sw,-63.4947319030761,-76.0300979614257,-135.32304471114588,46.424813491584395,4208123098
sw,-61.6094551086425,-76.9969863891601,-129.2523238831257,44.47762838340088,4208139765
sw,-59.9886779785156,-77.8099670410156,-118.69731693923667,42.71703176344423,4208156432
sw,-58.3771209716796,-78.4877777099609,-104.44410877648086,41.33332566977637,4208173099
sw,-56.9989166259765,-79.0945053100586,-87.65368580118907,40.45483116930928,4208189766
sw,-55.9933433532714,-79.690559387207,-69.64284637040355,40.128415565580106,4208206433
sw,-55.3249359130859,-80.3554153442382,-51.64152927624683,40.31072742623194,4208223100
sw,-54.95849609375,-81.1351013183593,-34.59095977651008,40.88098878364955,4208239767
sw,-54.8118438720703,-81.9555587768554,-19.047937579720145,41.6728375807697,4208256434
sw,-54.8688278198242,-82.7223587036132,-5.229586654681425,42.510524366731346,4208273101
sw,-54.8369598388671,-83.4479751586914,6.8278722342596145,43.23274378721378,4208289768
sw,-55.2356147766113,-84.1719055175781,17.08470509736899,43.696223525699864,4208306435
sw,-56.3930015563964,-84.9274673461914,25.395577161397316,43.7632172017472,4208323102
sw,-57.880874633789,-85.6977081298828,31.548527145025922,43.283128161116544,4208339769
sw,-59.0990600585937,-86.4419631958007,35.41011370381508,42.07588024082266,4208356436
sw,-59.8094863891601,-87.1034240722656,37.07243618053197,39.91802696869839,4208373103
sw,-60.4628219604492,-87.5949935913086,36.905582602259294,36.528894094743706,4208389770
sw,-61.2590026855468,-87.8672332763671,35.48955990241899,31.557348587277435,4208406437
sw,-62.1754455566406,-87.9156875610351,33.47001235718101,24.579117882123118,4208423104
sw,-63.0458755493164,-87.8001098632812,31.40698023994458,15.123961613358032,4208439771
sw,-63.84521484375,-87.5798187255859,29.671057627655923,2.7527410602021885,4208456438
sw,-64.4289932250976,-87.2750930786132,28.414767275192762,-12.809602747643487,4208473105
sw,-64.93017578125,-86.9353485107421,27.621686953509084,-31.506231716633557,4208489772
sw,-65.5410003662109,-86.4917221069336,27.20811745246095,-52.796520024277385,4208506439
sw,-66.073860168457,-85.7546691894531,27.125010182745825,-75.58807976941961,4208523106
sw,-66.3234710693359,-84.5339965820312,27.401300780418683,-98.31137353452159,4208539773
sw,-66.6145629882812,-82.673355102539,28.101222549556525,-119.153637975502,4208556440
sw,-67.1454010009765,-80.1447143554687,29.225638263730943,-136.4045363380562,4208573107
sw,-67.9521408081054,-77.3395843505859,30.629995062760624,-148.80839842993603,4208589774
sw,-68.954231262207,-74.6057205200195,32.02454165612187,-155.8022305240622,4208606441
sw,-69.9048919677734,-72.0120239257812,33.07015619867868,-157.56098952687614,4208623108
sw,-70.7993469238281,-69.4426193237304,33.523315329774526,-154.85160536717945,4208639775
sw,-71.645263671875,-67.0140762329101,33.354936182704876,-148.76931675636257,4208656442
sw,-72.3280944824218,-64.7883377075195,32.783131269585645,-140.45757429293363,4208673109
sw,-72.9210968017578,-62.6998062133789,32.205053683618644,-130.89302437338904,4208689776
sw,-73.5888061523437,-60.7288055419921,32.060742117365635,-120.7726576985872,4208706443
sw,-74.427505493164,-58.8728790283203,32.68788526247867,-110.49629005373271,4208723110
sw,-75.3361511230468,-57.2137107849121,34.22099223200035,-100.2094496048603,4208739777
sw,-76.1562423706054,-55.7351531982421,36.56106002811797,-89.86543854301206,4208756444
sw,-76.8776626586914,-54.4055442810058,39.41288020566289,-79.27875802203427,4208773111
sw,-77.6153793334961,-53.3766937255859,42.37087883891607,-68.16563812273498,4208789778
sw,-78.4152221679687,-52.6785163879394,45.029665295311716,-56.18835575142056,4208806445
sw,-79.2539825439453,-52.2075881958007,47.09324780822647,-43.02783280221879,4208823112
sw,-80.1535034179687,-51.8356590270996,48.45374945270017,-28.497531728755874,4208839779
sw,-81.0887908935546,-51.649127960205,49.211901846989015,-12.682134533860665,4208856446
sw,-81.9830093383789,-51.5418434143066,49.62407471971757,3.9493586652599517,4208873113
sw,-82.8148193359375,-51.8911361694335,49.983890204490905,20.52112795884831,4208889780
sw,-83.6256332397461,-52.7031173706054,50.472622241311406,35.86130907245211,4208906447
sw,-84.4475479125976,-53.8418464660644,51.029805556030055,48.73411772877356,4208923114
sw,-85.2764053344726,-54.9636688232421,51.294261188729344,58.123828279620575,4208939781
sw,-86.1180877685546,-56.1986999511718,50.644351223456546,63.4757638413782,4208956448
sw,-86.9066162109375,-57.3866271972656,48.33212155380287,64.81998983134363,4208973115
sw,-87.4943923950195,-58.5075187683105,43.672499916579405,62.752148264507184,4208989782
sw,-87.78955078125,-59.5092735290527,36.229811900935246,58.292652288742815,4209006449
sw,-87.8968124389648,-60.3579788208007,25.94736207847306,52.67293108137578,4209023116
sw,-87.9560852050781,-61.1068840026855,13.188277582450334,47.10608155563615,4209039783
sw,-88.0078659057617,-61.7649765014648,-1.31559769904316,42.59452855163665,4209056450
sw,-88.0212783813476,-62.5023727416992,-16.58820986878334,39.809998570177704,4209073117
sw,-87.9000701904296,-63.4365043640136,-31.578463573966033,39.05264765813316,4209089784
sw,-87.3772964477539,-64.0874938964843,-45.343183389201045,40.2681977121049,4209106451
sw,-86.5249786376953,-64.6225662231445,-57.21361975869122,43.093485246631985,4209123118
sw,-85.4803085327148,-65.3594512939453,-66.91669435376623,46.91861503764447,4209139785
sw,-83.9789810180664,-66.309829711914,-74.62494783410959,50.97821685887846,4209156452
sw,-82.0811080932617,-67.4717178344726,-80.91382720059755,54.485924325759086,4209173119
sw,-80.0413818359375,-68.6974487304687,-86.61556034751985,56.79863225274327,4209189786
sw,-77.9739532470703,-69.8819732666015,-92.58367025703322,57.56339683897591,4209206453
sw,-75.6239318847656,-70.960578918457,-99.42013330235015,56.78895630876725,4209223120
sw,-73.15966796875,-71.8904342651367,-107.24697435436465,54.80705281080862,4209239787
sw,-70.8650283813476,-72.6615982055664,-115.60061842942969,52.13492655375734,4209256454
sw,-68.8290176391601,-73.4487533569336,-123.48881149893785,49.295022660856446,4209273121
sw,-66.8613357543945,-74.3499526977539,-129.59808588143602,46.666693983847,4209289788
sw,-64.8759307861328,-75.3532409667968,-132.59623810263213,44.426272627028766,4209306455
sw,-62.8768157958984,-76.3552017211914,-131.44841024974346,42.5859572889097,4209323122
sw,-60.9188804626464,-77.2412490844726,-125.66098839808038,41.094605194474056,4209339789
sw,-59.1448364257812,-77.9969329833984,-115.38774322362956,39.94041147045251,4209356456
sw,-57.7220191955566,-78.6591720581054,-101.3742299061062,39.20514564361183,4209373123
sw,-56.5337371826171,-79.2332000732421,-84.7663513889903,39.05095741322094,4209389790
sw,-55.5677223205566,-79.7837677001953,-66.849067963689,39.65422035215018,4209406457
sw,-54.920841217041,-80.4131469726562,-48.79743324152502,41.12108991831383,4209423124
sw,-54.6062889099121,-81.1865539550781,-31.511253878900856,43.420592402119944,4209439791
sw,-54.5284957885742,-82.0541381835937,-15.572924794230104,46.35670540813546,4209456458
sw,-54.6041526794433,-82.92138671875,-1.3232886195508786,49.58148184166569,4209473125
sw,-54.6620292663574,-83.7799072265625,10.998594345486266,52.63815758909471,4209489792
sw,-55.3922729492187,-84.6904602050781,21.140110930321704,55.02058212173834,4209506459
sw,-56.7785491943359,-85.6778182983398,28.82304023821877,56.23786458783559,4209523126
sw,-58.3321914672851,-86.6914520263671,33.8488661840051,55.87317962552044,4209539793
sw,-59.4579582214355,-87.5958862304687,36.251202549891,53.62250899193838,4209556460
sw,-60.0796890258789,-88.2137069702148,36.38652362914779,49.29946530829717,4209573127
sw,-60.5849723815918,-88.3885726928711,34.89457110598677,42.80246548728951,4209589794
sw,-61.2767372131347,-88.2548217773437,32.543663597277266,34.058863744235566,4209606461
sw,-62.0863914489746,-88.1022567749023,30.037480614300385,22.977839581584472,4209623128
sw,-62.8023338317871,-88.0072784423828,27.865363030793382,9.448145040639798,4209639795
sw,-63.5212020874023,-87.9356918334961,26.24480402158428,-6.598517604260911,4209656462
sw,-64.0767822265625,-87.8331909179687,25.164304874944094,-25.068771989906082,4209673129
sw,-64.6002197265625,-87.6149291992187,24.500475005688003,-45.57623451154637,4209689796
sw,-65.2208099365234,-87.0997085571289,24.155292832764445,-67.35735313412687,4209706463
sw,-65.4586944580078,-86.1165771484375,24.145709249090633,-89.28618456995275,4209723130
sw,-65.4941253662109,-84.6575317382812,24.595577405035122,-110.00837769814581,4209739797
sw,-65.8315963745117,-82.5942687988281,25.633312737024205,-128.17041502863063,4209756464
sw,-66.4483795166015,-79.982666015625,27.259060222845616,-142.6790284704768,4209773131
sw,-67.3769454956054,-77.1713333129882,29.267661952605273,-152.90499911921708,4209789798
sw,-68.3973007202148,-74.4892349243164,31.280037572932454,-158.75938254045343,4209806465
sw,-69.3028869628906,-71.8420104980468,32.87132780618639,-160.61914418810085,4209823132
sw,-70.2064208984375,-69.110725402832,33.73256191986072,-159.14122508645224,4209839799
sw,-71.0420532226562,-66.4982681274414,33.790194782621576,-155.044302208832,4209856466
sw,-71.7184371948242,-64.0465774536132,33.233754887462524,-148.9355530628818,4209873133
sw,-72.344856262207,-61.723087310791,32.447368217607995,-141.22493096785544,4209889800
sw,-73.1012191772461,-59.5793533325195,31.881999461989395,-132.12718047346277,4209906467
sw,-74.0156326293945,-57.647964477539,31.922012747214055,-121.72169322412195,4209923134
sw,-74.8904037475586,-55.9455833435058,32.787176619956455,-110.02958830157469,4209939801
sw,-75.5890884399414,-54.4478607177734,34.48501562838573,-97.07497914852874,4209956468
sw,-76.2012252807617,-53.1552085876464,36.811405882388904,-82.91650847988184,4209973135
sw,-76.8788452148437,-52.1807975769043,39.39686552622863,-67.6558464522777,4209989802
sw,-77.6697311401367,-51.5507698059082,41.79792919511469,-51.443020105664615,4210006469
sw,-78.557746887207,-51.1541633605957,43.62126004151259,-34.49900399004549,4210023136
sw,-79.5044250488281,-51.012451171875,44.64552061385775,-17.162434812747502,4210039803
sw,-80.4237976074218,-50.9965744018554,44.89187258802048,0.0566536503598179,4210056470
sw,-81.2537231445312,-51.1503601074218,44.60486663370386,16.45540718127352,4210073137
sw,-81.9791107177734,-51.8534240722656,44.14056645729518,31.190898923417205,4210089804
sw,-82.6645812988281,-52.8874359130859,43.80066036042289,43.420421285427075,4210106471
sw,-83.3738937377929,-53.9959068298339,43.67780690721037,52.49354085778612,4210123138
sw,-84.1220397949218,-55.0554237365722,43.57466421211207,58.122295663099514,4210139805
sw,-84.9083862304687,-56.1739349365234,43.02888812099742,60.45846459663126,4210156472
sw,-85.6673126220703,-57.1995658874511,41.4343123373818,60.04844579603757,4210173139
sw,-86.3008575439453,-58.192283630371,38.21385216747015,57.68766202446649,4210189806
sw,-86.7520065307617,-59.0912399291992,32.985541233764536,54.229418651050956,4210206473
sw,-87.0499191284179,-59.853343963623,25.671617174540685,50.41086625166191,4210223140
sw,-87.2822189331054,-60.5497093200683,16.52384101255904,46.748712228124745,4210239807
sw,-87.4770278930664,-61.3317718505859,6.06402856810489,43.53447035857323,4210256474
sw,-87.5462417602539,-62.3226852416992,-5.041820848446723,40.921833720130074,4210273141
sw,-87.3299560546875,-63.4247207641601,-16.14522314448312,39.05304107215241,4210289808
sw,-86.7530975341796,-64.0484771728515,-26.773108394892787,38.14170268982382,4210306475
sw,-85.91064453125,-64.3664627075195,-36.736435105615655,38.446782541854404,4210323142
sw,-84.9280395507812,-64.9416885375976,-46.14963267047064,40.138394639166115,4210339809
sw,-83.7926864624023,-65.6858215332031,-55.3460095666516,43.12997488535575,4210356476
sw,-82.3901672363281,-66.5826568603515,-64.71355414909397,46.98094769924694,4210373143
sw,-80.6133880615234,-67.6897811889648,-74.50948071374,50.940817963787936,4210389810
sw,-78.5294570922851,-68.8970870971679,-84.72012563059535,54.13379395156141,4210406477
sw,-76.2522811889648,-70.1125259399414,-95.01059153761953,55.81339406797138,4210423144
sw,-73.9374542236328,-71.2445907592773,-104.7702596817666,55.58249491846727,4210439811
sw,-71.7038803100586,-72.1151504516601,-113.22764407171266,53.49093940369057,4210456478
sw,-69.6653900146484,-72.7816085815429,-119.59451081126036,49.981131705075114,4210473145
sw,-67.7978820800781,-73.4790954589843,-123.2042874124285,45.72132707815485,4210489812
sw,-65.9348220825195,-74.3539886474609,-123.62369740594595,41.409004152271535,4210506479
sw,-64.0343475341796,-75.30419921875,-120.72715355743141,37.62105212553386,4210523146
sw,-62.1844253540039,-76.1571197509765,-114.72399988061238,34.7437048706384,4210539813
sw,-60.3670501708984,-76.8515014648437,-106.12447398068142,32.967668557711455,4210556480
sw,-59.1225624084472,-77.4421463012695,-95.63574979093433,32.312845787261324,4210573147
sw,-57.9625167846679,-77.970474243164,-84.00324032065096,32.65627188966474,4210589814
sw,-56.8609924316406,-78.4802474975586,-71.84350388339999,33.75842254445568,4210606481
sw,-56.0276679992675,-79.0598068237304,-59.52953795253797,35.29733400276067,4210623148
sw,-55.45068359375,-79.7690124511718,-47.173847534174236,36.919043903650994,4210639815
sw,-55.120677947998,-80.5382690429687,-34.71904063608171,38.300705612884265,4210656482
sw,-54.879783630371,-81.2952041625976,-22.107066207177215,39.209737713252,4210673149
sw,-54.7396545410156,-82.0253829956054,-9.465531003479047,39.538576053508116,4210689816
sw,-54.7322883605957,-82.7066421508789,2.7706287566253502,39.30321817359956,4210706483
sw,-55.4427070617675,-83.3375549316406,13.875901473467277,38.60915212040582,4210723150
sw,-56.6968460083007,-83.9804763793945,23.011465619161793,37.60053828785013,4210739817
sw,-57.9965629577636,-84.6869125366211,29.501105246646944,36.410329139882855,4210756484
sw,-58.773868560791,-85.4224319458007,33.078012870064484,35.11991704692027,4210773151
sw,-59.1962394714355,-86.0869369506836,33.98170258561721,33.72415138308634,4210789818
sw,-59.7533836364746,-86.5669250488281,32.8672975030459,32.092415049883876,4210806485
sw,-60.4900741577148,-86.8854217529296,30.588497638897525,29.925632827084417,4210823152
sw,-61.371654510498,-87.0965347290039,27.962185929796618,26.727560924272215,4210839819
sw,-62.2272796630859,-87.2466506958007,25.60031199566987,21.821951018661352,4210856486
sw,-63.1289176940918,-87.4157028198242,23.839761312351065,14.4423089147131,4210873153
sw,-63.7381362915039,-87.4694366455078,22.75753458937734,3.8965642652673678,4210889820
sw,-64.1108245849609,-87.3158416748046,22.243660210975264,-10.224245267658242,4210906487
sw,-64.7605285644531,-86.9609451293945,22.10610544518241,-27.850630063175,4210923154
sw,-65.3603591918945,-86.3544921875,22.179950816406222,-48.31811384786244,4210939821
sw,-65.5418090820312,-85.4175567626953,22.4033565729786,-70.38123683986714,4210956488
sw,-65.7253265380859,-84.0619201660156,22.82562575978097,-92.37701660752752,4210973155
sw,-66.1138000488281,-82.1009902954101,23.54400203759613,-112.51174931775442,4210989822
sw,-66.6513748168945,-79.6492462158203,24.608266275993696,-129.20006506728052,4211006489
sw,-67.4296264648437,-77.0697174072265,25.951257407512895,-141.35877516965724,4211023156
sw,-68.3491744995117,-74.4514236450195,27.386155340438982,-148.56753220022574,4211039823
sw,-69.1870193481445,-71.8721618652343,28.67324825945965,-151.0551054883875,4211056490
sw,-70.0651092529296,-69.3500442504882,29.622991713358754,-149.53303413535255,4211073157
sw,-70.9024658203125,-67.0039825439453,30.18410130137946,-144.94693467022432,4211089824
sw,-71.5661468505859,-64.8202438354492,30.47180265436571,-138.23089131771948,4211106491
sw,-72.2043380737304,-62.6691055297851,30.720062471627845,-130.13261076899263,4211123158
sw,-72.9456710815429,-60.625675201416,31.179706632953124,-121.1389710297965,4211139825
sw,-73.779296875,-58.7760467529296,32.01063836772694,-111.49024986951869,4211156492
sw,-74.6412200927734,-57.1818809509277,33.215482101902694,-101.24395057473005,4211173159
sw,-75.4539718627929,-55.7122001647949,34.63787992212379,-90.3460701014194,4211189826
sw,-76.2284164428711,-54.3899536132812,36.0200261807081,-78.68509224153813,4211206493
sw,-76.9798126220703,-53.3214378356933,37.09619676057417,-66.12763229164331,4211223160
sw,-77.7310180664062,-52.5848007202148,37.69379962697221,-52.55155038228911,4211239827
sw,-78.5441360473632,-52.1187705993652,37.814127307082344,-37.89673695941225,4211256494
sw,-79.3863754272461,-51.842414855957,37.667003764692026,-22.243872065424043,4211273161
sw,-80.1741333007812,-51.7436714172363,37.639637820320424,-5.90831405622084,4211289828
sw,-80.9045181274414,-51.7742614746093,38.19590729083758,10.491136458504403,4211306495
sw,-81.595474243164,-52.1158447265625,39.72729619436735,26.042292685971116,4211323162
sw,-82.3116073608398,-52.9929313659668,42.39970774849568,39.664250984712886,4211339829
sw,-83.0935134887695,-54.1757278442382,46.04738359446708,50.3328708875457,4211356496
sw,-83.9852294921875,-55.2644119262695,50.15081907201257,57.337074578669274,4211373163
sw,-84.9384841918945,-56.2891197204589,53.90676256445586,60.47081049619243,4211389830
sw,-85.9311447143554,-57.3841705322265,56.368509962815715,60.09057223936653,4211406497
sw,-86.8307189941406,-58.3663101196289,56.61590712341457,57.02573112110228,4211423164
sw,-87.4979858398437,-59.2970581054687,53.91281864152701,52.38166664792681,4211439831
sw,-87.9315185546875,-60.1111221313476,47.82336901751241,47.301351165886736,4211456498
sw,-88.1505126953125,-60.798828125,38.27778113222925,42.75177611472752,4211473165
sw,-88.2044143676757,-61.4793395996093,25.592144968339813,39.38753034786823,4211489832
sw,-88.1910629272461,-62.1612510681152,10.446992767135002,37.518270923141145,4211506499
sw,-88.1986541748046,-63.1306533813476,-6.179155120180899,37.16965363462778,4211523166
sw,-88.2356414794921,-63.995376586914,-23.130869597670404,38.18847807435877,4211539833
sw,-88.0041427612304,-64.4318771362304,-39.25260385951427,40.326646667503454,4211556500
sw,-87.2841567993164,-64.8903045654296,-53.598943506179474,43.26515500329594,4211573167
sw,-86.0479965209961,-65.6481781005859,-65.62985526892763,46.59627930535034,4211589834
sw,-84.2881851196289,-66.6607360839843,-75.3291813146148,49.82412399261415,4211606501
sw,-82.3648071289062,-67.9068527221679,-83.19394392362678,52.43323909057184,4211623168
sw,-80.3822784423828,-69.159423828125,-90.07472145404935,54.02005824302479,4211639835
sw,-78.0849533081054,-70.2986068725586,-96.89506363960125,54.426828808978655,4211656502
sw,-75.6595764160156,-71.2667007446289,-104.32352861927775,53.80297360750455,4211673169
sw,-73.3859634399414,-72.0627670288086,-112.49752632678441,52.552396112859725,4211689836
sw,-71.2333450317382,-72.8385772705078,-120.89416077203688,51.18342251649544,4211706503
sw,-69.3177032470703,-73.7271118164062,-128.40694940255443,50.12559777155529,4211723170
sw,-67.4686431884765,-74.7015914916992,-133.62225128927594,49.589679477283404,4211739837
sw,-65.5538253784179,-75.7424240112304,-135.21477329878968,49.52172510525797,4211756504
sw,-63.1780738830566,-76.7837524414062,-132.3309398974552,49.657201260605135,4211773171
sw,-61.4037284851074,-77.7283401489257,-124.82864138035505,49.64138108991557,4211789838
sw,-59.8236045837402,-78.5753021240234,-113.29523106445046,49.16459145082978,4211806505
sw,-58.3119087219238,-79.3795166015625,-98.85113461898014,48.06679467301503,4211823172
sw,-57.0787734985351,-80.1451110839843,-82.82524479325022,46.38578379375439,4211839839
sw,-56.0956573486328,-80.8511657714843,-66.42503166812915,44.34497169403332,4211856506
sw,-55.3766593933105,-81.5479431152343,-50.50986560286839,42.29325049275434,4211873173
sw,-54.9323463439941,-82.2787704467773,-35.52645766502795,40.61840101805374,4211889840
sw,-54.7039527893066,-83.0435409545898,-21.60292740343245,39.65637140795342,4211906507
sw,-54.6354064941406,-83.8033065795898,-8.741037051334533,39.612629375767476,4211923174
sw,-54.7337760925293,-84.5210952758789,2.989664856128269,40.5037358125515,4211939841
sw,-55.4693374633789,-85.1900939941406,13.351140663890959,42.12329823679223,4211956508
sw,-56.755142211914,-85.8669204711914,21.978111215349617,44.03742319639537,4211973175
sw,-58.1424560546875,-86.6249008178711,28.53054151732778,45.61508455128566,4211989842
sw,-58.9828376770019,-87.3489303588867,32.860207587503496,46.092786536272435,4212006509
sw,-59.3962211608886,-87.8864059448242,35.09094035817858,44.66228208970218,4212023176
sw,-60.0736122131347,-88.1312484741211,35.577699071695776,40.56353400128197,4212039843
sw,-61.0304336547851,-88.1455459594726,34.78954752907729,33.16911167241335,4212056510
sw,-62.0244636535644,-88.0705490112304,33.19247441543744,22.05774795018012,4212073177
sw,-62.8734893798828,-87.9726181030273,31.18037908760284,7.083498149697796,4212089844
sw,-63.6289901733398,-87.8302993774414,29.059170402531848,-11.555600055933525,4212106511
sw,-64.0252304077148,-87.5918197631836,27.067307393242213,-33.2589571417723,4212123178
sw,-64.4673080444336,-87.1679306030273,25.413806856012116,-57.00049449578029,4212139845
sw,-65.0470504760742,-86.3593368530273,24.311043631168992,-81.37435009721784,4212156512
sw,-65.4276504516601,-85.036750793457,23.972389340155743,-104.73334303687383,4212173179
sw,-65.5513153076171,-83.1383590698242,24.554500994362797,-125.4173798168835,4212189846
sw,-66.0075912475586,-80.5885696411132,26.062395542535278,-142.03055383284533,4212206513
sw,-66.7370452880859,-77.6950225830078,28.2772886801341,-153.69146128871503,4212223180
sw,-67.7107391357421,-74.8325119018554,30.770557106609846,-160.17242332726454,4212239847
sw,-68.6897277832031,-72.0589523315429,33.02102779869769,-161.8740071268893,4212256514
sw,-69.5828399658203,-69.3330078125,34.5905125978175,-159.64268666795041,4212273181
sw,-70.4111175537109,-66.8191757202148,35.27781471027411,-154.4996636982721,4212289848
sw,-71.1258697509765,-64.53955078125,35.18299666134895,-147.37589053033366,4212306515
sw,-71.7761688232421,-62.4271774291992,34.659414822034954,-138.93406663862467,4212323182
sw,-72.4669799804687,-60.4313507080078,34.18230162756889,-129.51718079119357,4212339849
sw,-73.2932434082031,-58.5002212524414,34.19240688997426,-119.21469849677378,4212356516
sw,-74.1992797851562,-56.6414108276367,34.970256195425534,-107.9972359500774,4212373183
sw,-75.0233459472656,-54.9995574951171,36.57077421567143,-95.85092360073793,4212389850
sw,-75.7211151123046,-53.6666526794433,38.82082242193827,-82.85229926198399,4212406517
sw,-76.4134368896484,-52.6768150329589,41.3686811687159,-69.16170938052363,4212423184
sw,-77.1966247558593,-52.0131187438964,43.77258417298036,-54.96090905624256,4212439851
sw,-78.0307312011718,-51.6196556091308,45.61304032252726,-40.3928082403765,4212456518
sw,-78.8975753784179,-51.3434181213378,46.60518853932108,-25.55843516857406,4212473185
sw,-79.7876205444336,-51.2581100463867,46.67979077501158,-10.58830498159366,4212489852
sw,-80.6514053344726,-51.2094650268554,46.00487248025711,4.246379844582357,4212506519
sw,-81.4666442871093,-51.3549194335937,44.936652096424346,18.45261010120487,4212523186
sw,-82.2362289428711,-51.9580154418945,43.91136222535069,31.330777452940666,4212539853
sw,-82.9922943115234,-52.9491424560546,43.30896650550408,42.10753510952258,4212556520
sw,-83.7667770385742,-54.0577201843261,43.32822377063852,50.14356444782452,4212573187
sw,-84.5553283691406,-55.007583618164,43.9075989593033,55.128311963201824,4212589854
sw,-85.3633346557617,-55.9794998168945,44.71092146135268,57.17743537029539,4212606521
sw,-86.13330078125,-56.9836883544921,45.1770797143499,56.79793884503784,4212623188
sw,-86.7817993164062,-57.9717712402343,44.617261711520335,54.74584473718844,4212639855
sw,-87.2834396362304,-58.9323539733886,42.33662327203178,51.83647407206101,4212656522
sw,-87.6321411132812,-59.7400131225585,37.75928887972968,48.76957864432299,4212673189
sw,-87.8458709716796,-60.4552497863769,30.540265447681122,46.01525188740592,4212689856
sw,-87.9681777954101,-61.1820335388183,20.648983626010022,43.78630024535666,4212706523
sw,-88.0546875,-61.970848083496,8.406375885053292,42.099751421053035,4212723190
sw,-88.1221618652343,-62.9993553161621,-5.543368758266984,40.899884738038075,4212739857
sw,-88.0929946899414,-63.9089279174804,-20.336621412433843,40.18408633731147,4212756524
sw,-87.7549362182617,-64.4697952270507,-35.05921968062773,40.06301450139892,4212773191
sw,-86.956314086914,-65.0362014770507,-48.94273443112393,40.71708232227534,4212789858
sw,-85.7057266235351,-65.7213821411132,-61.529574487992896,42.2721839955321,4212806525
sw,-84.1005706787109,-66.5573425292968,-72.74738187233595,44.66931691017971,4212823192
sw,-82.3323135375976,-67.6034927368164,-82.85731211223839,47.608411394048254,4212839859
sw,-80.3579025268554,-68.7545928955078,-92.28431868414812,50.603088160307294,4212856526
sw,-78.2136764526367,-69.8749160766601,-101.38465879283595,53.120201130182046,4212873193
sw,-75.8948593139648,-70.8797988891601,-110.23522816043214,54.735006152229595,4212889860
sw,-73.4910278320312,-71.7567749023437,-118.5245875171566,55.232656111707186,4212906527
sw,-71.2616195678711,-72.5905838012695,-125.58683644175328,54.624078565720666,4212923194
sw,-69.2435150146484,-73.4932861328125,-130.56520407558367,53.09189319432306,4212939861
sw,-67.2706527709961,-74.4492645263671,-132.64670269296687,50.910778235096984,4212956528
sw,-65.3229064941406,-75.4416961669921,-131.288128933035,48.383996606828525,4212973195
sw,-63.4414596557617,-76.4164047241211,-126.36045697642092,45.81237536962484,4212989862
sw,-61.6905784606933,-77.2770843505859,-118.16890466400261,43.484669323261905,4213006529
sw,-60.1372909545898,-77.9983978271484,-107.34968509425806,41.66665133943608,4213023196
sw,-58.7495994567871,-78.662353515625,-94.6861243449572,40.57450027816394,4213039863
sw,-57.4892234802246,-79.3340072631836,-80.91066686714717,40.3361335097222,4213056530
sw,-56.500259399414,-80.0336227416992,-66.55813248868098,40.9572950433988,4213073197
sw,-55.8555679321289,-80.7716293334961,-51.914511497984684,42.30936710671612,4213089864
sw,-55.4775962829589,-81.570442199707,-37.07562417376227,44.1457325677711,4213106531
sw,-55.2573013305664,-82.408576965332,-22.097349462925013,46.14136462856136,4213123198
sw,-55.1475524902343,-83.2353744506836,-7.184168260600987,47.942849609585615,4213139865
sw,-55.2201652526855,-84.0485687255859,7.1671388322806,49.21548473669229,4213156532
sw,-56.1723518371582,-84.9113082885742,20.153591737110226,49.67854989815925,4213173199
sw,-57.6294479370117,-85.8043670654296,30.818414400230488,49.124741949914664,4213189866
sw,-59.003807067871,-86.6730422973632,38.31980026916708,47.42115657268077,4213206533
sw,-59.7681579589843,-87.4186630249023,42.19740833927526,44.48801978906341,4213223200
sw,-60.4172782897949,-87.9179458618164,42.521866756183,40.253390448643756,4213239867
sw,-61.3327827453613,-88.1271667480468,39.88371278134317,34.59205467571843,4213256534
sw,-62.3892097473144,-88.1494522094726,35.25374708702544,27.27204818923193,4213273201
sw,-63.1522712707519,-88.0744094848632,29.77602769626445,17.942119557755074,4213289868
sw,-63.7443389892578,-87.9668350219726,24.546797102339323,6.187406505178528,4213306535
sw,-64.1822433471679,-87.8408813476562,20.42415439574044,-8.342626579964463,4213323202
sw,-64.2524185180664,-87.701431274414,17.912379570351256,-25.760682596155693,4213339869
sw,-64.7410888671875,-87.4348678588867,17.149532517913784,-45.774109555510755,4213356536
sw,-65.4303512573242,-86.8105239868164,17.986427035001377,-67.5841839833562,4213373203
sw,-65.7314834594726,-85.6787185668945,20.10244404427665,-89.90247199652995,4213389870
sw,-65.935806274414,-84.0284729003906,23.096481277965115,-111.10480679430486,4213406537
sw,-66.4605865478515,-81.8288192749023,26.529910165202534,-129.50079417451087,4213423204
sw,-67.275161743164,-79.1411590576171,29.94727955283086,-143.6538689705163,4213439871
sw,-68.1855316162109,-76.2726516723632,32.91460616038085,-152.66078067014632,4213456538
sw,-69.1521987915039,-73.4911193847656,35.08894107272412,-156.3052691586917,4213473205
sw,-70.1021347045898,-70.7822875976562,36.29779973750657,-155.04163354109374,4213489872
sw,-70.9764328002929,-68.3008575439453,36.59058504558381,-149.8232695123932,4213506539
sw,-71.7189483642578,-66.0954513549804,36.2314225832406,-141.84077932212404,4213523206
sw,-72.3582000732421,-64.110595703125,35.626439211500895,-132.253706265912,4213539873
sw,-73.0776596069336,-62.2520675659179,35.20691841993514,-121.98773002123012,4213556540
sw,-73.9126434326171,-60.4410018920898,35.30874677685346,-111.63603079728055,4213573207
sw,-74.7797012329101,-58.7180862426757,36.08793097663187,-101.46325257872026,4213589874
sw,-75.5805435180664,-57.1328887939453,37.49411438897485,-91.47728881992698,4213606541
sw,-76.335823059082,-55.751365661621,39.3017277953833,-81.52082853027034,4213623208
sw,-77.0956115722656,-54.6767501831054,41.183082053931244,-71.34640362285971,4213639875
sw,-77.8556365966796,-53.8840255737304,42.80174053775846,-60.66762158692656,4213656542
sw,-78.6352844238281,-53.3192901611328,43.9039377911007,-49.20670754083236,4213673209
sw,-79.4773941040039,-52.9151649475097,44.38685517872087,-36.76550148959201,4213689876
sw,-80.3551864624023,-52.5817604064941,44.325089504457274,-23.326989142404198,4213706543
sw,-81.1789321899414,-52.4350509643554,43.943834828893706,-9.158991676791306,4213723210
sw,-81.9332809448242,-52.4073486328125,43.54197625012555,5.135110588292265,4213739877
sw,-82.6654052734375,-52.7512741088867,43.38733651862809,18.670371939759892,4213756544
sw,-83.4145965576171,-53.50825881958,43.61942215573759,30.452448466662034,4213773211
sw,-84.1717376708984,-54.4984703063964,44.19250724318141,39.62478393816218,4213789878
sw,-84.9126510620117,-55.3915634155273,44.874180015409486,45.70402655480867,4213806545
sw,-85.5990524291992,-56.1892013549804,45.29204372151022,48.71432994517091,4213823212
sw,-86.203369140625,-57.0579147338867,45.00587147025944,49.173267559342264,4213839879
sw,-86.6971359252929,-57.9388084411621,43.57969435905005,47.94264292291098,4213856546
sw,-87.0780563354492,-58.7750205993652,40.63643275639417,46.00211393113107,4213873213
sw,-87.3473815917968,-59.5717430114746,35.89096171584044,44.216947005457385,4213889880
sw,-87.5248870849609,-60.3106651306152,29.169102922021658,43.161226783730775,4213906547
sw,-87.6315689086914,-61.0288963317871,20.424582357789976,43.038028627437996,4213923214
sw,-87.6981124877929,-61.7781257629394,9.761536651256133,43.71350121975811,4213939881
sw,-87.7303085327148,-62.6669731140136,-2.5409952844315007,44.8507724103401,4213956548
sw,-87.71484375,-63.8434104919433,-16.01815621205224,46.0941382545059,4213973215
sw,-87.545051574707,-64.6666488647461,-30.043059031078116,47.228263740460974,4213989882
sw,-87.0387954711914,-65.1633987426757,-43.90032951238332,48.242919438611764,4214006549
sw,-86.2054290771484,-65.8349533081054,-56.907033827565314,49.279665964596695,4214023216
sw,-84.9335327148437,-66.6925201416015,-68.55555150657455,50.499953834160976,4214039883
sw,-83.2609939575195,-67.6887054443359,-78.63250452475816,51.953040961931656,4214056550
sw,-81.2267608642578,-68.8022689819336,-87.26047288234874,53.513419633594644,4214073217
sw,-79.2029724121093,-69.973892211914,-94.82622081450977,54.91247522077261,4214089884
sw,-77.1334533691406,-71.1429672241211,-101.80243942585426,55.83836267492977,4214106551
sw,-74.8513793945312,-72.2401962280273,-108.52112672418482,56.04824615731858,4214123218
sw,-72.6091384887695,-73.1900787353515,-114.98494969451025,55.439636887229454,4214139885
sw,-70.621353149414,-74.067756652832,-120.79095462665855,54.05701908621077,4214156552
sw,-68.7323150634765,-74.971694946289,-125.19847621479249,52.04753368708103,4214173219
sw,-66.7417678833007,-75.9757080078125,-127.32208323651211,49.60313681173247,4214189886
sw,-64.7813568115234,-77.0027313232421,-126.38686708436408,46.923869301356355,4214206553
sw,-62.735252380371,-77.9268722534179,-121.95844455417128,44.2131166350742,4214223220
sw,-61.0867004394531,-78.7215270996093,-114.06596226234907,41.690160401401535,4214239887
sw,-59.7513351440429,-79.4147796630859,-103.1776799342175,39.595253702101616,4214256554
sw,-58.368797302246,-80.0493392944336,-90.04939492032179,38.17066423348403,4214273221
sw,-57.3166275024414,-80.6582641601562,-75.51495417613552,37.61763512079368,4214289888
sw,-56.57857131958,-81.2852630615234,-60.30281783960113,38.04266533527099,4214306555
sw,-56.1015014648437,-81.9817123413086,-44.944419014375065,39.41181351645698,4214323222
sw,-55.8396186828613,-82.7211532592773,-29.80276167425349,41.529425330424715,4214339889
sw,-55.6960067749023,-83.4842834472656,-15.202334597687882,44.05056565519537,4214356556
sw,-55.6465301513671,-84.2709121704101,-1.5912681815688337,46.527540143888594,4214373223
sw,-55.9053840637207,-85.0988388061523,10.36709343499221,48.48231078931344,4214389890
sw,-57.0781364440918,-85.9753265380859,19.863144558044727,49.48895532209464,4214406557
sw,-58.6314659118652,-86.9006729125976,26.183819174747697,49.24401232525879,4214423224
sw,-59.9311485290527,-87.7714691162109,29.031086838208772,47.599947646322555,4214439891
sw,-60.4947891235351,-88.3890533447265,28.746748407179886,44.54253076442106,4214456558
sw,-60.7618980407714,-88.5693283081054,26.30614763152163,40.110121472418335,4214473225
sw,-61.1125259399414,-88.4718475341796,23.06335416403263,34.27922526282188,4214489892
sw,-61.648811340332,-88.3283615112304,20.353471044839967,26.864744000471603,4214506559
sw,-62.2639999389648,-88.2355346679687,19.10952711733208,17.489363932331923,4214523226
sw,-62.8870620727539,-88.1895446777343,19.625030401218226,5.65594485361051,4214539893
sw,-63.5462226867675,-88.1391220092773,21.52912813473093,-9.083332410226301,4214556560
sw,-63.9134216308593,-88.0522766113281,23.974574054596097,-26.908293742345784,4214573227
sw,-64.5325164794921,-87.8485107421875,25.97894474851013,-47.534056941191245,4214589894
sw,-65.3477783203125,-87.3526306152343,26.808213305550307,-70.1077553757448,4214606561
sw,-65.7588272094726,-86.3408813476562,26.2634782122132,-93.24810037387661,4214623228
sw,-65.8601379394531,-84.6884689331054,24.753353328364483,-115.23908532577262,4214639895
sw,-66.0327682495117,-82.3249969482421,23.117075663254905,-134.34198171984835,4214656562
sw,-66.356216430664,-79.5237121582031,22.273606549747132,-149.1448956233696,4214673229
sw,-66.9899520874023,-76.6199569702148,22.848846052559473,-158.84534648979056,4214689896
sw,-67.8590316772461,-73.7835998535156,24.9363903744137,-163.37638813636318,4214706563
sw,-68.7519760131836,-71.0164260864257,28.082081762447142,-163.34012914082192,4214723230
sw,-69.7252960205078,-68.3475112915039,31.484193308964784,-159.7793231703974,4214739897
sw,-70.6650848388671,-65.8706359863281,34.31259682248751,-153.86630860484888,4214756564
sw,-71.4460983276367,-63.6780815124511,36.00839241320854,-146.6035550984745,4214773231
sw,-72.088134765625,-61.6521987915039,36.44732046543187,-138.6161216058656,4214789898
sw,-72.77685546875,-59.6349563598632,35.92231466657767,-130.08399075196212,4214806565
sw,-73.6116561889648,-57.6080780029296,34.9822269299032,-120.8184445466888,4214823232
sw,-74.5232238769531,-55.720603942871,34.21199167488607,-110.44048838948149,4214839899
sw,-75.3475189208984,-54.0316200256347,34.03868870124763,-98.58796731583413,4214856566
sw,-75.9785232543945,-52.6586685180664,34.61657600884829,-85.07761369824514,4214873233
sw,-76.5244979858398,-51.6714744567871,35.81081186574058,-69.97903261442593,4214889900
sw,-77.137336730957,-51.0353546142578,37.275790531520975,-53.60154135420134,4214906567
sw,-77.9129409790039,-50.5923233032226,38.60271995580884,-36.4280264658883,4214923234
sw,-78.7739334106445,-50.5071640014648,39.48732602851306,-19.038058750325323,4214939901
sw,-79.5885238647461,-50.5833358764648,39.85359414693338,-2.0475843360985553,4214956568
sw,-80.3152618408203,-50.8212585449218,39.880599559060386,13.93092666090167,4214973235
sw,-80.9689178466796,-51.3175163269043,39.919154213992556,28.32079283968802,4214989902
sw,-81.6199264526367,-52.2081069946289,40.33363661803587,40.6210588075188,4215006569
sw,-82.3272933959961,-53.1974601745605,41.33471908712388,50.45748620467066,4215023236
sw,-83.1150741577148,-54.2623329162597,42.866102166840456,57.631400009489774,4215039903
sw,-84.0010986328125,-55.3985061645507,44.578751771820876,62.14514049038496,4215056570
sw,-84.9084167480468,-56.5203056335449,45.88862161061593,64.18989973669613,4215073237
sw,-85.6980667114257,-57.5890960693359,46.08746130642442,64.0974793112659,4215089904
sw,-86.3455352783203,-58.6522750854492,44.47038765308519,62.27142171258011,4215106571
sw,-86.8797073364257,-59.6007232666015,40.454988160155196,59.12051768923405,4215123238
sw,-87.3367080688476,-60.4780120849609,33.68200023674695,55.01917234471265,4215139905
sw,-87.7530136108398,-61.3539772033691,24.093743888447683,50.31277057948085,4215156572
sw,-88.0976181030273,-62.2867698669433,11.979469966824732,45.36761052099926,4215173239
sw,-88.2767181396484,-63.3823814392089,-2.034225957727818,40.635340701956615,4215189906
sw,-88.0786819458007,-64.1400451660156,-17.068460281660318,36.6766143073235,4215206573
sw,-87.4451828002929,-64.4110031127929,-32.15029342130654,34.09322666826769,4215223240
sw,-86.5306777954101,-64.7601013183593,-46.40753399848409,33.36476987612038,4215239907
sw,-85.2834167480468,-65.3206558227539,-59.241225139635944,34.65238643233593,4215256574
sw,-83.6364364624023,-66.0109939575195,-70.42161797565007,37.6713896631363,4215273241
sw,-81.7761459350586,-66.9717025756836,-80.07932069094782,41.71429129692525,4215289908
sw,-79.787239074707,-68.1078948974609,-88.59511877839287,45.83576129109636,4215306575
sw,-77.5306701660156,-69.2419815063476,-96.41962492623253,49.13175427017508,4215323242
sw,-75.1375122070312,-70.2964553833007,-103.8729850782434,50.999615592541105,4215339909
sw,-72.7793045043945,-71.1747436523437,-110.98217682609591,51.27726243626271,4215356576
sw,-70.547981262207,-71.8601455688476,-117.40701520497238,50.219226568941316,4215373243
sw,-68.5133819580078,-72.5451354980468,-122.48478694296082,48.34174418078164,4215389910
sw,-66.5853118896484,-73.3866577148437,-125.38856392097853,46.21908481341392,4215406577
sw,-64.6850814819336,-74.3648986816406,-125.35461454386429,44.31631675073833,4215423244
sw,-62.8036727905273,-75.3426132202148,-121.90667115342775,42.905753512217956,4215439911
sw,-61.0242729187011,-76.1862487792968,-115.0028456344961,42.06487203168424,4215456578
sw,-59.4368057250976,-76.9023056030273,-105.05617031760137,41.72328618644098,4215473245
sw,-58.0832061767578,-77.5882720947265,-92.82254291140077,41.72529246157388,4215489912
sw,-56.9761734008789,-78.296142578125,-79.19565013646667,41.889508898645865,4215506579
sw,-56.0807304382324,-79.0236129760742,-64.98175674568736,42.059492869345384,4215523246
sw,-55.4047126770019,-79.7862548828125,-50.73558085857456,42.141329166407026,4215539913
sw,-54.9365081787109,-80.5737075805664,-36.7170340516705,42.12091828391378,4215556580
sw,-54.6648025512695,-81.3368225097656,-22.983087139583734,42.053277566136806,4215573247
sw,-54.5770301818847,-82.0029144287109,-9.574393771184052,42.02278628594783,4215589914
sw,-54.7057380676269,-82.6347274780273,3.287509209911189,42.08541176562324,4215606581
sw,-55.1308937072753,-83.2972640991211,15.090395688462605,42.21507107681409,4215623248
sw,-56.1553649902343,-84.0200119018554,25.078554873155223,42.27815816718577,4215639915
sw,-57.5078659057617,-84.8170013427734,32.45890157772948,42.048953280684174,4215656582
sw,-58.8239479064941,-85.6426162719726,36.68654621089526,41.258734266815665,4215673249
sw,-59.6769943237304,-86.3912582397461,37.700740457414156,39.65369789432624,4215689916
sw,-60.2569198608398,-86.9864349365234,36.00098365105413,37.03144739837283,4215706583
sw,-60.912296295166,-87.4088287353515,32.53251420838406,33.23650036248426,4215723250
sw,-61.6921424865722,-87.7039031982421,28.43720319196186,28.117057216532636,4215739917
sw,-62.3443489074707,-87.8784637451171,24.768335135731373,21.467245981341186,4215756584
sw,-62.9724731445312,-87.9805450439453,22.258837026607925,12.99074436794463,4215773251
sw,-63.6815147399902,-87.9751358032226,21.19966260357434,2.3181438824450007,4215789918
sw,-63.96724319458,-87.7879562377929,21.45034799307719,-10.907071244337088,4215806585
sw,-64.5440521240234,-87.4101867675781,22.56948630423406,-26.884775445153586,4215823252
sw,-65.3094940185546,-86.8255386352539,24.017486954439676,-45.49311915556829,4215839919
sw,-65.7744064331054,-85.943244934082,25.35718570082352,-66.1554003435904,4215856586
sw,-66.1198501586914,-84.7132492065429,26.378493317134183,-87.79380441374407,4215873253
sw,-66.6505050659179,-83.0974884033203,27.10985779996471,-108.9081779163309,4215889920
sw,-67.2150421142578,-80.8963165283203,27.732503682428888,-127.78411738790457,4215906587
sw,-67.9143981933593,-78.2450180053711,28.450594053146016,-142.79136841721825,4215923254
sw,-68.7432250976562,-75.4430999755859,29.377500929153644,-152.69647211387397,4215939921
sw,-69.5989074707031,-72.6263961791992,30.482853846298863,-156.90140803300258,4215956588
sw,-70.4738693237304,-69.8224639892578,31.616583849676537,-155.54122412554693,4215973255
sw,-71.3508605957031,-67.2428817749023,32.59160814935847,-149.41793905213626,4215989922
sw,-72.06982421875,-65.0635604858398,33.27908927199717,-139.79492515611813,4216006589
sw,-72.7009963989257,-63.2502212524414,33.66619193943285,-128.1111186060382,4216023256
sw,-73.3957595825195,-61.6262245178222,33.850923791151736,-115.69188182298676,4216039923
sw,-74.1771545410156,-60.0237770080566,33.98589276065364,-103.5284798390944,4216056590
sw,-74.9829635620117,-58.4560050964355,34.207333991424456,-92.1690862980145,4216073257
sw,-75.7845458984375,-57.0123634338378,34.58497168146379,-81.72162977698396,4216089924
sw,-76.514533996582,-55.7561340332031,35.10998298282425,-71.93479566016075,4216106591
sw,-77.1806564331054,-54.7820396423339,35.71863912116072,-62.3157784295857,4216123258
sw,-77.8089141845703,-54.0851860046386,36.33774245624861,-52.26043913439538,4216139925
sw,-78.4830474853515,-53.6415214538574,36.93417604162939,-41.194190374410006,4216156592
sw,-79.1932373046875,-53.3489608764648,37.55037183385301,-28.728348246417045,4216173259
sw,-79.9253997802734,-53.110008239746,38.30964047273337,-14.818418672599538,4216189926
sw,-80.6632080078125,-53.0820732116699,39.38326637586646,0.12005407075238864,4216206593
sw,-81.4007034301757,-53.2738494873046,40.92539376513959,15.19954252060174,4216223260
sw,-82.162841796875,-54.0055885314941,42.99577827057787,29.19477135466488,4216239927
sw,-82.9736251831054,-54.9856376647949,45.49638947894441,40.81025808831398,4216256594
sw,-83.823974609375,-55.9808158874511,48.14280659727477,49.00534177842138,4216273261
sw,-84.6946640014648,-56.9128074645996,50.47917402973126,53.26882303209072,4216289928
sw,-85.5693359375,-57.9409790039062,51.93251748370652,53.75388820612178,4216306595
sw,-86.4061050415039,-58.920913696289,51.893097209026344,51.23875355834362,4216323262
sw,-87.1036300659179,-59.7962913513183,49.80390780872742,46.9363520616783,4216339929
sw,-87.5899505615234,-60.5190544128418,45.24400096407753,42.21413239658963,4216356596
sw,-87.8265151977539,-61.0728874206543,37.99505170113724,38.299948290266805,4216373263
sw,-87.8591766357421,-61.5969123840332,28.08537909980022,36.04812022820763,4216389930
sw,-87.7943344116211,-62.1154060363769,15.807655887930514,35.82221493239156,4216406597
sw,-87.6971817016601,-62.9916038513183,1.705443541780809,37.51501099558007,4216423264
sw,-87.5992279052734,-64.0567321777343,-13.477743612439134,40.67705906070103,4216439931
sw,-87.4359359741211,-64.790283203125,-28.89055029384603,44.68587423077208,4216456598
sw,-87.0451507568359,-65.4017868041992,-43.701375492790476,48.88619334939126,4216473265
sw,-86.2498626708984,-66.1947784423828,-57.2411277918532,52.67217389340719,4216489932
sw,-84.9179306030273,-67.2406692504882,-69.12658921345243,55.53195155498598,4216506599
sw,-83.2246017456054,-68.4927368164062,-79.32320521695812,57.091728813060314,4216523266
sw,-81.2861175537109,-69.7326431274414,-88.11402557491441,57.171629502291424,4216539933
sw,-79.1820220947265,-70.8398284912109,-95.96747062677804,55.8286710120244,4216556600
sw,-76.9342956542968,-71.8079528808593,-103.33464053471243,53.34908897026227,4216573267
sw,-74.5441665649414,-72.6046371459961,-110.44029059167447,50.17357378489084,4216589934
sw,-72.2252883911132,-73.3077011108398,-117.14214801791701,46.77718641913012,4216606601
sw,-70.1898880004882,-74.1095657348632,-122.91377958989887,43.552914235353526,4216623268
sw,-68.3746643066406,-74.9944305419921,-126.96446349502482,40.74598860755225,4216639935
sw,-66.5191345214843,-75.88037109375,-128.46128407417723,38.45754563098425,4216656602
sw,-64.4914093017578,-76.6945114135742,-126.77961413093908,36.700420883926526,4216673269
sw,-62.4927749633789,-77.4232711791992,-121.69194398257568,35.46860076501208,4216689936
sw,-60.8029251098632,-78.0692443847656,-113.42297836935892,34.78399833703751,4216706603
sw,-59.3994445800781,-78.6261367797851,-102.5518944861903,34.7031447503645,4216723270
sw,-58.1533241271972,-79.1492462158203,-89.81051417394634,35.289018466201284,4216739937
sw,-57.0818901062011,-79.7052001953125,-75.87302889411207,36.56895029171709,4216756604
sw,-56.213623046875,-80.3780670166015,-61.231684960145195,38.50288785410623,4216773271
sw,-55.6116333007812,-81.1595306396484,-46.205453093159065,40.977178662342844,4216789938
sw,-55.2275848388671,-81.9952316284179,-31.06139456699632,43.82296082240273,4216806605
sw,-55.0106735229492,-82.8674392700195,-16.171618157458575,46.8443095279154,4216823272
sw,-55.1238174438476,-83.7795944213867,-2.1054771424573238,49.83673802700341,4216839939
sw,-56.0979881286621,-84.6873626708984,10.417877129209131,52.582659424103504,4216856606
sw,-57.5370979309082,-85.5600967407226,20.717409154669706,54.82284565429803,4216873273
sw,-58.8916473388671,-86.3828048706054,28.388840920311463,56.216045239703604,4216889940
sw,-59.5951232910156,-87.1323547363281,33.45777497809473,56.307690109420236,4216906607
sw,-60.0111427307128,-87.7173233032226,36.352414367065194,54.529475508081205,4216923274
sw,-60.6825904846191,-88.0252380371093,37.70794609710565,50.243807884416356,4216939941
sw,-61.5532073974609,-87.9954299926757,38.10963277966664,42.833512853545386,4216956608
sw,-62.6263389587402,-87.7682266235351,37.90180989169469,31.822546474782442,4216973275
sw,-63.7146492004394,-87.5486450195312,37.13873155045455,17.002165692324777,4216989942
sw,-64.6703186035156,-87.4565505981445,35.67999453565221,-1.467591237839605,4217006609
sw,-65.4616165161132,-87.4735336303711,33.37899313556762,-23.007194998784946,4217023276
sw,-66.0450744628906,-87.398567199707,30.28590337600994,-46.632061938085414,4217039943
sw,-66.7580337524414,-86.9695892333984,26.779618061386323,-71.03249987308902,4217056610
sw,-66.8876495361328,-86.0118408203125,23.556493893185163,-94.70967526232685,4217073277
sw,-66.7146835327148,-84.5689163208007,21.44948404321287,-116.15364117838784,4217089944
sw,-66.8644485473632,-82.5235214233398,21.128919107971814,-134.04421946616034,4217106611
sw,-67.2890472412109,-79.8993453979492,22.810195457519963,-147.44312462299771,4217123278
sw,-68.1591110229492,-77.0648651123046,26.11009360193399,-155.93051750859675,4217139945
sw,-69.2637786865234,-74.3052291870117,30.131118107298235,-159.638011160182,4217156612
sw,-70.1932144165039,-71.6205902099609,33.74730266580361,-159.1569567723913,4217173279
sw,-71.0509033203125,-69.0170059204101,35.97659730105602,-155.34752242179934,4217189946
sw,-71.9240493774414,-66.6034698486328,36.2956020341458,-149.11283406629573,4217206613
sw,-72.6546936035156,-64.3705596923828,34.78501250037812,-141.21050606069866,4217223280
sw,-73.134765625,-62.2826042175293,32.06592942650932,-132.15118839777378,4217239947
sw,-73.6011734008789,-60.3110847473144,29.068046299047186,-122.19620831321629,4217256614
sw,-74.3063430786132,-58.4575805664062,26.72934173696948,-111.43051972393077,4217273281
sw,-75.1144561767578,-56.7264671325683,25.737449489394965,-99.86430904891905,4217289948
sw,-75.8097229003906,-55.2501602172851,26.384013163242706,-87.51382124385927,4217306615
sw,-76.3737487792968,-54.089786529541,28.545459433430988,-74.4309829041493,4217323282
sw,-76.8813781738281,-53.2629737854003,31.763607824961934,-60.68513148596389,4217339949
sw,-77.4777221679687,-52.7386093139648,35.38880472290466,-46.33232363204622,4217356616
sw,-78.2326202392578,-52.3686332702636,38.75159905205776,-31.419111008123622,4217373283
sw,-79.1206970214843,-52.148151397705,41.32930150310961,-16.047754280627863,4217389950
sw,-80.0566940307617,-52.0566291809082,42.87011811000195,-0.48612268100206424,4217406617
sw,-80.9569091796875,-52.1074180603027,43.440653970749125,14.737182124399979,4217423284
sw,-81.7963714599609,-52.6014671325683,43.38001418537042,28.824863831035223,4217439951
sw,-82.570198059082,-53.5892486572265,43.17173316546689,40.83115878065816,4217456618
sw,-83.3086318969726,-54.8441429138183,43.27170306535395,49.88730170079178,4217473285
sw,-84.0528793334961,-55.9894294738769,43.94474939350617,55.448267993530784,4217489952
sw,-84.885498046875,-57.0299110412597,45.15860319406551,57.45816842642352,4217506619
sw,-85.7822113037109,-57.9945373535156,46.56296211856099,56.368977165062404,4217523286
sw,-86.6266403198242,-58.8051643371582,47.55176153146914,53.01570637359164,4217539953
sw,-87.3423690795898,-59.592430114746,47.382166676019054,48.408304749861855,4217556620
sw,-87.8815994262695,-60.3653755187988,45.31474416113617,43.52007603682246,4217573287
sw,-88.2354202270507,-61.0472831726074,40.74580394906918,39.13638177213355,4217589954
sw,-88.3758697509765,-61.7367553710937,33.315364612131965,35.793322493747425,4217606621
sw,-88.3391647338867,-62.3881645202636,22.982246504586993,33.799526412140324,4217623288
sw,-88.2644958496093,-63.2632751464843,10.058294606560592,33.30333852761437,4217639955
