Label,Left_Hip_q,Right_Hip_q,Left_Hip_qd,Right_Hip_qd,SampleTimeFine
sq,-10.7072387695312,-9.58597717285156,-5.12981414794922,-0.61798095703125,584534217
sq,-10.7893157958984,-9.59586486816406,-2.9659524180957715,1.4149124341435295,584550884
sq,-10.8367935180664,-9.57322845458984,-1.8779602503683697,1.5702865343399839,584567551
sq,-10.8466430664062,-9.54301605224609,-0.8684587739333015,1.6974315353889438,584584218
sq,-10.85,-9.50782165527344,0.001935036898333492,1.774729906664626,584600885
sq,-10.8379684448242,-9.47664794921875,0.6997848003408702,1.791643076256683,584617552
sq,-10.8232818603516,-9.44953308105469,1.2204192257058777,1.7497357065345112,584634219
sq,-10.8161865234375,-9.42480621337891,1.5815444582116063,1.6606008465363258,584650886
sq,-10.799348449707,-9.3994384765625,1.8127000577083277,1.5419766625731044,584667553
sq,-10.7758117675781,-9.37604675292969,1.9450334814280505,1.4134882865244611,584684220
sq,-10.7438446044922,-9.35313568115234,2.0044556387155237,1.2930044296167036,584700887
sq,-10.7075286865234,-9.33040771484375,2.009024583026825,1.1940515341390796,584717554
sq,-10.676416015625,-9.31314239501953,1.9697310761463667,1.124395108509542,584734221
sq,-10.6455474853516,-9.29661712646484,1.8932375321217745,1.0857946924546447,584750888
sq,-10.613671875,-9.28003082275391,1.7852055271843024,1.0748749867275695,584767555
sq,-10.5828033447266,-9.26159820556641,1.6531217393405773,1.0848719376268259,584784222
sq,-10.5544906616211,-9.24299011230469,1.5078382468416318,1.107768811698627,584800889
sq,-10.5312896728516,-9.22520599365234,1.3634638060979154,1.1362264787906422,584817556
sq,-10.5105529785156,-9.20639190673828,1.2357399347590103,1.1648228000973364,584834223
sq,-10.4891220092773,-9.18655548095703,1.1394144441613603,1.1903698746506974,584850890
sq,-10.471711730957,-9.16642913818359,1.0852860051240028,1.2113721813115315,584867557
sq,-10.4530960083008,-9.14860687255859,1.0776280322279035,1.2269785139266,584884224
sq,-10.4398132324219,-9.13122711181641,1.112703271265143,1.2359950584438333,584900891
sq,-10.4246154785156,-9.11352691650391,1.178975341907343,1.2365178031748694,584917558
sq,-10.4071670532227,-9.09453735351562,1.2592484757289157,1.2264130984400348,584934225
sq,-10.3853775024414,-9.07270202636719,1.3343239270294514,1.2043429932257967,584950892
sq,-10.3608032226562,-9.04860076904297,1.3871321849055134,1.170622154139974,584967559
sq,-10.3361068725586,-9.02751312255859,1.4060620823313157,1.1272421870804874,584984226
sq,-10.3125473022461,-9.01170501708984,1.3865296523286759,1.0769737252387976,585000893
sq,-10.2880722045898,-8.99997863769531,1.3305552208986122,1.0221929357253672,585017560
sq,-10.2713027954102,-8.98690948486328,1.244900494362676,0.964385169030778,585034227
sq,-10.255029296875,-8.97113189697266,1.1387926796729761,0.9048365872638625,585050894
sq,-10.2397171020508,-8.95350036621094,1.0221676446062065,0.8461147350958921,585067561
sq,-10.2195220947266,-8.93554840087891,0.9047279909853605,0.7932215895983568,585084228
sq,-10.1981674194336,-8.92094573974609,0.7953921894594774,0.7532825717889037,585100895
sq,-10.1854110717773,-8.90718231201172,0.7015240357029907,0.7333251998514231,585117562
sq,-10.1797653198242,-8.89621124267578,0.6278442863475848,0.7367122342533962,585134229
sq,-10.1725250244141,-8.88794097900391,0.5755965504564362,0.759642811790939,585150896
sq,-10.1642623901367,-8.87989196777344,0.5426611133942806,0.7894649107893092,585167563
sq,-10.1517807006836,-8.87060699462891,0.5247764519406252,0.80619893568128,585184230
sq,-10.1432739257812,-8.86033782958984,0.5173733405864978,0.7877337578949436,585200897
sq,-10.1344924926758,-8.84691009521484,0.5172749661830993,0.717923514109674,585217564
sq,-10.1250549316406,-8.83336791992187,0.5237129064480978,0.5956990014461415,585234231
sq,-10.1177230834961,-8.82012329101562,0.5384702050804704,0.44267689134188437,585250898
sq,-10.1097732543945,-8.8108154296875,0.5652454831941623,0.3067864280277599,585267565
sq,-10.0982833862305,-8.80117950439453,0.608478067041275,0.2600959691151569,585284232
sq,-10.0848861694336,-8.79155883789062,0.6719900781512853,0.3901501462541652,585300899
sq,-10.0752807617187,-8.78021392822266,0.7580586329763865,0.7855968830070448,585317566
sq,-10.0699935913086,-8.76704559326172,0.8679006122153435,1.5185815366571824,585334233
sq,-10.0663391113281,-8.75042114257812,1.0045874678715359,2.6279999535419862,585350900
sq,-10.058984375,-8.71825561523437,1.1785053659846747,4.108590103415174,585367567
sq,-10.0308929443359,-8.67428741455078,1.4135787672100508,5.910245322056944,585384234
sq,-9.98573455810547,-8.57899627685547,1.7506012157873037,7.94948818498043,585400901
sq,-9.9372802734375,-8.45401153564453,2.243901168840729,10.131284368074562,585417568
sq,-9.90270385742187,-8.28099212646484,2.950272655864281,12.375706535645175,585434235
sq,-9.86853179931641,-8.07650146484375,3.9136593902292014,14.64187106192302,585450902
sq,-9.82659301757812,-7.82734832763672,5.152805357317918,16.941762284597594,585467569
sq,-9.76896057128906,-7.54263458251953,6.659457294211962,19.338852087659184,585484236
sq,-9.67923126220703,-7.21822509765625,8.411036646351155,21.930291722939373,585500903
sq,-9.54132232666016,-6.86027679443359,10.395332354419274,24.816272729298113,585517570
sq,-9.34610900878906,-6.49469909667969,12.63839805278964,28.06481988866023,585534237
sq,-9.11058197021484,-6.07646331787109,15.223553956823638,31.68283410133955,585550904
sq,-8.85434875488281,-5.59151611328125,18.29115999944244,35.60262726292073,585567571
sq,-8.56788024902344,-5.01083526611328,22.014966558262795,39.68739349890378,585584238
sq,-8.20755157470703,-4.35043487548828,26.55830420406854,43.751947805062905,585600905
sq,-7.77726135253906,-3.62737426757812,32.01918840521464,47.59082378961091,585617572
sq,-7.25665435791016,-2.85892639160156,38.3768973327071,51.006696584011024,585634239
sq,-6.65787658691406,-2.07432708740234,45.45458091109636,53.836568594524465,585650906
sq,-6.00607452392578,-1.25686798095703,52.91272687703196,55.9769548919587,585667573
sq,-5.22153625488281,-0.368730163574218,60.284368822695676,57.40853659516641,585684240
sq,-4.23668823242187,0.584539794921875,67.05264255449283,58.215347519131114,585700907
sq,-3.156884765625,1.60912170410156,72.75690334853192,58.58845166676611,585717574
sq,-1.95447692871094,2.60674896240234,77.101565963056,58.80590384848196,585734241
sq,-0.688829040527343,3.40544738769531,80.03764859569041,59.19117074977202,585750908
sq,0.637777709960938,4.30508270263672,81.79156217961587,60.063682423435914,585767575
sq,2.01589050292969,5.30345764160156,82.82689163599004,61.69738029438228,585784242
sq,3.38429870605469,6.30583801269531,83.74080625701066,64.2944942856802,585800909
sq,4.74486389160156,7.32757415771484,85.11555725017989,67.97130280829342,585817576
sq,6.01392211914063,8.45982971191406,87.36333444759039,72.74860317336092,585834243
sq,7.23515930175781,9.6320671081543,90.61196721363653,78.54234161745497,585850910
sq,8.58924713134766,10.8478263854981,94.6712177569403,85.15539020374787,585867577
sq,10.1389221191406,12.2485488891602,99.09318468010352,92.27642157325799,585884244
sq,11.7433265686035,13.6740783691406,103.3059515918185,99.49414849951798,585900911
sq,13.4843963623047,15.2424682617188,106.77363106281537,106.33399467475496,585917578
sq,15.3317588806152,16.8831352233887,109.12951380061833,112.31924632743348,585934245
sq,17.1395248413086,18.6861557006836,110.24292856002737,117.04979161609259,585950912
sq,18.8524688720703,20.5989784240723,110.20752654075167,120.28054908837863,585967579
sq,20.5684761047363,22.5532745361328,109.26704617981774,121.97369050670885,585984246
sq,22.3528198242187,24.7241767883301,107.71250962822121,122.30014508918646,586000913
sq,23.9839958190918,26.6937431335449,105.78809618193931,121.58079606863592,586017580
sq,25.5326751708984,28.5180267333984,103.63477325668062,120.18346084170568,586034247
sq,27.2255081176758,30.2482322692871,101.28463751561888,118.41477303833462,586050914
sq,28.9703163146973,32.094595336914,98.69866445789866,116.44920345407769,586067581
sq,30.5549377441406,34.058462524414,95.82521382086763,114.31655807943261,586084248
sq,32.0392402648926,35.9788993835449,92.65464030423651,111.94048435595683,586100915
sq,33.5730613708496,37.7030281066895,89.25402688680741,109.20446134830955,586117582
sq,34.9661201477051,39.3602966308594,85.7752671797741,106.02270259579001,586134249
sq,36.3980583190918,41.1149295806885,82.43468193005296,102.39906912686712,586150916
sq,37.8369812011719,42.9484771728516,79.46672298176719,98.4585142113767,586167583
sq,39.0354179382324,44.5560115814209,77.06293325782066,94.43904348399812,586184250
sq,40.1236938476562,45.8985408782959,75.31840913302113,90.64617945772389,586200917
sq,41.2247261047363,47.302811050415,74.21156145881773,87.38961124774093,586217584
sq,42.4109767913818,48.6769622802734,73.62990862400456,84.92686606671907,586234251
sq,43.7067798614502,50.0310348510742,73.42944456281388,83.42674483014157,586250918
sq,45.0513404846191,51.5264915466309,73.4954218433685,82.94812648829624,586267585
sq,46.1879581451416,52.8705142974854,73.7732923106483,83.42276323307456,586284252
sq,47.3058990478516,54.1655563354492,74.25833030388496,84.63865032730025,586300919
sq,48.4708961486816,55.451815032959,74.9546865276288,86.23541449461577,586317586
sq,49.7242912292481,56.7254518508911,75.82506971759378,87.73123559294889,586334253
sq,51.006237411499,58.1623090744018,76.75184060102832,88.5943349657536,586350920
sq,52.0956653594971,59.5905784606934,77.52854061626535,88.35516018890601,586367587
sq,53.169474029541,60.9840663909912,77.8995432763704,86.73869017003284,586384254
sq,54.3766521453857,62.3676713943481,77.65547098643775,83.78673019385397,586400921
sq,55.6557983398437,63.7778014183044,76.76783370940979,79.93736435236171,586417588
sq,57.0419448852539,65.0672821044922,75.51829641855409,76.0305371864751,586434255
sq,58.3594659805298,66.3748620986939,74.564734665426,73.21552480066364,586450922
sq,59.5827764511108,67.6827751636505,74.89771218238158,72.75013591979878,586467589
sq,60.8857969284058,68.9100078582764,77.67156929152371,75.70456944788947,586484256
sq,62.1918510437012,70.2350776433945,83.93119692187194,82.61460889839219,586500923
sq,63.5809072494507,71.4977116879076,94.29018665394015,93.16458645278314,586517590
sq,65.0202449798584,72.7635221719742,108.64482045733119,106.00916005177221,586534257
sq,66.4216178894043,73.9988373756409,126.02424052463763,118.84644448034486,586550924
sq,67.8775867462158,75.2363873958588,144.6639368722258,128.8120063051806,586567591
sq,69.9830252170563,77.009866142273,162.33156011337792,133.16169760633272,586584258
sq,73.4380132496357,79.9244522094727,176.84027763906522,130.07244198191685,586600925
sq,75.7357000350952,82.8852752685547,186.59947540481105,119.28242267960294,586617592
sq,78.8479932785034,86.017169380188,191.01812076401282,102.30164305236958,586634259
sq,82.9527410507202,87.135689163208,190.5987712489711,82.08073088282426,586650926
sq,87.6288303375244,87.281049156189,186.64051694875351,62.25212864133533,586667593
sq,89.3749603271484,88.2142681121826,180.62414702714682,46.211113848703825,586684260
sq,90.3921493530273,89.6080345153809,173.54033406991425,36.30498999814483,586700927
sq,92.4434722900391,89.8138622283936,165.49765173959022,33.303619371175884,586717594
sq,95.8344940185547,89.9409507751465,155.80656135446196,36.239479385682294,586734261
sq,98.7441715240479,90.0937484741211,143.46568211976202,42.65668200638948,586750928
sq,101.532629394531,90.5428298950195,127.77934804507275,49.24559353370093,586767595
sq,103.854040527344,91.2906936645508,108.81914390475922,52.735280977995124,586784262
sq,105.751448059082,92.7886241912842,87.56004146945439,50.806138147112506,586800929
sq,107.295534515381,94.3470748901367,65.67425549833781,42.73382739370007,586817596
sq,108.162035369873,96.1145671844482,45.08977773743204,29.533007388397714,586834263
sq,108.283060455322,96.3864826202393,27.490465935799893,13.540096261362965,586850930
sq,108.441114807129,95.7556060791016,13.936914316694777,-2.404674740934034,586867597
sq,108.577879333496,95.0959972381592,4.721142764435482,-15.857758457606652,586884264
sq,108.801142120361,94.4805835723877,-0.5374846014077634,-25.42917320759159,586900931
sq,109.017080688477,93.9260887145996,-2.64048407182476,-31.001958666935774,586917598
sq,109.209295654297,93.4209083557129,-2.5268956704905556,-33.5053734851919,586934265
sq,109.267332458496,93.1054347991943,-1.0617356174284267,-34.38379661587992,586950932
sq,109.265009307861,92.8670352935791,1.0578801408838097,-34.980464818914456,586967599
sq,109.196924591065,92.6419624328613,3.2949217618331037,-36.05636508862355,586984266
sq,109.091741943359,92.4422744750977,5.2193621690855645,-37.602230649630755,587000933
sq,108.94362487793,92.2697109222412,6.472458511094537,-38.99264637890525,587017600
sq,108.773188018799,92.1347946166992,6.782820055826086,-39.39659410377587,587034267
sq,109.68604888916,88.7118553161621,6.021009153751176,-38.24000986361321,588134289
sq,109.6643699646,88.6034187316895,4.244414706523032,-35.487874483700864,588150956
sq,109.640291595459,88.4667190551758,1.6902831989360227,-31.624169482333215,588167623
sq,109.60291519165,88.2715438842773,-1.2863645541102486,-27.39037118561608,588184290
sq,109.545431518555,88.0229000091553,-4.300272372792656,-23.458059796422933,588200957
sq,109.456930541992,87.743563079834,-7.015541346974648,-20.197869728135966,588217624
sq,109.347456359863,87.4608253479004,-9.199465665572319,-17.621024732590033,588234291
sq,109.21229019165,87.1817096710205,-10.74908004282437,-15.485863965905326,588250958
sq,109.073377990723,86.9028038024902,-11.697704316770832,-13.508609805861898,588267625
sq,108.923323059082,86.6077922821045,-12.20985669890032,-11.59284470598123,588284292
sq,108.727171325684,86.2583040237427,-12.568092992779551,-9.98971068792922,588300959
sq,108.454126739502,85.8629878997803,-13.148181513791643,-9.31924933945458,588317626
sq,108.195696258545,85.4564708709717,-14.375164731137795,-10.424259271345102,588334293
sq,107.943994903565,85.2294620513916,-16.656966577784882,-14.089880383232726,588350960
sq,107.705156707764,85.3539842605591,-20.303496028605668,-20.7297890851671,588367627
sq,107.424291992188,85.6962446212769,-25.451066122470735,-30.17995834749518,588384294
sq,107.044779205322,85.7273477554321,-32.017200945974956,-41.7148011850693,588400961
sq,106.560377502441,84.8319429397583,-39.707021785640194,-54.29822133236364,588417628
sq,106.000059509277,83.3816036224365,-48.08148484896237,-66.94961063112478,588434295
sq,105.308504486084,81.545191192627,-56.68232359452606,-79.02640176666861,588450962
sq,104.447504425049,79.9003528594971,-65.18927890417488,-90.26226584118734,588467629
sq,103.329662704468,78.4895757675171,-73.56405888856952,-100.54278899900729,588484296
sq,101.875883483887,77.5075344085693,-82.12100087272715,-109.56910525423558,588500963
sq,100.323784255981,77.2919138908386,-91.4709248508198,-116.65089896178814,588517630
sq,98.8615383148193,76.0264095306397,-102.32121182997813,-120.80986338860127,588534297
sq,97.2368453979492,72.7406776189804,-115.17265255667552,-121.17658154684712,588550964
sq,95.5446914672852,69.6148027420044,-130.00647283356457,-117.45523889489857,588567631
sq,93.8286308288574,67.1965326309204,-146.0770329057556,-110.17535709132302,588584298
sq,91.9115165710449,66.3931797981262,-161.90297211585695,-100.59358815589118,588600965
sq,89.0313257217407,65.0030111312866,-175.48592106057993,-90.32504408281304,588617632
sq,85.6239990234375,63.8930934906006,-184.70946573640762,-80.90516870049208,588634299
sq,84.0400518417358,62.6028923034668,-187.81971692982984,-73.45809548513785,588650966
sq,79.8729933738709,61.2947639465332,-183.87182873897245,-68.54621183833905,588667633
sq,76.9891587734222,60.1740354537964,-173.0252706204877,-66.18684484578523,588684300
sq,73.7865967988968,59.1412910461426,-156.58629186503586,-65.98138185060093,588700967
sq,70.7462827205658,58.0787185668945,-136.75525807466116,-67.29829837414565,588717634
sq,69.2908987045288,56.9322952270508,-116.13755533618126,-69.46066458246196,588734301
sq,67.7234305381775,55.7165626525879,-97.17010142450721,-71.89878300460856,588750968
sq,66.3765381813049,54.5205787658691,-81.64389265676346,-74.24168227665855,588767635
sq,65.1965364456177,53.3898414611816,-70.45063797492693,-76.3402270822578,588784302
sq,64.0178951263428,52.2206024169922,-63.58576802675666,-78.23417100077968,588800969
sq,62.9115051269531,50.9356693267822,-60.3547250360127,-80.08643504468272,588817636
sq,61.8063987731934,49.6770957946777,-59.68409135479205,-82.10762503325708,588834303
sq,60.6988414764404,48.3899425506592,-60.43548464737214,-84.48767893706025,588850970
sq,59.677135848999,47.0595554351807,-61.64693022291793,-87.34506116873901,588867637
sq,58.7045787811279,45.6369785308838,-62.66769118313389,-90.69821854840399,588884304
sq,57.7868780136108,44.1209510803223,-63.19117602681851,-94.45946389316796,588900971
sq,56.7774223327637,42.6870616912842,-63.21365785475664,-98.44990250584732,588917638
sq,55.7285102844238,41.2326644897461,-62.95154534330721,-102.43442457712348,588934305
sq,54.7803386688232,39.506201171875,-62.744354530462125,-106.17273525280208,588950972
sq,53.8024810791016,37.732576751709,-62.96315636880644,-109.47415192367956,588967639
sq,52.8061279296875,35.9416069030762,-63.93758658113071,-112.23812580326441,588984306
sq,51.7852806091309,34.1345733642578,-65.90704804712776,-114.46751511356527,589000973
sq,50.6621631622314,32.3707641601562,-68.99459576730469,-116.25509092103502,589017640
sq,49.5483707427979,30.5916389465332,-73.19904636467226,-117.75450693158159,589034307
sq,48.4436191558838,28.675951385498,-78.40345592804081,-119.14689805039421,589050974
sq,47.2750991821289,26.6727317810059,-84.40167751847778,-120.60570144790391,589067641
sq,45.886743927002,24.7113708496094,-90.94231274512059,-122.25560019156659,589084308
sq,44.4104961395264,22.7696746826172,-97.77990941653283,-124.12490895830304,589100975
sq,42.7582668304443,20.8348678588867,-104.71423367959345,-126.10181548005079,589117642
sq,41.0226844787598,18.8523162841797,-111.59894062885019,-127.91350484147185,589134309
sq,39.1926368713379,16.9106010437012,-118.31354815189678,-129.14552777128074,589150976
sq,37.3564361572266,14.8095878601074,-124.71185607605835,-129.3066857819602,589167643
sq,35.5727561950684,12.6993545532227,-130.57519279768226,-127.92819285835364,589184310
sq,33.4474357604981,10.6481880187988,-135.5993385443803,-124.67312101485369,589200977
sq,31.3215240478516,8.64195098876952,-139.42708871191147,-119.42828489927524,589217644
sq,28.9848350524902,6.72487487792969,-141.71446172189746,-112.35451963576055,589234311
sq,26.6032241821289,4.8183349609375,-142.20337594708352,-103.87873868744376,589250978
sq,24.397386932373,3.08138885498047,-140.77550369393066,-94.62176310443633,589267645
sq,22.207674407959,1.55193176269531,-137.47569028387144,-85.27215307637425,589284312
sq,19.9442504882812,0.290434265136719,-132.50605243486004,-76.43630342493854,589300979
sq,17.8035911560059,-0.82271728515625,-126.19618752037593,-68.5093868626893,589317646
sq,15.8106101989746,-1.82408294677734,-118.95441071920514,-61.6096556896823,589334313
sq,13.8813537597656,-2.76618347167969,-111.20604745057848,-55.59789114652818,589350980
sq,12.0919822692871,-3.689599609375,-103.32830211585487,-50.173107413309005,589367647
sq,10.4946807861328,-4.58252868652344,-95.5942216709184,-45.00873425980774,589384314
sq,8.98615112304688,-5.35718688964844,-88.13859485962458,-39.88138265942145,589400981
sq,7.58930053710938,-6.08756408691406,-80.95502264525952,-34.75031338182515,589417648
sq,6.29366149902344,-6.66283569335937,-73.92611246168266,-29.765396648386307,589434315
sq,5.13653411865234,-7.07489166259766,-66.88029217983767,-25.205580687923376,589450982
sq,4.07668151855469,-7.5056396484375,-59.66162815652762,-21.369481111368895,589467649
sq,3.05265655517578,-7.88084564208984,-52.19431019632349,-18.449964065875267,589484316
sq,2.14258422851562,-8.11642608642578,-44.52284508477633,-16.42729761860146,589500983
sq,1.39896240234375,-8.31736145019531,-36.81550776781322,-15.01403526130327,589517650
sq,0.856336975097657,-8.3486572265625,-29.332172104304433,-13.677410950529385,589534317
sq,0.4738525390625,-8.54694519042969,-22.371533963000058,-11.746043408573987,589550984
sq,0.151846313476563,-8.82032165527344,-16.217630243342033,-8.577831910376437,589567651
sq,-0.14840087890625,-9.12008056640625,-11.09838527363358,-3.7380322096698793,589584318
sq,-0.404954528808593,-9.30936584472656,-7.156716972983568,2.871731918905948,589600985
sq,-0.546624755859375,-9.25048980712891,-4.428601929344897,10.974477728226345,589617652
sq,-0.5658203125,-9.03930053710937,-2.8270861086836527,19.97601437554786,589634319
sq,-0.533677673339843,-8.63745269775391,-2.1403230738667545,29.09766540683502,589650986
sq,-0.524880981445312,-8.24588165283203,-2.0545585912098443,37.547899522331534,589667653
sq,-0.578645324707031,-7.67400512695312,-2.2048041319809903,44.69811616847621,589684320
sq,-0.655290222167968,-6.91797027587891,-2.2421086992003096,50.23168269537049,589700987
sq,-0.732339477539062,-6.08371124267578,-1.8966816440359358,54.23580513602838,589717654
sq,-0.786538696289062,-5.09075317382812,-1.0164158403683223,57.20710495894915,589734321
sq,-0.821725463867187,-3.97825012207031,0.43082055725186513,59.95288072145247,589750988
sq,-0.810128784179687,-2.98926696777344,2.3908469658455567,63.39615312551623,589767655
sq,-0.752435302734375,-2.12522277832031,4.7825000675344915,68.32872825472853,589784322
sq,-0.673539733886718,-1.25859985351563,7.566799821203096,75.18565063055019,589800989
sq,-0.551560974121093,-0.122102355957031,10.80914393001014,83.91683358522472,589817656
sq,-0.360406494140625,1.05468597412109,14.719673852572784,94.00135672117622,589834323
sq,-0.116639709472656,2.4970458984375,19.6600535465191,104.5995298215085,589850990
sq,0.225241088867188,4.43451538085938,26.108692070863146,114.78820102589918,589867657
sq,0.696043395996094,6.41457214355469,34.58182432622138,123.79550876100599,589884324
sq,1.28694000244141,8.53507080078125,45.516096487098594,131.155538254637,589900991
sq,1.9946044921875,10.7180389404297,59.129451346970505,136.7401138539979,589917658
sq,2.90054168701172,12.8093475341797,75.28837840116537,140.6764545885586,589934325
sq,4.06188812255859,14.9497512817383,93.41591729276477,143.20204282469066,589950992
sq,5.53564300537109,17.2149757385254,112.4726611555559,144.52594244299286,589967659
sq,7.29559173583984,19.196817779541,131.03311963034628,144.7552895476371,589984326
sq,9.22228088378906,21.4400733947754,147.4644568192949,143.91166048238708,590000993
sq,11.4794906616211,24.0621131896973,160.19312757316487,142.01597742863805,590017660
sq,14.0299514770508,26.496019744873,168.01547980870538,139.18397880139065,590034327
sq,16.9524635314941,28.8812202453613,170.37693264612386,135.67125927781004,590050994
sq,20.0189117431641,30.8686317443848,167.52897617569806,131.84117329271558,590067661
sq,22.8587860107422,32.8992218017578,160.49368045723284,128.0745782385083,590084328
sq,25.5116180419922,34.8624290466309,150.8243097636733,124.66551910204207,590100995
sq,27.7590927124023,36.9869445800781,140.22575904473769,121.7423932432565,590117662
sq,29.6501487731934,38.9341415405273,130.15438919364124,119.23571664975582,590134329
sq,31.4940780639648,40.6797508239746,121.52548966361393,116.90001894337945,590150996
sq,33.4426254272461,42.5495456695557,114.6135301299281,114.39112067579859,590167663
sq,35.1558097839356,44.42685546875,109.15720483374707,111.39198132932309,590184330
sq,37.023176574707,46.0713981628418,104.61119188288123,107.76641989154169,590200997
sq,38.9190887451172,47.7722267150879,100.44391843042489,103.70437069720565,590217664
sq,40.6313461303711,49.6130317687988,96.37436689867407,99.80921355142941,590234331
sq,42.4555667877197,51.38073387146,92.46967063769544,97.07280393485193,590250998
sq,44.0237144470215,53.159786605835,89.08001582015136,96.69826014060946,590267665
sq,45.193399810791,54.8450969696045,86.65086679685815,99.77185277480491,590284332
sq,46.3511184692383,56.3963474273682,85.49999288001509,106.84578810822102,590300999
sq,47.6093696594238,57.9384550094604,85.65535741074282,117.55173764429803,590317666
sq,48.8912834167481,59.5145353317261,86.81601273435354,130.39551164679193,590334333
sq,50.4081176757812,61.1156419754028,88.44330538829897,142.86680121424564,590351000
sq,51.8830169677734,62.8215726852417,89.94380400962531,151.924328199229,590367667
sq,53.2471431732178,64.6345676422119,90.88459926792879,154.78759387328932,590384334
sq,54.6740631103516,68.338173532486,91.18168523119347,149.80928929902407,590401001
sq,56.3108467102051,72.0221384108067,91.20945846608352,137.09244583619605,590417668
sq,57.9648336410522,75.6188205718994,91.78915644905335,118.55428767731054,590434335
sq,59.4526647567749,76.2664102554321,94.03429615809893,97.35709076891064,590451002
sq,61.0763620376587,77.0603231430054,99.06765346150104,76.91569376461453,590467669
sq,62.8037752151489,78.6465238571167,107.66996515472529,59.87285535006317,590484336
sq,64.1757768630982,78.2936324119568,119.96078715590114,47.42101181463808,590501003
sq,65.5489901542664,78.3807467460632,135.22802941853686,39.19155870971029,590517670
sq,67.356778049469,78.9912966728211,151.99249506325108,33.714021615367734,590534337
sq,70.4794720649719,80.5034708023071,168.31360432605766,29.229436411936376,590551004
sq,72.830310100317,81.7947896957398,182.2486250544269,24.5022308643035,590567671
sq,75.4662641525269,82.7939380645752,192.31720596138052,19.290191584494806,590584338
sq,79.291357421875,83.3079694747925,197.80869021492398,14.302686418352499,590601005
sq,84.3800815582275,83.2566675186157,198.80259832664592,10.71272405389686,590617672
sq,86.6759475708008,82.6887315750122,195.87936231717796,9.474811081712012,590634339
sq,88.1933759689331,82.2685884475708,189.667644066598,10.76349063086583,590651006
sq,90.8524326324463,82.0904745101929,180.48905981633376,13.774344167950083,590667673
sq,93.8420833587647,82.0542959213257,168.30176050727627,16.962970490905956,590684340
sq,96.8732704162598,82.0983776092529,152.9479193456143,18.609092273053623,590701007
sq,99.6908535003662,84.6137069702148,134.53292405822296,17.455804207272635,590717674
sq,102.438097381592,84.5872711181641,113.71443298612262,13.152181903215046,590734341
sq,104.619833374023,84.5395864486694,91.75335287826132,6.340370934327763,590751008
sq,105.239977264404,84.4670166015625,70.31137015297283,-1.5955136081970422,590767675
sq,106.42140045166,84.3438037872315,51.09455863790588,-8.978668995138399,590784342
sq,107.134302520752,84.162713432312,35.484382373545806,-14.327112687520373,590801009
sq,107.762617492676,83.8962129592896,24.26666518876971,-16.76024500528145,590817676
sq,108.031542205811,83.5693983078003,17.513163179797424,-16.25137093626449,590834343
sq,108.006971740723,83.2125905990601,14.626198393352848,-13.686306015831445,590851010
sq,108.438131713867,82.8271268844605,14.523627805930293,-10.715778417464364,590867677
sq,108.78801574707,82.4607604980469,15.91015118356541,-9.42234074258716,590884344
sq,109.108766937256,82.2753366470337,17.560689497268964,-11.865794687964646,590901011
sq,109.426020050049,82.5768655776978,18.54587174357309,-19.614975079668387,590917678
sq,109.821363830566,82.8694118499756,18.355262583012355,-33.38974216027666,590934345
sq,110.178049468994,82.2144607543945,16.906222963656596,-52.89705552618172,590951012
sq,110.40078201294,80.7449382781982,14.455560858062993,-76.86075790164406,590967679
sq,110.540907287598,79.0815295219421,11.453218682928645,-103.17884817446463,590984346
sq,110.638929748535,77.4910687446594,8.386661632684486,-129.15358449972643,591001013
sq,110.758108520508,76.2251266479492,5.657465013065231,-151.8131280590392,591017680
sq,110.843309783936,75.3119825363159,3.5121850290974077,-168.3859751962144,591034347
sq,110.912504577637,72.370146715641,2.028548952275248,-176.91457964048905,591051014
sq,110.962118530273,67.1794504165649,1.1439125791218634,-176.8281075856243,591067681
sq,110.989065551758,63.3383373260498,0.7077521021532522,-169.19223280571362,591084348
sq,110.979460144043,61.5785926818848,0.5407789475412643,-156.45723134811414,591101015
sq,111.028368377686,59.7430547714233,0.48628794375546935,-141.7824141971177,591117682
sq,111.06081237793,57.8181613922119,0.4427317095811814,-128.21806903892505,591134349
sq,111.079889678955,55.9552015304565,0.370904123549999,-118.03991423865314,591151016
sq,111.090265655518,54.1107753753662,0.2754066217202729,-112.40283100706107,591167683
sq,111.092031860352,52.3193706512451,0.1671275392605532,-111.33240753342359,591184350
sq,111.087786102295,50.4236473083496,0.01892302715617219,-113.97427335248032,591201017
sq,111.066271209717,48.4822467803955,-0.2709342645358059,-118.97859388416501,591217684
sq,111.035543823242,46.422928237915,-0.893962418073161,-124.89613397693577,591234351
sq,110.997450256348,44.2896770477295,-2.1160166578359134,-130.48988095099253,591251018
sq,110.937078857422,42.1532558441162,-4.229037271911226,-134.9107031066811,591267685
sq,110.843950653076,40.0054306030273,-7.4771450507627994,-137.734182698804,591284352
sq,110.69228591919,37.9255699157715,-11.974559820029782,-138.89507696093062,591301019
sq,110.54705657959,35.8267539978027,-17.642658899353076,-138.57460418777475,591317686
sq,110.399584197998,33.6360458374023,-24.199206248735077,-137.09001279339478,591334353
sq,110.155210876465,31.3998016357422,-31.227858115943437,-134.8126817942992,591351020
sq,109.734762573242,29.2242607116699,-38.33498400017602,-132.11541590903389,591367687
sq,109.122171783447,27.0197395324707,-45.36586897852292,-129.33527202430673,591384354
sq,108.327700042725,24.9419578552246,-52.61535244759949,-126.73927190723177,591401021
sq,107.301336669922,22.9985298156738,-60.94467381793438,-124.49105295138475,591417688
sq,106.046266937256,21.0450119018555,-71.71952699278185,-122.62664949920385,591434355
sq,104.589266204834,19.026708984375,-86.52097012600149,-121.04945035056886,591451022
sq,103.052542114258,17.1264060974121,-106.64958210916419,-119.548445405515,591467689
sq,101.474960708618,15.2161468505859,-132.52986077950314,-117.83667083609583,591484356
sq,99.5401996612549,13.3474983215332,-163.19783949604212,-115.60248595975669,591501023
sq,97.6747573852539,11.4122451782227,-196.08470231343037,-112.56446597319639,591517690
sq,95.5940765380859,9.65696182250977,-227.26105647344758,-108.52075018714413,591534357
sq,91.8069538116455,7.94624557495117,-252.1700467296368,-103.38600840134762,591551024
sq,86.6186470031738,6.27940216064453,-266.69182677873,-97.21188998066654,591567691
sq,83.7537092208862,4.66879119873047,-268.23227404662634,-90.18759701084952,591584358
sq,77.2906581401825,3.18669738769531,-256.48393930325045,-82.61789596813763,591601025
sq,71.829497718811,1.93357696533203,-233.58371379403818,-74.88000231860536,591617692
sq,68.6363882064819,0.730940246582032,-203.58362391589583,-67.3672246986731,591634359
sq,66.5387276649475,-0.354730224609375,-171.41168016930501,-60.43100761459482,591651026
sq,64.3524574279785,-1.30915985107422,-141.6974240807121,-54.33190649602785,591667693
sq,62.3667539596558,-2.14188537597656,-117.84648204059386,-49.206428387578306,591684360
sq,60.5440782546997,-2.94927368164062,-101.58701857871219,-45.05286621648003,591701027
sq,58.8991292953491,-3.69724426269531,-93.00627133632375,-41.735801335154754,591717694
sq,57.2188705444336,-4.37462768554687,-90.9499341537412,-39.007049439151196,591734361
sq,55.5661987304687,-4.96687469482422,-93.59528946985502,-36.54173457477884,591751028
sq,53.8150638580322,-5.49102935791016,-99.01370460549991,-33.98990134073729,591767695
sq,52.0691055297851,-6.00475463867187,-105.58702958321011,-31.042007406522853,591784362
sq,50.3524517059326,-6.52698669433594,-112.21433972388812,-27.498739020521324,591801029
sq,48.5556205749512,-7.04660186767578,-118.31854372034726,-23.326010275750097,591817696
sq,46.7765068054199,-7.49792633056641,-123.71714013366444,-18.672857601079656,591834363
sq,45.0862659454346,-7.89923248291016,-128.4451889198821,-13.83909857164346,591851030
sq,43.1217693328857,-8.00475463867187,-132.60739745452582,-9.19924414208633,591867697
sq,40.8974899291992,-8.00135192871094,-136.2973210966094,-5.108505581194889,591884364
sq,38.636198425293,-8.10222015380859,-139.57576022734776,-1.8224515673879484,591901031
sq,36.2829002380371,-8.17015991210937,-142.47275256308708,0.5498586901888041,591917698
sq,33.9376739501953,-8.20688781738281,-144.97987633684338,2.05749675625277,591934365
sq,31.7157806396484,-8.23630676269531,-147.02299770191675,2.89167003350972,591951032
sq,29.4590667724609,-8.02610931396484,-148.4303809533429,3.3469584447796294,591967699
sq,27.1071876525879,-7.91911468505859,-148.92099302494796,3.759498101495626,591984366
sq,24.7231658935547,-7.90251312255859,-148.12949510624046,4.425607110500401,592001033
sq,22.3250030517578,-7.88237915039062,-145.66728713334584,5.517082429338261,592017700
sq,19.9876770019531,-7.87463531494141,-141.2054323190533,7.019779985854416,592034367
sq,17.7326148986816,-7.78077087402344,-134.56053185711576,8.720008006354494,592051034
sq,15.5762313842773,-7.64491424560547,-125.76600850580704,10.249439362141542,592067701
sq,13.5404113769531,-7.50882110595703,-115.11439780936114,11.181832200236533,592084368
sq,11.6502059936523,-7.35526428222656,-103.15970063907425,11.16042241290177,592101035
sq,10.0077766418457,-7.15876159667969,-90.67387674481783,10.024894615011636,592117702
sq,8.55434265136719,-6.87163696289062,-78.55874147071285,7.901657709094828,592134369
sq,7.27892150878906,-6.59137115478516,-67.72212786464807,5.224759665597138,592151036
sq,6.16038360595703,-6.45069274902344,-58.93347976011632,2.6726081392491805,592167703
sq,5.19085540771484,-6.53820953369141,-52.67979252385891,1.0354624646631911,592184370
sq,4.38923492431641,-6.6880126953125,-49.04926969278749,1.055784190074613,592201037
sq,3.71857299804687,-6.69475708007812,-47.67483035615294,3.2904792770838385,592217704
sq,3.04801788330078,-6.59379730224609,-47.76636304008809,8.027173539334191,592234371
sq,2.34147491455078,-6.46077880859375,-48.24444036151635,15.260268572221399,592251038
sq,1.60883941650391,-6.18974456787109,-47.961091743548785,24.714371605870582,592267705
sq,0.817640686035157,-5.76567230224609,-45.96370097147498,35.89880638039358,592284372
sq,-0.0330368041992184,-5.18426666259766,-41.73630126958875,48.182195335178214,592301039
sq,-0.892877197265625,-4.49826965332031,-35.347151769674156,60.88297673777832,592317706
sq,-1.63448486328125,-3.64158020019531,-27.448598967291236,73.37347470061442,592334373
sq,-2.14177856445312,-2.4883056640625,-19.114966944124614,85.18673718603323,592351040
sq,-2.39881286621094,-0.908792114257812,-11.556357434741606,96.09913307486379,592367707
sq,-2.40838012695312,0.812910461425782,-5.7915142152856545,106.15154447439879,592384374
sq,-2.25927886962891,2.54361572265625,-2.3814993670839906,115.58391774600427,592401041
sq,-2.11900482177734,4.35444488525391,-1.3075171009063629,124.69255164425948,592417708
sq,-2.08915100097656,6.24946441650391,-2.02585426267479,133.65789525181776,592434375
sq,-2.23204956054687,8.16850128173827,-3.6702849089191467,142.40969586522436,592451042
sq,-2.4983154296875,10.2929748535156,-5.323727822036264,150.58488200246896,592467709
sq,-2.69073638916016,12.8080429077148,-6.2662285462556975,157.5966464787532,592484376
sq,-2.83709869384766,15.4260467529297,-6.127652127920386,162.78923863602432,592501043
sq,-2.98916015625,18.0636581420898,-4.915585743254663,165.62418485477343,592517710
sq,-3.0727783203125,20.6481727600098,-2.9316258193508906,165.84002098965098,592534377
sq,-3.04419097900391,23.5247253417969,-0.6196546461584386,163.54148618539827,592551044
sq,-2.94037780761719,26.1903327941895,1.5965579878994145,159.19443574385028,592567711
sq,-2.79132232666016,28.7754653930664,3.433586017254785,153.52710269717892,592584378
sq,-2.7015625,31.0820373535156,4.795274310998696,147.3653531166024,592601045
sq,-2.67846069335937,33.3481544494629,5.746697328984601,141.44905729933998,592617712
sq,-2.66946563720703,35.692667388916,6.443311800990447,136.27797162490398,592634379
sq,-2.62997589111328,37.790754699707,7.055507951507441,132.0210307378818,592651046
sq,-2.56926879882812,39.9646877288818,7.721776671231586,128.50551586313782,592667713
sq,-2.44940338134766,41.9160179138184,8.544212216982976,125.290702257039,592684380
sq,-2.26820526123047,43.7899364471436,9.618773521463455,121.82133644839169,592701047
sq,-2.07164154052734,45.6376308441162,11.0785804718845,117.64099415054407,592717714
sq,-1.86227569580078,47.5526851654053,13.12565234813678,112.62008435601953,592734381
sq,-1.64476165771484,49.6591819763184,16.033523423555806,107.12685204548283,592751048
sq,-1.35994110107422,51.6653980255127,20.11506013756157,102.06273993413244,592767715
sq,-1.00715789794922,53.3310245513916,25.661813763743094,98.71274471367994,592784382
sq,-0.625650024414062,54.8619140625,32.871199106447776,98.421171479893,592801049
sq,-0.192193603515625,56.3721174240112,41.78411159865028,102.16548796648647,592817716
sq,0.419447326660157,58.0815843582153,52.254872764617524,110.1396425544792,592834383
sq,1.23432769775391,59.7142833709717,63.9648761980595,121.46848925433375,592851050
sq,2.28529968261719,61.3211988449097,76.47387640670014,134.1646542707286,592867717
sq,3.57574310302734,63.0691198348999,89.28712502015375,145.40645001751327,592884384
sq,5.10993041992188,64.7380179405212,101.91132779040584,152.1443179082224,592901051
sq,6.79361572265625,66.6585096359253,113.8814173989331,151.9233040063068,592917718
sq,8.54429473876953,70.9816048979759,124.7597169876922,143.66863538247506,592934385
sq,10.4206756591797,74.6430720329285,134.12835885521338,128.10939221195676,592951052
sq,12.4857963562012,76.9272288322449,141.60181601646758,107.61146875859966,592967719
sq,14.6594032287598,77.3505500793457,146.87311665813115,85.44761157469654,592984386
sq,17.2247528076172,78.9846509933472,149.78189332584756,64.79646412413406,593001053
sq,19.6871055603027,78.8494633674622,150.37182421562244,47.87106738107282,593017720
sq,22.1302169799805,78.6349119186401,148.90394891676286,35.49334623963264,593034387
sq,24.5089859008789,79.363737487793,145.81115094883515,27.221891396484864,593051054
sq,26.8425315856934,80.2832674026489,141.60457525583695,21.898960206142565,593067721
sq,29.1397575378418,82.0193494796753,136.76178483447077,18.31179038546802,593084388
sq,31.2268852233887,82.7404235839844,131.63504085966107,15.652611659301137,593101055
sq,33.0957054138184,82.8346609115601,126.41556610664023,13.617757312914863,593117722
sq,34.9441856384277,82.3327030181885,121.17138387756863,12.206899570779953,593134389
sq,37.081339263916,81.9418462753296,115.94071475308732,11.428662456135564,593151056
sq,39.3584274291992,81.7427734375,110.82626298367445,11.11372899798752,593167723
sq,41.2733253479004,82.7359842300415,106.0287597566351,10.916040570466532,593184390
sq,42.7742122650146,82.9175380706787,101.7954570478958,10.450806542176794,593201057
sq,44.1295227050781,83.0824626922607,98.31574201203705,9.460449152440818,593217724
sq,45.6617378234863,83.2553619384766,95.62703362662408,7.922685334398657,593234391
sq,47.3114151000976,83.4216579437256,93.58086149963488,6.0662000269165,593251058
sq,48.8468307495117,83.5478309631348,91.88358681610022,4.2958937545510345,593267725
sq,50.1584571838379,83.6507972717285,90.20020813157089,3.048019431369104,593284392
sq,51.5265983581543,83.7218631744385,88.29979180881467,2.6080014657420505,593301059
sq,52.870703125,83.730361366272,86.21212961337197,2.935384019494221,593317726
sq,54.5541576385498,83.6757863998413,84.34920538273927,3.5480488419541683,593334393
sq,56.1624073028564,83.5557817459107,83.5357882554974,3.5149537295111744,593351060
sq,57.3314460754395,83.3596061706543,84.9100618305522,1.5857635385555504,593367727
sq,58.7766508102417,83.3145002365112,89.69619266351721,-3.5559841736685214,593384394
sq,60.3030294418335,83.7024225234985,98.89410942152345,-12.980810112946854,593401061
sq,61.7736486434937,83.9491552352905,112.96007422489727,-27.23777368682841,593417728
sq,63.4677471160889,83.4657958984375,131.56328877538505,-46.19126962572514,593434395
sq,65.2288087844849,82.1912673950195,153.49755220544483,-68.98254328855377,593451062
sq,67.1922029495239,80.8022274017334,176.79304398078798,-94.0745116309424,593467729
sq,70.860054397583,79.0903448104858,199.01030816438393,-119.34730906827386,593484396
sq,73.5532707810402,77.7335256576538,217.63129462193527,-142.27760975375836,593501063
sq,77.3035203456879,77.2141713142395,230.4280925633632,-160.2834248433556,593517730
sq,82.707674407959,74.6082965373993,235.7117229602783,-171.26202502079374,593534397
sq,85.301611328125,69.9572512149811,232.44278925771462,-174.18971560224125,593551064
sq,87.1994899749756,66.1154245376587,220.2846467617067,-169.5169180921241,593567731
sq,91.1324161529541,63.7704180717468,199.7044816686518,-159.13188856913985,593584398
sq,95.1812576293945,61.7758001327515,172.12039437973246,-145.87692852108427,593601065
sq,98.8846591949463,59.7093156814575,139.94507864642117,-132.81513706763607,593617732
sq,101.6239818573,57.8513311386108,106.35242947693777,-122.51991890652722,593634399
sq,102.695154571533,56.1587633132935,74.73533552235932,-116.59464163999465,593651066
sq,103.293712997437,54.4134735107422,48.013928743070444,-115.50898877389605,593667733
sq,103.550667190552,52.3727649688721,28.048699006068667,-118.72629251286163,593684400
sq,103.871939086914,50.2495788574219,15.361437428301958,-125.02080193026386,593701067
sq,104.219410324097,48.0873512268066,9.224340738107832,-132.85856085030642,593717734
sq,104.525595092773,45.9439376831055,8.036926727169384,-140.73873490482563,593734401
sq,104.901979827881,43.7834362030029,9.833199545058356,-147.44115172851565,593751068
sq,105.271294021606,41.4531444549561,12.757971358401225,-152.1694596441418,593767735
sq,105.578955078125,38.9574417114258,15.39960341639386,-154.60025866093378,593784402
sq,105.764032745361,36.4220756530762,16.935794918417248,-154.8514443215457,593801069
sq,105.980623626709,33.9089073181152,17.111226169010198,-153.38343218363588,593817736
sq,106.206655883789,31.5128959655762,16.102515821222344,-150.8541075140822,593834403
sq,106.446161651611,29.1715721130371,14.33425495919308,-147.95821067826793,593851070
sq,106.620237731934,26.8683990478516,12.299749914595639,-145.28443962696738,593867737
sq,106.73842086792,24.5351661682129,10.423083143074766,-143.2142158701962,593884404
sq,106.911497497559,22.1970199584961,8.980676166566587,-141.8699960980399,593901071
sq,107.059378051758,19.8555587768555,8.082461768292113,-141.10853294925735,593917738
sq,107.213915252686,17.6548484802246,7.698095572967472,-140.55221536749042,593934405
sq,107.369379425049,15.4977668762207,7.7061849754660825,-139.6564789158862,593951072
sq,107.507566833496,13.3356346130371,7.945229729298109,-137.81288786784026,593967739
sq,107.645460510254,11.1003784179688,8.2513046847577,-134.47833026181192,593984406
sq,107.788935089111,8.87002410888672,8.47579975462347,-129.3046064697379,594001073
sq,107.924139404297,6.72534027099609,8.4840429768061,-122.23180153487449,594017740
sq,108.065290832519,4.64936676025391,8.141200436993314,-113.51324628500996,594034407
sq,108.177164459229,2.77782287597656,7.295229047469858,-103.66035317349727,594051074
sq,108.243719482422,1.22782745361328,5.767411519899549,-93.32416975602061,594067741
sq,108.337210083008,-0.154962158203125,3.3582838982703005,-83.1539175016622,594084408
sq,108.400999450684,-1.37792358398438,-0.12922345715657924,-73.67842171112511,594101075
sq,108.380709075928,-2.59217224121094,-4.854619653021116,-65.2408627376482,594117742
sq,108.260683441162,-3.67535552978516,-10.903573258904117,-57.99086461413357,594134409
sq,108.122442626953,-4.63303527832031,-18.26570894082318,-51.91660402993897,594151076
sq,107.944773101807,-5.48054656982422,-26.844017350223474,-46.892573109539576,594167743
sq,107.641718292236,-6.2605224609375,-36.50920222782837,-42.72381685370159,594184410
sq,107.090174102783,-6.95484313964844,-47.19592691843533,-39.177695510236816,594201077
sq,106.234308624268,-7.56965026855469,-59.011632699360334,-36.00408190530439,594217744
sq,105.204883956909,-8.08906707763672,-72.30526998085752,-32.95154846283447,594234411
sq,103.848358535767,-8.59899291992187,-87.63838735247772,-29.788351430362745,594251078
sq,102.199962997437,-9.06424102783203,-105.62279509065381,-26.332103334380083,594267745
sq,100.465013885498,-9.51778564453125,-126.63536612716284,-22.483600525748027,594284412
sq,98.533056640625,-9.91838989257812,-150.47863797373023,-18.25360843500749,594301079
sq,96.6140026092529,-10.2093215942383,-176.10137634583134,-13.770627434914378,594317746
sq,93.9454540252686,-10.4559875488281,-201.4997564818066,-9.262895472205182,594334413
sq,89.9688457489014,-10.617578125,-223.8829772930968,-5.016045352976911,594351080
sq,87.5551961898804,-10.6786209106445,-240.13080281706362,-1.3155817166011154,594367747
sq,84.9541372299194,-10.6647583007812,-247.5031065882276,1.6115201714415976,594384414
sq,81.2618121147156,-10.62880859375,-244.44970192977857,3.6408779104888547,594401081
sq,72.2854888677597,-10.5162673950195,-231.22674507671655,4.769349352165326,594417748
sq,69.7905107975006,-10.4487701416016,-209.99838662632794,5.105370297519977,594434415
sq,67.3351983070374,-10.3929534912109,-184.31313495505785,4.837437908360292,594451082
sq,65.05687084198,-10.3437210083008,-158.17254489342284,4.193906622488492,594467749
sq,62.9986080169678,-10.2794586181641,-135.08801276789282,3.4084163709790105,594484416
sq,61.0630058288574,-10.2769409179687,-117.44696897259648,2.7007469888289157,594501083
sq,59.0969518661499,-10.2179275512695,-106.3056364320439,2.2750867548054368,594517750
sq,57.134411239624,-10.1701065063477,-101.54543367152546,2.329640846884981,594534417
sq,55.2952369689941,-10.091569519043,-102.23796991474872,3.066112128991559,594551084
sq,53.5567039489746,-10.020166015625,-107.05606397773687,4.687305192235913,594567751
sq,51.7860359191895,-9.95071563720703,-114.61442786705466,7.376210137618814,594584418
sq,49.884016418457,-9.82732543945312,-123.68621290156784,11.257705944542147,594601085
sq,47.9705547332764,-9.65088043212891,-133.29409622932647,16.350835161880656,594617752
sq,45.8530792236328,-9.36693725585937,-142.70734033846875,22.523710787506,594634419
sq,43.6901573181152,-9.03430328369141,-151.38923382383817,29.46509510308525,594651086
sq,41.258039855957,-8.60112152099609,-158.93563219801416,36.687018969527365,594667753
sq,38.6779884338379,-8.09171447753906,-165.03115720949535,43.56983619185602,594684420
sq,36.1345390319824,-7.4250732421875,-169.4334260474205,49.45225719014879,594701087
sq,33.4744819641113,-6.64701232910156,-171.98251687148888,53.7541721645955,594717754
sq,30.6698440551758,-5.72471008300781,-172.62181460952732,56.10406537645914,594734421
sq,27.7242073059082,-4.71339569091797,-171.40768986404314,56.43325228175883,594751088
sq,24.8986534118652,-3.73787841796875,-168.48677105430207,55.002809698776694,594767755
sq,22.1873878479004,-2.77987823486328,-164.03778368144853,52.347536677996345,594784422
sq,19.7749160766602,-1.94902191162109,-158.2029022533995,49.14921350181322,594801089
sq,17.444376373291,-1.28912506103516,-151.05076446166427,46.07806821815603,594817756
sq,15.0658935546875,-0.727464294433593,-142.60252396913563,43.65434878102324,594834423
sq,12.7142852783203,-0.0745941162109371,-132.91624464649223,42.17290846284585,594851090
sq,10.4207366943359,0.651380920410157,-122.18620563710752,41.70544714942645,594867757
sq,8.28903045654297,1.35179748535156,-110.7978343742499,42.16251248310304,594884424
sq,6.41100158691406,2.15428771972656,-99.29649689513316,43.378083217942695,594901091
sq,4.86353912353516,2.96193542480469,-88.27002006320834,45.181731252481306,594917758
sq,3.59800567626953,3.55308380126953,-78.1888979164662,47.442527269480706,594934425
sq,2.53890838623047,4.18706359863281,-69.27205663142533,50.0910152311837,594951092
sq,1.52815856933594,4.95977630615234,-61.4376412901385,53.134517364759155,594967759
sq,0.59366455078125,5.89678802490234,-54.36201677976489,56.671166056862084,594984426
sq,-0.36336669921875,6.94330444335938,-47.624097869760334,60.89150063572405,595001093
sq,-1.29815063476563,7.90491714477539,-40.87770557905137,66.0515160102212,595017760
sq,-2.03406677246094,8.97409286499023,-33.98629347893313,72.41352029943613,595034427
sq,-2.61996612548828,10.0421852111816,-27.073230813509586,80.17023984604252,595051094
sq,-3.1181884765625,11.190210723877,-20.47553018035119,89.37777577142406,595067761
sq,-3.40581665039062,12.643106842041,-14.623959622491371,99.91676733401022,595084428
sq,-3.52116546630859,14.4010833740234,-9.896500454214992,111.48388132144488,595101095
sq,-3.54863891601562,16.2291969299316,-6.498714517494582,123.60236783196318,595117762
sq,-3.56157073974609,18.169344329834,-4.411061387408876,135.6428065299668,595134429
sq,-3.67421875,20.3032363891602,-3.413758336904175,146.85988495928095,595151096
sq,-3.84166870117187,22.4232429504395,-3.1677145502527395,156.46175993281227,595167763
sq,-3.96625671386719,24.832731628418,-3.3115591446023767,163.72081124602616,595184430
sq,-4.04458770751953,27.6436294555664,-3.5377300180352043,168.10830530494525,595201097
sq,-4.09254608154297,30.5736030578613,-3.6293644377433694,169.40792401746313,595217764
sq,-4.13688812255859,33.3219856262207,-3.4610711927441686,167.7583710324926,595234431
sq,-4.16334686279297,36.1175788879395,-2.9801797338691496,163.6027229631826,595251098
sq,-4.13159332275391,38.4868110656738,-2.187669989459369,157.56563680247567,595267765
sq,-4.12286529541016,40.8839630126953,-1.1310521345615303,150.31083654497664,595284432
sq,-4.19027099609375,43.3674816131592,0.09171766431889208,142.43350194065047,595301099
sq,-4.28745422363281,45.6370719909668,1.3311699856373442,134.4205195652909,595317766
sq,-4.34330139160156,47.5313343048096,2.4057993817306897,126.683569784033,595334433
sq,-4.30679473876953,49.5411437988281,3.1495446195381507,119.64501710760831,595351100
sq,-4.18702850341797,51.7057556152344,3.4756276497708796,113.8328750191268,595367767
sq,-4.03528747558594,53.6984066009521,3.4298107154802544,109.9244172984831,595384434
sq,-3.91525421142578,55.4986557006836,3.205367585331108,108.68448584814068,595401101
sq,-3.84933624267578,57.3114332199097,3.107051350599206,110.77921994766999,595417768
sq,-3.84671173095703,59.2335638046265,3.4736874129390456,116.4942609408378,595434435
sq,-3.85991058349609,61.1440099716187,4.586780236694918,125.4324211342892,595451102
sq,-3.83687744140625,63.002201461792,6.597376804711697,136.3026561196671,595467769
sq,-3.76039276123047,64.6061553001404,9.49458652892425,146.9295105367185,595484436
sq,-3.6252685546875,66.1736291885376,13.122265423647564,154.58333094046714,595501103
sq,-3.39411315917969,67.799129152298,17.233129275114162,156.6271193360011,595517770
sq,-3.05989227294922,71.4349597111344,21.557984401117114,151.3053373982758,595534437
sq,-2.66388854980469,75.8600310325623,25.86518608467316,138.3510979846419,595551104
sq,-2.22557220458984,79.0273317337036,29.992324132067914,119.09706460201947,595567771
sq,-1.75677642822266,79.7818807601929,33.84536387323446,95.99848949802224,595584438
sq,-1.23489532470703,81.0245908737183,37.37401961185793,71.79214985096263,595601105
sq,-0.662713623046875,80.2363771438599,40.54036511268914,48.70500051335621,595617772
sq,-0.0467849731445309,80.5608285903931,43.298364499746576,28.065566036409972,595634439
sq,0.624967956542969,81.5527509689331,45.596385863934195,10.41123413203032,595651106
sq,1.34234466552734,83.222208404541,47.40561123600443,-4.10147899807878,595667773
sq,2.0798095703125,83.7346033096314,48.76723702086527,-15.3091860467593,595684440
sq,2.86224975585937,83.3303245544434,49.84244609156935,-22.913517513072343,595701107
sq,3.73986663818359,82.3129152297974,50.9431724647459,-26.634507071039092,595717774
sq,4.61260070800781,81.7143968582153,52.52146162398465,-26.49169189619529,595734441
sq,5.52468719482422,81.3313011169434,55.10379904263651,-23.01696663784415,595751108
sq,6.45814361572266,80.1212972640991,59.17440934939619,-17.270635473022107,595767775
sq,7.34566345214844,80.2294506072998,65.03357516198123,-10.639638109392852,595784442
sq,8.26470794677734,80.3635667800903,72.67468594958379,-4.495641093354747,595801109
sq,9.30294647216797,80.5047277450562,81.72717714394368,0.15128145321707065,595817776
sq,10.5047134399414,80.6354526519775,91.4962229465069,2.8726193753180107,595834443
sq,11.9920677185059,80.7462429046631,101.09782753680406,3.843215504689341,595851110
sq,13.7032379150391,80.8230012893677,109.65283792451632,3.667980801268356,595867777
sq,15.5296691894531,80.8536018371582,116.48084101106515,3.0754830401652056,595884444
sq,17.5106147766113,80.8287004470825,121.23418169970672,2.573326481044314,595901111
sq,19.6262344360352,80.738062286377,123.93307213249604,2.169150333242052,595917778
sq,21.5909828186035,80.5398487091065,124.89786176516448,1.247690109157281,595934445
sq,23.4142707824707,80.2615055084229,124.61216149186478,-1.3424881541367981,595951112
sq,25.1823944091797,80.0363458633423,123.57376351239431,-6.999638505338102,595967779
sq,27.2191070556641,80.3955883026123,122.18531802639914,-16.956986912561174,595984446
sq,29.2931427001953,80.7410377502441,120.70787408002471,-31.880841792143542,596001113
sq,31.2075828552246,80.2280658721924,119.27018788912886,-51.603516325503755,596017780
sq,32.9821952819824,78.9588984489441,117.91309024882861,-75.04649305869638,596034447
sq,34.889185333252,77.4178618431091,116.64744915905597,-100.31312563344407,596051114
sq,36.8959297180176,75.719185256958,115.50339685199937,-124.91136203360531,596067781
sq,38.8436073303223,74.5573436260223,114.54721574664352,-146.1061106404072,596084448
sq,40.7605308532715,74.0101698875427,113.85177264667195,-161.42111868749373,596101115
sq,42.4968799591064,70.0598366498947,113.43009372694176,-169.23313029202387,596117782
sq,44.1227783203125,65.1651348114014,113.16673221861817,-169.26017275160206,596134449
sq,45.8897785186768,62.5819715499878,112.78992416220649,-162.69545406049943,596151116
sq,47.7041000366211,60.7212080001831,111.91248225596857,-151.88099227855537,596167783
sq,49.4867443084717,58.5574401855469,110.14141676595982,-139.65191127423034,596184450
sq,51.3607105255127,56.7486013412476,107.23267610216556,-128.62209337971788,596201117
sq,52.9095500946045,54.9553035736084,103.25671647008869,-120.65281216822645,596217784
sq,54.4388908386231,52.9994052886963,98.7372863409417,-116.62018061618859,596234451
sq,56.2513107299805,50.9841197967529,94.71988093554792,-116.46923433998323,596251118
sq,58.0111917495728,48.9862922668457,92.71989304639894,-119.46096965424628,596267785
sq,59.6455711364746,46.9515804290771,94.51091201609601,-124.4943027421641,596284452
sq,61.2248319625854,44.9073623657226,101.75356692389556,-130.405173256392,596301119
sq,62.838307762146,42.816374206543,115.52443798351453,-136.18547874836838,596317786
sq,64.6087745666504,40.6168865203857,135.85783384799726,-141.10362573636385,596334453
sq,66.5267380714417,38.3119529724121,161.43982191603325,-144.73615416533679,596351120
sq,68.4403060913086,36.089136505127,189.58124138478948,-146.93578026178096,596367787
sq,71.5851212978363,33.8223213195801,216.5370398666957,-147.76725600721016,596384454
sq,74.4062824487686,31.4587425231934,238.13826386460377,-147.43842746116027,596401121
sq,78.8967164993286,29.0764488220215,250.59057310751737,-146.24108802875972,596417788
sq,84.9352668762207,26.6925872802734,251.22577374169782,-144.50184823354337,596434455
sq,86.6220687866211,24.3963874816895,239.02116385106157,-142.5357709020922,596451122
sq,90.9058937072754,22.05869140625,214.80361428989315,-140.59720974330818,596467789
sq,94.7582782745361,19.8077033996582,181.13644354723547,-138.82946248221282,596484456
sq,98.6233352661133,17.5897659301758,141.90263856826078,-137.22321000676067,596501123
sq,100.778736495972,15.4906829833984,101.6176407654302,-135.59976014876563,596517790
sq,101.68569984436,13.4246391296387,64.58975534600978,-133.63425687294392,596534457
sq,102.219484710693,11.317537689209,34.13984467497635,-130.9223586082287,596551124
sq,102.514292144775,9.05449142456055,12.096574116001635,-127.07456007177335,596567791
sq,102.673586273193,6.87882843017578,-1.3179241840719071,-121.80803730098671,596584458
sq,102.798273468018,4.97377624511719,-7.236559224156083,-115.00953890665534,596601125
sq,102.889019393921,3.30303039550781,-7.657046625681521,-106.76228814923415,596617792
sq,102.896946334839,1.64960327148437,-4.8752816667755114,-97.34657695548323,596634459
sq,102.929390335083,-0.0094696044921871,-0.9835767541040296,-87.22234835629297,596651126
sq,102.983177566528,-1.51225433349609,2.4750395592431267,-76.98822981151844,596667793
sq,103.062210464478,-2.79162750244141,4.6597034349750714,-67.30457750090424,596684460
sq,103.216602706909,-3.88500366210937,5.400742505689492,-58.778964219714176,596701127
sq,103.248810195923,-4.81593475341797,5.02775179807306,-51.83444595347769,596717794
sq,103.252201461792,-5.52566680908203,4.121597859625085,-46.59942763891985,596734461
sq,103.217760467529,-6.13260803222656,3.2629625738957353,-42.86207436524637,596751128
sq,103.16452255249,-6.7165771484375,2.8407631514391185,-40.117470686183964,596767795
sq,103.147119903565,-7.32817993164062,2.9590969652397314,-37.70470546086342,596817796
sq,103.214519882202,-8.06479797363281,3.4487132436112384,-34.99488756785265,596834463
sq,103.297758483887,-8.81853637695312,3.9587969918687356,-31.566884794410196,596851130
sq,103.4142993927,-9.45636138916016,4.085916743413252,-27.30972950037326,596867797
sq,103.530739212036,-9.90270385742187,3.4930743864313687,-22.42065957968128,596884464
sq,103.709461593628,-10.1359954833984,1.9813486406813698,-17.310648962842482,596917798
sq,103.7186378479,-10.3091369628906,-0.5044986188867847,-12.462006880006728,596934465
sq,103.710272216797,-10.4946075439453,-3.9323900061623367,-8.290133598183369,596951132
sq,103.629795455933,-10.6368270874023,-8.277728720430568,-5.046588944909678,596967799
sq,103.446524047852,-10.7083450317383,-13.622768530559043,-2.7783935862770357,596984466
sq,103.165426635742,-10.7224899291992,-20.227204112671657,-1.34176881858952,597001133
sq,102.832540893555,-10.7374740600586,-28.545755612614414,-0.4594740088752882,597017800
sq,102.410400772095,-10.7252517700195,-39.18207854512479,0.1948054317265766,597034467
sq,101.744619750977,-10.7770858764648,-52.78113082002666,0.9065582119893717,597051134
sq,100.8348487854,-10.8139511108398,-69.87124432909665,1.8489453355526537,597067801
sq,99.6482357025147,-10.85,-90.67510262276666,3.0496432368292434,597084468
sq,98.250040435791,-10.7929702758789,-114.91988834721197,4.4043669565113674,597101135
sq,96.5060981750488,-10.7488037109375,-141.68932467984118,5.729459090587209,597117802
sq,94.264782333374,-10.5627914428711,-169.36595650794064,6.832166320297551,597134469
sq,91.6477951049805,-10.3742385864258,-195.704518232818,7.572008370339962,597151136
sq,88.5287879943848,-10.2396026611328,-218.05917656345235,7.893138147312059,597167803
sq,84.678920173645,-10.1290222167969,-233.76715207362668,7.823193532988658,597184470
sq,82.5305122375488,-10.0836196899414,-240.66638145826423,7.4502955368625,597201137
sq,79.3756021499634,-10.0078369140625,-237.66783509341815,6.897079991660528,597217804
sq,72.4069599151611,-9.90240631103516,-225.20249642944253,6.305535798705688,597234471
sq,67.7631739616394,-9.7612548828125,-205.30369899086665,5.833894151382814,597251138
sq,65.8698162078857,-9.60680541992187,-181.19620314901175,5.656165558289313,597267805
sq,63.6860250473022,-9.50890502929687,-156.51925046980364,5.953089830629834,597284472
sq,61.6632417678833,-9.419580078125,-134.50403414424545,6.890258359869354,597301139
sq,59.6472457885742,-9.35275421142578,-117.40564153868878,8.588849449230654,597317806
sq,57.76559009552,-9.25422058105469,-106.3154524159269,11.099624782432187,597334473
sq,55.9000095367432,-9.0671630859375,-101.30207090039617,14.388508877845055,597351140
sq,53.9510120391846,-8.82106170654297,-101.73095062003993,18.334838440308395,597367807
sq,52.0825542449951,-8.46383056640625,-106.60032596891885,22.737203764187168,597384474
sq,50.2650722503662,-8.09869537353516,-114.77976927548839,27.32159328417016,597401141
sq,48.4307655334473,-7.70640716552734,-125.11595580506604,31.752209202062875,597417808
sq,46.6056579589844,-7.24752197265625,-136.4436720560108,35.65147081849762,597434475
sq,44.7100986480713,-6.67171630859375,-147.58036247697837,38.63623864354774,597451142
sq,42.5580600738525,-6.04973754882812,-157.37595574489617,40.37113411761355,597467809
sq,40.0079635620117,-5.40066680908203,-164.84226950301658,40.63156280568458,597484476
sq,37.1260437011719,-4.77317199707031,-169.3239922919558,39.363359841066824,597501143
sq,34.1159042358398,-4.13150939941406,-170.63259187954787,36.723645536843414,597517810
sq,31.3073333740234,-3.41817626953125,-169.0706854209964,33.087845655800855,597534477
sq,28.6809791564941,-2.88433990478516,-165.32243084352396,29.01266149583016,597551144
sq,26.1099723815918,-2.42448577880859,-160.2439025741816,25.155988204480302,597567811
sq,23.6653045654297,-2.08827362060547,-154.6235706443736,22.16876678598719,597584478
sq,21.2154182434082,-1.76960144042969,-148.98554439459605,20.58233499441481,597601145
sq,18.9102500915527,-1.39281616210938,-143.48694307564926,20.713539736176486,597617812
sq,16.7055191040039,-1.04185638427734,-137.93068503158847,22.60273282574665,597634479
sq,14.5509437561035,-0.7064453125,-131.8845796202035,25.99430273693972,597651146
sq,12.389143371582,-0.384927368164062,-124.86957251052822,30.367634837645944,597667813
sq,10.2587303161621,0.0174316406250004,-116.55882892607059,35.02255265250509,597684480
sq,8.23684539794922,0.562933349609375,-106.92381794722631,39.211035162570745,597701147
sq,6.43432464599609,1.32019653320312,-96.28021133415206,42.288493584085984,597717814
sq,4.89931335449219,2.08991088867187,-85.22147937140153,43.84450666163246,597734481
sq,3.62824859619141,2.84579315185547,-74.46711695589143,43.77580821544376,597751148
sq,2.50957336425781,3.52456512451172,-64.67854554071526,42.28370778874685,597767815
sq,1.554541015625,4.17223968505859,-56.299702320579506,39.80282558004112,597784482
sq,0.67044677734375,4.86247100830078,-49.46394837514108,36.885978017581934,597801149
sq,-0.128816223144531,5.40341033935547,-43.98492566269024,34.07758551012619,597817816
sq,-0.792176818847656,5.84056701660156,-39.42693811733143,31.807703408882574,597834483
sq,-1.38774261474609,6.27567138671875,-35.23484748196686,30.331644058472406,597851150
sq,-1.96445617675781,6.79723205566406,-30.89288563021261,29.72494556171727,597867817
sq,-2.52520904541016,7.3263916015625,-26.07420311507032,29.92395672450488,597884484
sq,-3.02514801025391,7.84286346435547,-20.74069702647966,30.788521650956383,597901151
sq,-3.46228942871094,8.40333786010742,-15.160669643496945,32.162637364796254,597917818
sq,-3.79863128662109,8.91597595214844,-9.832442195437784,33.92005518644111,597934485
sq,-3.93592987060547,9.3473991394043,-5.33159266261376,35.99630321130163,597951152
sq,-3.89466247558594,9.84966888427735,-2.128439678973073,38.41664724785381,597967819
sq,-3.75077972412109,10.5447448730469,-0.4375501643832041,41.32538359802688,597984486
sq,-3.65033111572266,11.1923278808594,-0.15207591550646876,45.00923188926284,598001153
sq,-3.65366516113281,11.9391349792481,-0.8836248582668538,49.89686791679697,598017820
sq,-3.7357421875,12.8068565368652,-2.087534455942949,56.515104955811175,598034487
sq,-3.87593231201172,13.8114723205566,-3.223234555542894,65.3903812641665,598051154
sq,-4.04402313232422,14.9322380065918,-3.892395582124354,76.90071706918226,598067821
sq,-4.13861236572266,16.1558708190918,-3.9137129994511266,91.10651906241222,598084488
sq,-4.18011627197266,17.4018157958984,-3.3222071759155667,107.61133428057626,598101155
sq,-4.18404541015625,18.8885215759277,-2.308694972655195,125.5114796904998,598117822
sq,-4.18387756347656,20.8182357788086,-1.130769869293257,143.47368476022444,598134489
sq,-4.18019256591797,23.1756614685059,-0.027484512297252586,159.9351647485039,598151156
sq,-4.15047607421875,25.917463684082,0.8394223997311097,173.37283242507544,598167823
sq,-4.11947021484375,28.9700759887695,1.4078162752505679,182.5652970383343,598184490
sq,-4.10218963623047,31.7603096008301,1.7030740407768878,186.78543175023603,598201157
sq,-4.08207855224609,34.6119636535644,1.8028996222720708,185.89930195018846,598217824
sq,-4.08380279541016,37.6556686401367,1.7954916022927268,180.38052069748832,598234491
sq,-4.08878479003906,40.5686706542969,1.7476801483786513,171.25959843042153,598251158
sq,-4.10405883789062,43.1595653533936,1.6945997566078599,160.0211619271574,598267825
sq,-4.0781494140625,45.8316921234131,1.6531778019633205,148.45229248816884,598284492
sq,-4.01975402832031,48.2547458648682,1.6510088885336354,138.43927002696952,598301159
sq,-3.94697723388672,50.5606502532959,1.7545609374462718,131.71039342803482,598317826
sq,-3.87491760253906,52.7992347717285,2.0802270594194474,129.53411250748027,598334493
sq,-3.83944091796875,54.92565574646,2.7791889746854066,132.40642171247762,598351160
sq,-3.81113586425781,57.0191463470459,3.9986735686063675,139.7937916294802,598367827
sq,-3.76893768310547,59.0620941162109,5.832133881011388,150.02574733199572,598384494
sq,-3.69733581542969,61.0970500946045,8.27497221842225,160.4374880154365,598401161
sq,-3.58493194580078,63.0398477554321,11.200142000582698,167.82799679974255,598417828
sq,-3.41757354736328,65.0442837715149,14.361598039132906,169.20648005896518,598434495
sq,-3.18101654052734,67.6912664413452,17.426030126111236,162.6532005631218,598451162
sq,-2.91145477294922,72.9848113298416,20.026838667661387,147.97759441230613,598467829
sq,-2.5903564453125,77.1575993537903,21.82998707513077,126.84012432940536,598484496
sq,-2.22300109863281,77.2954911231995,22.599235710293478,102.20880264701611,598501163
sq,-1.844384765625,78.8877533912659,22.248151486564822,77.36416816390143,598517830
sq,-1.45293579101563,78.2142123222351,20.868544485254446,54.90927977529994,598534497
sq,-1.13611755371094,78.4026540756226,18.72976483109882,36.21087329240499,598551164
sq,-0.853372192382812,79.2515405654907,16.24918723364227,21.432714656036165,598567831
sq,-0.573098754882812,81.0913995742798,13.938719386606506,10.00569110638511,598584498
sq,-0.306283569335937,81.8413719177246,12.33445773340174,1.1995471140284713,598601165
sq,-0.115274047851562,81.8461469650269,11.91871521760995,-5.498505426173117,598617832
sq,0.0228637695312504,81.3430904388428,13.047132423234535,-10.303283960475172,598634499
sq,0.182089233398438,80.9285167694092,15.895874759581899,-13.270236305777011,598651166
sq,0.412657165527344,80.6942066192627,20.440488534108585,-14.499355972200632,598667833
sq,0.770719909667969,80.5032114028931,26.468303113535878,-14.27709920295268,598684500
sq,1.21581115722656,79.704967880249,33.615474344794414,-13.094245431414109,598701167
sq,1.76237335205078,79.7575534820557,41.41399164867589,-11.540789201579983,598717834
sq,2.45355072021484,79.7830881118774,49.33524406774055,-10.131142111048533,598734501
sq,3.30090942382812,79.7729009628296,56.82319119798796,-9.144036948777767,598751168
sq,4.20834197998047,79.733423614502,63.3194021782208,-8.554758425093086,598767835
sq,5.11432495117188,79.6336826324463,68.29145948232163,-8.094949731883808,598784502
sq,6.10904541015625,79.4832076072693,71.27986371611065,-7.4220735646787155,598801169
sq,7.21502532958984,79.3009537696838,71.97036554307991,-6.340296073021727,598817836
sq,8.42359771728516,79.0901216506958,70.27940756068834,-4.99660175019513,598834503
sq,9.69048156738282,78.8727110862732,66.4212531907239,-3.9807635866551183,598851170
sq,10.8553833007812,78.5982083320618,60.92058573387179,-4.283326766154053,598867837
sq,11.7991508483887,78.3880127906799,54.54941418021795,-7.1086231102184945,598884504
sq,12.6880859375,78.5970677375794,48.194199212751286,-13.590422361852042,598901171
sq,13.4731468200684,78.7641877174377,42.68427443493134,-24.494169872891426,598917838
sq,14.1273445129394,78.3532122612,38.62729772882401,-39.9866845711608,598934505
sq,14.544775390625,77.3830803871155,36.300272917979626,-59.511501998660144,598951172
sq,14.9900840759277,76.2262066841126,35.63413107067553,-81.76331903008622,598967839
sq,15.5444511413574,74.600243473053,36.30327932435681,-104.75239057620371,598984506
sq,16.1981109619141,73.3711849689484,37.89417924880175,-125.99254025780276,599001173
sq,16.9274963378906,73.3437381029129,40.09518421936671,-142.87873506808532,599017840
sq,17.6575073242187,70.9489268302918,42.839587572669906,-153.262134056182,599034507
sq,18.4482788085937,66.3309320449829,46.34900019277344,-156.07272119931076,599051174
sq,19.3243278503418,62.7697290420532,51.057279421918494,-151.70911010994004,599067841
sq,20.1273254394531,60.8241895675659,57.43557333837189,-141.9700506470212,599084508
sq,20.9220375061035,59.184481048584,65.77603078964718,-129.53376386690005,599101175
sq,21.7574295043945,57.4606098175049,76.01273004118814,-117.21479608922606,599117842
sq,22.7684120178223,55.9641899108887,87.65110460283829,-107.28969489233276,599134509
sq,24.1313385009766,54.3556465148926,99.83908609371387,-101.09157288851824,599151176
sq,25.8086799621582,52.6935523986816,111.55812376638153,-98.93020084022228,599167843
sq,27.7570098876953,50.9774879455566,121.86494378996335,-100.2778733334841,599184510
sq,29.8691276550293,49.1857341766357,130.09697775144315,-104.10111043007944,599201177
sq,32.1447471618652,47.3933776855469,135.97265918347549,-109.21296647463667,599217844
sq,34.2983726501465,45.5865959167481,139.5628214454272,-114.55376684445433,599234511
sq,36.3538841247559,43.7805618286133,141.16087577560617,-119.35648487663693,599251178
sq,38.5300354003906,41.8530334472656,141.11433831120442,-123.19621289269632,599267845
sq,40.8069442749023,39.8995594024658,139.68536284958626,-125.9504436261377,599284512
sq,42.9373268127441,37.9322380065918,136.98842658967004,-127.70804360842097,599301179
sq,45.0572093963623,35.9137405395508,133.02496454080963,-128.6647588727604,599317846
sq,47.1578849792481,33.9603561401367,127.807531048254,-129.0354978359678,599334513
sq,49.1380275726318,31.8626884460449,121.5407548828492,-129.00024847068894,599351180
sq,51.1660083770752,29.7898315429687,114.80355890433816,-128.6843941982114,599367847
sq,53.1709865570068,27.7258666992187,108.6628127159614,-128.16095342988083,599384514
sq,55.0737537384033,25.5664924621582,104.65171634238155,-127.45706930342723,599401181
sq,56.8642372131348,23.4907745361328,104.57249641957537,-126.55175879609367,599417848
sq,58.6749052047729,21.5444549560547,110.12947914517638,-125.36409307973672,599434515
sq,60.5561861038208,19.605680847168,122.45477949087115,-123.74357879640476,599451182
sq,62.344619178772,17.6482757568359,141.64163085041346,-121.47858051137906,599467849
sq,64.0970472335815,15.685099029541,166.43216117443995,-118.33100442316258,599484516
sq,65.9662913322449,13.7901557922363,194.19218874168598,-114.09239910646374,599501183
sq,70.0310851573944,11.9360946655273,221.2313463721915,-108.64700117081402,599517850
sq,72.5293958425522,10.2354606628418,243.41652879857585,-102.02443370378502,599534517
sq,76.9415544509888,8.52963485717773,256.931254371903,-94.4266135057752,599551184
sq,83.0168203353882,7.00166168212891,258.9946162532882,-86.21766163031091,599567851
sq,84.8810419082642,5.54372253417969,248.38688041735253,-77.87285854823358,599584518
sq,88.9811595916748,4.29442443847656,225.70513528380172,-69.89420143545549,599601185
sq,93.524475479126,3.28665771484375,193.31991593964307,-62.713398050022924,599617852
sq,97.7164710998535,2.37801971435547,155.00271091255408,-56.61074514779566,599634519
sq,100.102978134155,1.45632781982422,115.22827367129418,-51.67329794867267,599651186
sq,100.960964584351,0.605299377441407,78.2802946120612,-47.79949527630304,599667853
sq,101.532705688477,-0.191033935546875,47.418125894750894,-44.740421235826645,599684520
sq,101.964781188965,-0.943711853027343,24.36730003169149,-42.16010065139089,599701187
sq,102.45139541626,-1.57837066650391,9.260228538448178,-39.699759638117825,599717854
sq,102.871305847168,-2.20643768310547,0.9725908064506013,-37.03766953499714,599734521
sq,103.126482391357,-2.79403076171875,-2.3204968274395785,-33.94042449436495,599751188
sq,103.266510391235,-3.30339965820312,-2.569563507996992,-30.30087944227748,599767855
sq,103.31272354126,-3.85917816162109,-1.4110313201402525,-26.154599278263657,599784522
sq,103.721893692017,-4.32644805908203,0.06108603401487468,-21.66509832441842,599801189
sq,103.240009689331,-4.77618560791016,1.313743454167247,-17.07311192051571,599967859
sq,103.234197998047,-4.99265441894531,2.244253140642154,-12.618232661764141,599984526
sq,103.255442047119,-5.06695709228516,2.9848827005877268,-8.45704262983557,600001193
sq,103.288326644897,-5.15085754394531,3.714454406924486,-4.609302226307271,600017860
sq,103.319895172119,-5.19525299072266,4.519762278138796,-0.9552590237740516,600034527
