Label,Left_Hip_q,Right_Hip_q,Left_Hip_qd,Right_Hip_qd,SampleTimeFine
sq,107.784654998779,63.5540718078613,-27.4789333343506,37.2978448867802,666483095
sq,107.34499206543,64.1508373260498,-27.23527999550432,-32.97617728372322,666499762
sq,106.894976043701,63.6234601974487,-20.070518546918386,-53.42246222363603,666516429
sq,106.559564971924,62.6796268463135,-13.966067500480019,-72.74894641906724,666533096
sq,106.293348693848,61.3352788925171,-9.76467664095753,-90.14008759318617,666549763
sq,106.052290344238,59.7713607788086,-8.066257565628954,-105.2103118510339,666566430
sq,105.879572296143,57.937974357605,-9.108187913995424,-118.03572793161801,666583097
sq,106.00039138794,56.0564769744873,-12.696252102887053,-129.04599896203757,666683099
sq,105.93120803833,54.0738300323486,-18.22575606716234,-138.81790687441134,666716433
sq,105.73088684082,52.0097679138184,-24.815041542672212,-147.84367964196977,666733100
sq,105.482164764404,49.7827743530273,-31.53380810488126,-156.35166116453385,666749767
sq,104.2268699646,47.3089050292969,-37.66581955972655,-164.23409568611498,666816435
sq,103.795833969116,44.7332424163818,-42.929301552120556,-171.09789555489036,666833102
sq,103.326763534546,42.0058387756348,-47.60168609180524,-176.41485869747714,666849769
sq,102.666204833984,39.1213096618652,-52.5350225115402,-179.7190670373493,666866436
sq,101.777437591553,36.0826553344726,-59.06596361787138,-180.78620628163634,666883103
sq,100.611971282959,33.064810180664,-68.81212340205423,-179.7352061120836,666899770
sq,99.1444610595703,30.1476692199707,-83.33629412164143,-177.01742072827062,666916437
sq,97.6024803161621,27.2888511657715,-103.68544373786378,-173.29587394470204,666933104
sq,95.897465133667,24.5967506408691,-129.87746411390881,-169.25339145862094,666949771
sq,94.1666912078857,21.9515480041504,-160.48799481907952,-165.39092374897635,666966438
sq,92.3315032958984,19.4587120056152,-192.53527263785108,-161.87970986592518,666983105
sq,90.3552688598633,17.0022872924805,-221.82545579969053,-158.51323013593546,666999772
sq,86.366875076294,14.4064582824707,-243.78453676424604,-154.77242166384872,667016439
sq,83.3887170791626,11.9117797851563,-254.60036063232778,-149.9813458392899,667033106
sq,76.9775208473206,9.42903366088867,-252.31704854957022,-143.50429263467092,667049773
sq,72.0514550745487,7.10230865478516,-237.47018188527346,-134.92777613749212,667066440
sq,67.2992600440979,4.88382568359375,-212.99225466644108,-124.18028278312586,667083107
sq,65.2133416175842,2.80707397460937,-183.4161798235069,-111.56167233892793,667099774
sq,63.2622922897339,0.94937744140625,-153.69972151298916,-97.67748291656574,667116441
sq,61.3010429382324,-0.583863830566406,-128.10896189321193,-83.29855151831244,667133108
sq,59.2915205001831,-1.81219635009766,-109.48985236141513,-69.18867943902806,667149775
sq,57.3448652267456,-2.77880249023437,-99.03428000672076,-55.95360454857442,667166442
sq,55.5985893249512,-3.6010986328125,-96.45802036320366,-43.95569305168073,667183109
sq,53.949934387207,-4.31598815917969,-100.42246754192193,-33.31231855235846,667199776
sq,52.2307056427002,-4.89283905029297,-109.03408332704687,-23.96403657841637,667216443
sq,50.4086288452148,-5.33739624023437,-120.29850381903587,-15.77604519343999,667233110
sq,48.3984912872314,-5.66326293945312,-132.45649303132612,-8.630994625093267,667249777
sq,46.2377857208252,-5.84864196777344,-144.17346153079257,-2.4816862109210733,667266444
sq,43.9992546081543,-5.89033660888672,-154.5901164630357,2.6482456618764036,667283111
sq,41.4968036651611,-5.83313903808594,-163.26689462037078,6.707024072293774,667299778
sq,38.8898338317871,-5.70285186767578,-170.06755045688266,9.677326405215524,667316445
sq,36.3118270874023,-5.46318969726562,-175.02876785595998,11.63003508101328,667333112
sq,33.6057571411133,-5.23584899902344,-178.25450700185957,12.745307091272466,667349779
sq,30.7362503051758,-5.01656494140625,-179.85602626877593,13.290355159223182,667366446
sq,27.8031295776367,-4.79827270507812,-179.93480343323174,13.560424588794067,667383113
sq,24.8457817077637,-4.65197906494141,-178.58674345909253,13.804043378562428,667399780
sq,21.8823112487793,-4.49486694335937,-175.90281276872017,14.159891213091775,667416447
sq,19.0857032775879,-4.28081665039062,-171.95480198995128,14.628045900022009,667433114
sq,16.4488395690918,-4.07822570800781,-166.77575533826888,15.085174618066969,667449781
sq,13.9410423278809,-3.82188568115234,-160.35771177625784,15.33743145732222,667466448
sq,11.4083122253418,-3.53431854248047,-152.68326416544397,15.192650768106729,667483115
sq,8.84141006469727,-3.25156555175781,-143.78395920566797,14.528629270589809,667499782
sq,6.39985504150391,-2.99682769775391,-133.79469035287715,13.337625156117198,667516449
sq,4.16174926757813,-2.781396484375,-122.96848695228688,11.736515715860916,667533116
sq,2.17943420410156,-2.59314880371094,-111.63611980331234,9.942997126677913,667549783
sq,0.48221435546875,-2.44709167480469,-100.12727623075456,8.226651992816617,667566450
sq,-0.941712951660156,-2.30475769042969,-88.69420569629334,6.848021078265698,667583117
sq,-2.2265869140625,-2.19900665283203,-77.4793698542557,5.999873820791357,667599784
sq,-3.49158630371094,-2.13483581542969,-66.54407514526058,5.764210607503753,667616451
sq,-4.71834716796875,-2.06763610839844,-55.93937251456907,6.096442315667919,667633118
sq,-5.74635467529297,-1.99319610595703,-45.77627268581374,6.843703375426705,667649785
sq,-6.51061401367187,-1.892236328125,-36.25495568688355,7.79700308681242,667666452
sq,-7.04919586181641,-1.77155456542969,-27.638288486256368,8.768404059461743,667683119
sq,-7.43123016357422,-1.62508544921875,-20.184751975146703,9.677034795977836,667699786
sq,-7.71005401611328,-1.4426513671875,-14.072304606761616,10.623324312433798,667716453
sq,-7.90654907226562,-1.24865112304688,-9.34317864985376,11.930367189018053,667733120
sq,-8.04561767578125,-1.01526794433594,-5.886704775763105,14.13525291193953,667749787
sq,-8.14828643798828,-0.73916015625,-3.4622225619417213,17.92156447963713,667766454
sq,-8.21106872558594,-0.419290161132812,-1.7529014995557102,23.996547960856198,667783121
sq,-8.22516784667969,-0.0335937499999996,-0.4354492808484228,32.93112736079999,667799788
sq,-8.23394165039062,0.451506042480469,0.7511774791003518,44.99468891341713,667816455
sq,-8.26908264160156,1.1054443359375,1.9547208288803546,60.0246217258039,667833122
sq,-8.29915008544922,1.99554290771484,3.1903833725903583,77.36888044823299,667849789
sq,-8.28114471435547,3.207373046875,4.3605820501007075,95.92750478030092,667866456
sq,-8.18083343505859,4.64703979492188,5.308985036427755,114.29903622288838,667883123
sq,-8.057763671875,6.45934143066406,5.891614371870892,131.0145171209683,667899790
sq,-7.92403564453125,8.5478271484375,6.0412524718627845,144.81884548057525,667916457
sq,-7.79261932373047,10.8636306762695,5.804236554266005,154.94000593534471,667933124
sq,-7.69513092041016,13.5599044799805,5.338908332618644,161.27602767910017,667949791
sq,-7.6140380859375,16.2898582458496,4.877390121565115,164.4347310699376,667966458
sq,-7.53513488769531,19.2613929748535,4.662426899875228,165.58971047160986,667983125
sq,-7.46399841308594,21.7000869750977,4.876737919656797,166.16721645025044,667999792
sq,-7.41565856933594,24.2837966918945,5.583922103367731,167.43690912688078,668016459
sq,-7.3591552734375,26.9831680297852,6.6982180087562835,170.11985561483422,668033126
sq,-7.27890167236328,29.4908584594727,7.995334078129414,174.13450078840134,668049793
sq,-7.17210540771484,31.8036636352539,9.16816799470867,178.57627534262056,668066460
sq,-7.04196319580078,34.3111595153809,9.920762920982007,181.97055410973908,668083127
sq,-6.90126190185547,37.3783821105957,10.083324929848235,182.75261966834395,668099794
sq,-6.70437774658203,40.836294555664,9.722435524762986,179.8353314482225,668116461
sq,-6.48761901855469,44.0664600372314,9.215841012131209,173.07473080849036,668133128
sq,-6.28920135498047,46.8544105529785,9.263085138388599,163.47118709254207,668149795
sq,-6.08964691162109,49.661323928833,10.813459583522594,153.03377361981748,668166462
sq,-5.85431060791016,52.2439407348633,14.91009941657222,144.339824668914,668183129
sq,-5.57371673583984,54.171764755249,22.470245957283325,139.9017645958013,668199796
sq,-5.23742828369141,56.3340190887451,34.04297285903074,141.49487680683416,668216463
sq,-4.79222259521484,58.6677631378174,49.602198899924524,149.60122082840056,668233130
sq,-4.14384613037109,60.9498752593994,68.4377212101351,163.09721008594343,668249797
sq,-3.18222961425781,63.4286636352539,89.19392078880303,179.2758012393901,668266464
sq,-1.86100921630859,65.9383358001709,110.07372429807299,194.25698047471707,668283131
sq,-0.154817199707031,68.1821979522705,129.18079069084928,203.78356806974082,668299798
sq,1.91255035400391,70.5514439582825,144.9269497948208,204.2920103506373,668316465
sq,4.43421020507813,75.0314042806625,156.39736148615668,193.9878039155358,668333132
sq,7.33852996826172,80.5159625053406,163.5568037356803,173.5224749297345,668349799
sq,10.353239440918,85.3953813552857,167.21131565001315,145.9138335758091,668366466
sq,13.0127738952637,85.3774417877197,168.71405566167397,115.65060072228871,668383133
sq,15.4266151428223,86.4303525924683,169.50087296135854,87.3311230180709,668399800
sq,17.8168663024902,86.0996088027954,170.61441323696087,64.41485002675053,668416467
sq,20.1716102600098,86.4354604721069,172.3852962844804,48.55156550058853,668433134
sq,22.7376312255859,88.810870552063,174.37852797118325,39.602783272192205,668449801
sq,25.5528091430664,90.2049125671387,175.61133929786757,36.137608798849115,668466468
sq,28.521452331543,91.1591915130615,174.94844247941046,36.06709254500493,668483135
sq,31.7699493408203,91.1500133514404,171.52107105752327,37.186769720676374,668499802
sq,34.9279960632324,91.0749267578125,165.02011470319215,37.57597548212015,668516469
sq,37.5196708679199,91.4390205383301,155.77983588794262,35.89238085452051,668533136
sq,39.6785797119141,93.227091217041,144.6652527403477,31.565953404611285,668549803
sq,41.8815807342529,94.1595272064209,132.85181718012242,24.833627590784285,668566470
sq,43.8746837615967,94.0674995422363,121.60381396191647,16.570768055046432,668583137
sq,45.763000869751,93.9879955291748,112.12295194967243,7.968320671233663,668599804
sq,47.6676544189453,93.9167903900147,105.48487766438066,0.1819411050695926,668616471
sq,49.2349895477295,93.8637088775635,102.63829151818244,-5.927536564684889,668633138
sq,50.8747695922851,93.8119529724121,104.41762826389932,-9.913226695866047,668649805
sq,52.7348693847656,93.7631324768066,111.51175881676653,-11.743567943889742,668666472
sq,55.0953144073486,93.7194637298584,124.33956129012834,-11.744172269326434,668683139
sq,57.3682741165161,93.656160736084,142.8231505539429,-10.534604373475391,668699806
sq,59.0991863250732,93.5019325256348,166.12518588454077,-8.984308503983508,668716473
sq,60.9431079864502,93.2908195495606,192.48807260120233,-8.173239111635782,668733140
sq,63.1436056137085,92.7951816558838,219.30929304732192,-9.31647355148519,668749807
sq,68.0827139854431,92.3104404449463,243.48112185875428,-13.617575240919356,668766474
sq,72.203415119648,92.5203136444092,261.885995327875,-22.05692911178407,668783141
sq,76.5916937828064,92.7766441345215,271.885981538318,-35.17098194655381,668799808
sq,80.976003074646,91.9986099243164,271.7113745885555,-52.88957633254732,668816475
sq,83.0670713424683,90.6608604431152,260.7517507241592,-74.45840406134622,668833142
sq,88.288069152832,89.0923274993897,239.76463861858224,-98.43109159564595,668849809
sq,93.44856300354,87.7373851776123,210.92541774199927,-122.72847956428228,668866476
sq,97.7473091125488,86.2695182800293,177.56876392581233,-144.82174509480345,668883143
sq,100.494690322876,85.6893781661987,143.55167567192444,-162.12071569092382,668899810
sq,101.672115707397,82.7823919296265,112.38066776391953,-172.56368257895335,668916477
sq,102.561590576172,77.9340752601624,86.42160707820229,-175.23377281165062,668933144
sq,103.525799179077,74.1244356870651,66.50528849360894,-170.71294933246725,668949811
sq,104.433184051514,72.0497151851654,52.05941568102576,-160.96539954926106,668966478
sq,105.363264465332,70.0636865139008,41.656558149985706,-148.78073331129627,668983145
sq,108.103399658203,68.02251329422,33.69960174577478,-137.01595515289162,669133148
sq,108.265421295166,65.9393605232239,26.95174982106728,-127.91840824335587,669149815
sq,108.403360748291,64.0533536911011,20.752519012355474,-122.71815769363387,669166482
sq,108.522848510742,62.329404258728,14.94516353511016,-121.5496491185014,669183149
sq,108.635687255859,60.3016981124878,9.652771317799457,-123.6592833722579,669199816
sq,108.732641601563,58.0287174224854,5.042106648406631,-127.78789788230489,669216483
sq,108.784708404541,55.7513088226318,1.1576494002285862,-132.5885184679065,669233150
sq,108.795015716553,53.4915431976318,-2.148151142594709,-136.95761220267596,669249817
sq,108.765219116211,51.3334983825684,-5.198198348056002,-140.2140478671416,669266484
sq,108.686735534668,49.1805137634277,-8.415685780554199,-142.12486303591143,669283151
sq,108.609552764893,46.9530433654785,-12.225532399539938,-142.82110973145262,669299818
sq,108.456179046631,44.6906436920166,-16.966059475832516,-142.66007559082917,669316485
sq,108.187609100342,42.3908332824707,-22.83716516159869,-142.08128296054716,669333152
sq,107.839357757568,40.2054237365723,-29.8997383210563,-141.48793269804466,669349819
sq,107.392095947266,38.0095275878906,-38.128925226551594,-141.17074699396343,669366486
sq,106.859796905518,35.7141479492187,-47.51257449558293,-141.27691358505575,669383153
sq,106.224424743652,33.3797706604004,-58.172872713450545,-141.81289382312204,669399820
sq,105.381727600098,31.0335601806641,-70.46958004462569,-142.66206268577722,669416487
sq,103.888006591797,28.7636131286621,-85.02049393153119,-143.60239145958118,669433154
sq,101.986242675781,26.5294975280762,-102.56789334615017,-144.3227584209248,669449821
sq,100.034140014648,24.2692245483398,-123.65708013891368,-144.44815549108344,669466488
sq,98.1141990661621,21.9857429504394,-148.18377520019718,-143.58502409641454,669483155
sq,96.2787479400635,19.6934226989746,-174.97564285393725,-141.388173441792,669499822
sq,94.4958652496338,17.4018577575684,-201.63080026311022,-137.63733472518553,669516489
sq,91.7047256469727,15.169172668457,-224.78611702028863,-132.30206587849628,669533156
sq,87.629679107666,12.9805740356445,-240.8316709568447,-125.57258618383845,669549823
sq,85.3294300079346,10.9334358215332,-246.88865225727392,-117.84170160229348,669566490
sq,78.0968870162964,9.04598846435547,-241.71417803752198,-109.63700861704801,669583157
sq,73.8897245168686,7.31005706787109,-226.17016568193,-101.51831654424834,669599824
sq,70.0920506954193,5.72157135009766,-203.04475890979984,-93.96683878341028,669616491
sq,67.6980375289917,4.30072631835938,-176.2940129670031,-87.29571656840942,669633158
sq,65.6417135238648,2.95148315429687,-150.01592840709284,-81.60450830267884,669649825
sq,63.5610536575317,1.62095489501953,-127.53453400393174,-76.78560600574255,669666492
sq,61.7012857437134,0.370893859863282,-110.85740261637741,-72.57390541792913,669683159
sq,59.9726613998413,-0.811479187011718,-100.58155913001914,-68.61968367719304,669699826
sq,58.1429761886597,-1.99606475830078,-96.16229786031445,-64.56290924852443,669716493
sq,56.2526000976562,-3.03522644042969,-96.3731852073713,-60.09456129810801,669733160
sq,54.4865383148193,-3.89145812988281,-99.77692293642053,-55.00218089019167,669749827
sq,52.8537086486816,-4.67962799072266,-105.07779618613974,-49.20470243955,669766494
sq,51.2173942565918,-5.51069030761719,-111.30460517257625,-42.778417479974586,669783161
sq,49.5101474761963,-6.31360778808594,-117.84135063977999,-35.96388003900659,669799828
sq,47.6618312835693,-7.01545867919922,-124.35908801461183,-29.135921515219273,669816495
sq,45.6976093292236,-7.53935394287109,-130.7069408793763,-22.72819591235864,669833162
sq,43.6861003875732,-7.73024139404297,-136.80700299100397,-17.127803428413905,669849829
sq,41.5429271697998,-7.88206634521484,-142.57886215099984,-12.577507922112297,669866496
sq,39.2042106628418,-8.02394256591797,-147.90048213202877,-9.12490097548963,669883163
sq,36.7354415893555,-8.15219268798828,-152.59752846987934,-6.636512564570818,669899830
sq,34.2922996520996,-8.37907562255859,-156.44864545673292,-4.864505994719186,669916497
sq,31.8861717224121,-8.51423034667969,-159.20070976836098,-3.5330565360071664,669933164
sq,29.3989051818848,-8.60852966308594,-160.5969371229317,-2.4104387967071648,669949831
sq,26.8295234680176,-8.64713439941406,-160.42068970279246,-1.347588180320932,669966498
sq,24.1713813781738,-8.63424835205078,-158.54783697158496,-0.2829416506848637,669983165
sq,21.5977958679199,-8.58527526855469,-154.99074624707634,0.7739741632830256,669999832
sq,19.1389259338379,-8.5559326171875,-149.91701191475337,1.7658415311799893,670016499
sq,16.7316383361816,-8.56260070800781,-143.63511760387598,2.6098834276142187,670033166
sq,14.442106628418,-8.56318817138672,-136.54941218384056,3.2195669815699723,670049833
sq,12.2358306884766,-8.52568206787109,-129.09269470127845,3.5291207258258916,670066500
sq,10.1132072448731,-8.4565673828125,-121.6475573647757,3.520411434957203,670083167
sq,8.21392669677734,-8.36280212402344,-114.4710014393439,3.2449575294023556,670099834
sq,6.45901336669922,-8.27346954345703,-107.64078844638355,2.8304342549291963,670116501
sq,4.75928344726563,-8.20402679443359,-101.04206560082983,2.4643193053348753,670133168
sq,3.14370574951172,-8.17177734375,-94.40525098887534,2.3560327082046,670149835
sq,1.69660034179687,-8.16954956054687,-87.39275627526975,2.6884681477070567,670166502
sq,0.335813903808594,-8.16326293945312,-79.717548523418,3.575146183573149,670183169
sq,-1.00571594238281,-8.12715301513672,-71.26370597103718,5.037589265608545,670199836
sq,-2.28397521972656,-8.05486450195312,-62.17112557518536,7.009933455204995,670216503
sq,-3.39806518554687,-7.92428741455078,-52.84997736195786,9.368196216399195,670233170
sq,-4.25619659423828,-7.75806579589844,-43.910130515037835,11.974329730576008,670249837
sq,-4.88875732421875,-7.57718811035156,-36.021056353163125,14.722431128874382,670266504
sq,-5.420068359375,-7.32293853759766,-29.744113268705924,17.575657228579686,670283171
sq,-5.84010467529297,-7.00145874023437,-25.38934487128137,20.5856815251344,670299838
sq,-6.1147705078125,-6.67289886474609,-22.940752914439376,23.891062892655686,670316505
sq,-6.38690338134766,-6.32244262695312,-22.072150477189183,27.696305864675793,670333172
sq,-6.77950439453125,-5.90419921875,-22.24620450762967,32.2376285842052,670349839
sq,-7.2568603515625,-5.41723022460937,-22.860620252282978,37.74150521985778,670366506
sq,-7.75322875976562,-4.72648010253906,-23.389964947297667,44.37801988332622,670383173
sq,-8.17424163818359,-3.93131408691406,-23.478416027645316,52.208184912679904,670399840
sq,-8.53687438964844,-3.12623748779297,-22.96429057956939,61.128833214845116,670416507
sq,-8.84095153808594,-2.20218811035156,-21.84683720445581,70.83020908427274,670433174
sq,-9.12597808837891,-1.13778076171875,-20.22430733354515,80.79122313724248,670449841
sq,-9.42210540771484,0.0527481079101566,-18.23367074682019,90.33561547639685,670466508
sq,-9.72406158447266,1.40572204589844,-16.010751893034733,98.75588134326928,670483175
sq,-9.99093017578125,2.99817504882812,-13.674475043662538,105.48523036866425,670499842
sq,-10.2145324707031,4.81187286376953,-11.328199480189179,110.27079300406587,670516509
sq,-10.4053970336914,6.77978363037109,-9.067275654089944,113.28702384527458,670533176
sq,-10.5705505371094,8.73450317382813,-6.983111738673507,115.13834374520611,670549843
sq,-10.7081848144531,10.5378784179688,-5.1577753191744735,116.73502283284735,670566510
sq,-10.7945419311523,12.3530181884766,-3.6483989931202725,119.07143688020159,670583177
sq,-10.8341537475586,14.17490234375,-2.4665520464220267,122.96976939009777,670599844
sq,-10.8401885986328,16.011629486084,-1.5621524664398763,128.86147452364548,670616511
sq,-10.8440719604492,18.0027297973633,-0.8218205853239933,136.66382984990997,670633178
sq,-10.846955871582,20.1798614501953,-0.08701386263872721,145.77923669420773,670649845
sq,-10.85,22.5469802856445,0.8101967445108738,155.21256760664772,670666512
sq,-10.8461700439453,24.9525093078613,2.002896897501152,163.77635232518543,670683179
sq,-10.8440719604492,27.4605926513672,3.5497717792360595,170.3371014731854,670699846
sq,-10.8111663818359,30.3973373413086,5.4129862969737585,174.04506297942868,670716513
sq,-10.7378021240234,33.5859626770019,7.4618126630829105,174.4868778229673,670733180
sq,-10.6065460205078,36.2890876770019,9.503394026375792,171.71875352307285,670749847
sq,-10.457551574707,38.9318222045898,11.335298627515904,166.1808386462312,670766514
sq,-10.2891708374023,41.6331295013428,12.810017621533326,158.5408682396071,670783181
sq,-10.0914703369141,43.8875640869141,13.899224651298491,149.53886216268307,670799848
sq,-9.8535400390625,46.1419567108154,14.744109650080581,139.89470199468565,670816515
sq,-9.57666168212891,48.4289840698242,15.677304434162737,130.3051090379677,670833182
sq,-9.28311309814453,50.479216003418,17.203826469925588,121.5112798896922,670849849
sq,-8.97850952148437,52.4398349761963,19.93517080372086,114.38025432689786,670866516
sq,-8.65342102050781,54.6093524932861,24.48178163311072,109.9256290506313,670883183
sq,-8.26773223876953,56.6172298431396,31.321426588014248,109.20425169602996,670899850
sq,-7.78023681640625,58.3667778015137,40.67053087380205,113.06728490513933,670916517
sq,-7.16406402587891,60.1320232391357,52.38975851176182,121.80670384466353,670933184
sq,-6.39425811767578,62.1963266372681,65.95304601209124,134.79880759056874,670949851
sq,-5.43927154541016,64.2947315216065,80.50004001251489,150.2849403884305,670966518
sq,-4.22667846679687,65.9335359573364,94.9744418584437,165.43695616729647,670983185
sq,-2.69757995605469,67.5317744255066,108.32632578124775,176.81235323692385,670999852
sq,-0.87911376953125,69.7867683410645,119.73146442608218,181.18029163613724,671016519
sq,1.17103424072266,73.6152029126883,128.7658025900673,176.50142295194848,671033186
sq,3.3681396484375,78.3995408058167,135.47785414998577,162.66997871933017,671049853
sq,5.63984527587891,83.4223798751831,140.32793787508342,141.6323837581489,671066520
sq,7.91469421386719,83.5917123794556,144.00391963722714,116.75771048691414,671083187
sq,10.1954559326172,84.5078386306763,147.16590934741913,91.7215172819369,671099854
sq,12.3444313049316,85.2899869918823,150.20295003374233,69.4115300110985,671116521
sq,14.4030097961426,85.0660575866699,153.08951610890236,51.30951772860374,671133188
sq,16.6595252990723,85.9822401046753,155.3991541979352,37.51635009339264,671149855
sq,19.3328575134277,88.2194379806519,156.47158461822465,27.260633732755714,671166522
sq,22.2081817626953,89.6503147125244,155.66556022329559,19.54203080163838,671183189
sq,24.6997627258301,89.6642250061035,152.60006931512697,13.592650527279876,671199856
sq,27.0868782043457,89.1638463973999,147.30535224621872,9.035341957663894,671216523
sq,29.4407638549805,89.2776683807373,140.24964193813344,5.809828579130977,671233190
sq,31.8130210876465,89.5238899230957,132.24460461031222,4.004334133815522,671249857
sq,34.1257995605469,89.5393432617188,124.25398345039692,3.6908246668464506,671266524
sq,36.1269401550293,89.5566886901856,117.15043753607024,4.805079325801102,671283191
sq,37.6133903503418,89.5991691589356,111.49131620133356,7.085122791093451,671299858
sq,38.9502128601074,89.6995548248291,107.3953702262838,10.07294025813066,671316525
sq,40.7118801116943,89.8005393981934,104.57241350053692,13.17602770737215,671333192
sq,42.7713512420654,90.0581935882568,102.49088399669255,15.773644719167995,671349859
sq,44.6479858398437,90.220878982544,100.60869924231798,17.341158196095613,671366526
sq,46.2086910247803,90.6009620666504,98.58455467400057,17.55756428366651,671383193
sq,47.5107749938965,91.235880279541,96.42558183553797,16.36096853293211,671399860
sq,48.8519157409668,91.4018138885498,94.56653483413001,13.93216451187087,671416527
sq,50.6093639373779,91.4605087280273,93.87867337160371,10.617472419098675,671433194
sq,52.480738067627,91.5052589416504,95.58390831141766,6.830743412696424,671449861
sq,54.1474155426025,91.5591129302979,101.04383619798459,2.9780988896768386,671466528
sq,55.6869167327881,91.6384719848633,111.42925892230267,-0.5750109031950762,671483195
sq,57.2689393997192,91.7120708465576,127.33481825422191,-3.5067195680742382,671499862
sq,59.2909387588501,91.7212089538574,148.4450591050177,-5.542566733757658,671516529
sq,61.5864318847656,91.686750793457,173.3606684434171,-6.489262928599254,671533196
sq,63.7586664199829,91.6306537628174,199.66193605935004,-6.31009124936398,671549863
sq,67.104864025116,91.5623439788818,224.2306815708197,-5.230095371935679,671566530
sq,70.1971522808075,91.4985336303711,243.77666647977128,-3.8366064198032204,671583197
sq,74.7431224822998,91.3316825866699,255.4370425057075,-3.1238563041092036,671599864
sq,81.0811027526856,90.9608634948731,257.284445318242,-4.42667320542903,671616531
sq,82.6480373382568,90.4746212005615,248.63628308971707,-9.209923281430957,671633198
sq,85.8149265289307,90.4376091003418,230.1673126306271,-18.734825856634718,671649865
sq,90.4841903686523,90.9784034729004,203.86801285836643,-33.69098653924154,671666532
sq,95.2253021240234,90.6123374938965,172.81916006152264,-53.91480989810379,671683199
sq,98.7009853363037,89.2997840881348,140.70126161816978,-78.27759509159246,671699866
sq,99.3131622314453,87.5734123229981,111.0576238765781,-104.75363219919893,671716533
sq,100.862905883789,85.8326677322388,86.51199629052657,-130.6441725748123,671733200
sq,101.923429870606,84.8400081634522,68.22499676541837,-152.95912236064675,671749867
sq,102.726656341553,84.1255353927612,55.78894226999954,-168.9707847177544,671766534
sq,103.222149276733,79.6267031669617,47.58668805375013,-176.8668956276475,671783201
sq,103.547296905518,75.0469974517822,41.47039198267706,-176.28226507561817,671799868
sq,106.901510620117,72.0131790876389,35.499175527569754,-168.44467982308916,672033206
sq,107.054582977295,70.1268269062042,28.459360510339934,-155.82994239957648,672049873
sq,107.178358459473,68.1416481971741,20.011332371448496,-141.4711272866541,672066540
sq,107.23833694458,66.2409414291382,10.498659687033577,-128.2094660297729,672133208
sq,107.196936035156,64.2954916000366,0.5851887003574364,-118.13686800945985,672149875
sq,107.113138580322,62.4248365402222,-9.107836869296378,-112.34319199790112,672166542
sq,106.952360534668,60.5244344711304,-18.261880786549163,-110.95100538968413,672183209
sq,106.696272277832,58.5606006622314,-26.989447398669633,-113.34581478269725,672199876
sq,106.344595336914,56.8404907226562,-35.84756011185125,-118.49017387119065,672216543
sq,105.914808654785,54.6994079589844,-45.76820937288463,-125.22620174999032,672233210
sq,105.336702728272,52.6274188995361,-57.92667201381315,-132.50326556069828,672249877
sq,104.098408126831,50.4970077514648,-73.54276253371852,-139.5045807123005,672266544
sq,102.348728561401,48.3589958190918,-93.5925830580007,-145.68181974211194,672283211
sq,100.705627822876,46.1360458374023,-118.43009148672428,-150.7309877909186,672299878
sq,99.0010513305664,43.7704319000244,-147.3884756299957,-154.54654659512818,672316545
sq,97.1983455657959,41.2581848144531,-178.5135142102457,-157.1756442092019,672333212
sq,95.236462020874,38.609285736084,-208.6088982918657,-158.77418141769255,672349879
sq,91.4224494934082,36.0436653137207,-233.70664222519622,-159.55696630065572,672366546
sq,88.808203125,33.6133407592773,-249.93066425136902,-159.74021582176053,672383213
sq,85.8321231842041,31.094580078125,-254.54552335779812,-159.48641656378678,672399880
sq,77.4776114463806,28.4999450683594,-246.8323307261841,-158.86543935516494,672416547
sq,72.7681722283363,25.9646057128906,-228.40989557604584,-157.83907956816103,672433214
sq,70.4748517513275,23.4149574279785,-202.81903808460794,-156.26746147232143,672449881
sq,68.0761627197266,20.9428314208984,-174.53838710761872,-153.93227113570856,672466548
sq,65.8437284469605,18.4868377685547,-147.8510827003378,-150.57257352497774,672483215
sq,63.6934827804565,16.0645126342773,-125.96998333742725,-145.92973529837744,672499882
sq,61.8506492614746,13.7151741027832,-110.63028807669716,-139.79722910788757,672516549
sq,59.9748357772827,11.5333198547363,-102.14241300428961,-132.06993869452404,672533216
sq,58.0323938369751,9.42738571166992,-99.75825735176817,-122.78629029628209,672549883
sq,56.0379337310791,7.38982238769531,-102.15402493212031,-112.15441127084209,672566550
sq,54.2620166778564,5.53761901855469,-107.85902812493136,-100.55241642790767,672583217
sq,52.6373008728027,3.94627990722656,-115.53590003995296,-88.49698697315905,672599884
sq,50.8594421386719,2.57244720458984,-124.10227486438147,-76.58385545048972,672616551
sq,48.9421981811523,1.3619140625,-132.73928423839564,-65.41246762496523,672633218
sq,46.8521179199219,0.326841735839844,-140.84619721912026,-55.50890444730179,672649885
sq,44.6092876434326,-0.578828430175781,-147.9871585095238,-47.25671223172765,672666552
sq,42.2810558319092,-1.41135559082031,-153.85504947748305,-40.84048790969496,672683219
sq,39.8696846008301,-2.06754455566406,-158.25947272159428,-36.20730473169252,672699886
sq,37.2413352966309,-2.54502258300781,-161.13250705070425,-33.056471719368226,672716553
sq,34.6283134460449,-2.97640380859375,-162.53787115804667,-30.872002020692502,672733220
sq,32.0735496520996,-3.43836364746094,-162.66848880082992,-29.005872458266687,672749887
sq,29.4816955566406,-3.94764862060547,-161.82302671796597,-26.802493518146996,672766554
sq,26.8070281982422,-4.44306335449219,-160.35855228270842,-23.735307826815824,672783221
sq,24.1893142700195,-4.89781341552734,-158.6218031458445,-19.517505238659126,672799888
sq,21.6324447631836,-5.29216156005859,-156.86924188003647,-14.155990032680844,672816555
sq,19.262720489502,-5.50887451171875,-155.19708449601777,-7.937255052671754,672833222
sq,16.9350799560547,-5.55737457275391,-153.50856436874557,-1.3562909746858396,672849889
sq,14.5035690307617,-5.52830657958984,-151.53607786401892,4.985460551320682,672866556
sq,11.963663482666,-5.42309722900391,-148.91104272258863,10.486064949071324,672883223
sq,9.42302169799805,-5.31170806884766,-145.25017413503815,14.636084475699576,672899890
sq,7.035986328125,-5.13897857666016,-140.22222398250824,17.093075260951494,672916557
sq,4.83222045898438,-4.87439880371094,-133.57822739591276,17.735363256251894,672933224
sq,2.79028167724609,-4.47445831298828,-125.15653608578761,16.687664988252386,672949891
sq,0.888395690917969,-4.11778411865234,-114.89109079310404,14.306448360908577,672966558
sq,-0.851754760742187,-3.91056976318359,-102.84658587691845,11.118582620582318,672983225
sq,-2.47873840332031,-3.7820068359375,-89.28068342299964,7.722573329697699,672999892
sq,-4.04496917724609,-3.68338928222656,-74.70432648043952,4.676884864226359,673016559
sq,-5.45757446289062,-3.64182434082031,-59.893398471762076,2.4045891708801315,673033226
sq,-6.56639251708984,-3.64775238037109,-45.812578509217865,1.1370437170510228,673049893
sq,-7.28720245361328,-3.64488372802734,-33.44726320892965,0.9068722069796282,673066560
sq,-7.66693267822266,-3.60343322753906,-23.586163487439805,1.587448613474173,673083227
sq,-7.82093963623047,-3.55923614501953,-16.62931612185893,2.9660087374151956,673099894
sq,-7.93869934082031,-3.54001770019531,-12.493905540714591,4.832594986287833,673116561
sq,-8.12702331542969,-3.49398956298828,-10.653520145539286,7.066291735342561,673133228
sq,-8.38148651123047,-3.33659515380859,-10.294813512444643,9.700198888281694,673149895
sq,-8.66025695800781,-3.09137878417969,-10.534870278374372,12.94646778560133,673166562
sq,-8.91246948242187,-2.83098754882812,-10.629248325475277,17.166715864473364,673183229
sq,-9.11575469970703,-2.53614196777344,-10.114235944204816,22.785473223218073,673199896
sq,-9.31482849121094,-2.17377624511719,-8.854958031183276,30.162877699619745,673216563
sq,-9.50718078613281,-1.74283752441406,-7.000267150276733,39.45994393311087,673233230
sq,-9.60056457519531,-1.19530639648438,-4.868834158944945,50.537852172436516,673249897
sq,-9.59663543701172,-0.49459228515625,-2.806426907243767,62.92781415760205,673266564
sq,-9.55139312744141,0.441175842285157,-1.0597249630363605,75.88991156944645,673283231
sq,-9.50441131591797,1.66235198974609,0.29582410185694386,88.55188190950348,673299898
sq,-9.46894989013672,3.15289916992187,1.3566645187207182,100.09097513604308,673316565
sq,-9.47136840820312,4.87093200683594,2.3280658746901945,109.90489825415335,673333232
sq,-9.47938690185547,6.72389068603516,3.4259070770336404,117.71950318603828,673349899
sq,-9.48495635986328,8.68356170654297,4.781454877194452,123.60151639603758,673366566
sq,-9.47467956542969,10.6967033386231,6.383686016632172,127.87684063739856,673383233
sq,-9.40701446533203,12.6371788024902,8.079467478385336,130.98724443601338,673399900
sq,-9.27967224121094,14.5679382324219,9.632332389243302,133.3384373334422,673416567
sq,-9.0967041015625,16.6580375671387,10.822030189232375,135.19166075907552,673433234
sq,-8.89782867431641,18.7740196228027,11.554968744343581,136.6290002159815,673449901
sq,-8.68206939697266,20.9850601196289,11.952662864846927,137.59078453274782,673466568
sq,-8.43385467529297,23.3238586425781,12.390553411537255,137.95738166066326,673483235
sq,-8.19146881103516,25.5495246887207,13.470733416501515,137.6380762085626,673499902
sq,-7.946435546875,27.7169021606445,15.927111389690628,136.63692077981673,673516569
sq,-7.68547973632812,29.8432678222656,20.478150037951572,135.08019523182966,673533236
sq,-7.37051544189453,32.1248229980469,27.657341329757788,133.2012561833615,673549903
sq,-6.98347625732422,34.3772911071777,37.661311677635055,131.28440938162885,673566570
sq,-6.46888122558594,36.4254821777344,50.25668475285301,129.5778794622607,673583237
sq,-5.75730285644531,38.3715232849121,64.77737663804074,128.20032558571205,673599904
sq,-4.793115234375,40.3940528869629,80.22368058957217,127.07622001514875,673616571
sq,-3.50520477294922,42.4078105926514,95.4468730483593,125.93181513424115,673633238
sq,-1.9001708984375,44.3632587432861,109.37606490024449,124.36642204792119,673649905
sq,-0.0580001831054684,46.2808898925781,121.22758820426867,121.9923460032761,673666572
sq,1.9848388671875,48.199388885498,130.6385103196676,118.61623146647402,673683239
sq,4.18446960449219,50.1445087432861,137.6855460221948,114.4153219615789,673699906
sq,6.46815338134766,52.1117767333984,142.78336358834935,110.04788253498032,673716573
sq,8.70667877197266,54.0281242370606,146.49347688142956,106.6365264072289,673733240
sq,10.9011940002441,55.9435256958008,149.30559579677103,105.58423553469217,673749907
sq,13.0814994812012,57.7046245574951,151.46478863322955,108.2257646861161,673766574
sq,15.3641571044922,59.4852460861206,152.9012543046785,115.37309204971655,673783241
sq,17.8927825927734,61.3924097061157,153.27867360814517,126.86858985796759,673799908
sq,20.5199264526367,63.1387657165527,152.13133262433607,141.29897772215782,673816575
sq,23.0738777160645,64.6926454544067,149.03420228838527,156.02919808338297,673833242
sq,25.3489936828613,66.3276261329651,143.75501502298462,167.66147105115945,673849909
sq,27.5215362548828,68.262467288971,136.3602943611793,172.8872330404579,673866576
sq,29.8026374816895,72.1577546834946,127.26441135051356,169.49818741423223,673883243
sq,31.9120048522949,76.8836671352387,117.2121248761758,157.15778349620757,673899910
sq,33.9365104675293,81.5362609863281,107.18300451037256,137.55409367853045,673916577
sq,35.8286422729492,81.4328874588013,98.21843836126212,113.82247088617517,673933244
sq,37.2395652770996,82.95970287323,91.20210305300319,89.50285920126679,673949911
sq,38.4851440429687,82.5653804779053,86.6573553553719,67.52039774655758,673966578
sq,39.5876335144043,83.0590929031372,84.635207755837,49.598562314331375,673983245
sq,40.8624347686768,85.249066734314,84.73850738536585,36.21674492914821,673999912
sq,42.3418334960937,86.8499912261963,86.27067219554674,26.9331758923237,674016579
sq,44.099275970459,87.3684972763062,88.44336168206507,20.792556381495157,674033246
sq,45.7556747436523,86.9390605926514,90.56207919053689,16.641283577949014,674049913
sq,47.0839771270752,86.878762626648,92.14350091153786,13.338143517351897,674066580
sq,48.2185482025146,87.1196960449219,92.97745891488066,9.922949501201122,674083247
sq,49.285950088501,87.8903678894043,93.1812443971897,5.769058412397326,674099914
sq,50.7765182495117,87.8570875167847,93.27106093571139,0.6860563145191589,674116581
sq,52.7788204193115,87.8031972885132,94.20990497496136,-5.070656053304916,674133248
sq,54.9193786621094,87.7116645812988,97.34122395444706,-10.892898832288957,674149915
sq,56.6006702423096,87.5694574356079,104.13939774280482,-15.992917000172335,674166582
sq,57.845309638977,87.3617166519165,115.80145168646646,-19.62398526554653,674183249
sq,59.2882865905762,87.1043924331665,132.8055467718076,-21.31454753514877,674199916
sq,61.2899326324463,86.7816013336182,154.59773318176346,-21.075762128666238,674216583
sq,63.4921936035156,86.3327564239502,179.52005809904352,-19.531087641251673,674233250
sq,66.5638994216919,85.7646097183228,205.00048186129177,-17.911706521898136,674249917
sq,70.2217098712921,85.1279996871948,227.9435211100936,-17.878656564104197,674266584
sq,73.1195441126823,84.7270864486694,245.2213197583867,-21.18099113385594,674283251
sq,78.2957543373108,85.0388139724732,254.16733791181125,-29.226491322727217,674299918
sq,82.0495571136475,84.8526033401489,253.00399381690858,-42.687533654250984,674316585
sq,84.4145292282105,84.1267217636108,241.17048406138392,-61.25179818128639,674333252
sq,89.3601879119873,82.6283382415772,219.52114745325676,-83.56537260331093,674349919
sq,93.6872123718262,81.1360806465149,190.3213656686293,-107.36261836787818,674366586
sq,97.4268325805664,79.7410086631775,156.9402974029562,-129.77606798067757,674383253
sq,99.9044765472412,79.4108771324158,123.2165066926416,-147.8384839768902,674399920
sq,100.95464553833,77.0898834705353,92.63770407066374,-159.14460112528394,674416587
sq,101.781278991699,72.2717130422592,67.60470178419098,-162.50857737909308,674433254
sq,102.487718963623,68.6665085792542,49.03853431536499,-158.34792902630176,674449921
sq,103.132501983643,66.8963073730469,36.44497391797736,-148.59223359491864,674466588
sq,104.220875167847,64.9502443313599,28.36313915798634,-136.14116196007257,674483255
sq,104.687189483643,63.1980527877808,22.990732240886434,-124.10169911705378,674499922
sq,106.200987243652,61.3987421035767,18.74684890483383,-115.07887698548764,674666592
sq,106.227354431152,59.5627855300903,14.601789294826167,-110.70184896198573,674683259
sq,106.235903167725,57.6919397354126,10.12973791056788,-111.4428174456775,674699926
sq,106.224142456055,55.935493850708,5.357171960416964,-116.70007919814697,674716593
sq,106.199324035644,54.1967338562012,0.5311191497570159,-125.07793798335703,674733260
sq,106.156385803223,52.2427429199219,-4.087945458760082,-134.7835475218824,674749927
sq,106.076391601563,49.878271484375,-8.355217367694914,-144.05250453046776,674766594
sq,105.966349029541,47.3332714080811,-12.285590680549413,-151.51053669976554,674783261
sq,105.842604064941,44.778568649292,-16.03270469690258,-156.39354219521695,674799928
sq,105.504232788086,42.255447769165,-19.832840475555308,-158.5902947266783,674833262
sq,105.236311340332,39.8631004333496,-23.942566679974,-158.526545622217,674849929
sq,104.893152618408,37.369985961914,-28.594602438411517,-156.95012692321578,674866596
sq,104.493742370606,34.9065841674805,-33.99088710661991,-154.68881721113965,674883263
sq,104.056438827515,32.498648071289,-40.342103310249314,-152.4402894727318,674899930
sq,103.474592590332,30.0447715759277,-47.94527822710848,-150.6305995836876,674916597
sq,102.696190261841,27.6739334106445,-57.266720508206475,-149.3556743341844,674933264
sq,101.690281295776,25.3387359619141,-68.97394439600043,-148.402958215619,674949931
sq,100.127045059204,22.9513954162598,-83.85147635626888,-147.3369402277905,674966598
sq,98.4602531433106,20.5163291931152,-102.55918758520959,-145.62193309522272,674983265
sq,96.7492660522461,18.1275657653809,-125.25684743845447,-142.7507665278268,674999932
sq,95.1946681976318,15.8657287597656,-151.2065328255434,-138.3524000375526,675016599
sq,93.2931255340576,13.6590370178223,-178.52708615684432,-132.26302113094854,675033266
sq,91.0007766723633,11.5331672668457,-204.26384953541762,-124.5567710142089,675049933
sq,86.863264465332,9.56311645507813,-224.84725182759857,-115.5384306476631,675066600
sq,84.741854095459,7.650244140625,-236.88682525314238,-105.70202796946286,675083267
sq,81.9723237991333,5.94678344726563,-238.11825789340622,-95.66067279276704,675099934
sq,74.8225947856903,4.43748321533203,-228.20191138007215,-86.05685071652847,675116601
sq,69.6474746704102,3.09581604003906,-209.02555585808662,-77.4677238432211,675133268
sq,67.3210543632507,1.87309875488281,-184.30660787340526,-70.32258866095002,675149935
sq,65.3017052650452,0.753477478027344,-158.60560820474643,-64.84681668598768,675166602
sq,63.3022483825684,-0.248658752441406,-136.139049361917,-61.039612357512944,675183269
sq,61.5518583297729,-1.21750793457031,-119.82471875423761,-58.68480727297336,675199936
sq,59.9085535049439,-2.21461639404297,-110.82969391486267,-57.38703452932651,675216603
sq,58.2816652297974,-3.20019683837891,-108.66660163504122,-56.62256000669983,675233270
sq,56.2361225128174,-4.08983001708984,-111.70259747994963,-55.79745145861608,675249937
sq,53.8117393493652,-4.87211761474609,-117.84459415659241,-54.3139214692882,675266604
sq,51.5353912353515,-5.63694915771484,-125.15655430526623,-51.65012403525734,675283271
sq,49.5291732788086,-6.51336059570312,-132.2445097033953,-47.45138261593029,675299938
sq,47.6411079406738,-7.41813812255859,-138.36966620585798,-41.614961877505785,675316605
sq,45.5766090393066,-8.10366973876953,-143.35414204298326,-34.33996854493499,675333272
sq,43.3654064178467,-8.62055358886719,-147.384876310166,-26.118949553061714,675349939
sq,41.0183166503906,-9.08725128173828,-150.80446756697285,-17.66415295435223,675366606
sq,38.5487884521484,-9.48987731933594,-153.93821852925618,-9.778718130549201,675383273
sq,36.0354293823242,-9.57513580322266,-156.97540362315715,-3.1974080924469903,675399940
sq,33.6168083190918,-9.54661712646484,-159.9100058935478,1.5663088057927497,675416607
sq,31.1909736633301,-9.41716156005859,-162.54405818812882,4.324475020750962,675433274
sq,28.6298011779785,-9.21647033691406,-164.55080541505123,5.237047158825396,675449941
sq,25.8988670349121,-9.143212890625,-165.57840080758402,4.7446317973246455,675466608
sq,23.158617401123,-9.15023956298828,-165.35618248359998,3.4352912290982935,675483275
sq,20.3684219360352,-9.23210296630859,-163.76053899819522,1.8918651943115903,675499942
sq,17.6361869812012,-9.25267181396484,-160.81427194444302,0.5685265371021337,675516609
sq,15.1703018188477,-9.25117645263672,-156.62612451620615,-0.27279241702904033,675533276
sq,12.9128059387207,-9.19732055664062,-151.3081700286034,-0.5619569050881161,675549943
sq,10.6067375183106,-9.20239410400391,-144.91783492016614,-0.37240283238871585,675566610
sq,8.17248382568359,-9.21879730224609,-137.4507337213105,0.1510226150076016,675583277
sq,5.81449737548828,-9.206201171875,-128.87581035384497,0.8661071438290704,675599944
sq,3.69879760742187,-9.16214141845703,-119.18326422109743,1.691749644548189,675616611
sq,1.87689819335937,-9.09178314208984,-108.42168655347417,2.638085537562292,675633278
sq,0.229345703125,-9.00302276611328,-96.72105545022028,3.8020598463747097,675649945
sq,-1.29275665283203,-8.95163116455078,-84.31045946344618,5.332324397697595,675666612
sq,-2.68957672119141,-8.93154296875,-71.53467740964317,7.37845602549881,675683279
sq,-3.88136444091797,-8.86505279541016,-58.861010029182786,10.045823016417053,675699946
sq,-4.83965454101562,-8.72435913085937,-46.8606574627826,13.374344162757003,675716613
sq,-5.63478240966797,-8.51962432861328,-36.15290399537467,17.34788808844008,675733280
sq,-6.27459869384766,-8.22714385986328,-27.31232236544832,21.92722209959116,675749947
sq,-6.73068389892578,-7.83595428466797,-20.754412636298362,27.089666164688584,675766614
sq,-6.95567474365234,-7.35198364257812,-16.629607893602632,32.85636296097149,675783281
sq,-7.068994140625,-6.80215606689453,-14.76305788317389,39.293629756393926,675799948
sq,-7.23587951660156,-6.18336639404297,-14.669979662093608,46.485811992459254,675816615
sq,-7.48698577880859,-5.45888671875,-15.652063985609999,54.48871943502589,675833282
sq,-7.7982421875,-4.60559234619141,-16.949749652125117,63.280195878498496,675849949
sq,-8.15296325683594,-3.61052856445312,-17.903934760724013,72.7254747982484,675866616
sq,-8.55006561279297,-2.45543823242187,-18.078727281734146,82.57097235392385,675883283
sq,-8.87497863769531,-1.16494903564453,-17.313329699783303,92.47365509583402,675899950
sq,-9.11712036132812,0.262449645996094,-15.697537347599246,102.06541763629677,675916617
sq,-9.33628997802734,1.86234893798828,-13.490112007417393,111.04248175965603,675933284
sq,-9.52319488525391,3.66161193847656,-11.01324615277829,119.2584083470492,675949951
sq,-9.64843139648437,5.64018096923828,-8.556875125863831,126.78900279237828,675966618
sq,-9.73867950439453,7.88587036132813,-6.317186069114542,133.93533312398392,675983285
sq,-9.82080993652344,10.000227355957,-4.379260060696091,141.1442555952174,675999952
sq,-9.92288360595703,12.3889640808106,-2.738531950534311,148.85432408587252,676016619
sq,-9.99810943603516,14.7037223815918,-1.3439747565497184,157.3090009556688,676033286
sq,-10.0632339477539,16.7499031066894,-0.1416391625789561,166.4020839130656,676049953
sq,-10.0997863769531,19.3226417541504,0.8983561525165983,175.61526799542807,676066620
sq,-10.083283996582,22.5786079406738,1.7776998067016299,184.07169895496884,676083287
sq,-10.0082336425781,25.4878105163574,2.483382933800834,190.6859366112677,676099954
sq,-9.93268737792969,28.2623008728027,3.0065205865969737,194.37123868982306,676116621
sq,-9.87986145019531,31.3611473083496,3.3548062828558147,194.2698176800271,676133288
sq,-9.83930358886719,34.5486549377441,3.5536498964767462,189.9736280974124,676149955
sq,-9.79609069824219,37.7732223510742,3.6387450504699226,181.6919438796108,676166622
sq,-9.75025329589844,40.8651870727539,3.6468447054266977,170.31734458177968,676183289
sq,-9.67167053222656,43.4889987945557,3.6111363509773935,157.3614278987485,676199956
sq,-9.62190399169922,45.8029293060303,3.565227954320966,144.76607666118818,676216623
sq,-9.58258972167969,48.1862777709961,3.5577872643789923,134.6201163413667,676233290
sq,-9.5532470703125,50.4843639373779,3.6783058233648394,128.8128450622962,676249957
sq,-9.51538238525391,52.8527645111084,4.0914309704749705,128.65127243981382,676266624
sq,-9.44346008300781,55.065376663208,5.071865250072607,134.48387790817196,676283291
sq,-9.32383880615234,56.8128112792969,7.025776393152865,145.41594069076783,676299958
sq,-9.17302856445312,58.7623924255371,10.481729689328576,159.24081022500476,676316625
sq,-8.96248016357422,60.9496625900268,16.037434235359612,172.70443369736162,676333292
sq,-8.65799102783203,63.1734432220459,24.25855922556303,182.144088184371,676349959
sq,-8.23129425048828,65.4702090263367,35.54060720240166,184.406421565655,676366626
sq,-7.66871795654297,68.9778427124023,49.96124119953888,177.78934875616306,676383293
sq,-6.95810089111328,74.3257973432541,67.16418303513225,162.63877995628138,676399960
sq,-6.04181823730469,79.0938614845276,86.32026053888862,141.27928907420653,676416627
sq,-4.80882415771484,78.67366065979,106.19929838089243,117.23180201201303,676433294
sq,-3.13184509277344,80.085733795166,125.3564078887997,94.0452267066167,676449961
sq,-1.03386077880859,79.7134078979492,142.396481355527,74.27363043735181,676466628
sq,1.35673370361328,80.3513664245606,156.24850872301948,59.008330782407235,676483295
sq,3.96874847412109,83.0412906646729,166.3718779647558,48.0308144736357,676499962
sq,6.72915496826172,84.9069704055786,172.8334181834254,40.34282379757472,676516629
sq,9.56509246826172,84.8935579299927,176.22864008407396,34.74200935890756,676533296
sq,12.6206802368164,85.1875003814697,177.46312424007635,30.233541017907612,676549963
sq,15.2839492797852,85.7959741592407,177.45287916553607,26.235205405158393,676566630
sq,17.762232208252,86.414853477478,176.83545587690315,22.613807175019343,676583297
sq,20.4655479431152,86.7832035064697,175.78895153270432,19.5931823443829,676599964
sq,23.24228515625,87.0801977157593,174.02230494202402,17.569613206722966,676616631
sq,25.9881576538086,87.3012842178345,170.94005521710537,16.885010911198442,676633298
sq,28.6887306213379,87.5097774505615,165.9260426682392,17.623174862575407,676649965
sq,31.3767799377441,87.5417016983032,158.65170485582632,19.491813092755393,676666632
sq,34.2416938781738,87.8394388198853,149.29956402449147,21.830077482548376,676683299
sq,37.2488006591797,88.1743482589722,138.60783692380096,23.744081976103264,676699966
sq,39.6931709289551,88.5049194335938,127.70164515856709,24.33226820474657,676716633
sq,41.2777732849121,88.7962316513062,117.77598851088581,22.93047472936779,676733300
sq,42.4776252746582,90.0750068664551,109.78809220267667,19.29350159510323,676749967
sq,43.3459266662598,90.0807861328125,104.32977939367483,13.647860953765083,676766634
sq,44.9608196258545,90.1716159820557,101.7476311165248,6.6019891677357565,676783301
sq,47.7316535949707,90.1633991241455,102.40779043194841,-1.041086187428484,676799968
sq,50.5688785552979,90.1151260375977,106.88227497264478,-8.496815494078703,676816635
sq,52.4087623596191,90.0003017425537,115.86950520387708,-15.179857422424774,676833302
sq,53.4050773620606,89.7707656860352,129.8432552638666,-20.823386889694092,676849969
sq,54.7237037658691,89.4487880706787,148.6164455425685,-25.527885650996332,676866636
sq,57.0616363525391,89.0293201446533,171.06766743890554,-29.736898418226858,676883303
sq,59.5184301376343,88.4229415893555,195.18516768579047,-34.13858778280995,676899970
sq,62.5132860183716,87.5965703964233,218.42179953115794,-39.49998145142139,676916637
sq,66.8194445610046,86.8704551696777,238.2211203292513,-46.46546975056555,676933304
sq,70.2078727722168,86.8191932678223,252.51609165519105,-55.38629954585814,676949971
sq,76.5631293296814,86.8480457305908,260.0302517042901,-66.25819189209498,676966638
sq,78.4310864448547,85.2353595733643,260.3162282252444,-78.78956132245725,676983305
sq,82.3364376068115,82.9288000106812,253.59004062079885,-92.5216945596045,676999972
sq,87.4835037231445,80.651932144165,240.4762688114565,-106.87034420136547,677016639
sq,92.5961326599121,78.9881490707398,221.75811547875657,-121.0370779067336,677033306
sq,93.7034706115723,79.1456474304199,198.2126768732429,-133.9025346686526,677049973
sq,96.0202793121338,78.0194458007813,170.62819361026072,-144.10204346377026,677066640
sq,97.3615612030029,74.9812472105026,140.03440574798017,-150.37777428172558,677083307
sq,105.523645782471,70.8775018692017,107.98658095443281,-152.0690297436246,677416647
sq,105.755754852295,67.7163185119629,76.61495493986816,-149.45523998358928,677433314
sq,105.969534301758,65.9718193054199,48.282259833385204,-143.74274942985872,677449981
sq,106.157778167725,64.0385202407837,24.98681309433311,-136.709050822427,677466648
sq,106.291132354736,62.1729320526123,7.8205318718882975,-130.19585336010257,677483315
sq,106.341154479981,60.3360551834106,-3.2776839659502275,-125.6694741242963,677499982
sq,106.332052612305,58.3752960205078,-9.415476172471404,-123.97995324987919,677516649
sq,106.304541015625,56.337858581543,-12.375175933677863,-125.33709939070131,677533316
sq,106.289232635498,54.0931667327881,-14.128373444916091,-129.44006037708135,677549983
sq,106.269583129883,51.8194488525391,-16.389601723750275,-135.66627564692578,677566650
sq,106.125124359131,49.6142066955566,-20.32319861060052,-143.24279040827142,677583317
sq,105.879579925537,47.4938034057617,-26.45832149266476,-151.3675604832468,677599984
sq,105.512731933594,45.2040027618408,-34.8044850313282,-159.28917965788264,677616651
sq,104.977182769775,42.6120666503906,-45.10668644526576,-166.36674117947555,677633318
sq,104.195173645019,39.8501991271973,-57.1418321134778,-172.11863676249823,677649985
sq,102.960392379761,37.0610832214356,-70.94146267319911,-176.25162701218267,677666652
sq,101.404928588867,34.24765625,-86.83897897001259,-178.65788606736754,677683319
sq,99.7446388244629,31.4218658447266,-105.29345479359596,-179.37764688540867,677699986
sq,98.1917919158936,28.491682434082,-126.53244331218765,-178.53710752844535,677716653
sq,96.5371383666992,25.6336616516113,-150.15026739287708,-176.27833930923433,677733320
sq,94.8389686584473,22.9365333557129,-174.84474732798762,-172.70050479194657,677749987
sq,92.6286930084229,20.2171463012695,-198.43634092541544,-167.82984658128498,677766654
sq,88.1301826477051,17.4939483642578,-218.20106098761784,-161.62723681356746,677783321
sq,85.1485971450806,14.8328994750977,-231.4299853008395,-154.02889635462762,677799988
sq,81.8128150939941,12.3757614135742,-236.06958884791626,-145.0069045506445,677816655
sq,78.5395959854126,10.147802734375,-231.28998056362198,-134.63623875611876,677833322
sq,73.2456894755364,7.99968566894531,-217.820793400477,-123.15852159346134,677849989
sq,68.2529772758484,6.08192291259766,-197.9022230757162,-111.03037074761781,677866656
sq,66.2964467048645,4.20368804931641,-174.80010095061976,-98.93545200780599,677883323
sq,64.1053804397583,2.41197052001953,-152.02568040020057,-87.73347854006583,677899990
sq,62.164986038208,0.947134399414063,-132.54746730707612,-78.3284696574622,677916657
sq,60.2856925964356,-0.333482360839843,-118.26634287950178,-71.46645562387162,677933324
sq,58.3923238754272,-1.38813934326172,-109.87601988794471,-67.50932413941705,677949991
sq,56.4716686248779,-2.28259429931641,-107.06392214090701,-66.2576948790079,677966658
sq,54.5115989685059,-3.16543731689453,-108.90349218009112,-66.89608898885822,677983325
sq,52.4476799011231,-4.11260375976562,-114.26488292473825,-68.1044120957051,677999992
sq,50.4205116271973,-5.14029083251953,-122.11165088553402,-68.32947346654767,678016659
sq,48.553263092041,-6.32859954833984,-131.62854551579903,-66.15588137189074,678033326
sq,46.6829284667969,-7.5288330078125,-142.2041831487934,-60.67605673865166,678049993
sq,44.5121959686279,-8.76427612304687,-153.33863465926254,-51.748985380831044,678066660
sq,42.0791896820068,-9.86431274414062,-164.54601404432924,-40.06337065959263,678083327
sq,39.3432182312012,-10.5339370727539,-175.2913880438092,-26.97874839123713,678099994
sq,36.5073150634766,-10.818635559082,-184.96970210293634,-14.189816191064699,678116661
sq,33.5599388122559,-10.85,-192.92122237772324,-3.3161648398602432,678133328
sq,30.6013092041016,-10.7347045898437,-198.48050633497016,4.46260862345694,678149995
sq,27.4813674926758,-10.5560546875,-201.0585826260274,8.631968904719914,678166662
sq,24.2695106506348,-10.376123046875,-200.24942740363554,9.385461337738331,678183329
sq,20.9868721008301,-10.2399688720703,-195.93448198152157,7.498838628562499,678199996
sq,17.6923316955566,-10.1901107788086,-188.34608850622067,4.089733398116022,678216663
sq,14.5585273742676,-10.2172790527344,-178.05522235216606,0.3368846086984714,678233330
sq,11.7032760620117,-10.2983795166016,-165.87359826070178,-2.769360369286572,678249997
sq,9.15565719604493,-10.4141021728516,-152.69470790146872,-4.5929974683558,678266664
sq,6.87174072265625,-10.5250640869141,-139.32405579947726,-4.9115362934188225,678283331
sq,4.72823181152344,-10.5846038818359,-126.35088379244863,-3.875238427073044,678299998
sq,2.66255798339844,-10.5918060302734,-114.0917224082885,-1.896633441853597,678316665
sq,0.727949523925782,-10.5513702392578,-102.60537703569065,0.48844089315935413,678333332
sq,-0.900582885742187,-10.5014663696289,-91.75843822649205,2.7500774240482326,678349999
sq,-2.31483612060547,-10.4591079711914,-81.31754124458456,4.459405713650702,678366666
sq,-3.59445343017578,-10.4118591308594,-71.05110784876896,5.342231342913092,678383333
sq,-4.73861846923828,-10.3470245361328,-60.82668632393977,5.296536910649432,678400000
sq,-5.72828826904297,-10.2649398803711,-50.68671310346881,4.38373169550877,678416667
sq,-6.60687408447266,-10.1823516845703,-40.88146509220148,2.8017094680590984,678433334
sq,-7.37803802490234,-10.1275650024414,-31.84069248629558,0.84422017155334,678450001
sq,-7.96811065673828,-10.1001373291016,-24.079005724706015,-1.1504277275547186,678466668
sq,-8.30735931396484,-10.1144271850586,-18.05322301101527,-2.856790541968868,678483335
sq,-8.44799957275391,-10.1711898803711,-14.013779932344217,-4.018115071245016,678500002
sq,-8.54235992431641,-10.2578521728516,-11.902923719342157,-4.490268805917353,678516669
sq,-8.66330871582031,-10.3602081298828,-11.34017160515161,-4.26358914829837,678533336
sq,-8.83590087890625,-10.4500823974609,-11.704128799841081,-3.456365273183557,678550003
sq,-9.10460052490234,-10.5114227294922,-12.284338517088845,-2.280798956778404,678566670
sq,-9.37603149414062,-10.5309768676758,-12.45338425536616,-0.9903546408687457,678583337
sq,-9.64454803466797,-10.5047927856445,-11.806010015702302,0.17689466643479274,678600004
sq,-9.92147979736328,-10.4689651489258,-10.226865886116787,1.0438351772925545,678616671
sq,-10.113298034668,-10.4531646728516,-7.874048379724878,1.5190505784392287,678633338
sq,-10.1937347412109,-10.454118347168,-5.092921430421818,1.5994799055041875,678650005
sq,-10.1872421264648,-10.4532562255859,-2.2951483497796548,1.3565874987301954,678666672
sq,-10.1545806884766,-10.4231658935547,0.15561268638555467,0.9134261322210852,678683339
sq,-10.1256042480469,-10.3828063964844,2.0191943968966557,0.41753382537747435,678700006
sq,-10.0922790527344,-10.3601470947266,3.202952500319407,0.012019883175153219,678716673
sq,-10.0686737060547,-10.3699508666992,3.741640560549603,-0.19232733129780497,678733340
sq,-10.0434356689453,-10.4156127929687,3.7528830175698746,-0.13837807099161437,678750007
sq,-10.0264373779297,-10.4423767089844,3.390252263485432,0.16913505184116065,678766674
sq,-10.0018478393555,-10.4328399658203,2.8095682181665578,0.6717465479897026,678783341
sq,-9.92803344726562,-10.3981796264648,2.153023195353573,1.2785157967046255,678800008
sq,-9.85434875488281,-10.362809753418,1.5454334103602563,1.89213379479265,678816675
sq,-9.80205688476562,-10.3298126220703,1.0923619944242167,2.430987535650074,678833342
sq,-9.78740844726562,-10.284944152832,0.8727931252993496,2.8415787279875353,678850009
sq,-9.80235443115234,-10.237077331543,0.9263019994964734,3.100130307244281,678866676
sq,-9.79945526123047,-10.1901718139648,1.24063568799409,3.205702455317967,678883343
sq,-9.77591094970703,-10.1439987182617,1.746816009861649,3.1691277890106897,678900010
sq,-9.74992523193359,-10.1005874633789,2.3261194843712407,3.002659241448634,678916677
sq,-9.724755859375,-10.070344543457,2.8295880067402868,2.7144077968056477,678933344
sq,-9.69079742431641,-10.0348754882812,3.107804074351732,2.3094116398227755,678950011
sq,-9.64780578613281,-9.9819580078125,3.0461314735629297,1.7959898531778102,678966678
sq,-9.58036193847656,-9.93358001708984,2.5979382361100036,1.1932882172677943,678983345
sq,-9.50829467773437,-9.90912780761719,1.8064927596944682,0.5353902155452479,679000012
sq,-9.46544799804687,-9.90740356445312,0.807167610942868,-0.130479424653017,679016679
sq,-9.44307098388672,-9.91760406494141,-0.19392727649371422,-0.7509186596143914,679033346
sq,-9.43551788330078,-9.93527374267578,-0.9621061458040661,-1.275759906559806,679050013
sq,-9.46658477783203,-9.94883117675781,-1.2879265322706863,-1.667304839542514,679066680
sq,-9.50222930908203,-9.96571502685547,-1.039450261318314,-1.9078831874848412,679083347
sq,-9.54066619873047,-9.99986419677734,-0.1990378307328116,-2.004841122807648,679100014
sq,-9.58239135742187,-10.0458618164062,1.1261412372422925,-1.9917128628191423,679116681
sq,-9.57125244140625,-10.0880142211914,2.7242282440165986,-1.9240573423390206,679133348
