Label,Left_Hip_q,Right_Hip_q,Left_Hip_qd,Right_Hip_qd,SampleTimeFine
sq,-10.85,-6.72086486816406,2.80094146728516,4.16851043701172,611683802
sq,-10.8051849365234,-6.65416870117187,2.286088297812684,5.2557520802396,611700469
sq,-10.7686477661133,-6.57000885009766,1.8367864180831877,4.776212172456408,611717136
sq,-10.7412200927734,-6.48319396972656,1.415295464508526,4.286981910068734,611733803
sq,-10.7191253662109,-6.40887603759766,1.0447473733232802,3.782583437883031,611750470
sq,-10.6979232788086,-6.34720764160156,0.7402928250446511,3.2653454840466978,611767137
sq,-10.685693359375,-6.30040893554687,0.5068583339834047,2.745659706639668,611783804
sq,-10.686296081543,-6.26015625,0.33884682868747235,2.2401710404819872,611800471
sq,-10.6862503051758,-6.22359619140625,0.22239564725397407,1.7689600990923902,611817138
sq,-10.6840454101562,-6.19180450439453,0.1401503052802116,1.3523997795028564,611833805
sq,-10.6743637084961,-6.16507110595703,0.07727781833340878,1.0078733559631696,611850472
sq,-10.6680465698242,-6.15137634277344,0.02639283870379737,0.7465728896379707,611867139
sq,-10.6552673339844,-6.14563903808594,-0.010888931304513943,0.5710955459048899,611883806
sq,-10.6561828613281,-6.14270172119141,-0.026659279642073954,0.4748522912612191,611900473
sq,-10.6655364990234,-6.13398132324219,-0.012461375476115014,0.4438174706541714,611917140
sq,-10.6741500854492,-6.12210998535156,0.03478017232442333,0.4600338115149264,611933807
sq,-10.6793838500977,-6.10848388671875,0.10959257969573429,0.5053635545729659,611950474
sq,-10.6759124755859,-6.09777221679687,0.1990235394491535,0.5639813450703834,611967141
sq,-10.670442199707,-6.09256134033203,0.28732334501869244,0.6230344244722124,611983808
sq,-10.6631256103516,-6.08764038085937,0.3620702286680555,0.6720259706441892,612000475
sq,-10.6515747070312,-6.0775390625,0.4191401993464893,0.702000370609683,612017142
sq,-10.6413208007812,-6.06239471435547,0.4645232395251752,0.7053207442367317,612033809
sq,-10.6319900512695,-6.05008087158203,0.5122271406612536,0.6762289651781277,612050476
sq,-10.6261764526367,-6.04347381591797,0.5789344373394744,0.6120505601475138,612067143
sq,-10.6194091796875,-6.03756866455078,0.6772135789223773,0.514870343809047,612083810
sq,-10.6112991333008,-6.02807006835937,0.8095593878778339,0.39333561971601516,612100477
sq,-10.6047225952148,-6.01755676269531,0.9652401741003488,0.2637758207059874,612117144
sq,-10.589128112793,-6.00847778320312,1.1210159578444332,0.1494692204664974,612133811
sq,-10.5701461791992,-6.00083312988281,1.2455884764396423,0.07718011311280633,612150478
sq,-10.5520721435547,-6.00242004394531,1.3065517109316167,0.07111309780710552,612167145
sq,-10.525537109375,-6.00620422363281,1.277968677535566,0.14567852557982908,612183812
sq,-10.4987197875977,-6.00493774414062,1.1466731816955762,0.2992257195320225,612200479
sq,-10.4801574707031,-6.00078735351562,0.9160125063523697,0.5108293853056344,612217146
sq,-10.4683471679687,-5.99266204833984,0.6068253529069604,0.7415607567690329,612233813
sq,-10.4636169433594,-5.98430786132812,0.2564587795758822,0.9409247833029617,612250480
sq,-10.4619918823242,-5.97362670898437,-0.0830434431201635,1.058476482583483,612267147
sq,-10.4624496459961,-5.96370849609375,-0.3469590990975388,1.0598136605948045,612283814
sq,-10.468522644043,-5.951806640625,-0.46042194099280603,0.9448843541641091,612300481
sq,-10.472932434082,-5.93312225341797,-0.3425481782341232,0.7648792005028615,612317148
sq,-10.4738250732422,-5.90909729003906,0.08653042670323792,0.6324707698828883,612333815
sq,-10.4666229248047,-5.88270721435547,0.8948244956332875,0.719792371999271,612350482
sq,-10.4449020385742,-5.85617218017578,2.1240300309776123,1.2401688873745669,612367149
sq,-10.4071517944336,-5.82817993164062,3.773371973953481,2.4132882934698174,612383816
sq,-10.3500610351562,-5.79561004638672,5.785699807969029,4.4182805795210545,612400483
sq,-10.2689834594727,-5.72013244628906,8.041429091088585,7.343558058092687,612417150
sq,-10.1740127563477,-5.60224304199219,10.366068464596358,11.14515701104536,612433817
sq,-10.0259948730469,-5.44983825683594,12.554620164408325,15.626346108223533,612450484
sq,-9.81104431152344,-5.2497802734375,14.411046511296231,20.44991807702033,612467151
sq,-9.5571533203125,-4.99259338378906,15.795229896886964,25.189245773920913,612483818
sq,-9.30093536376953,-4.59819183349609,16.666518855909356,29.413455651360007,612500485
sq,-9.03159484863281,-4.06170043945312,17.11361094062823,32.787998420070394,612517152
sq,-8.73409423828125,-3.47037658691406,17.364039913924294,35.16122470759705,612533819
sq,-8.43848571777344,-2.81250152587891,17.77104680347479,36.6079155717075,612550486
sq,-8.16045532226562,-2.20984039306641,18.780359294472618,37.41441499084566,612567153
sq,-7.90715942382812,-1.64561614990234,20.883622996791548,38.01150898744025,612583820
sq,-7.58043823242187,-1.13585815429688,24.566844386879815,38.87991859424517,612600487
sq,-7.17765197753906,-0.549928283691406,30.25968636159806,40.45983422128342,612617154
sq,-6.68012390136719,0.111196899414063,38.286513115635486,43.08824990042346,612633821
sq,-6.04203186035156,0.788847351074219,48.816726377259414,46.97254166570844,612650488
sq,-5.23117980957031,1.56531372070312,61.81297864623932,52.19520528835141,612667155
sq,-4.22600708007812,2.38797607421875,76.98129630217363,58.73781506302795,612683822
sq,-2.994775390625,3.33678283691406,93.7350528447949,66.51104289058183,612700489
sq,-1.55040893554688,4.43333282470703,111.19189079821899,75.3791352877447,612717156
sq,0.131903076171875,5.68191375732422,128.22466748121525,85.1706413155393,612733823
sq,2.09470977783203,7.07134857177734,143.5797843326835,95.67334733247043,612750490
sq,4.34394683837891,8.54678573608398,156.05725887947784,106.62009514521091,612767157
sq,6.87607421875,10.2091354370117,164.7209758823505,117.67961489269777,612783824
sq,9.66723480224609,12.0171836853027,169.08525608283472,128.4669769478617,612800491
sq,12.5774711608887,14.0587409973144,169.21816645839567,138.57913625937678,612817158
sq,15.3634399414063,16.3440574645996,165.72120470881032,147.64607557671235,612833825
sq,18.0431541442871,18.7581962585449,159.5854593647714,155.37588553283527,612850492
sq,20.3554443359375,21.3475021362305,151.96878818659405,161.5711571258879,612867159
sq,22.723070526123,24.0657562255859,143.964809463424,166.10764874203124,612883826
sq,24.9598526000977,26.5612968444824,136.43039963073215,168.89000762154177,612900493
sq,27.1116203308105,28.9859909057617,129.9099628095685,169.81993920727325,612917160
sq,29.07041015625,31.5718368530273,124.65835506344055,168.81111780079445,612933827
sq,31.0693420410156,34.4307426452637,120.73196549523028,165.85482402911617,612950494
sq,33.2533248901367,37.3131088256836,118.09429235396435,161.09912062194658,612967161
sq,35.3604797363281,40.1028465270996,116.6766363718067,154.88583558387518,612983828
sq,37.4793380737305,42.5759147644043,116.3580542562506,147.71193346752298,613000495
sq,39.1340278625488,44.9000896453857,116.88069406810264,140.13122651637534,613017162
sq,40.4779266357422,46.6528553009033,117.7706062262972,132.65446459525634,613033829
sq,42.2577060699463,48.6650012969971,118.35032491435433,125.71004404251423,613050496
sq,44.2611907958984,50.9275707244873,117.88995075328496,119.68851116816722,613067163
sq,46.1016735076904,52.9056533813476,115.87292438350025,115.0385846005615,613083830
sq,48.0012172698975,54.6628355026245,112.29463726050271,112.34798350288685,613100497
sq,49.9592765808106,56.6104148864746,107.88864603409195,112.34247842252263,613117164
sq,51.9037689208984,58.7041868209839,104.18292941777351,115.75908698228669,613133831
sq,53.7681888580322,60.7702182769775,103.32074206250195,123.08549166974659,613150498
sq,55.6905416488647,62.7490428924561,107.63594612957576,134.21102224287398,613167165
sq,57.4803546905518,64.8192976951599,119.04611603127128,148.09902160990546,613183832
sq,59.1179679870606,66.8268209934235,138.40208167358816,162.63992310485241,613200499
sq,60.9982961654663,68.6066563367844,164.98306708433407,174.84408181901665,613217166
sq,63.0527285575867,70.215703317523,196.32237033402924,181.4514126241787,613233833
sq,65.4061974525452,72.9192768573761,228.4720686562015,179.85874384833008,613250500
sq,69.9949143767357,78.0526880264282,256.67890820302307,169.04712074570938,613267167
sq,73.4826239585877,82.8957036972046,276.2991607598241,150.07366198017002,613283834
sq,80.2526391983032,85.3734859466553,283.70215056848724,125.82368788290582,613300501
sq,83.4013952255249,86.0653594970703,276.94712107377126,100.07860805051955,613317168
sq,87.022896194458,86.4836086273193,256.1323419089206,76.31473607549043,613333835
sq,91.9133419036865,86.379082107544,223.4072941899251,56.7612852702955,613350502
sq,96.0308517456055,87.6251472473145,182.64879454500743,42.06170078838812,613367169
sq,100.234907531738,88.5900291442871,138.7953117065709,31.554927599732498,613383836
sq,101.434072875977,89.5916637420654,96.91121122519257,23.92545762171114,613400503
sq,102.154079818726,90.9613784790039,61.196711789083004,17.878266742185755,613417170
sq,102.410246276856,91.4562000274658,34.23956714868602,12.574438540252768,613433837
sq,103.073259735107,91.0649494171143,16.729937206326117,7.7375096913244485,613450504
sq,103.287508392334,90.9401363372803,7.674473595338881,3.5058697919213664,613467171
sq,103.763338470459,90.9630626678467,4.968483552916389,0.1829430221171072,613483838
sq,104.315725708008,90.9069637298584,6.098948404551688,-1.9850748438205303,613500505
sq,104.471269989014,90.8595165252686,8.765051331301656,-2.940519840304375,613517172
sq,104.693098449707,90.8263134002686,11.281126091979184,-2.847320317659592,613533839
sq,104.906816864014,90.7971557617188,12.722163643406311,-2.0480628435888413,613550506
sq,105.078684234619,90.8228076934815,12.847254302165005,-0.9776008594557456,613567173
sq,105.232378387451,90.8232978820801,11.878560738998402,-0.06473787423154279,613583840
sq,105.316538238525,90.820488357544,10.22741222570262,0.3542563517688038,613600507
sq,105.327639007568,90.8190368652344,8.251938903820777,0.09651534583903042,613617174
sq,105.367723846436,90.8205226898193,6.106221707020357,-0.838211077708168,613633841
sq,105.447988891602,90.8112033843994,3.7042807192867175,-2.272370381979617,613650508
sq,105.550009155273,90.7936100006104,0.7831985927812533,-3.890776549249388,613667175
sq,105.638609313965,90.7589553833008,-2.9793627362114115,-5.316218816901484,613683842
sq,105.66643371582,90.7133735656738,-7.848560107687811,-6.216832516893899,613700509
sq,105.589929962158,90.6535514831543,-13.963814627910887,-6.434112552304921,613717176
sq,105.407404327393,90.5814689636231,-21.344904239266295,-6.109465994764787,613733843
sq,105.158167266846,90.4402660369873,-29.973988121534283,-5.774858969617009,613750510
sq,104.780290985107,90.1753124237061,-39.92874367078875,-6.365147859808855,613767177
sq,104.054808044434,89.8253692626953,-51.51612901543516,-9.115925799713688,613783844
sq,102.987749481201,89.4456256866455,-65.33661572352783,-15.34047095063857,613800511
sq,101.653829956055,89.6238483428955,-82.20898177211748,-26.128719096026153,613817178
sq,100.247846984863,89.8429187774658,-102.91917051395836,-42.05172206904939,613833845
sq,98.288858795166,88.858028793335,-127.82176897373125,-62.94990776649356,613850512
sq,96.4896949768066,87.2948192596436,-156.4004033706795,-87.83284622510735,613867179
sq,94.3393577575684,85.6829084396362,-186.95435650346465,-114.87687516302543,613883846
sq,92.2892135620117,83.8222869873047,-216.58807127752914,-141.52748382910346,613900513
sq,89.0693477630615,82.7098087310791,-241.61048535898428,-164.77399078425563,613917180
sq,84.5107149124146,81.9481510162354,-258.31084894984184,-181.67101826177077,613933847
sq,82.156552696228,77.6732787132263,-263.91853609774836,-190.05934997267295,613950514
sq,75.2859715461731,72.5639530658722,-257.43849234319043,-189.2424646194854,613967181
sq,69.7081495761871,68.7761993646622,-240.038969330875,-180.28687953086722,613983848
sq,66.4288314819336,66.6850513458252,-214.8063858785365,-165.76215870596653,614000515
sq,63.9473580360413,64.7594737052918,-185.9478280016936,-149.025195479887,614017182
sq,61.5651802062988,62.7425784111023,-157.7586938347791,-133.35790998716243,614033849
sq,59.2964767456055,60.9125646591187,-133.72409127165838,-121.26850376133876,614050516
sq,57.2399620056152,58.9552616119385,-115.99134592031814,-114.12535444058585,614067183
sq,55.3293003082275,57.014652633667,-105.26421076064557,-112.13339553755992,614083850
sq,53.5019020080566,55.0047344207764,-101.0320619551597,-114.56015203374729,614100517
sq,51.7203182220459,53.1107086181641,-101.98687937050441,-120.08575301693048,614117184
sq,49.9801773071289,51.2037071228027,-106.48068309403229,-127.16876305089399,614133851
sq,48.1920093536377,49.1018527984619,-112.91130878843177,-134.357470641311,614150518
sq,46.2649253845215,46.9491409301758,-119.97354910577357,-140.51045865919966,614167185
sq,44.3373149871826,44.6148513793945,-126.76132239817709,-144.91343786123113,614183852
sq,42.3861602783203,42.2756084442139,-132.74651138061475,-147.29611308457123,614200519
sq,40.347732925415,40.0005153656006,-137.6852961712046,-147.76779529421248,614217186
sq,38.2542098999023,37.6573089599609,-141.5079541131013,-146.70164171900163,614233853
sq,36.0145286560059,35.3077262878418,-144.23351323861067,-144.60028193573513,614250520
sq,33.6567939758301,32.9925827026367,-145.92505749245092,-141.97026262374428,614267187
sq,31.2906478881836,30.7680114746094,-146.67799790630073,-139.22438338159822,614283854
sq,28.9444145202637,28.5959381103516,-146.62179332563622,-136.6231737894275,614300521
sq,26.5522407531738,26.3970893859863,-145.91641261809585,-134.25846628130947,614317188
sq,24.1441558837891,24.1802696228027,-144.7333533481019,-132.0727396159741,614333855
sq,21.892115020752,22.0711730957031,-143.222358268962,-129.90135820883668,614350522
sq,19.7225936889648,20.0736221313477,-141.474703095725,-127.52422461758513,614367189
sq,17.4053672790527,17.9772933959961,-139.49652533074814,-124.71616429911285,614383856
sq,15.0670188903809,15.8506225585938,-137.1997023957578,-121.2877832263456,614400523
sq,12.9542640686035,13.9703353881836,-134.4104567849411,-117.11227822655994,614417190
sq,10.8565353393555,12.2510093688965,-130.89421394108766,-112.14084793069445,614433857
sq,8.75490798950196,10.3993896484375,-126.39623691598192,-106.41421947934298,614450524
sq,6.69231262207031,8.6112808227539,-120.69456049759528,-100.07387681181696,614467191
sq,4.785986328125,7.0568603515625,-113.65560868713875,-93.36829186625488,614483858
sq,2.97367706298828,5.63321533203125,-105.27912651816122,-86.64582110915863,614500525
sq,1.20979919433594,4.1357177734375,-95.71958989224797,-80.32738551425646,614517192
sq,-0.3730712890625,2.79736938476562,-85.27541835028724,-74.85441886730275,614533859
sq,-1.73581085205078,1.60200347900391,-74.34589200473617,-70.61223628068477,614550526
sq,-2.90560302734375,0.517805480957032,-63.36800820253893,-67.83863071628961,614567193
sq,-3.82710418701172,-0.557473754882812,-52.755820797433,-66.53785179379041,614583860
sq,-4.55195007324219,-1.65168914794922,-42.86526481364601,-66.42450973894245,614600527
sq,-5.25249633789062,-2.64082489013672,-33.99457941046678,-66.91950860106385,614617194
sq,-5.83802185058594,-3.58578643798828,-26.408969995309015,-67.21303502644516,614633861
sq,-6.39364013671875,-4.60123596191406,-20.36016218590684,-66.39666621893964,614650528
sq,-6.8706298828125,-5.72080383300781,-16.06966063563528,-63.64624122565621,614667195
sq,-7.14893493652344,-6.85556182861328,-13.663431241992313,-58.41550938982501,614683862
sq,-7.25690612792969,-7.81475982666016,-13.077362518220086,-50.58993332603172,614700529
sq,-7.32861480712891,-8.6338134765625,-13.979519856563714,-40.556610359734705,614717196
sq,-7.41420135498047,-9.39794311523437,-15.759858293382813,-29.165066002918493,614733863
sq,-7.59326324462891,-10.0177093505859,-17.615853538814143,-17.57730697903041,614750530
sq,-7.87462005615234,-10.3056121826172,-18.72341185263713,-7.032663122045054,614767197
sq,-8.30117950439453,-10.2627044677734,-18.444127458645823,1.4178236861040132,614783864
sq,-8.77536163330078,-10.0417190551758,-16.499238644076225,7.1328650473517206,614800531
sq,-9.16832885742187,-9.68615875244141,-13.047285060864096,9.989901350312374,614817198
sq,-9.43047485351562,-9.57925567626953,-8.635036509947874,10.350830959169631,614833865
sq,-9.54010162353516,-9.5091796875,-4.036541834873631,8.90718784564725,614850532
sq,-9.46957550048828,-9.51388702392578,-0.03416124376325791,6.469262104477972,614867199
sq,-9.31728515625,-9.57444915771484,2.7874543931189013,3.7734422122842934,614883866
sq,-9.18355712890625,-9.44160614013672,4.174091797835978,1.359841653929679,614900533
sq,-9.11837158203125,-9.38855133056641,4.233161635723772,-0.46418124076606015,614917200
sq,-9.11572418212891,-9.42987976074219,3.373082989273144,-1.5887561787898299,614933867
sq,-9.12000427246094,-9.44880828857422,2.1877444297373074,-2.0222117233216634,614950534
sq,-9.12169036865234,-9.45855102539062,1.330626271200824,-1.797295613793189,614967201
sq,-9.15912017822266,-9.42089996337891,1.413894140283002,-0.8898969522533071,614983868
sq,-9.16999969482422,-9.38298187255859,2.9497244398585236,0.8283573518334397,615000535
sq,-9.12337646484375,-9.37659606933594,6.331633757857696,3.592906056169311,615017202
sq,-8.94976196289062,-9.35263214111328,11.837749537536508,7.707506923787536,615033869
sq,-8.66320953369141,-9.25129852294922,19.63071250304296,13.477831766284298,615050536
sq,-8.29068145751953,-9.02911529541016,29.734417042571785,21.134700445709115,615067203
sq,-7.818505859375,-8.68664703369141,41.98536075590052,30.761419800103443,615083870
sq,-7.20305023193359,-8.16870269775391,55.97818072713297,42.23564444866901,615100537
sq,-6.40560302734375,-7.49904022216797,71.03967328771225,55.19479348034961,615117204
sq,-5.36080322265625,-6.64764556884766,86.2649551649207,69.03529848404759,615133871
sq,-4.04775390625,-5.59076843261719,100.63230994523026,82.95652390939613,615150538
sq,-2.47821197509766,-4.32966766357422,113.18521971152565,96.05600462531544,615167205
sq,-0.64205322265625,-2.84430847167969,123.24013506444916,107.47141691144991,615183872
sq,1.46947326660156,-1.14930114746094,130.55650942228522,116.54761080924014,615200539
sq,3.79383697509766,0.847738647460938,135.40135294238777,122.98934913653552,615217206
sq,6.19920959472656,2.89899291992187,138.46241905987677,126.95073719976365,615233873
sq,8.47200241088867,5.02564849853516,140.61322258296812,129.01887260204515,615250540
sq,10.5197242736816,7.39465560913086,142.5958076397226,130.07504742569543,615267207
sq,12.5776008605957,9.36592330932617,144.73587653577445,131.05797010153051,615283874
sq,14.462671661377,11.1531242370606,146.81106444869275,132.6969358175017,615300541
sq,16.4198516845703,13.1300186157226,148.14366636831528,135.30583053234207,615317208
sq,18.9340003967285,15.0727142333984,147.8953117292909,138.71188146670315,615333875
sq,21.9703773498535,17.4495796203613,145.44188571726104,142.3406782922449,615350542
sq,24.7536949157715,19.7920135498047,140.65921132334657,145.41988707125307,615367209
sq,27.1306823730469,22.1723045349121,133.99192853600942,147.22769353710325,615383876
sq,29.1306251525879,24.5432456970215,126.29048898836409,147.30766450784748,615400543
sq,30.6231979370117,27.1234230041504,118.51484564127954,145.59004097436744,615417210
sq,32.2108749389648,29.6064247131348,111.45119645933039,142.38948960575215,615433877
sq,34.1575988769531,31.7459968566895,105.5524260254769,138.2867122422901,615450544
sq,35.9598449707031,33.8416427612305,100.9314346139849,133.9385461362102,615467211
sq,37.4863227844238,35.9610885620117,97.46661105856028,129.8825772930082,615483878
sq,39.0453285217285,37.9732498168945,94.94956979493551,126.39808006204764,615500545
sq,40.7943958282471,39.8771327972412,93.20743813376,123.46206169068378,615517212
sq,42.6289047241211,41.9470237731934,92.15012197788464,120.8109027689802,615533879
sq,44.1286415100098,43.731485748291,91.72875588509241,118.09243178040819,615550546
sq,45.2638000488281,45.5189765930176,91.84394957160829,115.07127100981128,615567213
sq,46.3610919952393,47.5167125701904,92.28442718748579,111.83067324617524,615583880
sq,47.6978096008301,49.5856155395508,92.7721535661971,108.90081160760444,615600547
sq,49.2954582214356,51.4079479217529,93.13323130542653,107.24912184668148,615617214
sq,50.8388961791992,53.1041549682617,93.53882342307396,108.10081023572062,615633881
sq,52.3792671203613,54.944415473938,94.70915515616599,112.60632199351188,615650548
sq,54.2734169006348,56.8598083496094,97.96484898348783,121.41856795167394,615667215
sq,56.2583879470825,58.9298290252686,105.0420971455808,134.27961681921244,615683882
sq,58.1111854553223,60.8341325759888,117.65773201558844,149.74741635983847,615700549
sq,59.8665784835815,62.5624398231506,136.90667928730375,165.20754550015099,615717216
sq,61.7089752197266,64.4279574394226,162.66556551636268,177.27990362125348,615733883
sq,63.7798184394836,66.4227265357971,193.21699084624728,182.6120229249874,615750550
sq,66.0827139854431,69.9725105404854,225.2680660942573,178.85879015757493,615767217
sq,70.2407289981842,75.2078517913818,254.4186704995428,165.47244664159504,615783884
sq,73.5523468494415,80.030184173584,275.9830133048534,143.91702863954785,615800551
sq,79.7328838348389,80.4582618713379,285.94871626527805,117.16598773564279,615817218
sq,84.1331094741821,81.3255418777466,281.82603680469265,88.72411615788054,615833885
sq,87.3117031097412,80.8948253631592,263.1986567476511,61.65930452529272,615850552
sq,92.4561847686768,81.8051103591919,231.87305493366912,38.052525582502874,615867219
sq,97.6021293640137,83.5911354064941,191.57774897926214,18.9589749531763,615883886
sq,101.268997573853,85.2586187362671,147.2239933956248,4.675658753895703,615900553
sq,101.695040130615,85.1581396102905,103.87353418921994,-4.969216797061685,615917220
sq,102.951286697388,84.2144044876099,65.7114364492613,-10.45553540837462,615933887
sq,103.470304870606,83.8727287292481,35.34599019259923,-12.510147935014565,615950554
sq,104.313318634033,83.7447761535645,13.607822667090707,-12.046301528871712,615967221
sq,104.724550628662,83.7472871780396,-0.19134543302208823,-10.052577714644208,615983888
sq,104.936994934082,83.645023727417,-7.720826438502451,-7.452443486408024,616000555
sq,105.016405487061,83.525078201294,-11.024310133217984,-4.982694839456864,616017222
sq,104.98092880249,83.4608186721802,-12.00841034341268,-3.1239121516258015,616033889
sq,104.818113708496,83.4156288146973,-12.116382857511374,-2.090739558057618,616050556
sq,104.620485687256,83.3919376373291,-12.207164291943144,-1.872908645447965,616067223
sq,104.404650115967,83.3537858963013,-12.609260822212345,-2.3099663836697673,616083890
sq,104.223165893555,83.3166345596314,-13.290870196849786,-3.1791549046068446,616100557
sq,104.038092041016,83.219260597229,-14.07698531062964,-4.274961857330926,616117224
sq,103.41501083374,83.108438873291,-14.84548236328623,-5.461296689784867,616167225
sq,103.193884277344,82.9753631591797,-15.648929902710055,-6.684425578274571,616183892
sq,102.996714019775,82.849104309082,-16.740165164941697,-7.946735482502122,616200559
sq,102.780317687988,82.7558588027954,-18.51797416296583,-9.255357022278455,616217226
sq,102.513443374634,82.6657146453857,-21.43501535562048,-10.570473363915967,616233893
sq,102.195078277588,82.5496248245239,-25.913803719542656,-11.780644142004464,616250560
sq,101.920584106445,82.3800338745117,-32.304203905099556,-12.724926193035408,616267227
sq,101.509132766724,82.2134241104126,-40.89547560969649,-13.26684302966206,616283894
sq,100.83444442749,82.0696071624756,-51.96964652430959,-13.40799535782969,616300561
sq,99.932657623291,81.8997081756592,-65.8547706014419,-13.411820255083455,616317228
sq,98.6244815826416,81.5805553436279,-82.91881930983952,-13.89205722274585,616333895
sq,96.9642166137695,81.0855888366699,-103.45344423368724,-15.812279317924247,616350562
sq,95.2983402252197,80.5057987213135,-127.439424908708,-20.356012652799137,616367229
sq,93.2614673614502,80.1608709335327,-154.25194319066063,-28.670915987275627,616383896
sq,91.1513809204102,80.402519607544,-182.42460245690967,-41.55054149509875,616400563
sq,88.9334434509277,79.9251140594482,-209.61008783167247,-59.15203858598002,616417230
sq,85.533713722229,78.6152080535889,-232.83066757260895,-80.82655063934112,616433897
sq,81.310551071167,76.848525428772,-249.01643419805163,-105.08445517244888,616450564
sq,78.7771295547485,75.0006479263306,-255.72329806901539,-129.69334396299703,616467231
sq,74.6052845954895,73.5593375205994,-251.8328006894277,-151.93876699845157,616483898
sq,66.5762657165527,73.7076076507568,-237.98043960368784,-169.10226870276009,616500565
sq,64.0461639404297,69.8573394060135,-216.50390215319445,-179.1287968601243,616517232
sq,61.573267364502,64.2300561904907,-190.8981557677888,-181.27432399855599,616533899
sq,59.0297807693481,61.09970703125,-165.00393963463796,-176.41688249371637,616550566
sq,56.6124433517456,59.1159013748169,-142.24618781428225,-166.8367797440857,616567233
sq,54.2512592315674,56.7448152542114,-125.1330804480466,-155.54888366677827,616583900
sq,52.0686229705811,54.6517671585083,-115.05455073467832,-145.4736011331251,616600567
sq,50.1141780853271,52.660461807251,-112.3072592535392,-138.74556346524625,616617234
sq,48.2092308044434,50.5526412963867,-116.24681182210905,-136.3416230861525,616633901
sq,46.2822841644287,48.4110378265381,-125.49439571854852,-138.06790327927342,616650568
sq,44.3941387176514,46.0405830383301,-138.16641560483322,-142.83524183363886,616667235
sq,42.3709663391113,43.5957607269287,-152.12606392021658,-149.09058369896948,616683902
sq,39.9939865112305,40.9911731719971,-165.26093079655092,-155.26092352522267,616700569
sq,37.2725967407226,38.4093536376953,-175.7709678582812,-160.09738519074514,616717236
sq,34.3806098937988,35.8748573303223,-182.42255943932926,-162.86125659410195,616733903
sq,31.2873291015625,33.2528289794922,-184.70929377668068,-163.3488875954361,616750570
sq,28.2100357055664,30.6643814086914,-182.87079026782163,-161.79138107700808,616767237
sq,25.1956085205078,28.1400093078613,-177.75497117468572,-158.6829377030868,616783904
sq,22.4376052856445,25.6427673339844,-170.55351693489337,-154.5928568319227,616800571
sq,19.8164276123047,23.2091011047363,-162.47794154002068,-150.00659562766106,616817238
sq,17.3018669128418,20.8968872070312,-154.4603815561672,-145.22519628314834,616833905
sq,14.9090560913086,18.5388893127441,-146.95429816864555,-140.3332766105943,616850572
sq,12.6931251525879,16.268595123291,-139.88223421137772,-135.22778442596453,616867239
sq,10.5726799011231,14.0745719909668,-132.74007258101994,-129.6876929866184,616883906
sq,8.4507926940918,12.0183700561523,-124.82639385910775,-123.4616071965931,616900573
sq,6.28214874267578,10.0454238891602,-115.5285433763654,-116.35361164559524,616917240
sq,4.22999420166016,8.1672233581543,-104.57648985831698,-108.29236159595736,616933907
sq,2.43383636474609,6.37813415527344,-92.18408213186713,-99.37181675427736,616950574
sq,0.883322143554688,4.79085388183594,-79.03526856452176,-89.85588652194254,616967241
sq,-0.34969482421875,3.36916961669922,-66.12492085816355,-80.1454533105334,616983908
sq,-1.29061279296875,2.07398834228516,-54.508737648198704,-70.71325154659472,617000575
sq,-2.06832275390625,0.91287841796875,-45.03895560362747,-62.01730245607681,617017242
sq,-2.74126586914062,-0.126031494140625,-38.158637887034054,-54.407405391209245,617033909
sq,-3.28391418457031,-0.921395874023437,-33.80423003994574,-48.043769226350406,617050576
sq,-3.75286254882812,-1.68567047119141,-31.435340524538088,-42.851413141126976,617067243
sq,-4.21904907226562,-2.25132141113281,-30.180523578413563,-38.533433155278736,617083910
sq,-4.72004852294922,-2.68270263671875,-29.06152077163265,-34.65493012736616,617100577
sq,-5.28285369873047,-3.25180969238281,-27.23897697233301,-30.78522501398109,617117244
sq,-5.82628021240234,-3.93856201171875,-24.215556720617872,-26.655237302065355,617133911
sq,-6.30947265625,-4.60210571289062,-19.9422781169774,-22.266872284860106,617150578
sq,-6.72400817871094,-5.10203704833984,-14.7999324191294,-17.900948391526743,617167245
sq,-6.98843536376953,-5.37340698242187,-9.462896255673783,-14.012114018892877,617183912
sq,-7.07240447998047,-5.39701995849609,-4.687520985172747,-11.052463117516988,617200579
sq,-6.99405059814453,-5.34765777587891,-1.0907632623168309,-9.29930892000321,617217246
sq,-6.86012420654297,-5.38649139404297,1.012685300389785,-8.757253562241898,617233913
sq,-6.76806030273437,-5.57034454345703,1.668172097549064,-9.164789549445079,617250580
sq,-6.75890502929687,-5.85650024414062,1.2257697592173455,-10.086160164575125,617267247
sq,-6.83226928710937,-6.12468109130859,0.20320194614209497,-11.03811273757146,617283914
sq,-6.92302093505859,-6.32561645507812,-0.8780987847112448,-11.601059361134595,617300581
sq,-7.00332794189453,-6.49048004150391,-1.628658870176116,-11.486727683440833,617317248
sq,-7.06382141113281,-6.64079437255859,-1.8621717615346414,-10.56078452527067,617333915
sq,-7.11148223876953,-6.78506622314453,-1.593133047225053,-8.83470974875989,617350582
sq,-7.10143432617187,-6.90394744873047,-0.9761416804093394,-6.443371800312452,617367249
sq,-7.06623229980469,-7.00216827392578,-0.21716593746704185,-3.6183553591239352,617383916
sq,-7.02460632324219,-7.08751068115234,0.5095173941594984,-0.6587594412340319,617400583
sq,-6.96440277099609,-7.13958892822266,1.112386221893143,2.104081538034737,617417250
sq,-6.92438659667969,-7.14253387451172,1.590117313813325,4.350883538261355,617433917
sq,-6.91203460693359,-7.03161773681641,2.0007506937451387,5.824401834540462,617450584
sq,-6.92017517089844,-6.88290557861328,2.4117775468217073,6.374294858276815,617467251
sq,-6.94855651855469,-6.75840911865234,2.856546029264562,5.983501422386433,617483918
sq,-6.95689544677734,-6.63968048095703,3.3184588879525663,4.768339599699429,617500585
sq,-6.90542755126953,-6.59613189697266,3.7516343893752127,2.955157968899167,617517252
sq,-6.81764373779297,-6.60946807861328,4.130273515711709,0.8452482192365056,617533919
sq,-6.72080383300781,-6.64251861572266,4.50608276137989,-1.2188561900044306,617550586
sq,-6.60450897216797,-6.62426147460937,5.048885458740371,-2.87958024513766,617567253
sq,-6.48194274902344,-6.605615234375,6.050673498128546,-3.787177466287978,617583920
sq,-6.35967407226562,-6.62909088134766,7.884998971950878,-3.628640940450242,617600587
sq,-6.23105010986328,-6.67666778564453,10.927859467384756,-2.167374563881848,617617254
sq,-6.07185516357422,-6.75642547607422,15.45919174776105,0.7129181215973294,617633921
sq,-5.87107238769531,-6.79834136962891,21.57223129174307,4.976143750918321,617650588
sq,-5.58336029052734,-6.75904235839844,29.118760300612404,10.430410964398517,617667255
sq,-5.16935119628906,-6.61000213623047,37.71075448134607,16.761469257739382,617683922
sq,-4.59203491210937,-6.35996398925781,46.784485768483144,23.597156812943854,617700589
sq,-3.84661254882812,-5.90963134765625,55.71547262614735,30.584145961885778,617717256
sq,-2.91015014648437,-5.29695281982422,63.957046967750905,37.45265437002334,617733923
sq,-1.83150634765625,-4.74009094238281,71.1667722017133,44.050193269073105,617750590
sq,-0.633279418945312,-4.10141906738281,77.28649925210571,50.3393842722051,617767257
sq,0.628713989257813,-3.28358612060547,82.55307442342566,56.36806635310378,617783924
sq,1.96673431396484,-2.33129272460937,87.43367796599274,62.22462682551001,617800591
sq,3.35088195800781,-1.36014709472656,92.49690150411743,67.98968926319131,617817258
sq,4.8827880859375,-0.281884765625,98.24404212364463,73.6937937934204,617833925
sq,6.52186431884766,0.896368408203125,104.93483111660713,79.29148442853824,617850592
sq,8.1217903137207,2.12269439697266,112.45031904804169,84.66204678952573,617867259
sq,9.71389236450196,3.38553466796875,120.24103274360691,89.64286432013964,617883926
sq,11.4415496826172,4.8072265625,127.40085647670277,94.09172404157843,617900593
sq,13.2996200561523,6.41485443115234,132.8756970739639,97.96099790905485,617917260
sq,15.4738677978516,8.00830688476562,135.76315189769335,101.3558391901378,617933927
sq,18.120516204834,9.68939819335937,135.60702777622507,104.54828871809283,617950594
sq,20.6637748718262,11.5101303100586,132.5722009108957,107.93205708199945,617967261
sq,22.7320159912109,13.1429237365723,127.42277441437808,111.9244532803765,617983928
sq,24.6786750793457,14.8693946838379,121.30578212092409,116.844113733488,618000595
sq,26.579012298584,16.6745399475098,115.41983837114478,122.80554243430069,618017262
sq,28.3199180603027,18.4483207702637,110.68658998926522,129.66615099495962,618033929
sq,29.682787322998,20.5799697875977,107.53632820157874,137.03918365236476,618050596
sq,31.0966323852539,22.9708351135254,105.87643999174145,144.35782846713244,618067263
sq,32.9143508911133,25.3898948669434,105.24115445758854,150.95948491782787,618083930
sq,35.0734733581543,27.7424949645996,105.04465226875074,156.16627260066963,618100597
sq,37.0884651184082,29.9878868103027,104.8182158643722,159.3601460977837,618117264
sq,38.6392959594726,32.4761566162109,104.3354962645631,160.06396333656383,618133931
sq,40.2661518096924,35.1946434020996,103.60141303019351,158.02845594076905,618150598
sq,41.8611320495606,37.9588798522949,102.74939981938188,153.30232425386475,618167265
sq,43.3174346923828,40.4144844055176,101.9220378383057,146.25616609874513,618183932
sq,44.9757827758789,42.5621341705322,101.20119713529944,137.55067155749597,618200599
sq,46.5257972717285,44.8028663635254,100.62432066991276,128.06687125623668,618217266
sq,47.8244956970215,46.7259925842285,100.287978334293,118.826629952942,618233933
sq,49.4432929992676,48.4977745056152,100.50182592757109,110.91905238025728,618250600
sq,51.4518188476562,50.5734580993652,101.91858465103866,105.42500778295131,618267267
sq,53.4192985534668,52.2645439147949,105.54631490370876,103.31466665643599,618283934
sq,55.2159942626953,53.9909900665283,112.57338646649883,105.29482181364483,618300601
sq,57.1681884765625,55.7777685165405,124.00747463264528,111.60551918814424,618317268
sq,59.1829523086548,57.7320589065552,140.21951239655456,121.80001150897256,618333935
sq,61.0193685531616,59.5671171188354,160.55435964656095,134.57825765310352,618350602
sq,62.7474359512329,61.3527387619018,183.1896832567361,147.7717201382004,618367269
sq,64.7046441078186,63.3242868423462,205.3640684835331,158.5764556579658,618383936
sq,68.98746945858,65.3025845527649,223.94984596907452,164.07857699526295,618400603
sq,72.6647137641907,67.1924716472626,236.1749340183926,162.00221254823194,618417270
sq,78.7110151290894,71.1915036678314,240.21387695799382,151.46229327899803,618433937
sq,81.5527462005615,75.0715579032898,235.44791781632446,133.40314664224903,618450604
sq,84.0548700332642,78.4666704177857,222.38861208720442,110.45593073064452,618467271
sq,88.0044998168945,78.7431692123413,202.41674201801388,86.1857242063649,618483938
sq,91.0401443481445,80.2072576522827,177.49680738249515,64.00299896721208,618500605
sq,94.0180610656738,79.39072265625,149.925697533517,46.190416881078335,618517272
sq,97.2662815093994,79.2889846801758,122.08442754483211,33.43644123321689,618533939
sq,99.1618522644043,79.9737800598145,96.1562592109366,25.01288711221798,618550606
sq,99.7635749816895,81.7924961090088,73.83545395439688,19.42610874295461,618567273
sq,101.050537490845,82.8041786193848,56.10860258312002,15.178518214711701,618583940
sq,101.944960021973,83.3264221191406,43.184930068904684,11.297421554436324,618600607
sq,102.672716522217,83.3729862213135,34.58913127502734,7.478999697771833,618617274
sq,103.397097015381,82.9054016113281,29.368163478847617,3.9127897137907888,618633941
sq,103.995878601074,82.6358522415161,26.3424785199567,0.9719884964931054,618650608
sq,104.089453125,82.6222986221314,24.346178071662152,-1.0533321032647804,618667275
sq,104.555403137207,82.692763710022,22.421862409694445,-2.0900279656744445,618683942
sq,105.241442108154,82.7528776168823,19.94609498544271,-2.284551048709118,618700609
sq,105.57314529419,82.7628482818604,16.666090855112408,-1.92611145248612,618717276
sq,105.775324249268,82.7507652282715,12.644961999422595,-1.3468285150838755,618733943
sq,105.884813690186,82.7569602966309,8.141595415174452,-0.8375179126406985,618750610
sq,105.95676651001,82.7597869873047,3.4713989664982328,-0.5972838408759537,618767277
sq,105.974577331543,82.7494653701782,-1.1083295295376931,-0.7198109818699286,618783944
sq,105.959242248535,82.727693939209,-5.463507063787781,-1.2093686315221122,618800611
sq,105.885012054443,82.7240175247192,-9.594878282981231,-2.0138395108008127,618817278
sq,105.722589874268,82.6486238479614,-13.606449505188115,-3.059914328836469,618833945
sq,105.483919525147,82.5595659255982,-17.64778573319606,-4.276816425398101,618850612
sq,105.213488006592,82.4720720291138,-21.84971992063322,-5.599959034250683,618867279
sq,104.902811431885,82.3826545715332,-26.274100952333843,-6.954558589682152,618883946
sq,104.540369415283,82.2796510696411,-30.897149209932923,-8.228951732106239,618900613
sq,104.076979064941,82.1575206756592,-35.64001803686681,-9.254543233468016,618917280
sq,103.532556915283,82.0421117782593,-40.44837278764495,-9.81169689613211,618933947
sq,102.916801834106,81.9651769638062,-45.40763343142589,-9.67774412925843,618950614
sq,102.22098197937,81.9193614959717,-50.86536652788525,-8.72337797597204,618967281
sq,101.38801612854,81.8594593048096,-57.51933466619848,-7.045214578840332,618983948
sq,100.329044723511,81.6705001831055,-66.42103373427501,-5.096915471786095,619000615
sq,99.4022773742676,81.3839305877686,-78.84430422159862,-3.7588540321946926,619017282
sq,97.2161125183106,81.0169557571411,-95.9851979645951,-4.283903588778875,619033949
sq,95.5446647644043,80.6665376663208,-118.50704315813837,-8.088977524168884,619050616
sq,93.8911022186279,80.7130769729614,-146.03012722653165,-16.42572850279006,619067283
sq,92.2303527832031,81.1523574829102,-176.7578895818155,-30.029027147105445,619083950
sq,90.2380165100098,80.993074798584,-207.46240558601966,-48.86113376296063,619100617
sq,87.7291130065918,79.6967014312744,-233.96680272486896,-72.01973160028219,619117284
sq,83.0863689422607,78.0799645423889,-252.0749891238615,-97.79811392718459,619133951
sq,79.6836437225342,76.3018573760986,-258.69209096150774,-123.8507480264479,619150618
sq,73.7990845680237,74.799751663208,-252.75252656767194,-147.45679917189415,619167285
sq,68.3133460521698,74.1361471652985,-235.59544664460915,-165.92617630742973,619183952
sq,64.4255651473999,71.678795003891,-210.61643967599932,-177.1567639239616,619200619
sq,62.3793996810913,66.6261037826538,-182.31905377499618,-180.20812809690437,619217286
sq,60.2332443237305,62.5138763427734,-155.13916169508136,-175.63234217299436,619233953
sq,58.3184246063232,60.2904066085815,-132.47067008163145,-165.3573110818207,619250620
sq,56.284373664856,58.5842803955078,-116.16853896557879,-152.14664880557376,619267287
sq,54.1936935424805,56.4419540405273,-106.5668606324782,-138.8744194877487,619283954
sq,52.1137775421143,54.3769134521484,-102.862792075929,-127.89382018941122,619300621
sq,50.1817420959473,52.3200439453125,-103.64426237721167,-120.66714169158016,619317288
sq,48.3637279510498,50.3442291259766,-107.3698073455132,-117.68235228125467,619333955
sq,46.6787609100342,48.3931907653809,-112.6946395737308,-118.5909476828926,619350622
sq,45.0020584106445,46.3995403289795,-118.62541196967265,-122.47015054979393,619367289
sq,43.1861652374268,44.3189891815186,-124.54171905449527,-128.11846454536874,619383956
sq,41.1553749084473,42.2612003326416,-130.13712787209758,-134.31826557272402,619400623
sq,39.0020374298096,40.1361850738525,-135.32168353997494,-140.0298989177744,619417290
sq,36.8489135742187,37.9039482116699,-140.11410347280116,-144.50808169340334,619433957
sq,34.7201217651367,35.5769561767578,-144.5468552692071,-147.34664429265376,619450624
sq,32.5994972229004,33.1997055053711,-148.60484623793744,-148.46285557070792,619467291
sq,30.1035751342773,30.7819160461426,-152.20658861652316,-148.0343085359425,619483958
sq,27.4751533508301,28.4537452697754,-155.21640267567085,-146.40466932256547,619500625
sq,24.9423278808594,26.1645950317383,-157.46415375660447,-143.978941655438,619517292
sq,22.6042846679687,23.8543838500977,-158.7573492670386,-141.12997035872837,619533959
sq,20.1220573425293,21.6457809448242,-158.88891729686463,-138.13288044170258,619550626
sq,17.509317779541,19.4734100341797,-157.6519102189199,-135.13435432418711,619567293
sq,14.9333671569824,17.2533020019531,-154.86470171111927,-132.15269437003965,619583960
sq,12.4663146972656,15.0717987060547,-150.4004740600382,-129.09666438501648,619600627
sq,10.140608215332,12.9700416564941,-144.2136523072763,-125.79049496832837,619617294
sq,7.77302780151367,11.0398162841797,-136.35979356030302,-122.00008708625452,619633961
sq,5.56250610351563,9.14811935424805,-127.00693368202651,-117.46499262108262,619650628
sq,3.59854736328125,7.25257339477539,-116.43543264618431,-111.94310316696615,619667295
sq,1.69536437988281,5.431005859375,-105.02328801397925,-105.26808964244782,619683962
sq,-0.0286117553710934,3.77425231933594,-93.21512813524777,-97.4101282122363,619700629
sq,-1.51940307617188,2.24671020507812,-81.47532320667639,-88.52481873684111,619717296
sq,-2.82757720947266,0.706831359863282,-70.23003953245342,-78.97408275310156,619733963
sq,-3.9282470703125,-0.581842041015625,-59.80899161744691,-69.30546209134127,619750630
sq,-4.86170349121094,-1.69040069580078,-50.401630634552774,-60.184255549970295,619767297
sq,-5.63751373291016,-2.65699157714844,-42.04170962990766,-52.28588674192489,619783964
sq,-6.26287994384766,-3.47435913085937,-34.628277514701985,-46.1683817124125,619800631
sq,-6.80633697509766,-4.18840179443359,-27.981367928386767,-42.15147839799096,619817298
sq,-7.25155792236328,-4.83043823242187,-21.91905797975178,-40.22865274471295,619833965
sq,-7.65495452880859,-5.46026000976562,-16.33261110681555,-40.03293519999847,619850632
sq,-8.02247009277344,-6.06602630615234,-11.232776413658053,-40.86865295460406,619867299
sq,-8.28196868896484,-6.61409912109375,-6.747260843338784,-41.81014094135167,619883966
sq,-8.36871490478516,-7.35517272949219,-3.0672809926738416,-41.85530799698748,619900633
sq,-8.33577880859375,-8.05801544189453,-0.3632188537817518,-40.108660163489226,619917300
sq,-8.25935516357422,-8.67382965087891,1.2960176427927264,-35.959652179935155,619933967
sq,-8.18184814453125,-9.25821838378906,1.986975191781911,-29.221113889466356,619950634
sq,-8.13277587890625,-9.84034118652344,1.9227874227457817,-20.197311051154493,619967301
sq,-8.13294372558594,-10.2393585205078,1.3977963972610674,-9.660378996979944,619983968
sq,-8.16041717529297,-10.4199081420898,0.7096250688364192,1.2706310483136753,620000635
sq,-8.20495758056641,-10.404801940918,0.0888921972146613,11.331928081553755,620017302
sq,-8.24620971679687,-10.269677734375,-0.33919819453713107,19.35955430879748,620033969
sq,-8.27459869384766,-9.82835540771484,-0.551580703947496,24.521444579999756,620050636
sq,-8.25702819824219,-9.26645050048828,-0.5894074382372281,26.478332664510635,620067303
sq,-8.21869049072266,-8.67173156738281,-0.5055355833359799,25.428966582888226,620083970
sq,-8.15430603027344,-8.28307495117187,-0.32171769470170725,22.02855467330411,620100637
sq,-8.11644897460937,-8.11625823974609,-0.01330931809955757,17.211479963435416,620117304
sq,-8.13337860107422,-7.94201812744141,0.47540822129833904,11.978766091183887,620133971
sq,-8.17476043701172,-7.77244720458984,1.198397613707352,7.211917220496912,620150638
sq,-8.20661315917969,-7.62580261230469,2.1803020058280773,3.55185667847468,620167305
sq,-8.22971496582031,-7.58769378662109,3.4152726557940514,1.353440815539996,620183972
sq,-8.20817718505859,-7.61627349853516,4.9012569058658,0.7068514414275413,620200639
sq,-8.10924682617187,-7.59131011962891,6.701667851491343,1.5077226409366151,620217306
sq,-7.9504638671875,-7.52568206787109,9.011097895033606,3.5524924617735225,620233973
sq,-7.74830017089844,-7.42719421386719,12.194607656559066,6.632684213011245,620250640
sq,-7.50084838867187,-7.29086456298828,16.774253618217692,10.604482534112535,620267307
sq,-7.17484436035156,-7.09765777587891,23.350681969691085,15.41915255494212,620283974
sq,-6.76163635253906,-6.83255920410156,32.46759658174743,21.112595938114797,620300641
sq,-6.26962432861328,-6.51915893554687,44.44766946914506,27.76434030980228,620317308
sq,-5.65858612060547,-6.15317687988281,59.24430395618672,35.443799283678054,620333975
sq,-4.83951721191406,-5.61709747314453,76.35784170293906,44.16173398666775,620350642
sq,-3.70696411132812,-4.87440643310547,94.85223666880094,53.83720669330501,620367309
sq,-2.21376190185547,-3.91610107421875,113.48025943461903,64.28040481232244,620383976
sq,-0.401460266113281,-2.79493865966797,130.89113692946282,75.18877263296395,620400643
sq,1.84991302490234,-1.77348480224609,145.86700944610251,86.16176291459358,620417310
sq,4.25769653320313,-0.644853210449218,157.52428688634447,96.74844023816803,620433977
sq,6.91493072509766,0.881300354003907,165.42730534008933,106.53464517766882,620450644
sq,9.64753189086914,2.79833831787109,169.59134910092214,115.24813959947409,620467311
sq,12.2838882446289,5.06562652587891,170.389942369909,122.8332510918116,620483978
sq,14.7539428710938,6.97619094848633,168.41222326842907,129.45157158410754,620500645
sq,17.3994926452637,8.53722229003906,164.32475282485734,135.40464765408862,620517312
sq,20.0645393371582,11.0336212158203,158.7734526405486,141.01444949371688,620533979
sq,22.8168243408203,13.2588676452637,152.33030766681046,146.50673479584057,620550646
sq,25.2813552856445,15.4043067932129,145.47080013477657,151.92737663843965,620567313
sq,27.3230690002441,18.0053199768066,138.57182514589758,157.10617866913176,620583980
sq,29.4169906616211,20.5052894592285,131.92987446264755,161.6748199121805,620600647
sq,31.6925262451172,22.8103813171387,125.79309249232124,165.13956690951147,620617314
sq,33.9919761657715,25.4856094360352,120.38083812317316,166.9991017353718,620633981
sq,36.1996253967285,28.3062156677246,115.85957579217612,166.88049814887734,620650648
sq,37.7921127319336,31.1240028381348,112.27453501041482,164.64971859362478,620667315
sq,39.1194004058838,33.8798965454102,109.48351857486709,160.45439633765795,620683982
sq,40.8531593322754,36.5423149108887,107.15811676312079,154.6842990180847,620700649
sq,42.7377819061279,38.7976421356201,104.88663304250217,147.8759869004561,620717316
sq,44.4892066955566,40.8927806854248,102.35832143443508,140.6177959000117,620733983
sq,45.9705718994141,43.0446762084961,99.57196534448953,133.5080942032317,620750650
sq,47.5227149963379,45.1107448577881,97.00435121764808,127.18088368988862,620767317
sq,49.2216400146484,47.5220684051514,95.6771428478846,122.35997603450252,620783984
sq,51.1258548736572,49.5757926940918,97.06474731791685,119.8700042009022,620800651
sq,53.0309280395508,51.552286529541,102.80788443818736,120.54037982678454,620817318
sq,54.7347034454346,53.6100276947021,114.25621208886889,124.98083838388983,620833985
sq,56.2745908737183,55.876580619812,131.94733230532347,133.26351176438953,620850652
sq,57.8584760665893,58.0974096298218,155.19537432357566,144.60338840935552,620867319
sq,59.818776512146,59.9193538665771,181.96189921338225,157.1796736717759,620883986
sq,62.1223167419434,61.4975894927979,209.09617806154776,168.25945578590373,620900653
sq,66.7860244750977,63.1708258628845,232.8913826729262,174.72356945460882,620917320
sq,69.8673748016357,65.5132292747498,249.7803459239402,173.92339810726332,620933987
sq,75.5336073875427,70.7392601907253,256.9615917178456,164.57133467382863,620950654
sq,79.520325088501,75.8325041770935,252.82298212439815,147.24363859679497,620967321
sq,80.9911817550659,77.3869875907898,237.15826655979467,124.20606303101337,620983988
sq,85.4577754974365,78.1966856956482,211.23835041286821,98.62784729464666,621000655
sq,90.2950424194336,78.627861404419,177.73936497545577,73.58055895494594,621017322
sq,94.1944793701172,78.8223976135254,140.4332949019496,51.28453459923717,621033989
sq,95.8218940734863,80.03014793396,103.57602309302759,32.85464259199341,621050656
sq,96.6802181243897,81.4675392150879,71.09843948194732,18.493390244980553,621067323
sq,97.0306838989258,82.3326190948486,45.856220991355556,7.883366814335921,621083990
sq,97.8127922058106,82.5966066360474,29.182595632563896,0.5268693454228687,621100657
sq,98.5100692749023,82.2782072067261,20.839963541563442,-4.085954508652931,621117324
sq,99.0677589416504,81.8379968643189,19.30638040319751,-6.4525673558892604,621133991
sq,99.4384635925293,81.6743806838989,22.2543238094624,-7.082813522537417,621150658
sq,99.7607921600342,81.6654705047607,27.08537585227664,-6.500780860010323,621167325
sq,100.130506896973,81.6564821243286,31.425593016477112,-5.209394331542721,621183992
sq,100.540071868897,81.6450656890869,33.51759573639127,-3.6426373422423475,621200659
sq,101.383512878418,81.5627521514893,32.45568083415822,-2.1334721743885967,621217326
sq,102.536018753052,81.5174516677857,28.219467647205676,-0.9077608097363445,621317328
sq,102.67756690979,81.4540685653687,21.497898568346603,-0.09729849313610453,621333995
sq,102.751741790772,81.4294647216797,13.359718918006664,0.24091972037518275,621350662
sq,102.77403678894,81.43737449646,4.879509639516375,0.10786532596803132,621367329
sq,102.806383514404,81.4992670059204,-3.1704947951942404,-0.45114167642974634,621383996
sq,102.735035324097,81.4887289047241,-10.499563252584228,-1.3608541756569124,621400663
sq,102.587231063843,81.4728216171265,-17.342965875440132,-2.533991542409471,621417330
sq,102.415581130981,81.4101003646851,-24.40423463139322,-3.890046123994663,621433997
sq,102.176350021362,81.3036340713501,-32.73833904718875,-5.368521930372039,621450664
sq,101.720226669312,81.2079957962036,-43.60590675350668,-6.931155549818604,621467331
sq,100.98448600769,81.1158269882202,-58.30003547879002,-8.55332720351017,621483998
sq,99.7979892730713,81.0031551361084,-77.91916511373694,-10.211438396792797,621500665
sq,97.8944458007813,80.8520816802979,-103.05652203833385,-11.876209182562665,621517332
sq,96.2026123046875,80.6608213424683,-133.42059460432318,-13.52010307928171,621533999
sq,94.3185619354248,80.4506658554077,-167.48735900436165,-15.142369338282679,621550666
sq,92.3553279876709,80.2527927398682,-202.366200227888,-16.810010268437342,621567333
sq,90.4186443328857,80.0276426315308,-234.06540609562697,-18.707347017610168,621584000
sq,86.9220413208008,79.7622303009033,-258.2228542832561,-21.17905857464532,621600667
sq,81.9706605911255,79.2156909942627,-271.1526922704501,-24.743039350730292,621617334
sq,76.233957195282,78.6728672027588,-270.86474961208387,-30.048454809160123,621634001
sq,71.7519725799561,78.1369613647461,-257.6718492409123,-37.77011660335044,621650668
sq,66.6249236106873,78.1205367088318,-234.1512849594521,-48.45739575865083,621667335
sq,63.4375232696533,77.1481513023377,-204.48667723557838,-62.371030307900476,621684002
sq,61.2914642333984,75.8087553024292,-173.4483460526956,-79.33011347928029,621700669
sq,58.7845148086548,74.1200443744659,-145.3682570999444,-98.57791639426937,621717336
sq,56.5855087280273,72.3795459508896,-123.40197807403489,-118.69983846445322,621734003
sq,54.6164745330811,71.6150083780289,-109.20738371913362,-137.68692719471736,621750670
sq,52.818083190918,71.2405287265778,-103.01040575958974,-153.25917505197455,621767337
sq,51.0426162719726,68.3794239997864,-103.93417262620997,-163.45761900175745,621784004
sq,49.2072357177734,63.0964049339294,-110.440437315594,-167.30752764355657,621800671
sq,47.2123950958252,59.6915802001953,-120.74932806691984,-165.2211161568825,621817338
sq,45.1897148132324,57.793443107605,-133.14835125885554,-158.90682646354546,621834005
sq,43.1229862213135,55.8757766723633,-146.15997798025657,-150.82470988630516,621850672
sq,40.8637870788574,53.7991985321045,-158.59049948279915,-143.44986589730715,621867339
sq,38.4308952331543,51.678787612915,-169.5132732942462,-138.63715258074245,621884006
sq,35.7712577819824,49.5448345184326,-178.24054985778054,-137.2677029609287,621900673
sq,32.9924453735351,47.430912399292,-184.31725510384769,-139.21876116166916,621917340
sq,30.0799125671387,45.1731761932373,-187.5406734269779,-143.5979378293593,621934007
sq,26.9275039672852,42.741329574585,-187.98352744611128,-149.12776315246944,621950674
sq,23.770189666748,40.0605739593506,-185.98428671866623,-154.5486178643048,621967341
sq,20.7388366699219,37.4208511352539,-182.07534887124015,-158.92564150133916,621984008
sq,17.8197311401367,34.8469146728516,-176.84627178294767,-161.79384659191814,622000675
sq,14.9991287231445,32.341577911377,-170.77310795284052,-163.13825663523343,622017342
sq,12.3869918823242,29.8501304626465,-164.06983164997126,-163.25657088980176,622034009
sq,10.0155014038086,27.2863372802734,-156.62254294385116,-162.57261682357418,622050676
sq,7.67986145019532,24.6897796630859,-148.04634418008106,-161.46061387087957,622067343
sq,5.24169769287109,22.0999664306641,-137.86092209832606,-160.11815058819414,622084010
sq,2.87346496582031,19.5954460144043,-125.72980116982791,-158.50497503151135,622100677
sq,0.682997131347657,17.0980285644531,-111.67575396573606,-156.35058433164278,622117344
sq,-1.23719940185547,14.5511917114258,-96.18906011370944,-153.22335467979804,622134011
sq,-2.88857421875,12.1419853210449,-80.18347030544005,-148.6447573233544,622150678
sq,-4.16494140625,9.77385559082031,-64.80853218467075,-142.2247131038382,622167345
sq,-5.0940185546875,7.45133056640625,-51.17572449182489,-133.78948752966414,622184012
sq,-5.76326904296875,5.27007141113281,-40.08403154372223,-123.47215211757575,622200679
sq,-6.25158843994141,3.22380676269531,-31.82994645921824,-111.73931994918311,622217346
sq,-6.66596374511719,1.36414947509766,-26.158701166324718,-99.33902510847906,622234013
sq,-7.05551300048828,-0.265084838867187,-22.368524188387745,-87.17313534518635,622250680
sq,-7.43847808837891,-1.62888488769531,-19.53341555665912,-76.11962657357995,622267347
sq,-7.83795318603516,-2.75308380126953,-16.776125541221564,-66.84831353335353,622284014
sq,-8.24812469482422,-3.71821746826172,-13.51009653067374,-59.680090766327595,622300681
sq,-8.64090881347656,-4.59580383300781,-9.579791518710286,-54.5295113183774,622317348
sq,-8.86448059082031,-5.42206726074219,-5.260740142296724,-50.945833289488995,622334015
sq,-8.94986114501953,-6.28278503417969,-1.1253894614638564,-48.237440522465064,622350682
sq,-8.88226470947266,-7.14883575439453,2.1759351166149585,-45.640363119682824,622367349
sq,-8.67781982421875,-7.96742401123047,4.143641493985653,-42.482779663762194,622384016
sq,-8.45942840576172,-8.69151458740234,4.592778126353453,-38.30663885848901,622400683
sq,-8.33213958740234,-9.26143035888672,3.705430418587038,-32.928976760889775,622417350
sq,-8.32144317626953,-9.71812591552734,1.9670634785639345,-26.44708578810538,622434017
sq,-8.37120208740234,-10.1246658325195,0.021113366033741383,-19.202571739230844,622450684
sq,-8.44598541259766,-10.4780288696289,-1.5038066123185838,-11.717328746828548,622467351
sq,-8.50862274169922,-10.7346664428711,-2.14249162531524,-4.607287660575999,622484018
sq,-8.56498870849609,-10.85,-1.684146362998498,1.5219419360251174,622500685
sq,-8.58271942138672,-10.7813125610352,-0.19447483146338693,6.185734360635868,622517352
sq,-8.57274017333984,-10.5902420043945,2.0251842324634732,9.1146261867827,622534019
sq,-8.55685577392578,-10.35341796875,4.526158944492901,10.305759128275367,622550686
sq,-8.48356781005859,-10.1883255004883,6.829210666430336,10.015519170166229,622567353
sq,-8.37804565429687,-10.0875030517578,8.54996982122979,8.696835123935397,622584020
sq,-8.23656616210937,-9.97831878662109,9.512632514464302,6.901919453846336,622600687
sq,-8.05443725585937,-9.91268310546875,9.8311198224626,5.17714119911298,622617354
sq,-7.84641418457031,-9.74907073974609,9.938543206057037,3.9715531911271382,622634021
sq,-7.64269409179687,-9.69135437011719,10.551647819231686,3.5723551595680787,622650688
sq,-7.44136962890625,-9.70308837890625,12.56786229142667,4.0761882554808935,622667355
sq,-7.23751983642578,-9.70312652587891,16.907138342323314,5.403486282720627,622684022
sq,-6.96698913574219,-9.67669067382812,24.32523436175525,7.35724717142591,622700689
sq,-6.60320434570312,-9.48547515869141,35.23558252589359,9.714416676193556,622717356
sq,-6.12024078369141,-9.23890075683594,49.58058637229275,12.323910732546677,622734023
sq,-5.438134765625,-9.00973663330078,66.7879038470359,15.180598833461062,622750690
sq,-4.45476684570312,-8.77261505126953,85.8311308667737,18.45343389944866,622767357
sq,-3.08356628417969,-8.49356994628906,105.38846270402142,22.462079190627037,622784024
sq,-1.30086669921875,-8.12478790283203,124.06470659810198,27.609967493050398,622800691
sq,0.778364562988282,-7.65664825439453,140.62321920622654,34.288463445276584,622817358
sq,3.02935638427734,-7.085595703125,154.17335128735382,42.76957935716818,622834025
sq,5.55569305419922,-6.41198120117187,164.2742019873413,53.1078086929962,622850692
sq,8.2891716003418,-5.64218292236328,170.93832400394433,65.07528498816986,622867359
sq,11.0658554077148,-4.62885437011719,174.54305321584334,78.15450425348189,622884026
sq,13.7720664978027,-3.47538909912109,175.67996601395402,91.60485419558833,622900693
sq,16.3358024597168,-2.09632263183594,174.98894180254635,104.6021073572658,622917360
sq,19.2488388061523,-0.39559326171875,173.02292380902716,116.42661661916469,622934027
sq,22.0706695556641,1.52745666503906,170.17168990102445,126.65248983101716,622950694
sq,24.628588104248,3.68897857666016,166.6502322431502,135.2760474367402,622967361
sq,27.1759971618652,6.08121337890625,162.54023308222102,142.7271443352413,622984028
sq,29.9442276000977,8.53785552978516,157.8591481252916,149.73654379717664,623000695
sq,32.7638153076172,10.9295028686523,152.61988904340845,157.082260622223,623017362
sq,35.3272842407226,13.0210517883301,146.84933398851595,165.28980652663617,623034029
sq,37.6501640319824,15.4599517822266,140.56743264035444,174.3871594439174,623050696
sq,39.4557708740234,18.3663925170898,133.77415586942752,183.79640593922792,623067363
sq,41.1158851623535,21.4742034912109,126.50970688513561,192.39418262301803,623084030
sq,43.2948841094971,24.4350799560547,119.01631233976235,198.7283215274717,623100697
sq,45.5174488067627,26.9625534057617,111.95291233506217,201.35489370752003,623117364
sq,47.574129486084,30.4113105773926,106.55074312090107,199.23735550561793,623134031
sq,49.3759693145752,34.0118316650391,104.59378811067867,192.109843960725,623150698
sq,51.1621040344238,37.7449211120606,108.16231453541593,180.6782104096629,623167365
sq,53.141455078125,40.7795070648193,119.15591806710185,166.56517755505106,623184032
sq,55.1059097290039,42.9307197570801,138.6869744717221,152.0041746269321,623200699
sq,57.107070350647,45.0647090911865,166.49652104205987,139.3883670076749,623217366
sq,59.3144420623779,47.124214553833,200.5802981716164,130.81706458232563,623234033
sq,61.6520914077759,49.4761032104492,237.19654614588094,127.73971512740113,623250700
sq,65.5042876243591,51.5736297607422,271.3384154681675,130.72825771073806,623267367
sq,69.9700392723084,53.6688846588135,297.61032562200415,139.36679990545503,623284034
sq,74.9625605583191,55.9165224075317,311.3103417307401,152.247009626766,623300701
sq,80.7369770050049,58.5133708953857,309.45260287275295,167.07825607537148,623317368
sq,84.2359804153442,61.0568641662598,291.47876161258637,180.94227966760857,623334035
sq,90.7437919616699,63.1395796775818,259.46935853550804,190.72661091262657,623350702
sq,96.3993114471436,65.1379636764526,217.7539434796472,193.73005621432,623367369
sq,98.9314540863037,69.0002699136734,171.96347320918113,188.32395162430575,623384036
sq,100.765093231201,74.3831237792969,127.76985124512986,174.42440909509165,623400703
sq,101.86183013916,77.9641493797302,89.70284811467806,153.51902650749548,623417370
sq,102.949360275269,79.5110582351685,60.39824566725083,128.18486107273438,623434037
sq,104.308500671387,79.6415819168091,40.429147637526995,101.32497892399951,623450704
sq,105.178663635254,80.3024085998535,28.64472427816308,75.49769476144021,623467371
sq,105.736078643799,82.1538089752197,22.80781988425175,52.587220274365805,623484038
sq,106.28635635376,84.7825159072876,20.306441668030768,33.79052074920707,623500705
sq,106.772306823731,85.3604110717773,18.766486840059653,19.718980376817903,623517372
sq,107.168661499023,84.7455696105957,16.463498496976598,10.454268447095501,623534039
sq,107.475752258301,84.7830738067627,12.49703222481707,5.55228487644683,623550706
sq,107.661962890625,84.9158643722534,6.746084423270326,4.081604966704627,623567373
sq,107.707960510254,84.9759992599487,-0.3370022020483087,4.758208808018895,623584040
sq,107.648294830322,85.1025594711304,-8.017596212679768,6.167789146777683,623600707
sq,107.456125640869,85.2330574035645,-15.578117441103316,7.022501317526188,623617374
sq,107.130911254883,85.3694623947144,-22.563022911605824,6.390963502761192,623634041
sq,106.701872253418,85.6535371780396,-28.92917682409492,3.8509969997358624,623650708
sq,106.222261810303,85.7348331451416,-35.08721697016473,-0.46600588148180483,623667375
sq,105.685709381104,85.6847986221314,-41.844292848232776,-5.944885360429242,623684042
sq,105.109308624268,85.5603479385376,-50.27627174475359,-11.651515304707578,623700709
sq,104.432608032227,85.3730958938599,-61.56186779112529,-16.55788127984088,623717376
sq,103.477186584473,85.1442150115967,-76.79930494715093,-19.789246020360252,623734043
sq,102.128572845459,84.8570751190186,-96.80392317475119,-20.857269951622428,623750710
sq,100.106964492798,84.4938787460327,-121.87032122890297,-19.84296351809814,623767377
sq,97.9114822387695,84.1160425186157,-151.4989289851758,-17.49071858144775,623784044
sq,95.5732635498047,83.741875076294,-184.1440424411131,-15.1754513756972,623800711
sq,93.2696060180664,83.3391489028931,-217.11195492574646,-14.716541031487793,623817378
sq,90.7502902984619,82.8264822006226,-246.7642622606119,-18.04034763219673,623834045
sq,87.0997013092041,82.3567604064941,-269.1105966093528,-26.739599955993693,623850712
sq,82.2585233688355,82.626372718811,-280.7133793767981,-41.63232311063414,623867379
sq,78.600376033783,82.6016534805298,-279.6479448494075,-62.451901638279494,623884046
sq,70.9452797356993,81.1785062789917,-266.16180033098334,-87.76747905317349,623900713
sq,66.0289486885071,79.1469282150269,-242.73527262647846,-115.15294051842596,623917380
sq,63.447287940979,77.4747537612915,-213.4786634889835,-141.5605078134309,623934047
sq,60.9713300704956,76.1080702781677,-183.10005906251084,-163.85115786170255,623950714
sq,58.4881843566895,74.9133833885193,-155.84714396271823,-179.43436147085137,623967381
sq,56.1243728637695,70.0604984402657,-134.76417467297497,-186.89789101590767,623984048
sq,53.8731464385986,65.1208366394043,-121.40037316100107,-186.4059019216498,624000715
sq,51.7644962310791,62.9640001296997,-115.91501932250046,-179.65823326017284,624017382
sq,49.7417053222656,60.6624864578247,-117.42704617682425,-169.39313698781638,624034049
sq,47.7224925994873,58.3863109588623,-124.44591117385902,-158.63837724212019,624050716
sq,45.578201675415,56.1055768966675,-135.25932821072445,-149.99567406374092,624067383
sq,43.4293560028076,53.7551692962646,-148.21033232972647,-145.16182274204849,624084050
sq,41.0866397857666,51.3381923675537,-161.84998802484628,-144.75201692385764,624100717
sq,38.5254234313965,48.9298576354981,-174.98983588761052,-148.38716427035,624117384
sq,35.8034461975098,46.5951770782471,-186.69453608774097,-154.9605917665766,624134051
sq,32.8886169433594,44.1538356781006,-196.25255775469378,-162.99360952923212,624150718
sq,29.689134979248,41.4523929595947,-203.1485856887465,-170.99857708050422,624167385
sq,26.4131034851074,38.5287403106689,-207.04461438463804,-177.77892513022277,624184052
sq,23.167650604248,35.5588935852051,-207.7652296715126,-182.6119724869374,624200719
sq,19.7994979858398,32.6818183898926,-205.27872676497947,-185.289848534508,624217386
sq,16.4160026550293,29.779337310791,-199.66711637168683,-186.03102161006447,624234053
sq,13.0810264587402,26.7685569763184,-191.08461907550782,-185.30412970357983,624250720
sq,10.1713851928711,23.8154357910156,-179.7182344942049,-183.61765355178738,624267387
sq,7.59548797607422,20.9877952575684,-165.77889081539192,-181.32716411856077,624284054
sq,5.05655517578125,18.1350234985352,-149.54930388254746,-178.5031259763538,624300721
sq,2.61011352539062,15.2736343383789,-131.4835749700351,-174.88832755139498,624317388
sq,0.280233764648438,12.4888137817383,-112.3083957845281,-169.9561277785625,624334055
sq,-1.84861145019531,9.90847244262695,-93.05002876290351,-163.06242710204071,624350722
sq,-3.50904998779297,7.43728866577148,-74.92988219545457,-153.6658005317894,624367389
sq,-4.64019927978516,4.87044372558594,-59.13083075042497,-141.5679277198243,624384056
sq,-5.34983978271484,2.3708251953125,-46.505708227295685,-127.10415848706222,624400723
sq,-5.79231414794922,0.1254638671875,-37.33962641784521,-111.20847208684974,624417390
sq,-6.18929443359375,-1.78399047851563,-31.2656346726877,-95.30362547958349,624434057
sq,-6.64319763183594,-3.32254180908203,-27.374451425499647,-81.02207569441495,624450724
sq,-7.21639404296875,-4.51035461425781,-24.482885975949408,-69.82363139653467,624467391
sq,-7.76458129882812,-5.43693695068359,-21.466975540606505,-62.616077888584925,624484058
sq,-8.2976318359375,-6.23787841796875,-17.54722960080273,-59.48999783889929,624500725
sq,-8.7639404296875,-7.05241546630859,-12.436987556441727,-59.648002283611646,624517392
sq,-9.020654296875,-7.99266967773437,-6.317306257535842,-61.55378026083417,624534059
