Label,Left_Hip_q,Right_Hip_q,Left_Hip_qd,Right_Hip_qd,SampleTimeFine
sts,-88.2483367919921,-84.3233566284179,2.2765474319458,8.33143711090087,1223255555
sts,-88.2041931152343,-84.3670959472656,1.0713511768209556,6.1213144358124785,1223272222
sts,-88.1612243652343,-84.4262084960937,1.368781657656868,4.252622094718437,1223288889
sts,-88.1188278198242,-84.4818954467773,1.6128408067290478,2.5989526179152143,1223305556
sts,-88.1066970825195,-84.5389785766601,1.750682566861412,1.31748486311585,1223322223
sts,-88.0795974731445,-84.5973510742187,1.736349417354368,0.4654481370265262,1223338890
sts,-88.059829711914,-84.6250991821289,1.5363281939428186,-0.007923555351572475,1223355557
sts,-88.042854309082,-84.6024322509765,1.1374300868305542,-0.2360851322925202,1223372224
sts,-87.9824905395507,-84.5484237670898,0.5560153894044144,-0.3869946981261641,1223388891
sts,-87.9215240478515,-84.507095336914,-0.15510855339854568,-0.6087731059656323,1223405558
sts,-87.8621978759765,-84.4993591308593,-0.9076246195436114,-0.986672885978514,1223422225
sts,-87.8744049072265,-84.5104522705078,-1.5907684459758114,-1.5244158516545587,1223438892
sts,-87.9238739013671,-84.5100631713867,-2.0957029208034608,-2.1544344913672773,1223455559
sts,-87.9537811279296,-84.4736328125,-2.3437938163720244,-2.7711541494576166,1223472226
sts,-87.9532089233398,-84.430923461914,-2.3080095173936632,-3.2730458681645747,1223488893
sts,-87.9613571166992,-84.4244842529296,-2.019440890589866,-3.597165198355392,1223505560
sts,-87.9596252441406,-84.4382400512695,-1.5578872232199446,-3.736000685414873,1223522227
sts,-87.9587707519531,-84.4392013549804,-1.031730396466185,-3.7368354338345218,1223538894
sts,-87.9666442871093,-84.41015625,-0.5546833734773639,-3.6909814533003615,1223555561
sts,-87.9478683471679,-84.3527069091796,-0.22567121142448401,-3.719598493997013,1223572228
sts,-87.9080047607421,-84.2907180786132,-0.11534263712754135,-3.9570109554406714,1223588895
sts,-87.8745956420898,-84.2497787475586,-0.26057553627145486,-4.528466142602932,1223605562
sts,-87.8465042114257,-84.2482376098632,-0.6671192860545967,-5.5216027223733,1223622229
sts,-87.8555221557617,-84.2671432495117,-1.319006305954839,-6.95780559860391,1223638896
sts,-87.8708190917968,-84.2920227050781,-2.1909635911152407,-8.775398875799086,1223655563
sts,-87.8960647583007,-84.28759765625,-3.258114637719608,-10.836249498824838,1223672230
sts,-87.9018402099609,-84.2416687011718,-4.497941258772643,-12.95945222445197,1223688897
sts,-87.929817199707,-84.147232055664,-5.883411810907534,-14.973172653221841,1223705564
sts,-88.0108184814453,-83.9982833862304,-7.371345433069138,-16.764663218488494,1223722231
sts,-88.0824584960937,-83.771499633789,-8.893199488133604,-18.305783267355114,1223738898
sts,-88.1337661743164,-83.4908447265625,-10.35493637149864,-19.63993328919374,1223755565
sts,-88.1959381103515,-83.2101669311523,-11.649361624026346,-20.83273662928879,1223772232
sts,-88.2602157592773,-82.9509353637695,-12.67966272367651,-21.90592415917889,1223788899
sts,-88.2953262329101,-82.7106475830078,-13.387564987542536,-22.784674821901714,1223805566
sts,-88.310317993164,-82.5315551757812,-13.775361651337397,-23.287617463817742,1223822233
sts,-88.3416442871093,-82.3484497070312,-13.911029633974296,-23.17292256039119,1223838900
sts,-88.3869934082031,-82.0831909179687,-13.911065373197337,-22.226899474013287,1223855567
sts,-88.4087371826171,-81.8125,-13.904835271952596,-20.356184416799326,1223872234
sts,-88.3826293945312,-81.5596847534179,-13.993433712171862,-17.638446125547503,1223888901
sts,-88.310317993164,-81.374038696289,-14.220841906209166,-14.307720168412494,1223905568
sts,-88.1540069580078,-81.3156585693359,-14.571862521230162,-10.687280185480041,1223922235
sts,-87.9219970703125,-81.3484725952148,-14.99977512540391,-7.110770006595675,1223938902
sts,-87.6372756958007,-81.4187469482421,-15.472228633007575,-3.8733726840958322,1223955569
sts,-87.3450927734375,-81.4644088745117,-16.014618521999584,-1.2306964590547205,1223972236
sts,-87.0439529418945,-81.4728775024414,-16.73115011391173,0.5690090690330638,1223988903
sts,-86.6848373413086,-81.502456665039,-17.793353893827348,1.2539186296088796,1224005570
sts,-86.2852172851562,-81.5930023193359,-19.397963256496674,0.5311126356222015,1224022237
sts,-85.890625,-81.6913986206054,-21.706254506828724,-1.8676375037165809,1224038904
sts,-85.5050354003906,-81.7317352294921,-24.784546191886136,-6.114869844155867,1224055571
sts,-85.0948791503906,-81.6537628173828,-28.56982531515263,-12.226145165885596,1224072238
sts,-84.6146087646484,-81.3793792724609,-32.88092764128278,-20.039240298287233,1224088905
sts,-84.0005340576171,-80.8938598632812,-37.47992035265875,-29.24257832237495,1224105572
sts,-83.2200546264648,-80.2258148193359,-42.163700948172405,-39.43587387473498,1224122239
sts,-82.355224609375,-79.4081420898437,-46.8453984403445,-50.19223285943747,1224138906
sts,-81.443244934082,-78.506477355957,-51.583642300058386,-61.09662243070519,1224155573
sts,-80.4380950927734,-77.4766845703125,-56.539595738703845,-71.75558269305131,1224172240
sts,-79.3488540649414,-76.223762512207,-61.876099372812895,-81.79380523022598,1224188907
sts,-78.1375122070312,-74.6726684570312,-67.64178197454395,-90.8616926955258,1224205574
sts,-76.8248443603515,-72.9098663330078,-73.69188340197174,-98.66945044572344,1224222241
sts,-75.3988571166992,-70.9125137329101,-79.68436993761144,-105.04346784347094,1224238908
sts,-73.7793197631836,-68.7695693969726,-85.1610083721786,-109.98154974324939,1224255575
sts,-72.0232849121093,-66.5916519165039,-89.68893648645575,-113.67568470737888,1224272242
sts,-70.1548309326171,-64.3590927124023,-93.01159274566542,-116.47967597907271,1224288909
sts,-68.3195037841796,-62.0832443237304,-95.15052671727324,-118.82153276319886,1224305576
sts,-66.450698852539,-59.7438926696777,-96.41645756241716,-121.08639388721305,1224322243
sts,-64.6668090820312,-57.3946113586425,-97.32237755270899,-123.51134640121624,1224338910
sts,-62.7990608215332,-55.0143165588378,-98.42846685833257,-126.13063076278027,1224355577
sts,-60.8846282958984,-52.5295333862304,-100.17253885352204,-128.78960722878566,1224372244
sts,-58.8933944702148,-50.0620498657226,-102.74164328447085,-131.2173312582,1224388911
sts,-56.8325653076171,-47.7812538146972,-106.02171646677012,-133.124086196381,1224405578
sts,-54.7630958557128,-45.5876884460449,-109.63358669310537,-134.28472149460092,1224422245
sts,-52.6238212585449,-43.3611106872558,-113.0382132059653,-134.58388536565909,1224438912
sts,-50.3856544494628,-41.0757675170898,-115.67870405292213,-134.02255994098869,1224455579
sts,-48.1211357116699,-38.8421974182128,-117.12096347929567,-132.699541334195,1224472246
sts,-45.8607025146484,-36.6183280944824,-117.15650699714706,-130.7815184334517,1224488913
sts,-43.6371383666992,-34.4958152770996,-115.84036549802973,-128.46921595462956,1224505580
sts,-41.5474815368652,-32.373046875,-113.45504724971147,-125.9630818699458,1224522247
sts,-39.5976409912109,-30.1664333343505,-110.41558375336865,-123.43135122525013,1224538914
sts,-37.6517143249511,-28.1077442169189,-107.15254270130337,-120.98385358227382,1224555581
sts,-35.5851440429687,-26.1959571838378,-104.01747884052409,-118.65664695553329,1224572248
sts,-33.3767127990722,-24.2165393829345,-101.24018341377149,-116.41544810124036,1224588915
sts,-31.2030391693115,-22.0907344818115,-98.93538391953322,-114.18474150648925,1224605582
sts,-29.2483329772949,-19.9537525177001,-97.13002998798726,-111.89858051386676,1224622249
sts,-27.4023170471191,-17.9287929534912,-95.781594879167,-109.5535228243246,1224638916
sts,-25.4670066833496,-15.9937782287597,-94.78171305540505,-107.23862219823387,1224655583
sts,-23.4556121826171,-14.1291627883911,-93.964674296409,-105.1293917182316,1224672250
sts,-21.3880519866943,-12.1680650711059,-93.1439940189964,-103.45281580769581,1224688917
sts,-19.2232093811035,-10.0789098739624,-92.18027607273478,-102.44289171173969,1224705584
sts,-16.9612922668457,-7.87523317337036,-91.05620611076577,-102.30312261012101,1224722251
sts,-14.7334794998168,-5.57398748397827,-89.9191704613868,-103.17817609071533,1224738918
sts,-12.563735961914,-3.29875040054321,-89.05929199987048,-105.12294833730107,1224755585
sts,-10.3697118759155,-1.12115228176116,-88.81739064682351,-108.05561337170049,1224772252
sts,-8.10833072662353,1.08447849750518,-89.44822508742766,-111.69666896254417,1224788919
sts,-5.82489967346191,3.55120468139648,-90.9827419276113,-115.51809518433642,1224805586
sts,-3.42263317108154,6.28138589859008,-93.13255155365493,-118.73459358492065,1224822253
sts,-0.909558057785034,8.83235549926757,-95.26478528366843,-120.35255138901367,1224838920
sts,1.5368435382843,11.1306571960449,-96.45430328463974,-119.26739471979775,1224855587
sts,3.87520551681518,13.2523221969604,-95.60191258981422,-114.39033574789227,1224872254
sts,6.09449958801269,15.3538045883178,-91.59845642482645,-104.7934187003883,1224888921
sts,8.06602573394775,17.3788032531738,-83.5140731132239,-89.8661334411952,1224905588
sts,9.80896472930908,18.7815647125244,-70.79052003299543,-69.4638691353211,1224922255
sts,11.2683744430542,19.400972366333,-53.40519260395984,-44.01197712425955,1224938922
sts,12.108094215393,19.3526096343994,-31.963249258508963,-14.532137266649595,1224955589
sts,12.2869892120361,18.9311943054199,-7.67462522931008,17.419916543171162,1224972256
sts,11.8885517120361,17.9869346618652,17.802561654786068,49.89717313719768,1224988923
sts,10.7745037078857,16.3677768707275,42.628373458519064,80.77354326889606,1225005590
sts,9.13792037963867,14.1001577377319,65.09522788811225,108.01321705306883,1225022257
sts,7.06576871871948,11.2195711135864,83.91236465118115,129.96636553564682,1225038924
sts,4.60242986679077,8.03512191772461,98.39317372220547,145.63005339743685,1225055591
sts,1.87875473499298,4.75197553634643,108.50562059504973,154.7990704445439,1225072258
sts,-0.935342013835907,1.55551648139953,114.78131215008601,158.05504672119758,1225088925
sts,-3.80413842201232,-1.5946477651596,118.11416148894578,156.5969696389396,1225105592
sts,-6.71652030944824,-4.6738429069519,119.50755421859971,151.971172089477,1225122259
sts,-9.60004520416259,-7.72600364685058,119.84033916624426,145.78313681676514,1225138926
sts,-12.4576759338378,-10.7076606750488,119.71178797827537,139.45850808355252,1225155593
sts,-15.225302696228,-13.5328207015991,119.39788287322382,134.08328314861177,1225172260
sts,-17.9629192352294,-16.1130867004394,118.915930918723,130.32013667171447,1225188927
sts,-20.6395015716552,-18.5371799468994,118.1619234469962,128.38642872928304,1225205594
sts,-23.2827110290527,-20.911376953125,117.0641439563949,128.08674249010087,1225222261
sts,-25.8322315216064,-23.2673931121826,115.69407125292696,128.90171142591453,1225238928
sts,-28.2275314331054,-25.6203899383544,114.29375240814868,130.13112993545462,1225255595
sts,-30.4580516815185,-28.063491821289,113.21260217502241,131.07276590832402,1225272262
sts,-32.6263084411621,-30.5339946746826,112.7839004213892,131.19977770129066,1225288929
sts,-34.8583946228027,-32.9175453186035,113.19585195298667,130.29143778992054,1225305596
sts,-37.1771621704101,-35.2440643310546,114.41151391464352,128.48090109527024,1225322263
sts,-39.545108795166,-37.5144805908203,116.16700584032453,126.20795777592896,1225338930
sts,-41.8997993469238,-39.6555519104003,118.043118994898,124.09351067537908,1225355597
sts,-44.2344741821289,-41.7507019042968,119.57976019391401,122.77387969193514,1225372264
sts,-46.55952835083,-43.9538650512695,120.39459402927405,122.74054369654264,1225388931
sts,-48.8836669921875,-46.3270225524902,120.27451822236583,124.22426153237438,1225405598
sts,-51.1920089721679,-48.7357215881347,119.22348808000226,127.14573893893355,1225422265
sts,-53.5193214416503,-51.1888809204101,117.46485110147542,131.13595481159288,1225438932
sts,-55.8292541503906,-53.7402305603027,115.40497091264149,135.61504127235932,1225455599
sts,-58.1639022827148,-56.3758583068847,113.56552127882237,139.90989001990394,1225472266
sts,-60.5167198181152,-58.9443473815918,112.48797743198396,143.38436081308566,1225488933
sts,-62.8381767272949,-61.520450592041,112.61335238790463,145.55274309191242,1225505600
sts,-65.1225204467773,-64.082763671875,114.14942218915347,146.15074417542309,1225522267
sts,-67.4198989868164,-66.5441436767578,116.95422913813148,145.1491521500447,1225538934
sts,-69.7586517333984,-68.9902038574218,120.47631665370686,142.70968956550456,1225555601
sts,-72.2341918945312,-71.2613830566406,123.78588430088435,139.096538173517,1225572268
sts,-74.7006454467773,-73.3770751953125,125.70570231471049,134.56773871033968,1225588935
sts,-77.0370101928711,-75.5711364746093,125.0195936188757,129.275425566766,1225605602
sts,-79.2834243774414,-77.5415420532226,120.71582136769534,123.20124009512683,1225622269
sts,-81.4461593627929,-79.4693145751953,112.21772311749763,116.14566112122888,1225638936
sts,-83.4757690429687,-81.2474746704101,99.55688099899899,107.7812792976789,1225655603
sts,-85.2511672973632,-82.4843292236328,83.4472926417647,97.76885564188731,1225672270
sts,-86.4431762695312,-83.156623840332,65.22494783903838,85.91611343706754,1225688937
sts,-86.8065948486328,-83.2815170288086,46.63679552096862,72.33511041919881,1225705604
sts,-86.657485961914,-83.0528182983398,29.50410415473622,57.5388809041819,1225722271
sts,-86.3554611206054,-82.6745376586914,15.339178065826484,42.426398786751726,1225738938
sts,-86.2138519287109,-82.5726852416992,5.032294446724285,28.138179392469922,1225755605
sts,-86.3682708740234,-82.9251327514648,-1.2854448783730816,15.80934122619073,1225772272
sts,-86.669692993164,-83.3129959106445,-4.164220073383904,6.286005132500653,1225788939
sts,-86.9245147705078,-83.536865234375,-4.590911139267559,-0.10584805660408855,1225805606
sts,-87.0383911132812,-83.485610961914,-3.6834244153847573,-3.6524656189826232,1225822273
sts,-87.0616226196289,-83.40673828125,-2.4295001336223865,-5.157971822189795,1225838940
sts,-87.0464706420898,-83.4328689575195,-1.5310774637674318,-5.686605608391393,1225855607
sts,-87.0538330078125,-83.4992294311523,-1.3603525007724604,-6.23465208259982,1225872274
sts,-87.0769805908203,-83.5859603881836,-1.9966505224244209,-7.4560413701888955,1225888941
sts,-87.0421600341796,-83.7058944702148,-3.303631565395912,-9.538880619012035,1225905608
sts,-86.9637145996093,-83.77001953125,-5.016706354424093,-12.260082931233978,1225922275
sts,-86.8655624389648,-83.7790298461914,-6.826400187660056,-15.169736301809088,1225938942
sts,-86.7796096801757,-83.7982559204101,-8.453516541394594,-17.81435565701945,1225955609
sts,-86.7069931030273,-83.8500900268554,-9.713179183611262,-19.91377260559968,1225972276
sts,-86.6361770629882,-83.8606185913086,-10.56101540131137,-21.445905524476043,1225988943
sts,-86.4815902709961,-83.8587341308593,-11.112254823659619,-22.63907233664809,1226005610
sts,-86.2489700317382,-83.8591537475586,-11.627334005029617,-23.901734829369342,1226022277
sts,-86.0191192626953,-83.8161697387695,-12.465210873277782,-25.728510463457575,1226038944
sts,-85.8501281738281,-83.688232421875,-14.015104136413873,-28.613244606233323,1226055611
sts,-85.7028579711914,-83.5023727416992,-16.625462572841656,-32.982983484365185,1226072278
sts,-85.474983215332,-83.214241027832,-20.551067632028186,-39.150164968027944,1226088945
sts,-85.1202239990234,-82.7199935913086,-25.9310289003529,-47.272299131091266,1226105612
sts,-84.5953903198242,-81.8847274780273,-32.794164599146406,-57.31097077118427,1226122279
sts,-83.8844528198242,-80.8545761108398,-41.07413027714233,-68.99114578738343,1226138946
sts,-82.9796829223632,-79.7565612792968,-50.614938980508306,-81.77350651283263,1226155613
sts,-81.9589004516601,-78.54296875,-61.15913299611003,-94.86478835480115,1226172280
sts,-80.7892837524414,-77.0086135864257,-72.32759483264454,-107.29655934213092,1226188947
sts,-79.4792022705078,-75.1365661621093,-83.61210970404929,-118.0880788915655,1226205614
sts,-77.9887924194336,-72.8696823120117,-94.40363270100637,-126.46939795303325,1226222281
sts,-76.1718368530273,-70.2425308227539,-104.06896337874754,-132.09511360269653,1226238948
sts,-74.0737228393554,-67.6061553955078,-112.06736787677364,-135.1590853919831,1226255615
sts,-71.7635498046875,-65.17626953125,-118.07353507989001,-136.34657575465286,1226272282
sts,-69.3614349365234,-62.5825233459472,-122.05821048634975,-136.62456116902263,1226288949
sts,-66.9584732055664,-59.9439125061035,-124.2861699161125,-136.93971590410183,1226305616
sts,-64.6037902832031,-57.6237182617187,-125.22263018435854,-137.93103588538025,1226322283
sts,-62.2615547180175,-55.2069587707519,-125.37803049199233,-139.75697326659,1226338950
sts,-59.9452171325683,-52.6472358703613,-125.14817755436826,-142.09464112809928,1226355617
sts,-57.6673202514648,-49.8381576538085,-124.71119183619108,-144.30646009179765,1226372284
sts,-55.1766471862793,-46.9668388366699,-124.02282321878289,-145.70540146981003,1226388951
sts,-52.5730819702148,-44.154052734375,-122.9117340635425,-145.80979956589547,1226405618
sts,-50.0194358825683,-41.6924362182617,-121.22949110969142,-144.48646948642894,1226422285
sts,-47.7402648925781,-39.5818977355957,-118.9804976291394,-141.9374805437365,1226438952
sts,-45.7659339904785,-37.5435409545898,-116.36651887510641,-138.56263036421308,1226455619
sts,-43.732006072998,-35.3461151123046,-113.7263862574059,-134.78330309807973,1226472286
sts,-41.6865882873535,-33.0558357238769,-111.40494546188953,-130.91451364190345,1226488953
sts,-39.623176574707,-30.6645374298095,-109.61463723826701,-127.12640956753876,1226505620
sts,-37.561107635498,-28.4338150024414,-108.34853948454342,-123.48035340180624,1226522287
sts,-35.4470558166503,-26.4428958892822,-107.37715567260275,-119.99432113874151,1226538954
sts,-33.223087310791,-24.4229831695556,-106.32830121299843,-116.69776943007398,1226555621
sts,-30.9269294738769,-22.2841300964355,-104.81985796414575,-113.65979937075232,1226572288
sts,-28.6820926666259,-20.2024364471435,-102.59689468540516,-110.99260166799225,1226588955
sts,-26.5946464538574,-18.3016281127929,-99.62560699652855,-108.8369940264826,1226605622
sts,-24.5068035125732,-16.3919086456298,-96.11732692815016,-107.33708438245519,1226622289
sts,-22.448408126831,-14.2787265777587,-92.48479542036685,-106.61356195130932,1226638956
sts,-20.3256435394287,-12.1061305999755,-89.25341014159946,-106.74525265110395,1226655623
sts,-18.1125106811523,-9.85875511169433,-86.95398385140889,-107.76121659584757,1226672290
sts,-15.7737207412719,-7.37333869934082,-86.0152457998232,-109.6347563274588,1226688957
sts,-13.4071502685546,-4.7496109008789,-86.6647416851567,-112.26378395241036,1226705624
sts,-10.9544095993042,-2.23847818374633,-88.84412232118268,-115.42381045961037,1226722291
sts,-8.51567935943603,0.322368741035461,-92.14958894019398,-118.69300447636954,1226738958
sts,-6.04857444763183,2.94351649284362,-95.81440238170904,-121.37089188031253,1226755625
sts,-3.52497172355651,5.51401329040527,-98.751121790727,-122.43187393449286,1226772292
sts,-1.03485906124115,7.92159986495971,-99.66404985583182,-120.55926781811463,1226788959
sts,1.38509058952331,10.1795406341552,-97.22859585029867,-114.29162164009719,1226805626
sts,3.7317771911621,12.4323272705078,-90.31679033212794,-102.2831945045887,1226822293
sts,5.83812808990478,14.4067811965942,-78.23037093741854,-83.63774124583215,1226838960
sts,7.47787809371948,15.8662738800048,-60.88987524675232,-58.22998744446584,1226855627
sts,8.42603302001953,16.2746543884277,-38.92785060385505,-26.907314055717833,1226872294
sts,8.70806312561035,15.8408908843994,-13.652366050164703,8.51183554359862,1226888961
sts,8.35987663269043,14.716040611267,13.120956836016932,45.46130215161726,1226905628
sts,7.45305633544921,12.9848623275756,39.33843281711597,81.01956628321945,1226922295
sts,5.94938659667968,10.7192287445068,63.02978229620336,112.3764410979299,1226938962
sts,3.84963631629943,7.97069931030273,82.62438780116175,137.27509643251682,1226955629
sts,1.260871052742,4.811607837677,97.20231477237871,154.3480633864056,1226972296
sts,-1.46227526664733,1.36067163944244,106.62188452936563,163.28949112627427,1226988963
sts,-4.23588037490844,-2.06050467491149,111.48286141541232,164.8330358106798,1227005630
sts,-7.02302551269531,-5.32540225982666,112.92521218168851,160.54069582788526,1227022297
sts,-9.77798748016357,-8.39716815948486,112.31707919737109,152.45151102463544,1227038964
sts,-12.4877643585205,-11.3139686584472,110.92523093462295,142.6760202206523,1227055631
sts,-15.235068321228,-14.1037273406982,109.66455152805017,133.03433363741823,1227072298
sts,-17.9965343475341,-16.8068008422851,108.98839459038814,124.81563099429721,1227088965
sts,-20.689790725708,-19.3591976165771,108.92698849780592,118.69456282789857,1227105632
sts,-23.327049255371,-21.8429622650146,109.2322429462556,114.79354840484122,1227122299
sts,-25.9156112670898,-24.25510597229,109.56257361972425,112.8445945688782,1227138966
sts,-28.4057083129882,-26.6223526000976,109.64362035790808,112.38753865440772,1227155633
sts,-30.7357177734375,-28.9192333221435,109.36187337519516,112.94480060870052,1227172300
sts,-32.9191932678222,-31.1897277832031,108.7781644390519,114.13277039534621,1227188967
sts,-35.0504150390625,-33.4386100769043,108.07751963755571,115.6992879352046,1227205634
sts,-37.2857208251953,-35.6906433105468,107.49127065067977,117.50409931568828,1227222301
sts,-39.6177062988281,-37.9571990966796,107.22889389092973,119.47439262594406,1227238968
sts,-41.9111328125,-40.2944793701171,107.44158193094434,121.5663255401272,1227255635
sts,-44.2176437377929,-42.6727256774902,108.21790571200077,123.74960282814618,1227272302
sts,-46.5852241516113,-45.0368881225585,109.59698141161414,126.0148604273656,1227288969
sts,-48.8811988830566,-47.4043807983398,111.58166711345014,128.39212228499287,1227305636
sts,-51.2167053222656,-49.7627792358398,114.1406414328146,130.96669274642682,1227322303
sts,-53.5424308776855,-52.1447563171386,117.19807294705518,133.88302777476525,1227338970
sts,-55.8225212097168,-54.6198348999023,120.61770298234508,137.33033990282206,1227355637
sts,-58.1975440979003,-57.2744598388671,124.19101292090214,141.50195132328565,1227372304
sts,-60.6608238220214,-59.9271087646484,127.6363431351774,146.51772159141728,1227388971
sts,-63.2624549865722,-62.4799537658691,130.60994739992225,152.30587911315143,1227405638
sts,-65.9335632324218,-64.9522552490234,132.72482917752097,158.4643042505641,1227422305
sts,-68.6313552856445,-67.4401168823242,133.57186544770178,164.15339028293866,1227438972
sts,-71.1979904174804,-69.9168395996093,132.7408712890798,168.09115811831018,1227455639
sts,-73.59130859375,-72.315689086914,129.84519609902978,168.7071597121104,1227472306
sts,-75.8501968383789,-75.0450820922851,124.55882458825525,164.46130195383634,1227488973
sts,-77.8377532958984,-77.7688903808593,116.6751824135308,154.26115879318743,1227505640
sts,-79.7664947509765,-80.1817779541015,106.1878609762412,137.84855414988496,1227522307
sts,-81.6554336547851,-82.252456665039,93.37578106807803,116.0146993726587,1227538974
sts,-83.4371490478515,-83.7833786010742,78.8570141278736,90.56196126205815,1227555641
sts,-84.8017120361328,-84.4063415527343,63.569400731953294,64.0248943294206,1227572308
sts,-85.3383483886718,-83.7378463745117,48.650480800450616,39.22837358902541,1227588975
sts,-85.1752090454101,-82.4312515258789,35.22211222283463,18.770863402024336,1227605642
sts,-84.6167526245117,-81.2865295410156,24.128973338203824,4.51599462074174,1227622309
sts,-84.1514205932617,-81.4432830810546,15.722129125173042,-2.8053595457053033,1227638976
sts,-84.2776260375976,-82.8031768798828,9.791524402060766,-3.763338101558497,1227655643
sts,-84.840835571289,-83.8249588012695,5.703588504147309,-0.08557204789398118,1227672310
sts,-85.289192199707,-83.8831405639648,2.698283025539203,5.786431817019237,1227688977
sts,-85.4538650512695,-83.4606704711914,0.20474941440574412,11.325725874487528,1227705644
sts,-85.4889831542968,-82.8940048217773,-1.9825405932285316,14.550585827643197,1227722311
sts,-85.534065246582,-82.5038604736328,-3.7455561984488708,14.46738558660391,1227738978
sts,-85.5630187988281,-82.5494995117187,-4.854496800479164,11.194126710730792,1227755645
sts,-85.6455383300781,-82.9335632324218,-5.209633538737692,5.742780390440429,1227772312
sts,-85.7814636230468,-83.3009796142578,-4.9691242509015074,-0.44025078063441664,1227788979
sts,-85.9162063598632,-83.3625717163086,-4.496682630478494,-5.995712116033307,1227805646
sts,-85.9079666137695,-83.2196578979492,-4.170513969403098,-10.051500693462003,1227822313
sts,-85.755126953125,-83.12060546875,-4.170885957603522,-12.3870282584279,1227838980
sts,-85.6509323120117,-83.0888290405273,-4.370634849845047,-13.35109815049487,1227855647
sts,-85.6408615112304,-83.0445556640625,-4.393120153296888,-13.6120661794555,1227872314
sts,-85.7051773071289,-83.0045623779296,-3.8144172761256194,-13.865151840616399,1227888981
sts,-85.7897415161132,-83.0118560791015,-2.4199570017410243,-14.616111535305409,1227905648
sts,-85.9039916992187,-83.083267211914,-0.40742365257927415,-16.111474718872138,1227922315
sts,-86.0280303955078,-83.1731185913086,1.5468086442929243,-18.41473825576149,1227938982
sts,-86.0746002197265,-83.1942138671875,2.3909825939034524,-21.564070202947757,1227955649
sts,-86.0594177246093,-83.1092910766601,0.9494959870108923,-25.715141579648353,1227972316
sts,-85.9408340454101,-82.9048919677734,-3.7461173856274677,-31.184151962569615,1227988983
sts,-85.6914825439453,-82.6378555297851,-12.145071383559555,-38.355395888462525,1228005650
sts,-85.3556518554687,-82.3224334716796,-23.984009609169,-47.48447462466715,1228022317
sts,-84.9206314086914,-81.9025344848632,-38.28065393671125,-58.48410608257273,1228038984
sts,-84.3283615112304,-81.2409896850586,-53.525331894982585,-70.7983678836637,1228055651
sts,-83.476821899414,-80.2169647216796,-68.01956778539528,-83.44113876774185,1228072318
sts,-82.2586135864257,-78.8651657104492,-80.26614053415231,-95.20613082851084,1228088985
sts,-80.622314453125,-77.1442565917968,-89.29878247647748,-104.98050484726484,1228105652
sts,-78.8675308227539,-75.1394424438476,-94.8561043726892,-112.04762588841506,1228122319
sts,-77.2100982666015,-73.03662109375,-97.35369610511249,-116.26779892905523,1228138986
sts,-75.5477523803711,-70.8625183105468,-97.67953042995738,-118.07527227752662,1228155653
sts,-73.8004150390625,-68.5907897949218,-96.90054852190214,-118.30206236268931,1228172320
sts,-71.9403915405273,-66.2005996704101,-95.9880548100417,-117.90226989108503,1228188987
sts,-69.961441040039,-63.9443283081054,-95.63717803614584,-117.67822039304232,1228205654
sts,-67.784927368164,-61.7741088867187,-96.1974467418101,-118.09457213287033,1228222321
sts,-65.7326583862304,-59.6599693298339,-97.68691102938728,-119.22249764010279,1228238988
sts,-63.7037467956543,-57.4842796325683,-99.853685105572,-120.80726993200314,1228255655
sts,-61.5225830078125,-55.22017288208,-102.26769789889877,-122.41813996555061,1228272322
sts,-59.2749443054199,-52.8922119140625,-104.44135878183177,-123.62538555046633,1228288989
sts,-57.0299530029296,-50.4295310974121,-105.96767859460195,-124.1511147811888,1228305656
sts,-54.972728729248,-48.1519546508789,-106.63772893927883,-123.95093667607955,1228322323
sts,-53.1947135925293,-46.1437721252441,-106.48903670375718,-123.20172342201285,1228338990
sts,-51.4511756896972,-44.3829650878906,-105.76219680193188,-122.19944356072696,1228355657
sts,-49.604393005371,-42.7505836486816,-104.7891389572731,-121.20750084187365,1228372324
sts,-47.6061515808105,-40.9859161376953,-103.86802854224501,-120.32415539423998,1228388991
sts,-45.5761184692382,-38.8887939453125,-103.17607734984566,-119.43592800109087,1228405658
sts,-43.6755790710449,-36.5568351745605,-102.74290056015533,-118.28402644192091,1228422325
sts,-41.6902236938476,-34.3332176208496,-102.47861304520012,-116.61097447051631,1228438992
sts,-39.585521697998,-32.2730484008789,-102.23577609854286,-114.31176139405333,1228455659
sts,-37.4317626953125,-30.2610244750976,-101.87842794967764,-111.51544432218967,1228472326
sts,-35.4028892517089,-28.2372951507568,-101.33022431236529,-108.56392787385967,1228488993
sts,-33.5492057800293,-26.2981166839599,-100.58249694282932,-105.90450363749373,1228505660
sts,-31.7536907196044,-24.5088710784912,-99.6653817758984,-103.94574892836664,1228522327
sts,-29.8841094970703,-22.7322673797607,-98.60935350739253,-102.93591427690141,1228538994
sts,-27.9246883392334,-20.797061920166,-97.43078281295473,-102.91204270755806,1228555661
sts,-25.8879718780517,-18.6685943603515,-96.15622777589495,-103.73880574657225,1228572328
sts,-23.7661018371582,-16.4034271240234,-94.86960929388367,-105.21425133204455,1228588995
sts,-21.7045211791992,-14.0829992294311,-93.7458510860741,-107.1827754878201,1228605662
sts,-19.6641120910644,-11.7847824096679,-93.03615397419661,-109.58585934439697,1228622329
sts,-17.6472930908203,-9.58735752105712,-92.99110180555637,-112.40845936279094,1228638996
sts,-15.5861301422119,-7.34108829498291,-93.7367102507881,-115.53204960843331,1228655663
sts,-13.3985548019409,-4.97382497787475,-95.14244416526098,-118.55746234286312,1228672330
sts,-11.0864706039428,-2.3791708946228,-96.72944720960045,-120.68433506526462,1228688997
sts,-8.6570177078247,0.347100406885147,-97.65834060977988,-120.71601801943949,1228705664
sts,-6.30010271072387,3.05586123466491,-96.81376476323494,-117.20946139197977,1228722331
sts,-3.91975378990173,5.41551923751831,-92.97767428283825,-108.737083024478,1228738998
sts,-1.59415328502655,7.36736249923706,-85.06321417752892,-94.19748601378174,1228755665
sts,0.53242427110672,9.08303642272949,-72.36641928552862,-73.10750193293332,1228772332
sts,2.32294845581054,10.3227567672729,-54.78203697728096,-45.813684419678765,1228788999
sts,3.53650093078613,10.8033943176269,-32.92578468620345,-13.566996063543797,1228805666
sts,4.01885795593261,10.3363409042358,-8.11626427312701,21.579759410698784,1228822333
sts,3.77527356147766,9.02885913848877,17.800496471870538,57.052710163625825,1228839000
sts,2.72995662689209,6.97716331481933,42.75865422709639,90.1619652226633,1228855667
sts,0.895192563533783,4.23148727416992,64.84645805384571,118.53437385884614,1228872334
sts,-1.50884532928466,1.05387818813323,82.65621310104724,140.46933575841894,1228889001
sts,-4.26301288604736,-2.291925907135,95.5220746206281,155.14153071846587,1228905668
sts,-7.23354530334472,-5.77729558944702,103.58824772525239,162.62544450124562,1228922335
sts,-10.3145532608032,-9.32657051086425,107.70013938063106,163.76841499129944,1228939002
sts,-13.4878425598144,-12.8676996231079,109.16013909246476,159.9706882688244,1228955669
sts,-16.5876445770263,-16.254108428955,109.41961627876555,152.9335540901208,1228972336
sts,-19.5104351043701,-19.3741493225097,109.7839651240812,144.4188751101122,1228989003
sts,-22.3324279785156,-22.2192230224609,111.19372736226273,136.04334237894216,1229005670
sts,-25.1235542297363,-24.8548774719238,114.11890664485198,129.12010820970224,1229022337
sts,-27.8512210845947,-27.3828735351562,118.57059268948719,124.55737786020501,1229039004
sts,-30.541368484497,-29.8730010986328,124.20207557772223,122.8199837530075,1229055671
sts,-33.1868667602539,-32.3214721679687,130.45267309517462,123.95171635246052,1229072338
sts,-35.7043190002441,-34.77099609375,136.68910395762057,127.64626254125784,1229089005
sts,-38.2527618408203,-37.291259765625,142.31793191719956,133.34848592872382,1229105672
sts,-40.8888626098632,-39.9822921752929,146.8656013065566,140.36712754898414,1229122339
sts,-43.6890182495117,-42.8386306762695,150.0356079893967,147.98172107749596,1229139006
sts,-46.5702209472656,-45.7464561462402,151.74919119608083,155.52795412725817,1229155673
sts,-49.4221229553222,-48.7211685180664,152.16330122956694,162.4490447618161,1229172340
sts,-52.2327308654785,-51.75634765625,151.65070106958095,168.30989739463539,1229189007
sts,-55.194091796875,-54.8682212829589,150.72909976559984,172.78457142517163,1229205674
sts,-58.2607917785644,-57.9890022277832,149.93638260547397,175.63798339051482,1229222341
sts,-61.405532836914,-61.2035369873046,149.66309532899373,176.72108538045958,1229239008
sts,-64.5746688842773,-64.5160598754882,149.97303892779712,175.98252396837626,1229255675
sts,-67.6207199096679,-67.9312286376953,150.46876289875277,173.47688755076823,1229272342
sts,-70.6462249755859,-71.1381149291992,150.27735666224274,169.33778613311313,1229289009
sts,-73.5991668701171,-73.8639907836914,148.21621219668472,163.69964476637801,1229305676
sts,-76.5930633544921,-76.5892639160156,143.13072446780376,156.59208863785742,1229322343
sts,-79.1522598266601,-78.9760818481445,134.29742858185554,147.86715858126257,1229339010
sts,-81.041389465332,-80.9931869506836,121.7199813105924,137.2212899971512,1229355677
sts,-82.4169311523437,-82.6850662231445,106.17324312250531,124.33486580402854,1229372344
sts,-83.5771865844726,-83.5688858032226,88.9718983123442,109.09367267399797,1229389011
sts,-84.5318069458007,-83.692024230957,71.57884065640101,91.80891141339349,1229405678
sts,-85.0644607543945,-83.4793548583984,55.23397146846925,73.33728000507998,1229422345
sts,-85.0514144897461,-83.2565460205078,40.74492058305109,55.026372538481766,1229439012
sts,-84.6502380371093,-83.1661987304687,28.479801965652733,38.46676479424159,1229455679
sts,-84.461441040039,-83.293960571289,18.504854358915257,25.106207250407255,1229472346
sts,-84.7953414916992,-83.6316680908203,10.759496314047395,15.847796444384752,1229489013
sts,-85.331672668457,-83.7868194580078,5.169340386942824,10.779694858805392,1229505680
sts,-85.709976196289,-83.7938537597656,1.652714039552392,9.148716512635747,1229522347
sts,-85.9701232910156,-83.562759399414,0.04673551049321449,9.601487315424084,1229539014
sts,-86.0078201293945,-83.1157608032226,0.024836838396613742,10.608087913782636,1229555681
sts,-85.9514617919921,-82.7759399414062,1.0756155903980469,10.90429915530776,1229572348
sts,-85.9244613647461,-82.6508407592773,2.571215989397184,9.78560042813794,1229589015
sts,-85.8605270385742,-82.8029861450195,3.9016621310630426,7.1653598357448445,1229605682
sts,-85.7252960205078,-83.0688781738281,4.61914300894248,3.424920424899279,1229622349
sts,-85.6155090332031,-83.2843780517578,4.535784647253391,-0.8331775656964249,1229639016
sts,-85.5953140258789,-83.3507003784179,3.7429576709694756,-5.006343036232364,1229655683
sts,-85.5979843139648,-83.3777694702148,2.5521890929539377,-8.616317183017912,1229672350
sts,-85.6501693725586,-83.4014434814453,1.380975388963431,-11.33605203378491,1229689017
sts,-85.6976165771484,-83.3645782470703,0.6151656072543973,-12.966509730261679,1229705684
sts,-85.7189331054687,-83.3966674804687,0.47874321270944675,-13.421603508218473,1229722351
sts,-85.7014923095703,-83.6265563964843,0.9394436880694537,-12.759171330366792,1229739018
sts,-85.6499938964843,-83.9834060668945,1.67435983007918,-11.25678933660017,1229755685
sts,-85.6078262329101,-84.282485961914,2.108291354564788,-9.489420366541848,1229772352
sts,-85.5586929321289,-84.4690551757812,1.5193090352930585,-8.343544473436312,1229789019
sts,-85.5119247436523,-84.5140228271484,-0.8114654278958494,-8.916746476587635,1229805686
sts,-85.4406127929687,-84.4824981689453,-5.438239285902474,-12.29894520990916,1229822353
sts,-85.4269714355468,-84.4234237670898,-12.610303076088767,-19.287308714710584,1229839020
sts,-85.5090942382812,-84.3809585571289,-22.182618364840092,-30.12353933273872,1229855687
sts,-85.6127319335937,-84.4132080078125,-33.60058136299406,-44.34368561030821,1229872354
sts,-85.6629333496093,-84.4121551513671,-45.97267528351202,-60.797660503927595,1229889021
sts,-85.5435028076171,-84.1083755493164,-58.229355309009826,-77.84283836958937,1229905688
sts,-85.0757064819336,-83.3839645385742,-69.34422321272142,-93.66564168992412,1229922355
sts,-84.1500167846679,-82.239875793457,-78.5669923209929,-106.65556400762809,1229939022
sts,-82.8257598876953,-80.7008590698242,-85.5972992215597,-115.75082996204804,1229955689
sts,-81.3096847534179,-78.812515258789,-90.63109425104358,-120.68222520070648,1229972356
sts,-79.8440628051757,-76.6642684936523,-94.2496047294666,-122.05176136874232,1229989023
sts,-78.2690963745117,-74.4791183471679,-97.18666287088466,-121.20234159073011,1230005690
sts,-76.3554611206054,-72.4824905395507,-100.0694717040561,-119.87944139825677,1230022357
sts,-74.0760955810546,-70.5038681030273,-103.23995254514244,-119.757369519393,1230039024
sts,-71.7184524536132,-68.2235870361328,-106.71684751860532,-121.9711021649244,1230055691
sts,-69.3310470581054,-65.8458862304687,-110.28481442497915,-126.81340154391292,1230072358
sts,-67.0786437988281,-63.1495056152343,-113.64434995107415,-133.70193448748213,1230089025
sts,-64.9439086914062,-60.0841369628906,-116.5498606863503,-141.41561224934648,1230105692
sts,-62.7042121887207,-56.9946250915527,-118.89166954090003,-148.4975679059077,1230122359
sts,-60.4311256408691,-54.1175727844238,-120.71384810043091,-153.67312993606518,1230139026
sts,-57.992561340332,-51.3597030639648,-122.18168625333777,-156.15243914600705,1230155693
sts,-55.4678192138671,-48.6069869995117,-123.51535133053453,-155.75665290051828,1230172360
sts,-53.1871223449707,-46.0413513183593,-124.90116672760811,-152.8774383910116,1230189027
sts,-51.0782356262207,-43.5262031555175,-126.3946947532107,-148.31720970123027,1230205694
sts,-48.8874778747558,-41.0925674438476,-127.84385192214467,-143.06299783124445,1230222361
sts,-46.5117568969726,-38.8719406127929,-128.87089551604566,-138.04263346941406,1230239028
sts,-44.1839981079101,-36.8156814575195,-128.94160507562464,-133.91418109652562,1230255695
sts,-41.7528953552246,-34.6385650634765,-127.5177593690951,-130.94298654163055,1230272362
sts,-39.2802391052246,-32.1361618041992,-124.25138350107453,-129.00584116010901,1230289029
sts,-36.8471412658691,-29.687816619873,-119.15378526207586,-127.7192101545589,1230305696
sts,-34.5179481506347,-27.311502456665,-112.67057588548454,-126.6377861132817,1230322363
sts,-32.4553756713867,-24.9375267028808,-105.6218121627893,-125.44523172707554,1230339030
sts,-30.5583248138427,-22.5158214569091,-99.01885248260281,-124.07435277652733,1230355697
sts,-28.6634998321533,-20.1524658203125,-93.82291603293932,-122.73060204175614,1230372364
sts,-26.6251029968261,-17.8501300811767,-90.73323572431728,-121.82548441651615,1230389031
sts,-24.453815460205,-15.309697151184,-90.07056807027689,-121.84524424683883,1230405698
sts,-22.0531387329101,-12.6996402740478,-91.77027062819961,-123.1867994206727,1230422365
sts,-19.4810047149658,-9.96662330627441,-95.45014505306915,-125.99066864328805,1230439032
sts,-16.8114585876464,-7.15258359909057,-100.49568340848663,-129.99528812826927,1230455699
sts,-14.1268978118896,-4.31248521804809,-106.11486874944289,-134.43638767047892,1230472366
sts,-11.4604358673095,-1.38281893730163,-111.34820118067064,-138.0210104801394,1230489033
sts,-8.70315647125244,1.67558789253234,-115.06052981256593,-139.0093021588959,1230505700
sts,-5.89713621139526,4.7143440246582,-115.96793551900387,-135.42507887391864,1230522367
sts,-2.98390936851501,7.36284589767456,-112.7479711633461,-125.38505090868767,1230539034
sts,-0.158931881189346,9.63452816009521,-104.24444110700765,-107.49795754260805,1230555701
sts,2.26860785484313,11.6726837158203,-89.72781240623779,-81.25323959159765,1230572368
sts,4.17948865890502,12.9381732940673,-69.13601244631481,-47.30132210951923,1230589035
sts,5.39298152923584,13.1683559417724,-43.21436536928815,-7.530968874890248,1230605702
sts,5.73363208770751,12.2939538955688,-13.497091784343938,35.11473152758197,1230622369
sts,5.28224563598632,10.530044555664,17.8850008621175,77.07292741691295,1230639036
sts,3.9079406261444,7.95750856399536,48.53789928578398,114.75775567349206,1230655703
sts,1.67606711387634,4.81287765502929,76.20395120063542,145.18017838768313,1230672370
sts,-0.9953453540802,1.3200364112854,99.1292743935612,166.4464678328814,1230689037
sts,-3.91795659065246,-2.46374416351318,116.30791733594288,178.02613609832926,1230705704
sts,-7.01479053497314,-6.23880100250244,127.55236574626228,180.73943603549264,1230722371
sts,-10.1420993804931,-9.80417442321777,133.39861425690032,176.48141523639168,1230739038
sts,-13.218692779541,-13.0566062927246,134.90257970027122,167.7598680781299,1230755705
sts,-16.311803817749,-15.9859914779663,133.40179186545686,157.16510971317658,1230772372
sts,-19.3389854431152,-18.7028827667236,130.30003548905017,146.89874068013498,1230789039
sts,-22.159439086914,-21.2533798217773,126.89787737104396,138.4626957999423,1230805706
sts,-24.7071342468261,-23.7333602905273,124.26147792791214,132.5577446967895,1230822373
sts,-27.0822849273681,-26.2070255279541,123.11398171961376,129.18071070440874,1230839040
sts,-29.3685188293457,-28.7509574890136,123.74968430461338,127.86064779216508,1230855707
sts,-31.6787872314453,-31.3543624877929,125.9948407361006,127.94734185368867,1230872374
sts,-34.0851707458496,-33.9372978210449,129.24943276433115,128.8643502758849,1230889041
sts,-36.649314880371,-36.4922904968261,132.63023229196122,130.2618943872639,1230905708
sts,-39.3766403198242,-39.0435676574707,135.20070917017327,132.0450219851041,1230922375
sts,-42.2489433288574,-41.6255912780761,136.23322450960575,134.295170072969,1230939042
sts,-45.1812171936035,-44.2838821411132,135.4237910676548,137.1325462948187,1230955709
sts,-47.9973602294921,-46.9666900634765,132.98492939956336,140.57499278125664,1230972376
sts,-50.6554527282714,-49.6678390502929,129.57991387203816,144.44057744041882,1230989043
sts,-53.2293548583984,-52.4210510253906,126.11784469315522,148.32506809749984,1231005710
sts,-55.8611068725585,-55.3152503967285,123.478660062603,151.66564161204727,1231022377
sts,-58.5755538940429,-58.3153228759765,122.25826568523463,153.87746782190212,1231039044
sts,-61.2596817016601,-61.3179969787597,122.61027026975974,154.52293158352856,1231055711
sts,-63.8992004394531,-64.2116012573242,124.22358408022414,153.45540307390164,1231072378
sts,-66.6047439575195,-66.9196014404296,126.43108345080837,150.8819169730037,1231089045
sts,-69.2932739257812,-69.436164855957,128.40532893491624,147.31255542022748,1231105712
sts,-71.821662902832,-71.746353149414,129.3712730512689,143.39932712048247,1231122379
sts,-74.1718444824218,-74.0021591186523,128.76296635165198,139.702847396001,1231139046
sts,-76.4299392700195,-76.1302337646484,126.27739459807158,136.4530490357863,1231155713
sts,-78.612434387207,-78.1243591308593,121.82519742862343,133.38398505781257,1231172380
sts,-80.5178604125976,-79.9869232177734,115.4236580400176,129.71617953674735,1231189047
sts,-82.1795806884765,-81.5668106079101,107.1010935866074,124.3277526963684,1231205714
sts,-83.5557022094726,-82.855239868164,96.87314051368831,116.09726744349913,1231222381
sts,-84.5463027954101,-83.4566879272461,84.81192363025276,104.32788935554939,1231239048
sts,-84.9543762207031,-83.090591430664,71.1737462662897,89.10226579824325,1231255715
sts,-84.9232559204101,-82.3985748291015,56.508306695073486,71.4109687132565,1231272382
sts,-84.751594543457,-82.0296173095703,41.671065685289406,52.97095984474611,1231289049
sts,-84.4681701660156,-81.9990158081054,27.70558918102574,35.781953677035645,1231305716
sts,-84.3590698242187,-82.1228866577148,15.628189789090797,21.585104234740037,1231322383
sts,-84.5587539672851,-82.3903427124023,6.194466631218146,11.42081077175563,1231339050
sts,-84.8576049804687,-82.5178527832031,-0.26630079672430035,5.423263853603047,1231355717
sts,-85.0720520019531,-82.4144973754882,-3.894484992569678,2.888783632947854,1231372384
sts,-85.09228515625,-82.2320175170898,-5.216802774301142,2.565034854793453,1231389051
sts,-84.956787109375,-82.0074310302734,-4.977381469937357,3.050178318251927,1231405718
sts,-84.8058624267578,-81.8280029296875,-3.947153707029982,3.1703071680676564,1231422385
sts,-84.780044555664,-81.8492431640625,-2.7703050248728767,2.2252612166867363,1231439052
sts,-84.8445587158203,-82.0260543823242,-1.8804148351827865,0.052377494316726295,1231455719
sts,-84.9339218139648,-82.2226409912109,-1.4871138881001866,-3.0702753057707897,1231472386
sts,-85.0316619873046,-82.3809585571289,-1.6114951235672637,-6.60982175516069,1231489053
sts,-85.0972366333007,-82.5485229492187,-2.1427128673050952,-9.97508493950117,1231505720
sts,-85.1041107177734,-82.6858444213867,-2.896560430713659,-12.673028944540363,1231522387
sts,-85.1050720214843,-82.8206176757812,-3.6699125198559353,-14.41136701492079,1231539054
sts,-85.1063156127929,-83.0303268432617,-4.292938775607403,-15.155545565043818,1231555721
sts,-85.1054763793945,-83.2658538818359,-4.6796399220343865,-15.148228833553572,1231572388
sts,-85.1175003051757,-83.4935073852539,-4.870378656651132,-14.887049328765547,1231589055
sts,-85.1965789794921,-83.6569061279296,-5.0554454894207455,-15.049121939581676,1231605722
sts,-85.318977355957,-83.7804718017578,-5.569978965577014,-16.3603086762208,1231622389
sts,-85.408203125,-83.9118576049804,-6.85548689272633,-19.430197442244065,1231639056
sts,-85.4320755004882,-84.0365524291992,-9.389338292603371,-24.595000429720674,1231655723
sts,-85.4189300537109,-84.183349609375,-13.591162748386012,-31.81607865724348,1231672390
sts,-85.3404083251953,-84.3913650512695,-19.723138820864293,-40.66870007995002,1231689057
sts,-85.2107925415039,-84.6051177978515,-27.805315288039893,-50.43009910665509,1231705724
sts,-84.9439468383789,-84.635498046875,-37.564325405641895,-60.24616876589054,1231722391
sts,-84.5145187377929,-84.2826538085937,-48.42743651472376,-69.33102095942732,1231739058
sts,-84.013916015625,-83.5275268554687,-59.57073185339433,-77.14304735312953,1231755725
sts,-83.4728317260742,-82.4467239379882,-70.03095627637514,-83.49033517492259,1231772392
sts,-82.8099899291992,-81.2530441284179,-78.88388995073599,-88.54220858157716,1231789059
sts,-81.7600326538086,-79.9163284301757,-85.46542605947019,-92.75064463302635,1231805726
sts,-80.1790924072265,-78.3118057250976,-89.57117914123744,-96.70641403606076,1231822393
sts,-78.3595886230468,-76.6333923339843,-91.54673592669542,-100.96683727459832,1231839060
sts,-76.5969924926757,-74.9217529296875,-92.20445914991467,-105.89577238476699,1231855727
sts,-74.9399490356445,-72.9598617553711,-92.57437151331087,-111.55456696850366,1231872394
sts,-73.3691101074218,-70.753677368164,-93.57854823655093,-117.67542499809551,1231889061
sts,-71.6688079833984,-68.3014831542968,-95.76001731637919,-123.7311815412491,1231905728
sts,-69.5539398193359,-65.4805755615234,-99.17054886890607,-129.0855655797102,1231922395
sts,-67.3395309448242,-62.6034126281738,-103.44147228954486,-133.1753081106817,1231939062
sts,-65.1671447753906,-60.0360031127929,-107.97616202278984,-135.6591454716006,1231955729
sts,-63.027717590332,-57.5004615783691,-112.16200756056068,-136.4832693602137,1231972396
sts,-60.804214477539,-54.9344673156738,-115.51937172179487,-135.85269135148684,1231989063
sts,-58.6499938964843,-52.5755538940429,-117.75929663468612,-134.13893912888568,1232005730
sts,-56.6245002746582,-50.1799049377441,-118.77108984257164,-131.77294683330456,1232022397
sts,-54.5026168823242,-47.7532348632812,-118.58286282621441,-129.162460825913,1232039064
sts,-52.2532272338867,-45.3342399597168,-117.33113902739166,-126.64681465747285,1232055731
sts,-50.0224952697753,-43.0507049560546,-115.25019935719256,-124.47653730130317,1232072398
sts,-47.8870506286621,-41.0469856262207,-112.66512903217871,-122.79733005476045,1232089065
sts,-45.900032043457,-39.154067993164,-109.96211838541161,-121.63166551167699,1232105732
sts,-44.0169868469238,-37.0499877929687,-107.52188963807058,-120.8726335031522,1232122399
sts,-42.2076110839843,-34.7395057678222,-105.62812885349898,-120.31170510862331,1232139066
sts,-40.3536338806152,-32.5084724426269,-104.38559597991237,-119.70582627840348,1232155733
sts,-38.3467102050781,-30.3934135437011,-103.68801348584067,-118.86412226945545,1232172400
sts,-36.1806602478027,-28.2618980407714,-103.25917154697287,-117.72359624489249,1232189067
sts,-33.954490661621,-26.0508575439453,-102.75923132555764,-116.39307181553606,1232205734
sts,-31.7376079559326,-23.8889408111572,-101.9185407985319,-115.16069399459255,1232222401
sts,-29.5219020843505,-21.6948432922363,-100.64961556988143,-114.46720328271606,1232239068
sts,-27.3629493713378,-19.4599151611328,-99.09912296346428,-114.84481165401452,1232255735
sts,-25.203104019165,-17.1796340942382,-97.62664952914842,-116.81937838057546,1232272402
sts,-22.8932609558105,-14.7383460998535,-96.72045933122813,-120.77800902953383,1232289069
sts,-20.3875141143798,-12.2130985260009,-96.87133834699364,-126.81449901341709,1232305736
sts,-17.7660980224609,-9.47593212127685,-98.42366289346397,-134.57750191333793,1232322403
sts,-15.1096286773681,-6.70155334472656,-101.41855936531857,-143.15758239789596,1232339070
sts,-12.5589933395385,-3.79363512992858,-105.45049060778668,-151.05599267334992,1232355737
sts,-9.99230575561523,-0.610013127326965,-109.5777220698839,-156.27452103239403,1232372404
sts,-7.17047786712646,2.76723504066467,-112.34303972135748,-156.5457232435475,1232389071
sts,-4.13735342025756,5.9677882194519,-111.9504582376749,-149.6863746030652,1232405738
sts,-1.04071855545043,8.52996063232421,-106.59680425568699,-134.01688817872318,1232422405
sts,1.81784057617187,10.7047109603881,-94.89146622434195,-108.76392237839522,1232439072
sts,4.20143842697143,12.3968877792358,-76.24887234564187,-74.35897018949194,1232455739
sts,5.84669017791748,13.2980279922485,-51.13422734003149,-32.55486132623142,1232472406
sts,6.63046264648437,13.0334520339965,-21.08453100968111,13.697893872357197,1232489073
sts,6.43530845642089,11.5684652328491,11.508090090519406,60.63109413441045,1232505740
sts,5.21113109588623,9.10991859436035,43.800769197857115,104.24327881901617,1232522407
sts,3.14598250389099,5.81514358520507,72.99738053710716,140.96531910861412,1232539074
sts,0.474201589822769,2.10120511054992,96.82607920284336,168.24704796513925,1232555741
sts,-2.6047191619873,-1.72390103340148,113.89517248850593,184.92493539652924,1232572408
sts,-5.98957824707031,-5.61538887023925,123.86255516543616,191.29916405719783,1232589075
sts,-9.45789813995361,-9.34535312652587,127.40236890474522,188.93304424093174,1232605742
sts,-12.8322696685791,-12.885760307312,125.99550966612658,180.25342629082667,1232622409
sts,-16.053030014038,-16.1279277801513,121.59911875346526,168.05879627660428,1232639076
sts,-19.0018501281738,-19.0647716522216,116.26484071110096,155.03635238504486,1232655743
sts,-21.6725177764892,-21.6926441192626,111.779546724915,143.3678094651863,1232672410
sts,-24.2382183074951,-24.1483039855957,109.39501051879775,134.47945989573861,1232689077
sts,-26.762071609497,-26.5428733825683,109.69174070272446,128.96647509650518,1232705744
sts,-29.2630138397216,-29.0203914642334,112.58839935889858,126.68927913725793,1232722411
sts,-31.7197570800781,-31.5433921813964,117.47305117893384,127.0014955915315,1232739078
sts,-34.2225303649902,-34.0683364868164,123.41015911663281,129.03650250424096,1232755745
sts,-36.9183082580566,-36.6039276123046,129.37253402914868,131.96909659570548,1232772412
sts,-39.6013450622558,-39.1860580444335,134.4533989939826,135.1865759244022,1232789079
sts,-42.2779426574707,-41.7681121826171,138.02314235355786,138.34110079111437,1232805746
sts,-44.9684562683105,-44.3453102111816,139.80823290900656,141.29639055922013,1232822413
sts,-47.6614608764648,-46.9759635925293,139.88706633723902,144.0130489887828,1232839080
sts,-50.3555755615234,-49.7277030944824,138.61467711424967,146.4297606524523,1232855747
sts,-53.0474586486816,-52.6603393554687,136.49989587684553,148.38864307888431,1232872414
sts,-55.7019882202148,-55.6775512695312,134.06411318754633,149.62621677032107,1232889081
sts,-58.3180198669433,-58.5609550476074,131.71240617015607,149.82090399130684,1232905748
sts,-60.9270439147949,-61.3150787353515,129.645420586889,148.6706197456164,1232922415
sts,-63.63037109375,-64.0300521850586,127.8318242507817,145.975341354937,1232939082
sts,-66.2730407714843,-66.6681594848632,126.04571459185016,141.7087687269015,1232955749
sts,-68.8256301879882,-69.1127624511718,123.95518560822067,136.06641253149792,1232972416
sts,-71.2980575561523,-71.4377746582031,121.23384072547448,129.47299459301445,1232989083
sts,-73.6494216918945,-73.6286468505859,117.66001734662552,122.52947048166888,1233005750
sts,-75.6738357543945,-75.6724700927734,113.16989251613118,115.88839105672791,1233022417
sts,-77.5071487426757,-77.3724594116211,107.84311546759595,110.06844588801248,1233039084
sts,-79.2896499633789,-78.9067993164062,101.82444043196448,105.25125061989884,1233055751
sts,-80.9122161865234,-80.4086380004882,95.21403386471262,101.13341732532629,1233072418
sts,-82.4068374633789,-81.7020874023437,87.97770422655681,96.91410395375148,1233089085
sts,-83.6361312866211,-82.8526000976562,79.92563183626655,91.46636449977498,1233105752
sts,-84.4433135986328,-83.6982116699218,70.78363207145013,83.67376620962273,1233122419
sts,-84.8703842163086,-84.1782608032226,60.34192232422038,72.83817677300523,1233139086
sts,-84.9558563232421,-84.2923049926757,48.62675369780349,59.01546506782949,1233155753
sts,-84.9217910766601,-84.245620727539,36.01919901985346,43.139792120338605,1233172420
sts,-84.928352355957,-84.4331741333007,23.258831998912257,26.860915830419113,1233189087
sts,-84.9089584350586,-84.7482681274414,11.317135295011923,12.12514221326969,1233205754
sts,-84.7554016113281,-84.8094406127929,1.1824939182054661,0.6378144663732319,1233222421
sts,-84.6096267700195,-84.7055740356445,-6.366990482091613,-6.600466757189589,1233239088
sts,-84.5267562866211,-84.6590347290039,-10.93094111748653,-9.523592622789682,1233255755
sts,-84.490852355957,-84.8369598388671,-12.55479292003013,-8.935177291921944,1233272422
sts,-84.5758514404296,-85.094482421875,-11.696225957355157,-6.199822941701219,1233289089
sts,-84.7284240722656,-85.1596908569336,-9.113653672487382,-2.8144138961767826,1233305756
sts,-84.8497238159179,-84.9766006469726,-5.710902219137554,-0.004187869621344056,1233322423
sts,-84.8827056884765,-84.7062759399414,-2.3711205539649254,1.5366821206646226,1233339090
sts,-84.8290710449218,-84.4780654907226,0.19193139511695226,1.698753710961616,1233355757
sts,-84.7383575439453,-84.3810653686523,1.5405405080370922,0.8182479345997701,1233372424
sts,-84.6542663574218,-84.3989105224609,1.557078802847095,-0.5774236613744218,1233389091
sts,-84.6386413574218,-84.4785232543945,0.4158479616868341,-2.0321557155544996,1233405758
sts,-84.6529846191406,-84.566535949707,-1.5075229055150878,-3.3378184866659657,1233422425
sts,-84.6412353515625,-84.639045715332,-3.760015384281399,-4.578140329628871,1233439092
sts,-84.6276168823242,-84.6978454589843,-5.9319984162808685,-6.049820767626562,1233455759
sts,-84.6181030273437,-84.734260559082,-7.74693061691561,-8.11388128043986,1233472426
sts,-84.6302795410156,-84.7392883300781,-9.108682465779127,-11.045252306795257,1233489093
sts,-84.6726684570312,-84.7125778198242,-10.108539341449859,-14.935520588734715,1233505760
sts,-84.7484588623046,-84.6204681396484,-10.999588391121435,-19.67349033021885,1233522427
sts,-84.7874069213867,-84.4697952270507,-12.147023703536831,-24.996370728359377,1233539094
sts,-84.7940979003906,-84.2734069824218,-13.962919291375009,-30.583810732449578,1233555761
sts,-84.7538375854492,-83.9762725830078,-16.83400704511611,-36.16104519831236,1233572428
sts,-84.6337051391601,-83.5851898193359,-21.050078976742125,-41.58066033944264,1233589095
sts,-84.4326858520507,-83.1617813110351,-26.739936656337104,-46.859576106231714,1233605762
sts,-84.1281127929687,-82.6883697509765,-33.82410223006925,-52.15943105711033,1233622429
sts,-83.6842880249023,-82.0261001586914,-41.998279783659946,-57.71603370635235,1233639096
sts,-83.0670700073242,-81.3311386108398,-50.76265978067086,-63.74211385529754,1233655763
sts,-82.2349166870117,-80.6048965454101,-59.50282753192756,-70.33892880630977,1233672430
sts,-81.2016525268554,-79.5510635375976,-67.6086170086549,-77.45044619258488,1233689097
sts,-79.9772644042968,-78.1822891235351,-74.59736360891554,-84.87654544135287,1233705764
sts,-78.6178588867187,-76.6449203491211,-80.20067359114125,-92.3333306352944,1233722431
sts,-77.1926574707031,-74.8914718627929,-84.38624235623345,-99.5250371558287,1233739098
sts,-75.7750625610351,-72.9093170166015,-87.31401927293929,-106.19121640354331,1233755765
sts,-74.3264083862304,-70.6711807250976,-89.25461345301422,-112.1157995914889,1233772432
sts,-72.7895584106445,-68.2093048095703,-90.51067437323354,-117.11199326465051,1233789099
sts,-71.1098556518554,-65.7874908447265,-91.3709579897624,-121.00847171014595,1233805766
sts,-69.3031387329101,-63.4338188171386,-92.09900784124123,-123.65425971283544,1233822433
sts,-67.4010543823242,-61.1486701965332,-92.93304100814451,-124.94359135159227,1233839100
sts,-65.5165100097656,-59.0809440612793,-94.06895847339455,-124.8515399692801,1233855767
sts,-63.6087455749511,-56.8928070068359,-95.61760940164572,-123.470952190821,1233872434
sts,-61.6019401550293,-54.4602394104003,-97.5555901539085,-121.04389444540128,1233889101
sts,-59.5629577636718,-52.0061454772949,-99.7043271354552,-117.97566795030149,1233905768
sts,-57.5548553466796,-49.9167442321777,-101.76368608514635,-114.80887119355174,1233922435
sts,-55.5096702575683,-47.9836997985839,-103.40036000615197,-112.13778923690381,1233939102
sts,-53.4437637329101,-45.9907264709472,-104.36361968331238,-110.47101531261954,1233955769
sts,-51.3840065002441,-44.048225402832,-104.58388293164447,-110.0862912293605,1233972436
sts,-49.2181510925293,-42.1278343200683,-104.20867342327746,-110.93763902353807,1233989103
sts,-47.1509208679199,-40.0373039245605,-103.5488857229501,-112.65976221730426,1234005770
sts,-45.2786445617675,-37.7287368774414,-102.94456837771261,-114.67799423385843,1234022437
sts,-43.4334144592285,-35.2957916259765,-102.60150958433256,-116.38949826048238,1234039104
sts,-41.4755210876464,-32.9693946838378,-102.47473763412114,-117.34965673724521,1234055771
sts,-39.3943481445312,-30.8305892944335,-102.26248714664295,-117.39381270502683,1234072438
sts,-37.2233161926269,-28.8206462860107,-101.52515683963499,-116.65515424282674,1234089105
sts,-34.9872703552246,-26.9174938201904,-99.88369509834841,-115.48899447626918,1234105772
sts,-32.8453788757324,-24.9343700408935,-97.21351944483233,-114.35259156059735,1234122439
sts,-30.7891578674316,-22.9520473480224,-93.7524264719811,-113.69702530672826,1234139106
sts,-28.8652000427246,-20.858922958374,-90.08011392292121,-113.90479065180011,1234155773
sts,-26.9006786346435,-18.5693378448486,-86.98119378913889,-115.27158311702908,1234172440
sts,-24.7310600280761,-16.1605587005615,-85.24559826284036,-118.00258462293898,1234189107
sts,-22.371784210205,-13.6022157669067,-85.47129514458304,-122.18386483675798,1234205774
sts,-19.8179016113281,-10.8479948043823,-87.91431530062749,-127.7017194573075,1234222441
sts,-17.044469833374,-8.0902509689331,-92.39844574175022,-134.11366977865097,1234239108
sts,-14.1221752166748,-5.27546644210815,-98.27480872057102,-140.51343144062196,1234255775
sts,-11.2448472976684,-2.14609360694885,-104.42260696581342,-145.46012438237696,1234272442
sts,-8.26337146759033,0.955509305000305,-109.30147346821053,-147.04166982144545,1234289109
sts,-5.18675374984741,3.8627905845642,-111.0840031438606,-143.10966369002892,1234305776
sts,-2.24166107177734,6.52126169204711,-107.89389689412324,-131.67106824467527,1234322443
sts,0.494552820920944,9.23612594604492,-98.14471589489288,-111.36751716704346,1234339110
sts,3.04981684684753,11.2576599121093,-80.92830681697541,-81.9264892787751,1234355777
sts,5.10237979888916,12.1761493682861,-56.359120222420415,-44.4446750443551,1234372444
sts,6.09876680374145,11.8943119049072,-25.75897824514168,-1.3859687757882526,1234389111
sts,5.99758911132812,10.5282106399536,8.415551799734347,43.746611366567464,1234405778
sts,4.77274370193481,8.22858142852783,42.935737774693955,87.00184851867091,1234422445
sts,2.58473348617553,5.18612194061279,74.39058456181611,124.6874676612844,1234439112
sts,-0.298982620239257,1.60134220123291,99.85687499927339,154.0160199400709,1234455779
sts,-3.51649785041809,-2.2186439037323,117.46697745360692,173.53666550834188,1234472446
sts,-6.9134497642517,-6.03082370758056,126.72193865476964,183.26508947353082,1234489113
sts,-10.2565975189208,-9.72974586486816,128.4796234735155,184.50831479482372,1234505780
sts,-13.5705270767211,-13.1918058395385,124.64819054281983,179.46051779699303,1234522447
sts,-16.7183494567871,-16.4782276153564,117.6947365548034,170.69495372211037,1234539114
sts,-19.7326316833496,-19.4817447662353,110.11174046977762,160.6812639700697,1234555781
sts,-22.6443252563476,-22.2875823974609,103.96782065121215,151.42253529915425,1234572448
sts,-25.4181938171386,-24.9609470367431,100.62141675812386,144.25427692887519,1234589115
sts,-28.0569324493408,-27.5023937225341,100.61994397420071,139.80061450656322,1234605782
sts,-30.6126823425292,-29.9483985900878,103.7615319650895,138.05355051898195,1234622449
sts,-33.1112480163574,-32.3353958129882,109.27052092072138,138.53014930374036,1234639116
sts,-35.5488662719726,-34.7371063232421,116.03121516271884,140.46480616204903,1234655783
sts,-38.0098800659179,-37.2066802978515,122.83167907048514,143.0022159114528,1234672450
sts,-40.5696105957031,-39.7290306091308,128.58318954621535,145.3656118731884,1234689117
sts,-43.2593193054199,-42.321475982666,132.49345947178193,146.9821655846416,1234705784
sts,-46.02783203125,-45.0083045959472,134.17815155544227,147.5535640051299,1234722451
sts,-48.8307609558105,-47.7211112976074,133.6975211407632,147.06571571291354,1234739118
sts,-51.5487670898437,-50.4432220458984,131.5102112430231,145.73850598719628,1234755785
sts,-54.1184043884277,-53.1700592041015,128.34962623901745,143.92598481143307,1234772452
sts,-56.6144294738769,-55.8844032287597,125.04842011314362,141.9889576131529,1234789119
sts,-59.1532096862793,-58.6765098571777,122.3544341860625,140.17157945428667,1234805786
sts,-61.7553062438964,-61.4776039123535,120.78531808500468,138.51547196415956,1234822453
sts,-64.4440841674804,-64.1453094482421,120.55380230336677,136.83629575244208,1234839120
sts,-67.1434326171875,-66.741714477539,121.5676030833799,134.7711889561751,1234855787
sts,-69.7147521972656,-69.2074356079101,123.48131475339738,131.88647741074874,1234872454
sts,-72.1696472167968,-71.5941390991211,125.76494117662513,127.81778716478546,1234889121
sts,-74.4328308105468,-74.0098648071289,127.75951948974836,122.40154132232252,1234905788
sts,-76.5073013305664,-76.0425186157226,128.71021820477304,115.75151779507104,1234922455
sts,-78.3869705200195,-77.7653427124023,127.79122924391015,108.24330576915293,1234939122
sts,-79.9585647583007,-79.423110961914,124.15343820666713,100.3971435349533,1234955789
sts,-81.3729782104492,-80.8136367797851,117.02614673716896,92.68888629710028,1234972456
sts,-82.5605163574218,-82.0578918457031,105.88342193011532,85.35393882611706,1234989123
sts,-83.4245223999023,-83.0403289794921,90.6478192369729,78.26524739509105,1235005790
sts,-84.0150604248046,-83.7904434204101,71.8655504228379,70.9536903367815,1235022457
sts,-84.3055648803711,-84.2311553955078,50.77095574311657,62.79231898264371,1235039124
sts,-84.2545166015625,-84.3322677612304,29.178959141030123,53.29449655492431,1235055791
sts,-84.0143737792968,-84.2518539428711,9.19762063634258,42.410801454116736,1235072458
sts,-83.6270446777343,-84.1602096557617,-7.18054343207506,30.689032969251283,1235089125
sts,-82.8872146606445,-84.2250442504882,-18.497186240178923,19.20652591025452,1235105792
sts,-82.5420989990234,-84.5154495239257,-24.133636249892632,9.27952790088506,1235122459
sts,-82.9636688232421,-84.8466491699218,-24.41831209256701,2.053986764674272,1235139126
sts,-83.7845764160156,-85.0294494628906,-20.516100504444328,-1.8654962092039933,1235155793
sts,-84.4161911010742,-85.0562133789062,-14.136668546900118,-2.609893627933299,1235172460
sts,-84.6185760498046,-84.9937133789062,-7.135857613970515,-0.9985065004602689,1235189127
sts,-84.4519653320312,-84.9208297729492,-1.11019599792781,1.7217519525708442,1235205794
sts,-84.1737823486328,-84.8346481323242,2.9061476807192976,4.249740717258302,1235222461
sts,-84.0065231323242,-84.7186584472656,4.561150631269142,5.586541551694381,1235239128
sts,-83.9780044555664,-84.6338500976562,4.10854466060196,5.264014575461579,1235255795
sts,-84.0478057861328,-84.6470108032226,2.195418110988401,3.388144182973728,1235272462
sts,-84.177993774414,-84.6875076293945,-0.3901862360402354,0.5077719497360438,1235289129
sts,-84.3178329467773,-84.7077941894531,-2.9308891739627083,-2.62421894272248,1235305796
sts,-84.4213180541992,-84.7422637939453,-4.913939623881825,-5.307649248465244,1235322463
sts,-84.4657974243164,-84.8460006713867,-6.089142004849364,-7.095417746997203,1235339130
sts,-84.4316940307617,-84.917854309082,-6.46838015162855,-7.89834395315019,1235355797
sts,-84.3907394409179,-84.8648529052734,-6.284339012513709,-7.9875854091896725,1235372464
sts,-84.3972015380859,-84.7338180541992,-5.923191758919099,-7.908257488127438,1235389131
sts,-84.456672668457,-84.613037109375,-5.844517446785758,-8.331004560278277,1235405798
sts,-84.5167007446289,-84.5789184570312,-6.498619142337056,-9.878682520567335,1235422465
sts,-84.5415267944336,-84.6133346557617,-8.24771127697011,-12.971717464497916,1235439132
sts,-84.5265731811523,-84.6959228515625,-11.298775329289688,-17.73364005347519,1235455799
sts,-84.5409164428711,-84.7661743164062,-15.662333408740853,-23.983788987721198,1235472466
sts,-84.5471725463867,-84.7354202270507,-21.153631691663705,-31.317555278879226,1235489133
sts,-84.5231399536132,-84.5413513183593,-27.44269463648433,-39.24453203809609,1235505800
sts,-84.4613037109375,-84.1705627441406,-34.14160999678154,-47.33552259815269,1235522467
sts,-84.321907043457,-83.5674514770507,-40.90302364432024,-55.32915948780552,1235539134
sts,-83.8753280639648,-82.7692108154296,-47.49940482456675,-63.16573819687513,1235555801
sts,-83.0857391357421,-81.8744049072265,-53.856786551189984,-70.94196895988559,1235572468
sts,-82.0965423583984,-80.8728866577148,-60.02912644935465,-78.80797521458668,1235589135
sts,-81.0082473754882,-79.6554489135742,-66.1217078583339,-86.84861403890403,1235605802
sts,-79.697639465332,-78.2307510375976,-72.19687590829662,-94.99565832436983,1235622469
sts,-78.2543258666992,-76.6273422241211,-78.20621492624531,-103.0021011882416,1235639136
sts,-76.7261657714843,-74.830825805664,-83.9807411904048,-110.48326154591462,1235655803
sts,-74.9978103637695,-72.6457595825195,-89.28314027134388,-117.00547527139807,1235672470
sts,-73.1321105957031,-70.2837524414062,-93.8987290562732,-122.19002736920352,1235689137
sts,-71.2864227294921,-68.0459289550781,-97.7250163987321,-125.79915286386365,1235705804
sts,-69.3913345336914,-65.6953735351562,-100.81980628890344,-127.7827764078925,1235722471
sts,-67.2737426757812,-63.3995666503906,-103.38642022392541,-128.28428515062032,1235739138
sts,-64.9785690307617,-61.0177612304687,-105.70281599286679,-127.61694250164834,1235755805
sts,-62.7395706176757,-58.5977249145507,-108.02365040798458,-126.21985052441626,1235772472
sts,-60.5594978332519,-56.2427101135253,-110.49179798711407,-124.59307379583403,1235789139
sts,-58.4663162231445,-53.8715057373046,-113.08998660296236,-123.21388219178971,1235805806
sts,-56.3536071777343,-51.5363578796386,-115.64878527297189,-122.45276410722873,1235822473
sts,-54.1900672912597,-49.0239219665527,-117.9080989059795,-122.52005474432848,1235839140
sts,-51.9783096313476,-46.3877029418945,-119.61061894871649,-123.46212281199035,1235855807
sts,-49.7231788635253,-43.9934883117675,-120.59371049225548,-125.19418334307709,1235872474
sts,-47.4295272827148,-41.8438987731933,-120.84560832921822,-127.53339178704786,1235889141
sts,-45.3457527160644,-39.7853355407714,-120.50380542674274,-130.2062547675098,1235905808
sts,-43.4443130493164,-37.5399780273437,-119.79605808275161,-132.84168189481568,1235922475
sts,-41.4053192138671,-35.0592308044433,-118.94970740632718,-134.98947829282722,1235939142
sts,-39.1308288574218,-32.4755973815918,-118.1090556356741,-136.19531195625413,1235955809
sts,-36.8035087585449,-29.9402618408203,-117.2937069786577,-136.12464503806308,1235972476
sts,-34.5862808227539,-27.4755363464355,-116.41002400810252,-134.69287962935974,1235989143
sts,-32.4083099365234,-25.0420532226562,-115.30974656188685,-132.15206130874824,1236005810
sts,-30.0780982971191,-22.5634326934814,-113.88065868058138,-129.1033530441823,1236022477
sts,-27.5920295715332,-20.0815200805664,-112.14626265281603,-126.42869431977415,1236039144
sts,-25.0893821716308,-17.5883178710937,-110.3401791660289,-125.14890202978,1236055811
sts,-22.6065025329589,-15.001012802124,-108.91567621403946,-126.21988319039643,1236072478
sts,-20.1557254791259,-12.2734279632568,-108.46298625387902,-130.28444351194543,1236089145
sts,-17.5729351043701,-9.42828178405761,-109.53539466828141,-137.4117011129191,1236105812
sts,-14.8252897262573,-6.52784490585327,-112.41660626097897,-146.87728101730167,1236122479
sts,-12.0130252838134,-3.42958402633667,-116.88629576459552,-157.05516533230715,1236139146
sts,-9.15016269683837,0.09051114320755,-122.05549411613846,-165.4910909887259,1236155813
sts,-6.10101795196533,3.80386590957641,-126.34532232551794,-169.1954182127427,1236172480
sts,-2.88408350944519,7.23454761505126,-127.66173098475649,-165.13439941613103,1236189147
sts,0.347742438316345,10.3228063583374,-123.76848586228942,-150.83575532021396,1236205814
sts,3.42834663391113,12.9849014282226,-112.7914495786193,-124.98206285035081,1236222481
sts,6.00890016555786,15.0818691253662,-93.7278412045925,-87.85265092753167,1236239148
sts,7.84575319290161,16.1318321228027,-66.81408639550828,-41.49025366383087,1236255815
sts,8.74371147155761,15.7401132583618,-33.63645460773784,10.48423141702503,1236272482
sts,8.65023517608642,14.0915622711181,3.06301429831638,63.40442280484852,1236289149
sts,7.46679973602294,11.4786491394042,39.85322730541755,112.33699958293485,1236305816
sts,5.23938417434692,8.10881805419921,73.2529464459819,152.930683087282,1236322483
sts,2.23749327659606,4.22123861312866,100.39566235537444,182.1423595867852,1236339150
sts,-1.23345339298248,-0.0070308269932866,119.55912386475026,198.68668823053125,1236355817
sts,-4.84754562377929,-4.29609966278076,130.42446849166933,203.1289389543476,1236372484
sts,-8.33812713623046,-8.33811283111572,134.00158592428363,197.6222187583562,1236389151
sts,-11.5508136749267,-11.9205064773559,132.25732294442727,185.36419500714592,1236405818
sts,-14.5956735610961,-15.0636987686157,127.57273863557161,169.90515808926418,1236422485
sts,-17.5259170532226,-17.8291320800781,122.19525283667164,154.4676692128365,1236439152
sts,-20.2967510223388,-20.440969467163,117.82727138026361,141.4276972065485,1236455819
sts,-22.9535884857177,-23.0221729278564,115.42506454212099,132.05713944180437,1236472486
sts,-25.5228366851806,-25.5669479370117,115.20708494987623,126.55174992077558,1236489153
sts,-28.0557651519775,-28.0587196350097,116.81723173445683,124.29135843917402,1236505820
sts,-30.5490531921386,-30.5677337646484,119.56489405589137,124.22569300339852,1236522487
sts,-33.0277976989746,-33.040599822998,122.66698834448542,125.26354997358091,1236539154
sts,-35.5336608886718,-35.478042602539,125.43954047674502,126.56508767236355,1236555821
sts,-38.0195503234863,-37.9291038513183,127.41603747008914,127.68398857860855,1236572488
sts,-40.5113677978515,-40.4211997985839,128.39439983446744,128.55890732849815,1236589155
sts,-43.0418739318847,-42.8936309814453,128.42659027454164,129.39363751498325,1236605822
sts,-45.5719184875488,-45.3806457519531,127.76546549652673,130.48355811504072,1236622489
sts,-48.0476531982421,-47.9183616638183,126.77984175841046,132.04458433272123,1236639156
sts,-50.4800987243652,-50.4297637939453,125.84906194671038,134.088196012784,1236655823
sts,-52.9161872863769,-52.947166442871,125.2550240332744,136.36914729233925,1236672490
sts,-55.399787902832,-55.5770683288574,125.09691660257516,138.41469268285368,1236689157
sts,-57.9551315307617,-58.2676086425781,125.25323830235286,139.62617541416515,1236705824
sts,-60.5430107116699,-60.9597244262695,125.40384370863686,139.42607023711807,1236722491
sts,-63.1295013427734,-63.5348167419433,125.10679493319145,137.41009621388113,1236739158
sts,-65.7082595825195,-65.998664855957,123.90935686270025,133.46137332880426,1236755825
sts,-68.2181167602539,-68.3158187866211,121.46468907721338,127.794797472585,1236772492
sts,-70.6119537353515,-70.48828125,117.62474700008893,120.92075027242707,1236789159
sts,-72.8943099975586,-72.4421463012695,112.48283549795912,113.53919185324423,1236805826
sts,-74.9620590209961,-74.4669494628906,106.34694933479051,106.38950487281078,1236822493
sts,-76.7559967041015,-76.3056640625,99.64175641309224,100.084547725834,1236839160
sts,-78.2730255126953,-77.9170150756836,92.76387466026112,94.95483027024504,1236855827
sts,-79.6178207397461,-79.2007751464843,85.94205354824444,90.93182150631343,1236872494
sts,-80.7913284301757,-80.4473724365234,79.16180780256103,87.5097950225646,1236889161
sts,-81.8143463134765,-81.5628051757812,72.19033419519839,83.82634473738898,1236905828
sts,-82.5966796875,-82.4904403686523,64.6921725911023,78.87384622540227,1236922495
sts,-83.1197204589843,-83.2746887207031,56.38699317799479,71.80198307280313,1236939162
sts,-83.5289535522461,-83.9067459106445,47.189924944480985,62.22249551689507,1236955829
sts,-83.850471496582,-84.402587890625,37.29036839878255,50.40900157534896,1236972496
sts,-84.1344223022461,-84.7384338378906,27.150165920408995,37.30806973199584,1236989163
sts,-84.3659133911132,-84.9150848388671,17.424209027524466,24.33754305655182,1237005830
sts,-84.4740219116211,-84.803970336914,8.825438651667266,13.025555741674916,1237022497
sts,-84.3995513916015,-84.4903869628906,1.9715302988866614,4.606300419702089,1237039164
sts,-84.2983779907226,-84.2888641357421,-2.7448810446672303,-0.2962851914293827,1237055831
sts,-84.3241500854492,-84.4169998168945,-5.231969178287945,-1.8041290609274094,1237072498
sts,-84.5622406005859,-84.7264862060546,-5.709717807453512,-0.7113471244726683,1237089165
sts,-84.873176574707,-84.9048080444336,-4.659752504476794,1.7682160868300252,1237105832
sts,-85.0300064086914,-84.8104248046875,-2.723791771371408,4.355491386444825,1237122499
sts,-85.0068817138671,-84.5292587280273,-0.5682664519734607,6.05265845956282,1237139166
sts,-84.8813247680664,-84.335205078125,1.25324988730268,6.3673267282068515,1237155833
sts,-84.7994155883789,-84.3299560546875,2.398967453899432,5.344030735290873,1237172500
sts,-84.7726974487304,-84.4366607666015,2.7687354852954185,3.414101164158852,1237189167
sts,-84.7292785644531,-84.557632446289,2.463301631203514,1.151244993870176,1237205834
sts,-84.6538314819336,-84.6409072875976,1.7007051274600926,-0.9524883850006931,1237222501
sts,-84.5922775268554,-84.7034683227539,0.7285950231191753,-2.609121179734166,1237239168
sts,-84.5780563354492,-84.7363891601562,-0.23934579280524096,-3.7411088769748053,1237255835
sts,-84.598876953125,-84.7007980346679,-1.0550266485025626,-4.412645676340643,1237272502
sts,-84.6156997680664,-84.6234893798828,-1.6427813765761783,-4.743130432513932,1237289169
sts,-84.6171188354492,-84.5868377685546,-1.992170843711502,-4.843304737926729,1237305836
sts,-84.605224609375,-84.5783462524414,-2.1443670584302357,-4.790261926252549,1237322503
sts,-84.5717620849609,-84.5671463012695,-2.1773539830815594,-4.641448285989487,1237339170
sts,-84.4977264404296,-84.5311965942382,-2.1959579474919293,-4.4766724105214335,1237355837
sts,-84.4861221313476,-84.5010757446289,-2.3326403839284717,-4.444366286909873,1237372504
sts,-84.5472717285156,-84.4946899414062,-2.758894760272607,-4.780001639419714,1237389171
sts,-84.6348419189453,-84.4914245605468,-3.695658165292142,-5.773655545393312,1237405838
sts,-84.6562805175781,-84.4827499389648,-5.403335482550948,-7.6915004930951625,1237422505
sts,-84.5747604370117,-84.4820404052734,-8.138180910621573,-10.68614064555845,1237439172
sts,-84.473518371582,-84.5140228271484,-12.081820801032741,-14.742666711140096,1237455839
sts,-84.436164855957,-84.5616378784179,-17.271046100749928,-19.69252321251899,1237472506
sts,-84.4879074096679,-84.5520935058593,-23.559847433441213,-25.294138578185674,1237489173
sts,-84.5625686645507,-84.4255065917968,-30.631269242558194,-31.34582030704729,1237505840
sts,-84.569709777832,-84.0959777832031,-38.05378603463296,-37.778883093359774,1237522507
sts,-84.428108215332,-83.6872940063476,-45.360328592857485,-44.68461947570506,1237539174
sts,-84.0576629638671,-83.1344985961914,-52.12519297462032,-52.25514051885254,1237555841
sts,-83.539321899414,-82.3957366943359,-58.02269999948013,-60.6550774621918,1237572508
sts,-82.8857269287109,-81.6578826904296,-62.8645471993043,-69.87452787754191,1237589175
sts,-82.0740432739257,-80.7609024047851,-66.62186178553067,-79.630876901001,1237605842
sts,-81.0198135375976,-79.4273529052734,-69.43634102171968,-89.37830055372947,1237622509
sts,-79.7109909057617,-77.7393188476562,-71.61387178666902,-98.44290699033655,1237639176
sts,-78.3623886108398,-75.775650024414,-73.58565658150003,-106.23881826772839,1237655843
sts,-76.9113388061523,-73.7279052734375,-75.8292151019683,-112.4702554719292,1237672510
sts,-75.3291702270507,-71.6606674194336,-78.76374120483348,-117.22350119898701,1237689177
sts,-73.6033477783203,-69.3327941894531,-82.65374443427864,-120.90497931149562,1237705844
sts,-71.7262954711914,-66.8569793701171,-87.55399580046542,-124.05435793579176,1237722511
sts,-69.854736328125,-64.4234771728515,-93.30770299944965,-127.11352191564085,1237739178
sts,-67.8669738769531,-62.0653076171875,-99.58595531415892,-130.2448539123187,1237755845
sts,-65.6478958129882,-59.6571044921875,-105.94636813099477,-133.27039566731568,1237772512
sts,-63.3993263244628,-57.1042518615722,-111.89443312729576,-135.7581507623311,1237789179
sts,-61.0755310058593,-54.328685760498,-116.94339292225692,-137.22348040593164,1237805846
sts,-58.6689949035644,-51.5291671752929,-120.67789273840381,-137.3605776455571,1237822513
sts,-56.3058128356933,-48.9991760253906,-122.82602642926275,-136.1992640082096,1237839180
sts,-53.9892654418945,-46.7787895202636,-123.33101488389273,-134.11498678010668,1237855847
sts,-51.6598587036132,-44.6201972961425,-122.39565694064922,-131.69248859546883,1237872514
sts,-49.4534263610839,-42.3713607788085,-120.46676751852067,-129.5132576441566,1237889181
sts,-47.4217185974121,-40.1156616210937,-118.14426364450887,-127.96260662625711,1237905848
sts,-45.3898887634277,-37.8787460327148,-116.03355606933314,-127.12805698148568,1237922515
sts,-43.2579841613769,-35.5974693298339,-114.58908286392523,-126.81307755459093,1237939182
sts,-41.0939788818359,-33.2673950195312,-114.00253248288826,-126.64767506028052,1237955849
sts,-38.9028358459472,-30.816608428955,-114.17106369895278,-126.25085759866637,1237972516
sts,-36.5953636169433,-28.3253364562988,-114.75320125827061,-125.38909207522723,1237989183
sts,-34.011547088623,-25.8718910217285,-115.29520124967114,-124.07918818456122,1238005850
sts,-31.3457527160644,-23.55002784729,-115.39051857071489,-122.60398524410661,1238022517
sts,-28.8866462707519,-21.3688793182373,-114.82181139554791,-121.4405198874698,1238039184
sts,-26.6370658874511,-19.3135547637939,-113.63805516365602,-121.13184774747673,1238055851
sts,-24.4121894836425,-17.0244064331054,-112.14348992866319,-122.15046362320868,1238072518
sts,-22.0601997375488,-14.3925285339355,-110.80825482343658,-124.79248236297084,1238089185
sts,-19.5328865051269,-11.666446685791,-110.13288293635475,-129.11134459600876,1238105852
sts,-16.810691833496,-8.83250999450683,-110.50136019555623,-134.8698305671232,1238122519
sts,-13.9305229187011,-5.79695129394531,-112.04697949206715,-141.48441941294348,1238139186
sts,-10.9740839004516,-2.7055184841156,-114.54500436381325,-147.96146337448172,1238155853
sts,-8.08831977844238,0.389813005924224,-117.34554972452577,-152.86159957473689,1238172520
sts,-5.14734840393066,3.46578907966613,-119.36824741035942,-154.35195564052367,1238189187
sts,-2.08539795875549,6.68487548828125,-119.18553615229827,-150.3981381853009,1238205854
sts,1.0015343427658,9.78683185577392,-115.21063440396863,-139.10602686852158,1238222521
sts,3.86426830291748,12.6647415161132,-105.97817538643467,-119.15878364845344,1238239188
sts,6.37610912322998,14.9074172973632,-90.47219490250671,-90.23461121731336,1238255855
sts,8.40420246124267,15.9954423904418,-68.43102706970589,-53.268988802967016,1238272522
sts,9.7028636932373,16.0331344604492,-40.548698755931945,-10.460304218453388,1238289189
sts,10.0755023956298,15.1371965408325,-8.502034282693682,35.003042067631014,1238305856
sts,9.33870792388916,13.3267498016357,25.23448470078263,79.43209146837745,1238322523
sts,7.60625314712524,10.6821918487548,57.77127309806451,119.22829825644034,1238339190
sts,5.08982563018798,7.34353017807006,86.31005924759012,151.44772557944907,1238355857
sts,1.98891508579254,3.67745923995971,108.65632820214849,174.22657643847643,1238372524
sts,-1.36932206153869,-0.175328657031059,123.60847505319467,186.99203505705216,1238389191
sts,-4.70697164535522,-3.94084382057189,131.1242470223271,190.43144561804894,1238405858
sts,-7.95233964920043,-7.57073020935058,132.22935172499265,186.24549023286394,1238422525
sts,-11.0882863998413,-10.8869314193725,128.70864670676337,176.75396482820514,1238439192
sts,-14.0020275115966,-13.8646411895751,122.67737922786878,164.446493404638,1238455859
sts,-16.699758529663,-16.5882759094238,116.14945823124464,151.57302456783168,1238472526
sts,-19.3164615631103,-19.1726245880126,110.70251375278062,139.85205446102717,1238489193
sts,-21.8709125518798,-21.7460861206054,107.2989097262253,130.34087248253826,1238505860
sts,-24.3977794647216,-24.2621154785156,106.27269859881811,123.46791439681212,1238522527
sts,-26.9440574645996,-26.7732219696044,107.44790961231558,119.18513304579406,1238539194
sts,-29.5237693786621,-29.2271175384521,110.32543846203338,117.1728120479001,1238555861
sts,-32.0601425170898,-31.5933170318603,114.27182038881497,117.02845068035202,1238572528
sts,-34.5634765625,-33.9330825805664,118.66261578974601,118.39237430926312,1238589195
sts,-37.0781517028808,-36.3304901123046,122.96522441817649,120.99434265246727,1238605862
sts,-39.6692008972168,-38.8133506774902,126.77361963563385,124.63368897024861,1238622529
sts,-42.2859001159668,-41.3362846374511,129.8179222229834,129.1206579492747,1238639196
sts,-44.9258117675781,-43.8416061401367,131.96524305750143,134.20829578529495,1238655863
sts,-47.6333847045898,-46.3816223144531,133.21530425838455,139.53969999200334,1238672530
sts,-50.326732635498,-48.9565353393554,133.68483981953122,144.63085836788034,1238689197
sts,-52.9471588134765,-51.6280288696289,133.5727862825044,148.90377580645867,1238705864
sts,-55.5380935668945,-54.4226531982421,133.1044112077459,151.7730273226911,1238722531
sts,-58.1400070190429,-57.2239227294921,132.46430635288596,152.7701845694923,1238739198
sts,-60.7491989135742,-60.0619316101074,131.73844155828988,151.67161983559805,1238755865
sts,-63.2988471984863,-62.7950057983398,130.88632513488895,148.58618145523175,1238772532
sts,-65.8107604980468,-65.4694213867187,129.75402477920434,143.96525982631192,1238789199
sts,-68.3335418701171,-68.1650619506836,128.12266080495027,138.5158948896733,1238805866
sts,-70.8337326049804,-70.6380462646484,125.7722528120788,133.02207888517708,1238822533
sts,-73.1729888916015,-72.8630142211914,122.53333487538873,128.10738788354308,1238839200
sts,-75.3285827636718,-74.9091415405273,118.30258022258391,124.00019829834247,1238855867
sts,-77.3208465576171,-76.9447021484375,113.01427696883873,120.3796996188494,1238872534
sts,-79.0540008544921,-78.8191757202148,106.58178204501361,116.37192709286195,1238889201
sts,-80.5507583618164,-80.472183227539,98.84333032211768,110.72743433515518,1238905868
sts,-81.8161697387695,-82.0957260131836,89.55587297549918,102.15882167066583,1238922535
sts,-82.8778991699218,-83.3878784179687,78.4708304381585,89.76222041498117,1238939202
sts,-83.6398315429687,-84.3831558227539,65.49227381747623,73.40391281225901,1238955869
sts,-84.0730514526367,-84.960090637207,50.868272746378906,53.93828364225664,1238972536
sts,-84.2239913940429,-85.0528030395507,35.323888824006275,33.15589179451045,1238989203
sts,-84.2916793823242,-84.6632232666015,20.041525681105792,13.443688278686995,1239005870
sts,-84.2398300170898,-83.9855270385742,6.4482924074328,-2.7568023854358827,1239022537
sts,-84.018928527832,-83.5658111572265,-4.13852669478175,-13.535694943666822,1239039204
sts,-83.8971633911132,-83.7160339355468,-10.87972958862857,-17.981134412130405,1239055871
sts,-84.0565719604492,-84.1982650756836,-13.653403943904273,-16.40523119722338,1239072538
sts,-84.313735961914,-84.7439804077148,-13.076549307191963,-10.268525026773153,1239089205
sts,-84.4832153320312,-85.0576400756836,-10.308121003523086,-1.8104990739824676,1239105872
sts,-84.5052032470703,-84.8832778930664,-6.709421557495821,6.522040444642069,1239122539
sts,-84.4124374389648,-84.5059585571289,-3.4786512253929773,12.681436742567046,1239139206
sts,-84.3145294189453,-84.2966613769531,-1.3749922241948824,15.475551094260558,1239155873
sts,-84.3005447387695,-84.3048477172851,-0.6085307730671303,14.748293879481114,1239172540
sts,-84.3186569213867,-84.4102630615234,-0.9097222712121393,11.261579696429614,1239189207
sts,-84.277961730957,-84.5334243774414,-1.729044742190907,6.3506781995290975,1239205874
sts,-84.1703872680664,-84.6406478881836,-2.479071747179166,1.479084331238666,1239222541
sts,-84.0662460327148,-84.7276458740234,-2.732279404123995,-2.1727915467400547,1239239208
sts,-84.0760269165039,-84.8099746704101,-2.322971605255926,-3.979637483859332,1239255875
sts,-84.1445236206054,-84.8582153320312,-1.3478106194598376,-3.950778618406943,1239272542
sts,-84.1732788085937,-84.8093643188476,-0.09330980510484338,-2.624279196019038,1239289209
sts,-84.1177368164062,-84.6613464355468,1.0684206167447274,-0.8338966136815654,1239305876
sts,-84.0107040405273,-84.4964065551757,1.7780307482429656,0.5651360286394167,1239322543
sts,-83.9210433959961,-84.4108276367187,1.756888854365716,0.927805143459004,1239339210
sts,-83.8384017944336,-84.3954925537109,0.8372472173528339,-0.047757609507658935,1239355877
sts,-83.7679748535156,-84.4540863037109,-1.0379346529705777,-2.302882744794991,1239372544
sts,-83.7533645629882,-84.5617065429687,-3.831811446202541,-5.4969466802847755,1239389211
sts,-83.7797470092773,-84.6805419921875,-7.4365079319967995,-9.140991704206895,1239405878
sts,-83.8116073608398,-84.7632141113281,-11.697151569215313,-12.74322333756559,1239422545
sts,-83.8331832885742,-84.7769699096679,-16.43386901733353,-15.934767894246392,1239439212
sts,-83.8373870849609,-84.7170944213867,-21.456770144115104,-18.558205264166997,1239455879
sts,-83.8037490844726,-84.5536346435546,-26.56958156913822,-20.709888179675314,1239472546
sts,-83.6569671630859,-84.3496170043945,-31.563558388853355,-22.72984928219829,1239489213
sts,-83.385627746582,-84.1490478515625,-36.211770359393086,-25.136065251554548,1239505880
sts,-83.0384979248046,-83.8727645874023,-40.279462450379995,-28.50874292466463,1239522547
sts,-82.6263961791992,-83.5343170166015,-43.56386985628646,-33.3451591861615,1239539214
sts,-82.0793762207031,-83.011978149414,-45.96340443456033,-39.91956229882494,1239555881
sts,-81.2333908081054,-82.2802734375,-47.554196951910036,-48.18681214402765,1239572548
sts,-80.1782531738281,-81.4287490844726,-48.63364841384929,-57.759250905415826,1239589215
sts,-79.0935287475586,-80.5139083862304,-49.691619660860965,-67.968721383554,1239605882
sts,-78.0052337646484,-79.3458023071289,-51.296069343270744,-78.00705118550009,1239622549
sts,-77.1088027954101,-77.7837295532226,-53.920968601367335,-87.11923685961351,1239639216
sts,-76.3613586425781,-75.8694534301757,-57.78068418809387,-94.80064692572516,1239655883
sts,-75.6039886474609,-73.7238006591796,-62.74753370771495,-100.92997325811548,1239672550
sts,-74.6929244995117,-71.5411758422851,-68.40439780300314,-105.77389670174414,1239689217
sts,-73.5612182617187,-69.3254699707031,-74.22406169721124,-109.84181966647658,1239705884
sts,-72.1592864990234,-67.1562881469726,-79.79824662938978,-113.63704100541321,1239722551
sts,-70.540901184082,-65.29248046875,-85.00361800353555,-117.40840025077541,1239739218
sts,-68.6187896728515,-63.4815559387207,-90.0163254574582,-121.01832142624278,1239755885
sts,-66.4460906982421,-61.370304107666,-95.1613725866554,-123.99639651654778,1239772552
sts,-64.1957397460937,-58.8564453125,-100.66758298691806,-125.75986761806566,1239789219
sts,-62.0695762634277,-56.4266052246093,-106.44755297384195,-125.89845668696105,1239805886
sts,-59.9776077270507,-54.1178932189941,-112.01125773444409,-124.39124772197918,1239822553
sts,-57.8889808654785,-51.8106727600097,-116.5606413848888,-121.66533290757069,1239839220
sts,-55.7430381774902,-49.6309776306152,-119.23332960567409,-118.48670536972287,1239855887
sts,-53.6127853393554,-47.5768775939941,-119.4040766583991,-115.74059747080125,1239872554
sts,-51.427017211914,-45.6585044860839,-116.93440858993173,-114.18427694148235,1239889221
sts,-49.267032623291,-43.6334953308105,-112.28232066839783,-114.24805482971423,1239905888
sts,-47.3530120849609,-41.4640235900878,-106.43056657422777,-115.93712345043787,1239922555
sts,-45.6355323791503,-39.2176399230957,-100.65049216971721,-118.8563062697523,1239939222
sts,-43.885684967041,-36.9244155883789,-96.17362724772835,-122.3453465582326,1239955889
sts,-42.0800971984863,-34.55224609375,-93.87438927772347,-125.67996969002544,1239972556
sts,-40.2892227172851,-31.9948577880859,-94.05947524041248,-128.27218936119814,1239989223
sts,-38.47652053833,-29.4925804138183,-96.41949479085018,-129.80165309683116,1240005890
sts,-36.3888320922851,-27.3147983551025,-100.14702289375501,-130.23605233953165,1240022557
sts,-34.1720161437988,-25.2733879089355,-104.17854254393062,-129.7492941114419,1240039224
sts,-31.9173507690429,-23.1554718017578,-107.48412030524608,-128.5976152651356,1240055891
sts,-29.751443862915,-20.9638519287109,-109.31820844409523,-127.03319745720529,1240072558
sts,-27.7041835784912,-18.5935688018798,-109.36658130484213,-125.30690508185756,1240089225
sts,-25.4999351501464,-15.9441680908203,-107.77120703202456,-123.75217595687644,1240105892
sts,-23.0686569213867,-13.2547960281372,-105.06044233531166,-122.88433297731375,1240122559
sts,-20.4927902221679,-10.655644416809,-102.02848868028131,-123.42536193520091,1240139226
sts,-17.8533363342285,-8.03497409820556,-99.59145025030523,-126.18977284447841,1240155893
sts,-15.2008352279663,-5.34225559234619,-98.62197701773783,-131.83226455321565,1240172560
sts,-12.5230064392089,-2.43071746826171,-99.75922602972031,-140.52698599042935,1240189227
sts,-9.69967365264892,0.840558350086212,-103.21178427998156,-151.6838258928026,1240205894
sts,-6.6005744934082,4.50210332870483,-108.59899196395003,-163.7964264090376,1240222561
sts,-3.24350214004516,8.31838417053222,-114.88620074881746,-174.47570575605096,1240239228
sts,0.317166596651077,11.5682659149169,-120.45253104135912,-180.68131221585188,1240255895
sts,3.69430041313171,14.5040063858032,-123.29628929281175,-179.14112885851338,1240272562
sts,7.00217533111572,17.6195831298828,-121.35161904275988,-166.93498454532295,1240289229
sts,10.1694431304931,20.4579467773437,-112.86864558886438,-142.17922464072984,1240305896
sts,12.9516677856445,22.9873504638671,-96.79327927737978,-104.66974658474464,1240322563
sts,14.8864164352417,25.3194141387939,-73.06838589427447,-56.26477146766889,1240339230
sts,15.7271099090576,24.5561656951904,-42.7756836695641,-0.7956600674500409,1240355897
sts,15.5130672454833,21.6209125518798,-8.062082453382127,56.563436596715434,1240372564
sts,14.2307176589965,19.6127414703369,28.15572576906124,110.30715991627278,1240389231
sts,12.131064414978,16.2389526367187,62.65813880272833,155.66313856272194,1240405898
sts,9.28459167480468,12.5497884750366,92.4690162820208,189.38979348430138,1240422565
sts,5.93591547012329,8.49307823181152,115.37083543025751,210.14320477531334,1240439232
sts,2.3080141544342,4.33112096786499,130.27958231069496,218.41807612867177,1240455899
sts,-1.29880344867706,0.242340952157974,137.39188856125872,216.17013145530646,1240472566
sts,-4.79575490951538,-3.77488088607788,138.0627961996185,206.26285361022587,1240489233
sts,-8.11104869842529,-7.59594631195068,134.4399623395273,191.8762665246576,1240505900
sts,-11.1871175765991,-11.068657875061,128.94939105951548,175.98691377223972,1240522567
sts,-14.0865173339843,-14.2557163238525,123.77035021849441,160.9889897479972,1240539234
sts,-16.9081001281738,-17.1859741210937,120.43402389092053,148.48811363333044,1240555901
sts,-19.6601047515869,-19.9783420562744,119.63360502878577,139.26762091675437,1240572568
sts,-22.3450775146484,-22.6608848571777,121.2633789745688,133.4019224919009,1240589235
sts,-25.0048465728759,-25.2865085601806,124.63813318670002,130.47008125773868,1240605902
sts,-27.6426658630371,-27.8102569580078,128.80300805401296,129.80737248965505,1240622569
sts,-30.2714366912841,-30.2859230041503,132.8357001322316,130.7303339576726,1240639236
sts,-32.8716506958007,-32.8229255676269,136.06413307459135,132.6866394652372,1240655903
sts,-35.5286636352539,-35.424030303955,138.1624060663919,135.31016330266047,1240672570
sts,-38.2056884765625,-38.0359535217285,139.13102492723294,138.39134037127496,1240689237
sts,-40.8728675842285,-40.6369552612304,139.1995208021088,141.7936107931016,1240705904
sts,-43.5665550231933,-43.2695159912109,138.70201936943178,145.35622998476308,1240722571
sts,-46.3023567199707,-45.9391288757324,137.96883755256465,148.8229076863746,1240739238
sts,-49.058422088623,-48.6390953063964,137.25643804970184,151.82490544692163,1240755905
sts,-51.8099098205566,-51.4487686157226,136.7156598076847,153.92817902911375,1240772572
sts,-54.6078567504882,-54.3902587890625,136.38532486727772,154.73167554978446,1240789239
sts,-57.4159851074218,-57.3604431152343,136.19825730297967,153.98429142474123,1240805906
sts,-60.2343406677246,-60.2906417846679,135.99317516152152,151.67802763499947,1240822573
sts,-62.9459533691406,-63.1006088256835,135.5312440400017,148.0796411166161,1240839240
sts,-65.4980392456054,-65.8330307006836,134.5187105837889,143.68168670316422,1240855907
sts,-67.9752807617187,-68.3590545654296,132.63913245753503,139.07886667238137,1240872574
sts,-70.4021072387695,-70.7206573486328,129.5992500182842,134.79877615729012,1240889241
sts,-72.7484588623046,-73.0151672363281,125.18664899113521,131.1320964741751,1240905908
sts,-74.9603729248046,-75.1954650878906,119.32416736313296,128.0116534907451,1240922575
sts,-76.9944152832031,-77.2399291992187,112.09440556300754,124.97884573401112,1240939242
sts,-78.7791442871093,-79.1568145751953,103.71117861540353,121.25161582612675,1240955909
sts,-80.3286056518554,-80.898567199707,94.43872812888016,115.87997398570332,1240972576
sts,-81.6324310302734,-82.3574829101562,84.49284865514652,107.95544383648722,1240989243
sts,-82.6089401245117,-83.4045944213867,73.97802046701845,96.83652689393779,1241005910
sts,-83.1913375854492,-84.2891387939453,62.903724254148806,82.35748003403205,1241022577
sts,-83.3769454956054,-84.8048019409179,51.28348119466414,64.9859562079113,1241039244
sts,-83.318603515625,-84.672737121582,39.27266572246948,45.879269593124775,1241055911
sts,-83.2660064697265,-84.1174697875976,27.272764224561243,26.780327579500632,1241072578
sts,-83.2502365112304,-83.3953018188476,15.93862749025821,9.724895353260877,1241089245
sts,-83.2259826660156,-83.2904586791992,6.0687455342779035,-3.3964922134433544,1241105912
sts,-83.2123031616211,-83.696907043457,-1.5870577639839039,-11.304864437320516,1241122579
sts,-83.1172943115234,-84.2442245483398,-6.531990472621612,-13.67923216564914,1241139246
sts,-83.1422805786132,-84.5794982910156,-8.666099970195546,-11.264436324738794,1241155913
sts,-83.3055877685546,-84.5394821166992,-8.32427083047914,-5.697237838671378,1241172580
sts,-83.4539260864257,-84.2794342041015,-6.201688538295556,0.9054268993196193,1241189247
sts,-83.5266189575195,-84.0232238769531,-3.192319946847856,6.484268494694091,1241205914
sts,-83.4745407104492,-83.7229919433593,-0.18613201319137646,9.552015889514367,1241222581
sts,-83.3478088378906,-83.4884414672851,2.119833432026391,9.530042156583075,1241239248
sts,-83.3194503784179,-83.5319519042968,3.344673533132226,6.796415125042988,1241255915
sts,-83.437744140625,-83.7319641113281,3.4496490061362364,2.4351113873824075,1241272582
sts,-83.5917663574218,-83.9308166503906,2.6698281361175282,-2.2027250326844796,1241289249
sts,-83.6924514770507,-83.9729537963867,1.3873382683498197,-5.9438925629154795,1241305916
sts,-83.700698852539,-83.8937606811523,-0.0026431827089551056,-8.085081446319904,1241322583
sts,-83.6743240356445,-83.8114776611328,-1.1900792192266805,-8.464062499007307,1241339250
sts,-83.6330871582031,-83.7669677734375,-1.9922054104863347,-7.344547530018744,1241355917
sts,-83.5955963134765,-83.7532730102539,-2.3443774443864944,-5.212082236840817,1241372584
sts,-83.597915649414,-83.7359085083007,-2.2621819050969982,-2.584580873889937,1241389251
sts,-83.6224365234375,-83.7253952026367,-1.8027334199409182,0.09765923238525423,1241405918
sts,-83.6237869262695,-83.7713394165039,-1.0454358824237393,2.492174999822743,1241422585
sts,-83.6462478637695,-83.8838729858398,-0.09676592033054449,4.315851202546086,1241439252
sts,-83.6839141845703,-84.0061264038086,0.8917533054753584,5.293840435459398,1241455919
sts,-83.7481536865234,-84.0713348388671,1.7112474532459063,5.134650310650626,1241472586
sts,-83.8300704956054,-84.0737152099609,2.1053924925597847,3.550751143888774,1241489253
sts,-83.8659515380859,-84.0517883300781,1.8073574299288826,0.3208497083609116,1241505920
sts,-83.8165512084961,-84.0845718383789,0.5925209445414615,-4.630894771765793,1241522587
sts,-83.7821807861328,-84.2091522216796,-1.6761628741044055,-11.175233953830588,1241539254
sts,-83.7865905761718,-84.3973083496093,-5.032317505561078,-18.971088332260276,1241555921
sts,-83.8880462646484,-84.5490036010742,-9.42646386720478,-27.526215553369518,1241572588
sts,-84.0799713134765,-84.5549392700195,-14.767695160607454,-36.312219292262114,1241589255
sts,-84.174087524414,-84.3068771362304,-20.958435088354875,-44.895946514462025,1241605922
sts,-84.1021270751953,-83.8504333496093,-27.89803683701134,-53.03847919790535,1241622589
sts,-83.8515930175781,-83.2698516845703,-35.45115265222316,-60.72300687617554,1241639256
sts,-83.5196228027343,-82.5719146728515,-43.401622780294126,-68.10204323812111,1241655923
sts,-83.1649398803711,-81.649055480957,-51.42746915437705,-75.38955074264994,1241672590
sts,-82.7301330566406,-80.4864044189453,-59.12793044417089,-82.74544132099204,1241689257
sts,-82.0338134765625,-79.0439682006836,-66.10937667387789,-90.19684069974964,1241705924
sts,-81.0009460449218,-77.348876953125,-72.10421148488255,-97.61692141255868,1241722591
sts,-79.7841339111328,-75.6302108764648,-77.07382422763168,-104.75470622450345,1241739258
sts,-78.4273910522461,-73.8885879516601,-81.24764007406232,-111.29447600324082,1241755925
sts,-76.8843994140625,-72.0266494750976,-85.07435019680007,-116.92597361569833,1241772592
sts,-75.1665649414062,-69.9561538696289,-89.09447619271666,-121.41651357079293,1241789259
sts,-73.2514495849609,-67.744155883789,-93.7711403333134,-124.67863906013048,1241805926
sts,-70.9831390380859,-65.3299713134765,-99.33047489195509,-126.81770854781057,1241822593
sts,-68.494888305664,-62.86181640625,-105.66129107165722,-128.13351263718863,1241839260
sts,-65.9889984130859,-60.4281730651855,-112.30640992062013,-129.05457621930785,1241855927
sts,-63.4895858764648,-58.0071716308593,-118.55227115806542,-130.00961294872687,1241872594
sts,-61.0343322753906,-55.4170913696289,-123.59723134745849,-131.27693479963017,1241889261
sts,-58.6872749328613,-52.7192878723144,-126.75713896765082,-132.8762167317261,1241905928
sts,-56.4630279541015,-50.0453720092773,-127.6543821777942,-134.55833663033698,1241922595
sts,-54.0996856689453,-47.4162712097168,-126.33946259229921,-135.90813562724264,1241939262
sts,-51.6806526184082,-44.8898315429687,-123.31070207556868,-136.5222034912755,1241955929
sts,-49.3709030151367,-42.347900390625,-119.41965595918037,-136.18604857541155,1241972596
sts,-47.3672103881835,-40.0691184997558,-115.67422373568174,-134.97167456847552,1241989263
sts,-45.3725700378418,-38.1230659484863,-112.98093988457961,-133.21217241489558,1242005930
sts,-43.4046325683593,-36.0666999816894,-111.89648248771078,-131.36924320654546,1242022597
sts,-41.4925346374511,-33.6378707885742,-112.46899094478708,-129.85917545712357,1242039264
sts,-39.3296737670898,-31.2551174163818,-114.22982070676179,-128.9121501481925,1242055931
sts,-36.7398452758789,-29.0997142791748,-116.34864520491038,-128.5108909724069,1242072598
sts,-34.0061416625976,-26.9923553466796,-117.90502521502468,-128.41958734665533,1242089265
sts,-31.2462577819824,-24.5079841613769,-118.18213999134845,-128.29391412487598,1242105932
sts,-28.6906261444091,-21.8468589782714,-116.87863777643919,-127.84705946177714,1242122599
sts,-26.5297451019287,-19.3624324798584,-114.17180902871486,-127.02216258546339,1242139266
sts,-24.4264850616455,-16.9405841827392,-110.63160312147103,-126.10371998382269,1242155933
sts,-22.0801448822021,-14.4963340759277,-107.04369862118797,-125.71351003182814,1242172600
sts,-19.4554271697998,-11.9215173721313,-104.21827761470641,-126.67801317574599,1242189267
sts,-16.7526302337646,-9.16426849365234,-102.8344145414519,-129.79717072716247,1242205934
sts,-14.0254364013671,-6.15746545791626,-103.32600398152319,-135.56717387998813,1242222601
sts,-11.2239189147949,-2.98688650131225,-105.79051790133768,-143.91297299550394,1242239268
sts,-8.41920280456543,0.229915007948875,-109.91033652886189,-153.98312346905283,1242255935
sts,-5.46664810180664,3.53395867347717,-114.90280073112015,-164.06159141468638,1242272602
sts,-2.25752449035644,7.19038963317871,-119.53430458100819,-171.65376303108985,1242289269
sts,1.1880360841751,10.9016761779785,-122.22961268198503,-173.78712019440567,1242305936
sts,4.54854774475097,14.5049686431884,-121.28095753574983,-167.51540031939876,1242322603
sts,7.63181114196777,17.6940517425537,-115.12768199757612,-150.54079352977655,1242339270
sts,10.3100872039794,20.2493000030517,-102.65436111983747,-121.80834342318785,1242355937
sts,12.5518388748168,21.9970417022705,-83.45029685645193,-81.912159011178,1242372604
sts,14.1732969284057,22.6058540344238,-57.97918321926397,-33.19067287858664,1242389271
sts,14.7733612060546,22.0114192962646,-27.61620445052938,20.53688817126248,1242405938
sts,14.2707719802856,20.236530303955,5.477265506683311,74.55070352069116,1242422605
sts,12.7404279708862,17.426586151123,38.64505245045912,124.00416688611045,1242439272
sts,10.4166889190673,13.9754800796508,69.15638797331054,164.7202843969079,1242455939
sts,7.43791151046752,9.9996919631958,94.67418498560994,193.84036825248563,1242472606
sts,4.04000616073608,5.81185913085937,113.66329518818345,210.2012623738947,1242489273
sts,0.519834041595459,1.57952165603637,125.63400885114643,214.38882053023232,1242505940
sts,-2.96885085105896,-2.57061600685119,131.15504392550585,208.48624813259346,1242522607
sts,-6.3219518661499,-6.52955198287963,131.63599636120304,195.589666199569,1242539274
sts,-9.49365711212158,-10.0744857788085,128.9479613878111,179.19561953590576,1242555941
sts,-12.4831275939941,-13.1829710006713,124.99463715630692,162.57897243021137,1242572608
sts,-15.3931016921997,-15.9593839645385,121.34869521471093,148.27728535225202,1242589275
sts,-18.2037181854248,-18.5588054656982,119.03314508762368,137.77740135856945,1242605942
sts,-20.9363365173339,-21.1584377288818,118.47254689219233,131.4574719131374,1242622609
sts,-23.6073608398437,-23.7877693176269,119.58607700101098,128.77578187999364,1242639276
sts,-26.255537033081,-26.4105377197265,121.96115356410768,128.6333190458434,1242655943
sts,-28.8371543884277,-29.0407600402832,125.04036491141186,129.79550809421684,1242672610
sts,-31.3916206359863,-31.6345977783203,128.2723045886771,131.25684705837813,1242689277
sts,-33.9630622863769,-34.2641906738281,131.20617980385205,132.46613117256223,1242705944
sts,-36.5729522705078,-36.9142150878906,133.53546800007615,133.37944050158913,1242722611
sts,-39.2056350708007,-39.5475997924804,135.107656081945,134.35393114624452,1242739278
sts,-41.9245414733886,-42.1613655090332,135.91549363585926,135.92967440159777,1242755945
sts,-44.7171516418457,-44.7305030822753,136.0769809295904,138.56882128633177,1242772612
sts,-47.5269241333007,-47.3149070739746,135.8032304973101,142.42965489721553,1242789279
sts,-50.3443145751953,-50.0411834716796,135.34996979194713,147.242837448028,1242805946
sts,-53.1531410217285,-52.9881973266601,134.9521953931604,152.32620911816102,1242822613
sts,-55.9683456420898,-55.9684753417968,134.7506630543342,156.73034847638738,1242839280
sts,-58.7772750854492,-58.9223480224609,134.72752731918064,159.46684360791528,1242855947
sts,-61.5509605407714,-61.825870513916,134.6708058469076,159.75105803297419,1242872614
sts,-64.1763916015625,-64.7382049560546,134.18257965936672,157.19426508516463,1242889281
sts,-66.7044601440429,-67.5251235961914,132.73722023163424,151.89746764194138,1242905948
sts,-69.0310974121093,-69.9476242065429,129.78600715726083,144.42311898358295,1242922615
sts,-71.2546005249023,-72.1373825073242,124.89228920127192,135.65000168039373,1242939282
sts,-73.3164749145507,-74.4360809326171,117.8657216796698,126.54672489246255,1242955949
sts,-75.1506195068359,-76.4883575439453,108.85049247459044,117.91945301280109,1242972616
sts,-76.7712783813476,-78.2985305786132,98.32400469611461,110.19344749581249,1242989283
sts,-78.207275390625,-79.9488525390625,86.98982031890905,103.28227778698538,1243005950
sts,-79.4789199829101,-81.3704223632812,75.59525056362743,96.58871225666473,1243022617
sts,-80.5022277832031,-82.441421508789,64.74439486221111,89.16118982603146,1243039284
sts,-81.1524276733398,-83.1346206665039,54.78409654858246,79.99227827962238,1243055951
sts,-81.4329681396484,-83.6249542236328,45.80457819793568,68.39478991260495,1243072618
sts,-81.5384521484375,-83.79736328125,37.737278944241176,54.34229142718057,1243089285
sts,-81.6516723632812,-83.8264236450195,30.4855043622131,38.6383311919608,1243105952
sts,-81.8778610229492,-83.9114074707031,24.017376741067537,22.812172263328733,1243122619
sts,-82.2122039794921,-84.050666809082,18.384242098087707,8.737338447978127,1243139286
sts,-82.5808563232421,-84.0685272216796,13.67270474501327,-1.905278810829766,1243155953
sts,-82.8720321655273,-84.0318222045898,9.926619578640015,-8.118612888106568,1243172620
sts,-82.9154815673828,-84.0437240600586,7.08097627912692,-9.853116030135878,1243189287
sts,-82.9204406738281,-84.0481338500976,4.941161698874885,-7.966198892266499,1243205954
sts,-82.9898300170898,-84.0217132568359,3.2226480460974964,-3.924634946174903,1243222621
sts,-82.9460372924804,-83.9491958618164,1.6391597719928288,0.6240200388155606,1243239288
sts,-82.7793045043945,-83.8660507202148,0.0025099065830947904,4.269633920204593,1243255955
sts,-82.5048294067382,-83.8304824829101,-1.7100002013830637,6.13473406488595,1243272622
sts,-82.2873382568359,-83.8956527709961,-3.3498632427775723,5.984999266469865,1243289289
sts,-82.4073867797851,-84.0421142578125,-4.655964561501301,4.154796349544094,1243305956
sts,-82.7080078125,-84.1639328002929,-5.3560750057956055,1.3446477791382574,1243322623
sts,-82.9924926757812,-84.2284393310546,-5.275450646671565,-1.6234067163061245,1243339290
sts,-83.0637893676757,-84.182502746582,-4.413141661523131,-4.017506451900339,1243355957
sts,-82.8319396972656,-84.0754013061523,-2.9557030734504677,-5.336427839411707,1243372624
sts,-82.6177597045898,-84.0260467529296,-1.2215353582260997,-5.375377714774924,1243389291
sts,-82.5499954223632,-84.0300140380859,0.44012224951814216,-4.228920060380326,1243405958
sts,-82.5039138793945,-84.0684585571289,1.7512734077015915,-2.240705816261882,1243422625
sts,-82.4849548339843,-84.1375961303711,2.5688991187109167,0.0945082042336102,1243439292
sts,-82.4255294799804,-84.1996841430664,2.8962010915427268,2.2635578128937097,1243455959
sts,-82.3813247680664,-84.2447280883789,2.8522850845582237,3.8706657241891875,1243472626
sts,-82.4823455810546,-84.2692337036132,2.620064691983172,4.731430158286251,1243489293
sts,-82.641372680664,-84.2662582397461,2.3873543605175294,4.889962538644297,1243505960
sts,-82.7596588134765,-84.2613067626953,2.2914768969492427,4.557169417921256,1243522627
sts,-82.7807998657226,-84.2484436035156,2.3800037136733914,4.00394616852807,1243539294
sts,-82.6825408935546,-84.2402725219726,2.6022208080957734,3.4584644622825067,1243555961
sts,-82.611587524414,-84.2265396118164,2.8377935564789722,3.0456181253898436,1243572628
sts,-82.6222991943359,-84.2322463989257,2.9520777560015414,2.7812800324039415,1243589295
sts,-82.6591491699218,-84.270393371582,2.8534000604895553,2.610367244613707,1243605962
sts,-82.6840133666992,-84.3049163818359,2.5273716074492656,2.463772622239432,1243622629
sts,-82.6754455566406,-84.3211135864257,2.037049358480715,2.306113948546681,1243639296
sts,-82.6576538085937,-84.3108367919921,1.4953152200564703,2.1539971286669157,1243655963
sts,-82.6275482177734,-84.278205871582,1.0260063867459315,2.0611992986956222,1243672630
sts,-82.6185531616211,-84.2466735839843,0.7294086284992358,2.084734026559009,1243689297
sts,-82.6170120239257,-84.2497787475586,0.6602273779526964,2.2528797823351323,1243705964
sts,-82.6194610595703,-84.2964859008789,0.8193462115177206,2.54922311690712,1243722631
sts,-82.6506271362304,-84.3331298828125,1.1584224736610025,2.914124790731813,1243739298
sts,-82.6708450317382,-84.3397445678711,1.5965557466976936,3.258204316236593,1243755965
sts,-82.6682357788086,-84.3196640014648,2.046044142988371,3.4836117529521307,1243772632
sts,-82.6727142333984,-84.3127288818359,2.438720966152071,3.51062542618762,1243789299
sts,-82.6976318359375,-84.3422393798828,2.741293622107465,3.30353774563853,1243805966
sts,-82.7334289550781,-84.3620529174804,2.9533186556693387,2.8847755098126266,1243822633
sts,-82.7489395141601,-84.3370132446289,3.0921734754055805,2.328580800816643,1243839300
sts,-82.7363128662109,-84.292984008789,3.176026495444089,1.7365402941310173,1243855967
sts,-82.7219619750976,-84.2690277099609,3.2129823479383752,1.2071284075027566,1243872634
sts,-82.7220916748046,-84.315559387207,3.197017008525063,0.8113565272492829,1243889301
sts,-82.7153015136718,-84.3809585571289,3.1074803761200958,0.5793201232389671,1243905968
sts,-82.737075805664,-84.3923797607421,2.9112611036086986,0.4972314175723702,1243922635
sts,-82.7617797851562,-84.3578491210937,2.570200726685658,0.5144847771969356,1243939302
sts,-82.7672042846679,-84.3376998901367,2.0556284256583033,0.5601576984768146,1243955969
sts,-82.7514877319336,-84.362434387207,1.3669194891984366,0.5645319258323778,1243972636
sts,-82.7175979614257,-84.4141616821289,0.5460019253116168,0.4775990727579844,1243989303
sts,-82.7138214111328,-84.4371490478515,-0.3210547177511905,0.27830790170555864,1244005970
sts,-82.7508087158203,-84.4018249511718,-1.1195096268696434,-0.025430962094117018,1244022637
sts,-82.7672042846679,-84.3444900512695,-1.7345716595010383,-0.4013584781568806,1244039304
sts,-82.7545700073242,-84.32373046875,-2.0826347945807133,-0.7987512653625444,1244055971
sts,-82.7378768920898,-84.3676834106445,-2.133590358367906,-1.1569309332410571,1244072638
sts,-82.7549514770507,-84.4312667846679,-1.917345061770943,-1.4193431213341168,1244089305
sts,-82.7757186889648,-84.4535217285156,-1.5141550761750178,-1.5515306853705115,1244105972
sts,-82.7911911010742,-84.4225463867187,-1.0331681000120778,-1.5548450000129987,1244122639
sts,-82.7877349853515,-84.3721084594726,-0.585910673721498,-1.4667382794279702,1244139306
sts,-82.7744216918945,-84.3655242919921,-0.261757338555077,-1.3452384539790705,1244155973
sts,-82.7740402221679,-84.3917465209961,-0.11068411742370947,-1.244470119396358,1244172640
sts,-82.7708892822265,-84.4032211303711,-0.1355264247247967,-1.1926967832356403,1244189307
sts,-82.7535171508789,-84.3946533203125,-0.2936001555089085,-1.1820394806617112,1244205974
sts,-82.7300796508789,-84.3798446655273,-0.5073823336668372,-1.172909613994576,1244222641
sts,-82.7461776733398,-84.3773345947265,-0.6845050770848173,-1.1104000099919091,1244239308
sts,-82.7758560180664,-84.4017105102539,-0.7454260165256678,-0.9462912136118087,1244255975
sts,-82.7933120727539,-84.4081954956054,-0.65239775802954,-0.658969015874701,1244272642
sts,-82.7987289428711,-84.3817291259765,-0.42974531426951845,-0.2642934699483054,1244289309
sts,-82.7939147949218,-84.3404769897461,-0.16691496822491012,0.18654683517692347,1244305976
sts,-82.7912979125976,-84.3153533935546,-0.0014637331830731626,0.6216443253933186,1244322643
sts,-82.7936172485351,-84.3132858276367,-0.08510856642567377,0.9706889848217297,1244339310
sts,-82.7858810424804,-84.3183517456054,-0.5401515202793514,1.1876912630901433,1244355977
sts,-82.8053817749023,-84.3015060424804,-1.4171456843485668,1.2661166153997907,1244372644
sts,-82.843521118164,-84.2393188476562,-2.6676144920935143,1.239852144111797,1244389311
sts,-82.9248733520507,-84.1552124023437,-4.144468860436259,1.1676022873404863,1244405978
sts,-83.0706634521484,-84.0791473388671,-5.634118459087358,1.1048589804554307,1244422645
sts,-83.2062149047851,-84.0115585327148,-6.910571944027169,1.0741273295707285,1244439312
sts,-83.3216323852539,-83.9386138916015,-7.791523106879088,1.0468462278794737,1244455979
sts,-83.4448013305664,-83.8674545288086,-8.177061747954278,0.9465185219473222,1244472646
sts,-83.5694046020507,-83.7850494384765,-8.062179211451015,0.6729649908560901,1244489313
sts,-83.7283630371093,-83.6731872558593,-7.525817420722253,0.1375673967860321,1244505980
sts,-83.901985168457,-83.541145324707,-6.704431378782451,-0.705711171165797,1244522647
sts,-84.0434951782226,-83.4065017700195,-5.757598666717597,-1.8468667155075797,1244539314
sts,-84.1510848999023,-83.2725296020507,-4.832715767293522,-3.229700204109539,1244555981
sts,-84.2892074584961,-83.1317062377929,-4.037749525980499,-4.78061019703736,1244572648
sts,-84.4559249877929,-82.9823913574218,-3.4315592714150625,-6.443945078229496,1244589315
sts,-84.6519241333007,-82.8185653686523,-3.0355485054590354,-8.209309194204621,1244605982
sts,-84.8705368041992,-82.6215591430664,-2.859436203494812,-10.12008603142073,1244622649
sts,-85.0874557495117,-82.3963851928711,-2.9251973093009354,-12.259935469991973,1244639316
sts,-85.2673721313476,-82.1599807739257,-3.2738514732162,-14.722324156823069,1244655983
sts,-85.4730758666992,-81.9232330322265,-3.9501754495135377,-17.574416890562546,1244672650
sts,-85.7149047851562,-81.6816635131836,-4.973469464191137,-20.828029525547947,1244689317
sts,-85.9829788208007,-81.4277877807617,-6.309226220946172,-24.426168957627183,1244705984
sts,-86.2557678222656,-81.1430587768554,-7.853744917352886,-28.24683546408534,1244722651
sts,-86.5301666259765,-80.8030319213867,-9.436139576687083,-32.1199732649129,1244739318
sts,-86.8092346191406,-80.3729400634765,-10.83665256448862,-35.85025630868636,1244755985
sts,-87.1152725219726,-79.855728149414,-11.818832710233883,-39.23780335063708,1244772652
sts,-87.4481048583984,-79.262580871582,-12.172784316763176,-42.09139000372099,1244789319
sts,-87.7771835327148,-78.59912109375,-11.763689610788948,-44.234184939975066,1244805986
sts,-88.1237258911132,-77.8890228271484,-10.574364414134672,-45.50778638719622,1244822653
sts,-88.403205871582,-77.1191940307617,-8.726654427358561,-45.782165721792666,1244839320
sts,-88.5210418701171,-76.3017578125,-6.4687085967589075,-44.97485109759739,1244855987
sts,-88.5320663452148,-75.4808959960937,-4.125928240108808,-43.07443484236148,1244872654
sts,-88.5240859985351,-74.6894454956054,-2.029426209063795,-40.15694471171323,1244889321
sts,-88.5295333862304,-73.95751953125,-0.4474828844431823,-36.383983192238716,1244905988
sts,-88.4983215332031,-73.3267669677734,0.4565915132077931,-31.9789019507325,1244922655
sts,-88.389175415039,-72.7968978881836,0.6318974714899857,-27.186654972257497,1244939322
sts,-88.2166671752929,-72.3381958007812,0.12137311779608267,-22.229134443033875,1244955989
sts,-88.0448532104492,-71.9403991699218,-0.9664669543224972,-17.26873459152638,1244972656
sts,-87.9337997436523,-71.6023864746093,-2.4828080247753306,-12.389358731048201,1244989323
sts,-87.9087524414062,-71.3581924438476,-4.256800078100971,-7.598218277401786,1245005990
sts,-87.9676055908203,-71.2039642333984,-6.109216140175645,-2.846174614758316,1245022657
