Label,Left_Hip_q,Right_Hip_q,Left_Hip_qd,Right_Hip_qd,SampleTimeFine
sq,24.7277359008789,38.0375732421875,69.3025588989267,191.597819328308,48285273
sq,25.8365768432617,41.1031383514404,131.5607663423496,158.2662040729247,48301940
sq,27.935228729248,43.6533531188965,127.03087904760017,165.55226312905646,48318607
sq,29.5583099365234,46.7557796478271,123.97081232129459,172.60143289433518,48335274
sq,30.7315887451172,49.9380191802979,123.52014103920132,178.39067004156715,48351941
sq,32.4526809692383,52.7066253662109,126.05452088266802,181.98284280611455,48368608
sq,34.7519706726074,55.4427722930908,131.17220742507692,182.60040086439068,48385275
sq,36.9767879486084,58.1908849716187,137.92245360544666,179.69384804281316,48401942
sq,39.4110473632812,60.4646810531616,145.144866096033,173.0741491726925,48418609
sq,41.8987564086914,63.1788648605347,151.77939829250133,163.1315815213758,48435276
sq,44.4052032470703,66.3713573455811,157.05426019384808,151.07864284874722,48451943
sq,46.9850582122803,68.7781313896179,160.52538156837653,139.082720874349,48468610
sq,49.4881948471069,71.5498773694038,161.99978218760748,130.1426863605191,48485277
sq,51.8651203155517,73.8617476463318,161.41256285178187,127.62320943439995,48501944
sq,54.3594621658325,75.977746629715,158.73560778404038,134.4661014209391,48518611
sq,56.6936820983887,78.6808938026428,153.97415529323635,152.21762133299885,48535278
sq,59.1933011054993,80.8838542938232,147.2635698683403,180.123080524226,48551945
sq,61.6161948680878,82.7294258117676,139.0299421753514,214.6206870488883,48568612
sq,63.9164899230003,84.7710069656372,130.14282384981752,249.5633900573825,48585279
sq,66.0481645107269,86.4744533538818,121.97700943415215,277.3389013780558,48601946
sq,68.1323915958405,91.6885723114014,116.31198124760718,290.72319644994485,48618613
sq,70.3425330162048,99.8630279541016,115.02734827429218,284.91150155547587,48635280
sq,72.486932182312,104.61658706665,119.60126897710025,258.96718096863344,48651947
sq,74.4143594741821,111.04094543457,130.4898668798842,216.09369165622599,48668614
sq,76.3523124694824,114.072729492188,146.5482340497307,162.60556816156344,48685281
sq,78.2946523666382,114.969351196289,164.71591755647387,105.99585404910776,48701948
sq,80.0733999252319,115.518217468262,180.19145095117827,52.815549330290466,48718615
sq,81.6008380889893,115.550459289551,187.22648235132476,7.077108867612653,48735282
sq,83.6396469116211,115.291078948975,180.4639219781543,-30.37865469451586,48751949
sq,89.3918479919434,114.834139251709,156.47182214477846,-61.48612479707432,48768616
sq,93.7604335784912,114.095167541504,114.93591479798357,-89.77450750604113,48785283
sq,95.6921752929688,113.029241943359,59.04336232333502,-118.8249449754724,48801950
sq,95.4229625701904,111.607462310791,-5.0799686876178365,-150.8268082642363,48818617
sq,94.8335441589356,109.491674804688,-69.6511493868202,-185.63188559126908,48835284
sq,94.0251239776611,107.208616638184,-126.83178298207662,-220.57431520677716,48851951
sq,92.8238052368164,105.144468688965,-170.2825377106712,-251.14273109466237,48868618
sq,89.720972442627,101.708736801147,-196.38255298347414,-272.3554964379638,48885285
sq,84.913484954834,95.0266307830811,-204.85592579901052,-280.4248172693643,48901952
sq,79.3736919403076,89.0166248321533,-198.6028832394976,-274.1162799381586,48918619
sq,77.501767539978,83.6488527297974,-182.73392824860784,-255.27145729602802,48935286
sq,76.7179321289063,78.5279644966126,-163.11342355592845,-228.29561993314496,48951953
sq,74.176403427124,77.8803795814514,-144.92063896358502,-198.85693392755874,48968620
sq,72.1754344940186,75.1812645435333,-131.66976719796665,-172.3471643842423,48985287
sq,69.9401792526245,72.62347163409,-124.8689172798082,-152.66129158757488,49001954
sq,67.8337067604065,70.5414606571198,-124.24149830523379,-141.61196094350473,49018621
sq,65.613740170002,67.8715261459351,-128.29754963360637,-138.99322993111625,49035288
sq,63.2929579257965,65.4511975288391,-135.0190138786606,-143.10411887103444,49051955
sq,60.9079836845398,62.7897819519043,-142.46542298713706,-151.47314551007355,49068622
sq,58.5674046516418,60.273345375061,-149.18134241300123,-161.55461349266682,49085289
sq,56.1999649047851,57.6622537612915,-154.36928355012063,-171.24722227348394,49101956
sq,53.7816566467285,54.706661605835,-157.85926292218963,-179.17328953496815,49118623
sq,51.3280042648315,51.932039642334,-159.94459582477663,-184.72715061981756,49135290
sq,48.8603633880615,49.1219161987305,-161.16199830139,-187.94745885794302,49151957
sq,46.2599052429199,46.0718978881836,-162.08176485253807,-189.29030778103683,49168624
sq,43.7284091949463,43.1189693450928,-163.15230290498928,-189.3797049981558,49185291
sq,41.2836250305176,40.244051361084,-164.62047275400167,-188.79531430570384,49201958
sq,38.5867599487305,37.2598785400391,-166.52667764603524,-187.93278799537447,49218625
sq,35.833967590332,34.2081169128418,-168.75210294178248,-186.94432795644948,49235292
sq,33.0082401275635,31.0368865966797,-171.0819988774323,-185.74306738333394,49251959
sq,30.1580261230469,28.036791229248,-173.25316183950883,-184.04557325079034,49268626
sq,27.6735061645508,25.2967247009277,-174.97452993010074,-181.43558747714803,49285293
sq,24.8719314575195,22.5078414916992,-175.93072735456332,-177.44503305430834,49301960
sq,21.870703125,19.6112503051758,-175.78359543287115,-171.64650040546326,49318627
sq,19.1236061096191,16.6287254333496,-174.17887769970963,-163.73447545350754,49335294
sq,16.3653854370117,13.9460891723633,-170.75965879273357,-153.56129701542864,49351961
sq,13.6514305114746,11.4405387878418,-165.19053370906363,-141.10659842493632,49368628
sq,11.0975593566894,9.17988052368164,-157.19789382801855,-126.39172326409273,49385295
sq,8.62873306274414,7.29906311035156,-146.62435692497615,-109.38313992365882,49401962
sq,6.10335006713867,5.74912872314453,-133.48208504954334,-89.94278558696531,49418629
sq,3.89227142333984,4.42004241943359,-117.98080053612323,-67.87031008089298,49435296
sq,2.01404800415039,3.36559143066406,-100.51129390026682,-43.045406706729715,49451963
sq,0.443693542480469,2.64606323242187,-81.58340935061,-15.631868294455984,49468630
sq,-0.871842956542968,2.22951354980469,-61.73702973702971,13.731756838951947,49485297
sq,-1.838525390625,2.21834411621094,-41.45459402417895,43.84123589533677,49501964
sq,-2.41080627441406,2.79976501464844,-21.102798045933362,73.00109008863356,49518631
sq,-2.64396057128906,3.82774200439453,-0.9220737317080966,99.2820826586717,49535298
sq,-2.65879974365234,5.36311950683594,18.933985885581144,120.91819954370193,49551965
sq,-2.45045623779297,7.47428741455078,38.32801070874974,136.74341124910595,49568632
sq,-1.90939483642578,9.97439804077148,57.071647321240285,146.53563805863897,49585299
sq,-1.18087158203125,12.4170974731445,74.89601055313157,151.14039771424027,49601966
sq,0.0490936279296879,15.4069160461426,91.4747222684135,152.29554946349273,49618633
sq,1.79096450805664,18.2396873474121,106.48678823718086,152.16682787145027,49635300
sq,3.48154678344727,20.1540740966797,119.68926086703189,152.71509378105208,49651967
sq,5.03142013549804,21.9120544433594,130.97226440969848,155.11092504701008,49668634
sq,7.32049407958984,23.6812004089355,140.37976313860497,159.43000549098028,49685301
sq,10.0788520812988,25.8487342834473,148.08450421685916,164.76606754340614,49701968
sq,12.4262718200684,28.8021949768066,154.3152852298773,169.71752703179004,49718635
sq,14.1819557189941,32.2217124938965,159.26347655169673,173.02960558382742,49735302
sq,16.7075790405273,36.0618309020996,163.02144841512126,174.10184639425307,49751969
sq,19.540926361084,39.2104782104492,165.5904097420474,173.14783492688443,49768636
sq,22.2163986206055,41.1736663818359,166.94534392155884,170.9814307101159,49785303
sq,25.2810119628906,43.1631130218506,167.1083536158621,168.58876818814852,49801970
sq,27.4280342102051,45.9266590118408,166.18742957207655,166.71453795760647,49818637
sq,30.4117454528809,48.5720142364502,164.36765930373673,165.62414059902437,49835304
sq,33.1607536315918,51.2603591918945,161.86626616248515,165.07966909176227,49851971
sq,35.4709495544434,54.0612510681152,158.87428408497956,164.47679410192777,49868638
sq,37.9324935913086,56.6410879135132,155.512393432308,163.05880908581952,49885305
sq,40.3811172485351,59.3224672317505,151.82308912116653,160.13188481220564,49901972
sq,42.8678268432617,61.985916519165,147.80043998996862,155.2264378768414,49918639
sq,45.4268306732178,64.6027192115784,143.4339362036097,148.17313982905262,49935306
sq,47.7486938476562,66.9611991882324,138.73468227773748,139.0887170035039,49951973
sq,49.9601301193237,68.9876679420471,133.7270119320314,128.29407445215327,49968640
sq,52.0194772720337,70.9913226604462,128.41399425541016,116.20416302519533,49985307
sq,53.9474653244018,72.8983367919922,122.7422679683506,103.22579093035189,50001974
sq,55.8814958572388,74.782137298584,116.5893939937328,89.68314458031259,50018641
sq,57.8912147521973,75.8749312400818,109.77952063740821,75.77861068495925,50035308
sq,59.6667412757874,77.0716723442078,102.11550085483935,61.59387187734662,50051975
sq,61.3325263500214,78.1230515480042,93.4111677002827,47.13113858433475,50068642
sq,62.7568177223206,78.9234317779541,83.51662887944771,32.37978263206274,50085309
sq,63.9741961598396,79.5186437606812,72.34013003963348,17.380642624343647,50101976
sq,65.2135513663292,79.7951082229614,59.87081806433166,2.2616625241664594,50118643
sq,66.2744702339172,79.8738278388977,46.198378061217255,-12.767219340167744,50135310
sq,66.9950880050659,79.6553672790527,31.519219738626802,-27.45489227667929,50151977
sq,67.4520730018616,79.1712383270264,16.122668050978874,-41.56786818084735,50168644
sq,67.7338840007782,78.5142363548279,0.36013971934760347,-54.94371769501936,50185311
sq,67.7125779628754,77.5066584587097,-15.393795018269321,-67.51796164877088,50201978
sq,67.4880250930786,76.4406594276428,-30.779930097686258,-79.31269415192536,50218645
sq,66.9564827919006,75.1832357883453,-45.48689744772824,-90.38966539453534,50235312
sq,66.289085650444,73.7413952589035,-59.274241972664846,-100.78494938478687,50251979
sq,65.2973451852799,72.167692387104,-71.98370581758768,-110.45089872462447,50268646
sq,64.1319097518921,70.4948789119721,-83.53654298030665,-119.23077784409435,50285313
sq,62.7395311832428,68.6518694400787,-93.9159350255323,-126.88210792745384,50301980
sq,61.2857541084289,66.5837205886841,-103.13780521414729,-133.14810910628393,50318647
sq,59.6282652854919,64.4082788467407,-111.21950004225504,-137.8579813429816,50335314
sq,57.9328845977783,62.2183517456055,-118.15957220675551,-141.02416681999395,50351981
sq,56.0113300323486,59.8647512435913,-123.93960236628497,-142.90309134107054,50368648
sq,54.0843690872192,57.5100826263428,-128.55101526448055,-143.99430856842216,50385315
sq,52.0297159194946,55.1950439453125,-132.0395601181689,-144.96852338390516,50401982
sq,49.8694480895996,52.8249820709229,-134.55111038852166,-146.53471767137307,50418649
sq,47.6527370452881,50.5480617523193,-136.35780469359065,-149.27583199926733,50435316
sq,45.4494594573975,48.253837966919,-137.8462189573005,-153.49476228784806,50451983
sq,43.176969909668,45.8125518798828,-139.4600545131819,-159.11280513929347,50468650
sq,40.9699443817139,43.3341678619385,-141.60564583810304,-165.65063883308926,50485317
sq,38.7277702331543,40.7657741546631,-144.54383941325386,-172.30170552141914,50501984
sq,36.4604801177979,38.0142349243164,-148.3009772443729,-178.08484419251621,50518651
sq,34.2356170654297,35.1326164245606,-152.63069524940286,-182.04136551705338,50535318
sq,31.8456558227539,32.1119903564453,-157.04503663283865,-183.42670242056184,50551985
sq,29.2865699768066,28.9671806335449,-160.91034401793414,-181.84576002168367,50568652
sq,26.589208984375,26.113306427002,-163.57966855632898,-177.29857587899468,50585319
sq,23.9335502624512,23.3385757446289,-164.52167826913748,-170.13311336302098,50601986
sq,21.3033699035645,20.621263885498,-163.4121553103519,-160.9295380752664,50618653
sq,18.7420028686523,18.1021751403809,-160.1712067646252,-150.35213131507558,50635320
sq,16.0882820129395,15.6717666625976,-154.94503563496423,-139.00115160322363,50651987
sq,13.5550521850586,13.4436058044434,-148.04062519978422,-127.28702239576606,50668654
sq,11.2166427612305,11.4084991455078,-139.8292696770142,-115.34146685631681,50685321
sq,9.03960647583009,9.5782341003418,-130.64375733198554,-102.9769035788685,50701988
sq,7.06506576538086,7.91404571533203,-120.69900054973999,-89.70468511962852,50718655
sq,5.23740997314453,6.55806579589844,-110.05878380963125,-74.82151209242926,50735322
sq,3.35618438720703,5.46178283691406,-98.65139125973859,-57.56815708254704,50751989
sq,1.62692489624023,4.68234100341797,-86.31535308444441,-37.35117524456981,50768656
sq,0.183592224121094,4.11443939208984,-72.84942681500712,-13.99390036218245,50785323
sq,-0.839013671875,3.66081848144531,-58.05400020877999,12.046683312038455,50801990
sq,-1.72213134765625,3.65541687011719,-41.771801604779554,39.57899426052599,50818657
sq,-2.32643280029297,4.04930725097656,-23.944725576699096,66.76190635255473,50835324
sq,-2.65128479003906,4.92944183349609,-4.69321417780956,91.39806939773611,50851991
sq,-2.74353942871094,6.47275390625,15.597145825033762,111.38723587098374,50868658
sq,-2.59845886230469,8.47706451416016,36.217454959752516,125.22494022109152,50885325
sq,-2.13802490234375,10.8962120056152,56.14960692573433,132.399229430387,50901992
sq,-1.49124298095703,13.2045692443848,74.1852066840103,133.55787836821594,50918659
sq,-0.279214477539062,15.0136779785156,89.14950005240469,130.38402998830492,50935326
sq,1.27035369873048,17.8747085571289,100.18644131982276,125.20081327153386,50951993
sq,2.87232055664062,19.9148506164551,107.0239803702832,120.40164805151318,50968660
sq,4.7174819946289,20.8165382385254,110.12541478116987,117.86453108152742,50985327
sq,7.09977951049804,22.3715156555176,110.65038687471367,118.53403406432615,51001994
sq,9.00170364379884,24.1060050964355,110.20031575077553,122.30672101729145,51018661
sq,10.3482727050781,26.3566192626953,110.40202647370012,128.23769296562068,51035328
sq,11.9462265014648,28.4710220336914,112.45961217815963,134.96334983259834,51051995
sq,13.4839614868164,30.7871116638184,116.83284938281807,141.17302622885447,51068662
sq,14.7512420654297,33.4924606323242,123.15929055377353,145.9718318458525,51085329
sq,16.8623718261719,36.1285423278809,130.44365843281489,149.0368248320021,51101996
sq,19.3800682067871,38.2171424865723,137.4322232852017,150.5546776357559,51118663
sq,21.8607849121094,40.3042320251465,143.01965573248984,151.0116864196292,51135330
sq,24.4146064758301,42.569958114624,146.53796961279,150.94790779844297,51151997
sq,26.8724960327148,45.1943248748779,147.84793271978813,150.7691475225435,51168664
sq,28.8308052062988,47.3608688354492,147.2484705227254,150.65810555022253,51185331
sq,30.9990447998047,49.6973365783691,145.28673166481812,150.57746695832222,51201998
sq,33.3694137573242,52.6412853240967,142.56249715275464,150.33012695696695,51218665
sq,35.7047504425049,54.8445972442627,139.58591930495803,149.63583216627185,51235332
sq,37.8879169464111,57.0451444625854,136.7032241905794,148.19712975685297,51251999
sq,40.0553573608398,59.4864925384521,134.07852500180547,145.74732920582088,51268666
sq,42.3134941101074,61.9951499938965,131.71234634947612,142.08065341517326,51285333
sq,44.3736328125,64.2565073013306,129.47848538005596,137.0614765591859,51302000
sq,46.4888671875,66.4223789215088,127.16549975723247,130.61259723915364,51318667
sq,48.4838203430176,68.3862952232361,124.5159227825752,122.69459271739589,51335334
sq,50.4538234710693,70.2708407878876,121.2616928065556,113.29440588830448,51352001
sq,52.3756135940552,72.157433205843,117.15504606440535,102.43177166629538,51368668
sq,54.3460906982422,73.9578763484955,111.99125671257512,90.17514027555616,51385335
sq,56.1840805053711,75.414226436615,105.61825141682833,76.65120133246147,51402002
sq,57.856018447876,76.5507792472839,97.9331652532828,62.04119739807007,51418669
sq,59.2775687217712,77.2891162872315,88.87527498057777,46.57159679810424,51435336
sq,60.6312431335449,78.2751964569092,78.42864774736364,30.508700002001287,51452003
sq,61.9863370895386,78.8878282546997,66.63904027977235,14.154932406045303,51468670
sq,63.1595834732056,78.9925302505493,53.63418385305266,-2.1639400411379306,51485337
sq,64.0494267582893,78.9154552459717,39.629682720474534,-18.125386782516195,51502004
sq,64.6228206396103,78.6686495780945,24.911612447049407,-33.4439478558129,51518671
sq,64.9385388266295,78.1878332138062,9.802618045666684,-47.90202333327777,51535338
sq,65.1336770296097,77.3575910568237,-5.373555363442235,-61.36939813521143,51552005
sq,65.0303541511297,76.3229283332825,-20.318199901721204,-73.80452536774037,51568672
sq,64.7262357264757,75.0889688968659,-34.772691671464194,-85.2326946829826,51585339
sq,64.1940408587456,73.7529101610184,-48.52645653102751,-95.7041766544919,51602006
sq,63.4334051847458,72.3235262572765,-61.42168114096376,-105.24670208881311,51618673
sq,62.4272831916809,70.6807015180588,-73.3546053014314,-113.83211906906043,51635340
sq,61.2024277687073,68.8058010578156,-84.26927631951631,-121.37133163419115,51652007
sq,59.8115533828735,66.8609427452087,-94.13984936518611,-127.73913269720248,51668674
sq,58.320250415802,64.8508337974548,-102.94379078107555,-132.82044520664067,51685341
sq,56.7594474792481,62.7381309509277,-110.63740147892344,-136.56544296567506,51702008
sq,55.0442213058472,60.5344318389893,-117.14952025582537,-139.03965553970986,51718675
sq,53.1520589828491,58.256972694397,-122.40374212213567,-140.45379748135957,51735342
sq,51.2331260681152,55.9529632568359,-126.36606741764487,-141.15921415177172,51752009
sq,49.1420244216919,53.6896938323975,-129.1012529248268,-141.60203510323493,51768676
sq,47.0275310516357,51.4170593261719,-130.814176422517,-142.24159873805957,51785343
sq,44.9138168334961,49.1244987487793,-131.8549384196339,-143.4516240389028,51802010
sq,42.7469295501709,46.9681209564209,-132.67703735014098,-145.4306839068418,51818677
sq,40.6127323150635,44.6497959136963,-133.75306472246285,-148.14815045864566,51835344
sq,38.504663848877,42.2741836547851,-135.4673742225481,-151.34212530859443,51852011
sq,36.3919605255127,39.8941902160645,-138.01558768853883,-154.57061823784898,51868678
sq,34.2647651672363,37.4448913574219,-141.34249235457432,-157.30249553658982,51885345
sq,32.0504020690918,34.899454498291,-145.1406168073053,-159.02394823227445,51902012
sq,29.8083480834961,32.2194541931152,-148.9131401417046,-159.33070346612524,51918679
sq,27.3170227050781,29.605265045166,-152.0825631658832,-157.97928305730971,51935346
sq,24.7639373779297,27.0887283325195,-154.10987414808494,-154.88514454343712,51952013
sq,22.2475875854492,24.7224678039551,-154.5870607558586,-150.07642983905944,51968680
sq,19.7609733581543,22.270677947998,-153.28104787261933,-143.6275443146591,51985347
sq,17.4647621154785,19.9947151184082,-150.1300089239755,-135.59963743635183,52002014
sq,15.014013671875,17.9400428771973,-145.20857186009576,-126.00807294303637,52018681
sq,12.6704887390137,15.8971466064453,-138.6796368087377,-114.8260080717446,52035348
sq,10.4053100585938,14.0407852172851,-130.7437322280466,-102.02092747867626,52052015
sq,8.34700241088867,12.394987487793,-121.59288565900465,-87.61000285942845,52068682
sq,6.48821487426757,10.9729026794434,-111.37745047370534,-71.71467705023045,52085349
sq,4.70167770385742,9.84474792480469,-100.19469540902519,-54.59608643611771,52102016
sq,3.10328903198242,8.90360870361328,-88.10174392000579,-36.65799336111023,52118683
sq,1.71178283691406,8.23323669433594,-75.14493260309608,-18.4111048520591,52135350
sq,0.373892211914063,7.89629974365234,-61.38980045077929,-0.40372573744499707,52152017
sq,-0.654740905761718,8.04072418212891,-46.93655133157486,16.8616683818038,52168684
sq,-1.36205444335938,8.51934661865234,-31.91633256173041,32.99649435378048,52185351
sq,-1.78820953369141,8.87874450683594,-16.47841230302374,47.75506507557004,52202018
sq,-1.93589172363281,9.57485046386719,-0.7859967042937893,61.0207924639024,52218685
sq,-2.00030670166016,10.8145431518555,14.968732983627866,72.76543200673191,52235352
sq,-1.82639465332031,11.8621124267578,30.537117818964255,83.00701310167157,52252019
sq,-1.41353759765625,12.7597679138184,45.594408529504236,91.79345228844576,52268686
sq,-0.715447998046875,14.1902908325195,59.74767152854374,99.22759352309812,52285353
sq,0.3129638671875,16.1632675170898,72.57757734304575,105.51893386382397,52302020
sq,1.55542602539062,18.0485710144043,83.70610273111197,111.01451251884934,52318687
sq,2.75943222045899,19.8627151489258,92.87622603949364,116.16067503069974,52335354
sq,3.98857345581054,21.8675636291504,100.02922071430716,121.38871375563502,52352021
sq,5.9833625793457,23.2951873779297,105.3600265125153,126.97164910327332,52368688
sq,8.00591125488281,25.1593269348145,109.32383877346214,132.92648240800895,52385355
sq,9.20628204345703,27.4009918212891,112.5748408971802,139.01665327225348,52402022
sq,11.3088973999023,29.4874099731445,115.84450388282302,144.85642285940452,52418689
sq,13.0622810363769,31.9539283752441,119.79048276343242,150.06633649985594,52435356
sq,14.8243698120117,34.8793014526367,124.85106519478369,154.4055818458391,52452023
sq,17.0522369384766,37.1920989990234,131.131611517443,157.82317667747796,52468690
sq,19.4217399597168,39.5458320617676,138.34411148687795,160.4158586194987,52485357
sq,20.8801559448242,42.1399959564209,145.82476418281377,162.32780038499686,52502024
sq,23.0781539916992,44.6732124328613,152.65381825779667,163.64714481516,52518691
sq,25.622282409668,47.0970939636231,157.87241733767092,164.34296019469085,52535358
sq,28.5822891235352,49.7718643188476,160.73561077586064,164.25940529734706,52552025
sq,31.4837860107422,52.6713413238525,160.9040778156465,163.15721077307532,52568692
sq,33.9902709960937,55.145777130127,158.49966893421004,160.77765195260903,52585359
sq,36.3083213806152,57.6405223846436,154.0184071367366,156.90648954573473,52602026
sq,38.7033809661865,60.2391370773315,148.15739146494843,151.42612489051052,52618693
sq,40.9538558959961,62.6394952774048,141.63108999894845,144.34958343468784,52635360
sq,43.2540153503418,64.9275974273682,135.03062822444457,135.82830188323092,52652027
sq,45.461206817627,67.2753094673157,128.74431771563835,126.1254412473561,52668694
sq,47.5067371368408,69.3822971820831,122.93211983650373,115.55403808416983,52685361
sq,49.5853857040405,71.0390789747238,117.53824734408104,104.39509183277289,52702028
sq,51.33434715271,72.5427878704853,112.32984192199463,92.8261575511159,52718695
sq,53.0670293807983,74.0653652191162,106.9557471680896,80.89137231722249,52735362
sq,54.8531726837158,75.39365067482,101.01933691966471,68.52431299792387,52752029
sq,56.5395473480225,76.5143107414246,94.15291803063118,55.60972874936979,52768696
sq,58.0820244789124,77.4520596504211,86.0771945828574,42.05648128417592,52785363
sq,59.4234427452087,78.1077198028565,76.63492616757893,27.85575460225224,52802030
sq,60.5875801086426,78.6683682441711,65.79933428064471,13.108901712343219,52818697
sq,61.6529318332672,78.8338970184326,53.665010070171775,-1.9780772412973369,52835364
sq,62.5951575279236,78.7023991584778,40.42825470864807,-17.12503871363402,52852031
sq,63.1932693958283,78.417719745636,26.360331129620683,-32.01911972411802,52868698
sq,63.5851663589478,78.0263656616211,11.776834222386515,-46.355871710029575,52885365
sq,63.7713059425354,77.2227014541626,-2.9919742656567365,-59.87552314808505,52902032
sq,63.7271502256393,76.3166147708893,-17.62600745217743,-72.39204572226289,52918699
sq,63.468746805191,75.0210713386536,-31.83526527083429,-83.80974119028237,52935366
sq,62.9766196250916,73.7416234254837,-45.37715470854894,-94.12071306076015,52952033
sq,62.2879189491272,72.2009432554245,-58.071868202978145,-103.3814063219883,52968700
sq,61.2824453353882,70.5224021911621,-69.81175284366776,-111.67491502805443,52985367
sq,60.0966996192932,68.8110000133514,-80.55729581932759,-119.07288714627298,53002034
sq,58.8108633995056,66.9424337387085,-90.31546318929894,-125.6131674276201,53018701
sq,57.3996280670166,64.9836567878723,-99.10609015711223,-131.30488716619828,53035368
sq,55.8863052368164,62.8767999649048,-106.93221176827076,-136.1615303244614,53052035
sq,54.2211603164673,60.7080863952637,-113.77212685318368,-140.24839511850422,53068702
sq,52.424206161499,58.3077053070068,-119.6017949255979,-143.72062420284493,53085369
sq,50.4835199356079,55.984587097168,-124.44066036297168,-146.82798860742085,53102036
sq,48.4074920654297,53.6005138397217,-128.40065623810668,-149.874972990365,53118703
sq,46.3543609619141,51.3031143188476,-131.713808989256,-153.14412625157456,53135370
sq,44.2380813598633,48.770777130127,-134.71980219386205,-156.80692574387487,53152037
sq,41.9906143188476,46.3764747619629,-137.80704571504452,-160.85252037899232,53168704
sq,39.7286628723145,43.9310077667236,-141.31517637474383,-165.0600963291074,53185371
sq,37.5296710968018,41.2423099517822,-145.42227851120848,-169.0270282614785,53202038
sq,35.3234275817871,38.5192207336426,-150.053348229767,-172.24566543042178,53218705
sq,33.0492137908936,35.7575744628906,-154.8490286109768,-174.20410722771058,53235372
sq,30.6665557861328,32.8826889038086,-159.2178422702557,-174.47890826957627,53252039
sq,28.0742095947266,29.9718574523926,-162.46389811585888,-172.7930539750487,53268706
sq,25.3314117431641,27.2373603820801,-163.94954763408532,-169.02830186933187,53285373
sq,22.5633567810059,24.6899627685547,-163.23625554573485,-163.20053412372164,53302040
sq,19.8478225708008,22.1078895568848,-160.15706478070308,-155.41899455616021,53318707
sq,17.3620628356934,19.5425361633301,-154.80564978779012,-145.847249086813,53335374
sq,15.0092338562012,17.1321090698242,-147.46215001738403,-134.67127456455637,53352041
sq,12.6637596130371,15.0088485717773,-138.49548693988984,-122.07271624525313,53368708
sq,10.4693626403809,13.1562141418457,-128.27880966569302,-108.20857608473769,53385375
sq,8.43449249267578,11.4579261779785,-117.13762717840856,-93.20349752057363,53402042
sq,6.55094375610352,9.85489501953125,-105.33235821481175,-77.1579448438968,53418709
sq,4.88049163818359,8.59949340820312,-93.06534995921182,-60.16791380495552,53435376
sq,3.31142654418945,7.64859619140625,-80.49721038655493,-42.34933001938293,53452043
sq,2.00967636108399,7.08305969238281,-67.7579144512732,-23.865052162225084,53468710
sq,0.904341125488282,6.76093139648438,-54.94448776401208,-4.955369569234001,53485377
sq,0.0466903686523441,6.57584228515625,-42.107072105462755,14.03370084019901,53502044
sq,-0.585885620117187,6.77333679199219,-29.234010568638247,32.64161212943623,53518711
sq,-1.02728424072266,7.05638732910156,-16.24963372779316,50.32436523498366,53535378
sq,-1.29631195068359,7.8132080078125,-3.034548433299644,66.53094225421309,53552045
sq,-1.28080139160156,9.35016479492187,10.530069037579059,80.80379240151589,53568712
sq,-1.14672241210938,10.7275756835938,24.50175200481345,92.86585685901058,53585379
sq,-0.866265869140625,11.8876976013184,38.8137572253353,102.6691633143356,53602046
sq,-0.156495666503906,13.1904930114746,53.22555868434937,110.40720453815592,53618713
sq,0.921736145019532,15.0869354248047,67.30107629281292,116.49842787330289,53635380
sq,1.87290802001953,17.6671928405762,80.43197593882635,121.52377204566885,53652047
sq,2.69371261596679,20.0554641723633,91.93080246816498,126.0913215244339,53668714
sq,3.68693008422852,21.1851371765137,101.20837203445333,130.6460054056762,53685381
sq,5.49311294555664,22.7589820861816,107.99839659814758,135.31085733934063,53702048
sq,8.76695098876953,24.9799598693848,112.52328970609325,139.86021615660414,53718715
sq,10.8760513305664,27.5180534362793,115.48466282076072,143.85624126804615,53735382
sq,11.3755668640137,29.7530616760254,117.85596287802422,146.8863023185634,53752049
sq,12.9006217956543,32.1827987670898,120.58431135986257,148.78994045470705,53768716
sq,14.7760986328125,35.1477073669434,124.34799186977656,149.77442616624256,53785383
sq,17.3888648986816,37.5566352844238,129.43544179022905,150.36672154162187,53802050
sq,20.4375823974609,39.723356628418,135.71428791614832,151.21793656927215,53818717
sq,21.3043235778809,41.9263595581055,142.64846095369256,152.83967639822845,53835384
sq,23.1244758605957,44.2724842071533,149.37916427465387,155.37697948544374,53852051
sq,25.7257179260254,46.6517318725586,154.90803166236032,158.49804525359005,53868718
sq,28.503702545166,49.3013023376465,158.35987492209617,161.42945198885118,53885385
sq,31.838591003418,51.9588531494141,159.2245935467983,163.12007149398084,53902052
sq,34.0118564605713,54.462671661377,157.47253363660158,162.49445838159153,53918719
sq,36.330778503418,56.9518493652344,153.50949029634438,158.7521792482264,53935386
sq,38.9225448608398,59.3492235183716,148.0173911016502,151.66525052625826,53952053
sq,41.1042446136475,61.7840141296387,141.75858227904652,141.80810777106973,53968720
sq,43.230057144165,64.5155443191528,135.4073376774632,130.6307524491422,53985387
sq,45.5219425201416,67.1487788200378,129.4408279189326,120.28480397819415,54002054
sq,47.6420692443848,69.2133842945099,124.0930458880808,113.163274003106,54018721
sq,49.6659511566162,70.8464886188507,119.35849876764551,111.215520315846,54035388
sq,51.4198926925659,72.4569195449352,115.03083699162369,115.20554515054968,54052055
sq,53.2305511474609,74.1313412427902,110.76621602883154,124.1427054942632,54068722
sq,55.1253160476685,75.7191149234772,106.15978438177628,135.10759245066518,54085389
sq,56.9384087562561,77.128175163269,100.81731599130829,143.62795771858424,54102056
sq,58.5579322814941,78.2319849967957,94.40522339407836,144.6306191233868,54118723
sq,59.9030021667481,80.4392532348633,86.67570822647947,133.80035360794417,54135390
sq,61.2611333370209,85.0150054931641,77.47776740333465,108.96008529434994,54152057
sq,62.5732792854309,87.9227651596069,66.7655525089774,70.97552219335302,54168724
sq,63.6959659099579,89.0398372650147,54.605290877988196,23.80370340926762,54185391
sq,64.5754294931889,89.429426574707,41.17450760238238,-26.380840042354638,54202058
sq,65.1575623989105,88.8628982543945,26.749932290366115,-72.71268271094564,54218725
sq,65.5773796081543,87.3564485549927,11.686915694964933,-109.34172007756538,54235392
sq,65.7804171085358,84.4119037628174,-3.6055763110015087,-132.8085856531842,54252059
sq,65.7762027621269,80.4376424789429,-18.694570493770286,-142.68772134875442,54268726
sq,65.468049788475,78.4584220886231,-33.16051190882289,-141.33866136411126,54285393
sq,64.9809440687299,77.5289076805115,-46.642890803613085,-132.92311709476047,54302060
sq,64.2319170475006,75.7659586906433,-58.887156851949214,-122.09349056147572,54318727
sq,63.1896633148193,74.3699810743332,-69.7790777503737,-112.80707116082681,54335394
sq,62.0197974681854,72.6989620268345,-79.35140298182664,-107.57779540821207,54352061
sq,60.7594040870666,71.0919986009598,-87.75526803837064,-107.26439618136904,54368728
sq,59.3863142967224,69.2097910881043,-95.20276586224091,-111.31713271517167,54385395
sq,57.8817790985107,67.1439451217651,-101.89955331076284,-118.30405324633011,54402062
sq,56.3051790237427,64.9979228019714,-107.99034542951965,-126.5113574350746,54418729
sq,54.6124357223511,62.8040241241455,-113.53478034899813,-134.4473529072452,54435396
sq,52.8066400527954,60.6606687545776,-118.5197689798401,-141.1512974498425,54452063
sq,50.8980621337891,58.4366792678833,-122.90139984407766,-146.28536773193082,54468730
sq,48.9154943466187,56.0392288208008,-126.65899156480326,-150.04484568846868,54485397
sq,46.8173965454101,53.7046913146973,-129.83944644698988,-152.95084324287382,54502064
sq,44.7182430267334,51.2828144073486,-132.5732987665507,-155.59852698581832,54518731
sq,42.551237487793,48.9349388122559,-135.05401979737374,-158.43015850142768,54535398
sq,40.4303478240967,46.4925140380859,-137.48592817040554,-161.58817960538875,54552065
sq,38.2441028594971,43.9591831207275,-140.0182895100291,-164.87848209308515,54568732
sq,36.0424617767334,41.3178886413574,-142.68908316604615,-167.8418866349975,54585399
sq,33.8535274505615,38.5899833679199,-145.3992741817259,-169.90189970549872,54602066
sq,31.4891723632812,35.8336471557617,-147.9281015663602,-170.53808021442472,54618733
sq,29.1883834838867,33.0006126403809,-149.98518501297022,-169.43105727544196,54635400
sq,26.7168106079102,30.1065162658691,-151.28121139696322,-166.53730108527145,54652067
sq,24.198152923584,27.504190826416,-151.5911840791114,-162.07662651887676,54668734
sq,21.7110160827637,25.0216354370117,-150.78725376007895,-156.44569024996196,54685401
sq,19.2782806396484,22.5095695495605,-148.83283770554056,-150.0932780557676,54702068
sq,17.0365623474121,20.0996116638184,-145.74968898479364,-143.39863863131745,54718735
sq,14.8422760009766,17.8078330993652,-141.58212039881008,-136.58622961876353,54735402
sq,12.4758628845215,15.8590797424316,-136.3781715508732,-129.69830091908767,54752069
sq,10.208536529541,13.7364601135254,-130.19050161368244,-122.63244988686066,54768736
sq,8.10615005493164,11.6668991088867,-123.08626119433724,-115.2321626538103,54785403
sq,6.18512573242188,9.86799087524414,-115.15606537573001,-107.39978786460047,54802070
sq,4.4286750793457,8.12554016113281,-106.52165043865644,-99.19333705423493,54818737
sq,2.74669494628906,6.41560974121094,-97.34601054529396,-90.87317941956015,54835404
sq,1.07432785034179,4.83463897705078,-87.84366089565104,-82.87814672568696,54852071
sq,-0.3974853515625,3.52662506103516,-78.28047470043077,-75.7313908946469,54868738
sq,-1.62601623535156,2.39071502685547,-68.95348880010681,-69.90195800449526,54885405
sq,-2.70232543945312,1.44330444335937,-60.15230992350771,-65.66742460242304,54902072
sq,-3.59504852294922,0.412748718261719,-52.11546036978055,-63.02337835625967,54918739
sq,-4.42228851318359,-0.615655517578125,-44.99750561605045,-61.666026100839396,54935406
sq,-5.17676696777344,-1.59423980712891,-38.85573772790672,-61.04734203315968,54952073
sq,-5.82971343994141,-2.60382995605469,-33.655858093971375,-60.48233818550043,54968740
sq,-6.31787261962891,-3.59757385253906,-29.291397314019168,-59.2805809238007,54985407
sq,-6.79388580322266,-4.51728973388672,-25.612029302736218,-56.875558732426235,55002074
sq,-7.20166168212891,-5.43296203613281,-22.457136900830914,-52.930280187710196,55018741
sq,-7.56154022216797,-6.38204345703125,-19.690004356622968,-47.40236198138955,55035408
sq,-7.85483703613281,-7.14010009765625,-17.22572133837503,-40.55770787504752,55052075
sq,-8.18169555664062,-7.81243286132812,-15.044304586664376,-32.93103274205257,55068742
sq,-8.49344787597656,-8.18283233642578,-13.18149006810142,-25.24191970681513,55085409
sq,-8.72781524658203,-8.58091888427734,-11.695395941172418,-18.279640135341932,55102076
sq,-8.86739501953125,-9.07467803955078,-10.618132998186933,-12.7656373703848,55118743
sq,-8.95469055175781,-9.49247894287109,-9.912182636865406,-9.199374991791146,55135410
sq,-9.02389678955078,-9.52356872558594,-9.453385722374401,-7.706017297913149,55152077
sq,-9.20142517089844,-9.425927734375,-9.051597624228258,-7.931385043869019,55168744
sq,-9.40511474609375,-9.284326171875,-8.501935835099983,-9.045857235800105,55185411
sq,-9.59178314208984,-9.20641479492187,-7.645593388145281,-9.898625929333956,55202078
sq,-9.74269256591797,-9.56975708007812,-6.417621901120202,-9.307563393368405,55218745
sq,-9.79363403320312,-9.9236083984375,-4.868360503947252,-6.4076952004816325,55235412
sq,-9.85220489501953,-10.1317001342773,-3.156532107818309,-0.9491801173540325,55252079
sq,-9.95801696777344,-10.2847305297852,-1.518086660829292,6.550780129985282,55268746
sq,-10.0209671020508,-10.3097930908203,-0.21599329635963496,14.851705753480749,55285413
sq,-10.0306945800781,-9.72361145019531,0.5218355838778895,22.226550866162725,55302080
sq,-9.97124633789062,-9.75692901611328,0.5635373627547686,26.84873987501562,55318747
sq,-9.88352355957031,-10.0088821411133,-0.08494806362190158,27.25775756078547,55335414
sq,-9.85208282470703,-8.68969116210937,-1.2732503745281785,22.79714910532448,55352081
sq,-9.88520965576172,-7.43997344970703,-2.7394844490964667,13.886635091511783,55368748
sq,-9.96897277832031,-7.66545257568359,-4.172271200586967,2.0070446223611254,55385415
sq,-10.0806289672852,-7.14201507568359,-5.281726503356555,-10.631104025122275,55402082
sq,-10.1789947509766,-8.20975646972656,-5.859363564281069,-21.644500494865913,55418749
sq,-10.2684341430664,-7.33146820068359,-5.814761299438745,-29.0893376124443,55435416
sq,-10.3444915771484,-9.38717041015625,-5.186652030344728,-31.940535491921967,55452083
sq,-10.4142318725586,-10.6089797973633,-4.132473623844381,-30.28415062293711,55468750
sq,-10.4801193237305,-10.4744125366211,-2.901710544078144,-25.164106665898128,55485417
sq,-10.5567260742187,-10.5198532104492,-1.7964690524778582,-18.16316721497283,55502084
sq,-10.6034866333008,-10.3756195068359,-1.1213310605083513,-10.902745950692289,55518751
sq,-10.644792175293,-10.5203338623047,-1.126358374195298,-4.64565354393076,55535418
sq,-10.6356979370117,-10.6186767578125,-1.9520817557853156,-0.09750583822215943,55552085
sq,-10.6204315185547,-10.671907043457,-3.5902092122386877,2.5986764158647926,55568752
sq,-10.629426574707,-10.7762542724609,-5.874212291578787,3.74090092761299,55585419
sq,-10.7126480102539,-10.85,-8.507489795826816,3.898448581426898,55602086
