Label,Left_Hip_q,Right_Hip_q,Left_Hip_qd,Right_Hip_qd,SampleTimeFine
usq,-60.6974868774414,-55.3340988159179,1.4367709159851,7.67335414886474,2347726361
usq,-61.7146034240722,-54.7723541259765,2.570974772105428,7.210912009037769,2347743028
usq,-62.5567588806152,-54.201000213623,2.705309133283741,5.609049664422758,2347759695
usq,-63.2914695739746,-53.8543472290039,2.825511371206021,4.178887075771006,2347776362
usq,-64.0596466064453,-53.7717552185058,2.9211096875036238,3.0798883705285807,2347793029
usq,-64.909553527832,-53.8374061584472,2.987598612164703,2.425085986943813,2347809696
usq,-65.8421249389648,-54.0027847290039,3.0259948099252676,2.264878071128139,2347826363
usq,-66.7673645019531,-54.3054161071777,3.0406222354231596,2.5803443856387953,2347843030
usq,-67.6747207641601,-54.7576828002929,3.036481116227913,3.2868843206550276,2347859697
usq,-68.523696899414,-55.4117050170898,3.0174226185551642,4.247372064389728,2347876364
usq,-69.2679443359375,-56.1432418823242,2.9856953603471847,5.292725575950615,2347893031
usq,-69.8625411987304,-56.7532424926757,2.9426951238169208,6.246972117741834,2347909698
usq,-70.4141845703125,-57.189453125,2.890254154281667,6.95352052158623,2347926365
usq,-70.9383316040039,-57.5087242126464,2.8317152513060817,7.2991999867023525,2347943032
usq,-71.4251708984375,-57.8226280212402,2.772289584868744,7.232569371685516,2347959699
usq,-71.8732452392578,-58.2256355285644,2.718523337451132,6.77322294423022,2347976366
usq,-72.2844467163086,-58.746238708496,2.676880862651648,6.0096593456852725,2347993033
usq,-72.661392211914,-59.3848342895507,2.6515694450908414,5.084908459031776,2348009700
usq,-73.0093231201171,-60.1397552490234,2.6420124297026772,4.171394966693875,2348026367
usq,-73.3229675292968,-60.9175300598144,2.6408412083854342,3.439059208854271,2348043034
usq,-73.5501174926757,-61.5816574096679,2.6336038135020567,3.0228721190479555,2348059701
usq,-73.6442794799804,-62.0337600708007,2.6011896543305126,2.9966960456154905,2348076368
usq,-73.6608428955078,-62.2680435180664,2.525123054623364,3.3593378065635835,2348093035
usq,-73.6253280639648,-62.3084411621093,2.3946180956511016,4.035793437526406,2348109702
usq,-73.5430755615234,-62.1895141601562,2.213112854809599,4.893122298557814,2348126369
usq,-73.4573745727539,-62.0930404663085,2.0015218024790125,5.767370096461085,2348143036
usq,-73.3609085083007,-62.0103454589843,1.7960949597095812,6.4961755468917515,2348159703
usq,-73.2249526977539,-61.9169235229492,1.6404598376231376,6.950969229453989,2348176370
usq,-73.0487823486328,-61.8265647888183,1.573499445688594,7.062515500434525,2348193037
usq,-72.8736572265625,-61.7869644165039,1.6163866231729114,6.834037955860179,2348209704
usq,-72.699951171875,-61.8391456604003,1.762810503540781,6.338060105001926,2348226371
usq,-72.4975357055664,-61.9792900085449,1.9760126426989892,5.696813318875417,2348243038
usq,-72.2351150512695,-62.1529541015625,2.194792954035289,5.050762057073442,2348259705
usq,-71.8482360839843,-62.273582458496,2.348414550572261,4.523626075684648,2348276372
usq,-71.2327651977539,-62.2974586486816,2.37767429604614,4.193606848318492,2348293039
usq,-70.3242645263671,-62.2574348449707,2.2567916336238714,4.078812805932366,2348309706
usq,-69.2053680419921,-62.0742835998535,2.009041592543532,4.140649382646401,2348326373
usq,-68.0759887695312,-61.7522315979003,1.709376469394288,4.303360332184436,2348343040
usq,-66.9492034912109,-61.3886566162109,1.4704564026250029,4.482637223618177,2348359707
usq,-65.8566818237304,-61.0599174499511,1.4140940098626638,4.613260817934579,2348376374
usq,-65.1284408569336,-60.7366333007812,1.6360411693452752,4.666611276275404,2348393041
usq,-64.7727890014648,-60.3881340026855,2.175343076363187,4.653406909495231,2348409708
usq,-64.4896697998046,-60.0116806030273,2.998093128218947,4.613062840046953,2348426375
usq,-64.2832794189453,-59.5240821838378,3.999983267064037,4.595693262900278,2348443042
usq,-64.1000671386718,-58.8439178466796,5.025806022078115,4.6440982346011,2348459709
usq,-63.9421768188476,-58.0121994018554,5.9002767769277575,4.781150127399324,2348476376
usq,-63.7285537719726,-57.1619148254394,6.463735070287018,5.004612835998605,2348493043
usq,-63.268569946289,-56.331298828125,6.606444776657608,5.288807222183268,2348509710
usq,-62.4707221984863,-55.5298881530761,6.2946901756719065,5.591698018735974,2348526377
usq,-61.5866470336914,-54.6950187683105,5.581556966133849,5.866034977460697,2348543044
usq,-60.7058143615722,-53.7404022216796,4.597607976549913,6.0725507115729105,2348559711
usq,-59.8081970214843,-52.667236328125,3.5224343994909537,6.1916499745244,2348576378
usq,-58.9487419128418,-51.5514183044433,2.544868843535222,6.229097303370367,2348593045
usq,-58.1235237121582,-50.4973182678222,1.8235560653733802,6.212668804453755,2348609712
usq,-57.3092231750488,-49.4755096435546,1.4584153967363447,6.1805542442763395,2348626379
usq,-56.3357467651367,-48.4395751953125,1.478410024646549,6.166376939974737,2348643046
usq,-55.0700531005859,-47.3646430969238,1.8450998650489223,6.187370124323879,2348659713
usq,-53.5056953430175,-46.2443809509277,2.467490758596648,6.24033451539127,2348676380
usq,-51.7733421325683,-45.126895904541,3.2227240652019056,6.3057944193296125,2348693047
usq,-50.0925102233886,-44.0190887451171,3.9784123373809823,6.357003104075419,2348709714
usq,-48.5516967773437,-42.875373840332,4.614174668633091,6.369171334425978,2348726381
usq,-47.0691452026367,-41.64937210083,5.04060890693647,6.325606943077722,2348743048
usq,-45.5898208618164,-40.2843399047851,5.213310167177436,6.219977838754458,2348759715
usq,-44.0094108581543,-38.7857475280761,5.138846214703575,6.056028890613563,2348776382
usq,-42.4488258361816,-37.199047088623,4.870406538107056,5.846798072367844,2348793049
usq,-40.882568359375,-35.5624542236328,4.493521214848329,5.614592185173644,2348809716
usq,-39.3040161132812,-33.9175491333007,4.1054767589446435,5.3914039945342775,2348826383
usq,-37.8161544799804,-32.2824249267578,3.793914849559273,5.218146973604216,2348843050
usq,-36.2119445800781,-30.6817016601562,3.6197329331393235,5.140864267135977,2348859717
usq,-34.5271759033203,-29.0740699768066,3.6076031054600097,5.203098358793773,2348876384
usq,-32.9075241088867,-27.4672222137451,3.7454665446919,5.435404940333446,2348893051
usq,-31.271837234497,-25.8872451782226,3.9925868648012917,5.844724619341742,2348909718
usq,-29.6582603454589,-24.3296966552734,4.293736051945369,6.407159158580582,2348926385
usq,-28.0760650634765,-22.7796154022216,4.595073756177906,7.067123530901995,2348943052
usq,-26.5625457763671,-21.2736053466796,4.856581496936004,7.743994584949718,2348959719
usq,-25.143985748291,-19.8237228393554,5.057542125563836,8.345124827947213,2348976386
usq,-23.7012920379638,-18.431447982788,5.194816482683026,8.782500719885991,2348993053
usq,-22.1960906982421,-17.0838031768798,5.276560540551458,8.989822984463931,2349009720
usq,-20.6645431518554,-15.6660871505737,5.31498580765955,8.936974253823568,2349026387
usq,-19.1707153320312,-14.1068630218505,5.32087041558123,8.639129774510465,2349043054
usq,-17.7354984283447,-12.4873142242431,5.301026740374222,8.158052129618357,2349059721
usq,-16.3415699005126,-10.8840198516845,5.258821293351312,7.593844424851829,2349076388
usq,-14.9955511093139,-9.32236957550048,5.197122185257134,7.0671578083027375,2349093055
usq,-13.6768741607666,-7.83466863632202,5.12230907479663,6.694539196509294,2349109722
usq,-12.3854961395263,-6.38890075683593,5.047318179597167,6.562368384088892,2349126389
usq,-11.1059379577636,-4.95849752426147,4.991733882459721,6.706294489427154,2349143056
usq,-9.86444950103759,-3.52067255973815,4.978072714004503,7.102276470546087,2349159723
usq,-8.63901233673095,-2.13015747070312,5.025236977908317,7.672309970721701,2349176390
usq,-7.42368745803833,-0.878528237342834,5.141629600641376,8.303639699129786,2349193057
usq,-6.23873567581176,0.266566157341003,5.320757507009671,8.876165345843976,2349209724
usq,-5.12600088119506,1.41027772426605,5.5412599052976725,9.290380608800003,2349226391
usq,-4.09522628784179,2.58263969421386,5.771756861682864,9.488495511375623,2349243058
usq,-3.09019351005554,3.70200395584106,5.979223711775321,9.464055023449255,2349259725
usq,-2.13961958885192,4.73601102828979,6.138089850979765,9.258900080885235,2349276392
usq,-1.32705581188201,5.65777444839477,6.236572283421554,8.949259728310167,2349293059
usq,-0.661963045597076,6.49470567703247,6.27764108339572,8.624708124728643,2349309726
usq,-0.119880147278308,7.22640752792358,6.274393847453106,8.365062925777773,2349326393
usq,0.345802843570709,7.84595441818237,6.242229771097683,8.221117722536214,2349343060
usq,0.739226937294006,8.36731147766113,6.1915316022208655,8.204602082276233,2349359727
usq,1.06058967113494,8.80615997314453,6.12394216744066,8.290136230051633,2349376394
usq,1.30480504035949,9.18304252624511,6.033341564880765,8.427730007760987,2349393061
usq,1.4337830543518,9.48917198181152,5.910539250028127,8.560614349936877,2349409728
usq,1.4547883272171,9.71082687377929,5.749514155271192,8.641909206879323,2349426395
usq,1.38700294494628,9.85808181762695,5.5529773765989825,8.64520090811696,2349443062
usq,1.25280547142028,9.91757011413574,5.335611918347233,8.567240179563493,2349459729
usq,1.0831286907196,9.89441299438476,5.124011179436892,8.423981864087066,2349476396
usq,0.893886864185333,9.79569339752197,4.952958003424039,8.242980161622413,2349493063
usq,0.680485963821411,9.63878440856933,4.858445730994646,8.055434346474037,2349509730
usq,0.4238261282444,9.44451236724853,4.868814848376194,7.890221016968138,2349526397
usq,0.160652458667755,9.22078704833984,4.996275530214954,7.770671275297531,2349543064
usq,-0.158330619335174,8.98097610473632,5.231417391218055,7.71343389912377,2349559731
usq,-0.628125607967376,8.70100116729736,5.542758268512252,7.728135183716209,2349576398
usq,-1.1505012512207,8.38684749603271,5.882045751800442,7.81684370068107,2349593065
usq,-1.73934495449066,8.03530406951904,6.194317744038601,7.973207865397753,2349609732
usq,-2.42609453201293,7.59434556961059,6.430204601397876,8.181985105826302,2349626399
usq,-3.233323097229,7.02826118469238,6.5571515164297915,8.420010948295063,2349643066
usq,-4.19371080398559,6.36952829360961,6.566476861065477,8.659199067993654,2349659733
usq,-5.25754404067993,5.62995481491088,6.474380913333651,8.871156666230585,2349676400
usq,-6.40068197250366,4.79098224639892,6.316746900818688,9.032128026881661,2349693067
usq,-7.61806344985961,3.85162234306335,6.139277005742359,9.12679086345943,2349709734
usq,-8.90498256683349,2.84598922729492,5.985711289745245,9.149918585223086,2349726401
usq,-10.2481050491333,1.75300252437591,5.887306377390605,9.105750014542682,2349743068
usq,-11.6532802581787,0.560612142086029,5.856301326081079,9.005727025958414,2349759735
usq,-13.095603942871,-0.714825212955474,5.884854895355216,8.86571141347173,2349776402
usq,-14.5629539489746,-2.0633955001831,5.949265334240401,8.703591619035905,2349793069
usq,-16.061237335205,-3.47626543045043,6.017774670075357,8.537463161177655,2349809736
usq,-17.5914802551269,-4.96738719940185,6.059431174700621,8.383898222545104,2349826403
usq,-19.1816654205322,-6.52993392944335,6.051513784043011,8.255767366911178,2349843070
usq,-20.8643951416015,-8.16613292694091,5.98376238992001,8.159676678859778,2349859737
usq,-22.6173858642578,-9.8694257736206,5.858791170954513,8.093861965953751,2349876404
usq,-24.4162082672119,-11.6117334365844,5.689226621397069,8.047744549965008,2349893071
usq,-26.2477283477783,-13.3838548660278,5.492972067383541,8.003981638858196,2349909738
usq,-28.0797271728515,-15.1650781631469,5.288317899164966,7.942873647670006,2349926405
usq,-29.9164447784423,-16.9418582916259,5.090338240042654,7.847926249961903,2349943072
usq,-31.7720737457275,-18.7216110229492,4.909308610780378,7.710778168237617,2349959739
usq,-33.6101188659668,-20.5461082458496,4.751048953953517,7.533890907709835,2349976406
usq,-35.4320678710937,-22.4044609069824,4.618433552839016,7.330214155167569,2349993073
usq,-37.2789688110351,-24.2644615173339,4.5130043727068925,7.120044797251107,2350009740
usq,-39.151512145996,-26.0929203033447,4.435745572998458,6.926038520444459,2350026407
usq,-41.0079917907714,-27.9121265411376,4.386567146159408,6.767617157717809,2350043074
usq,-42.8680229187011,-29.7280406951904,4.36274094997903,6.655954752970433,2350059741
usq,-44.7307929992675,-31.5641422271728,4.357187312082109,6.590548764681505,2350076408
usq,-46.5791320800781,-33.4284324645996,4.357811779538543,6.558176188254821,2350093075
usq,-48.396800994873,-35.2867202758789,4.348782387518051,6.534691556113685,2350109742
usq,-50.2233657836914,-37.1109809875488,4.313770879940837,6.489551588648829,2350126409
usq,-52.0988006591796,-38.9581756591796,4.240199523839111,6.392257771845942,2350143076
usq,-53.9325561523437,-40.8138389587402,4.12298626717715,6.2193492860656185,2350159743
usq,-55.7847175598144,-42.6735954284668,3.966433050242873,5.960358946357555,2350176410
usq,-57.7048416137695,-44.5826721191406,3.7836027585558276,5.621308579833683,2350193077
usq,-59.7133331298828,-46.5474586486816,3.593375150547605,5.224823152804593,2350209744
usq,-61.7751121520996,-48.5680847167968,3.4160190908730006,4.806742366692196,2350226411
usq,-63.7803878784179,-50.6097412109375,3.2684636486005094,4.4100681804169675,2350243078
usq,-65.6973114013671,-52.6817283630371,3.160503808054764,4.077828571610406,2350259745
usq,-67.5409469604492,-54.8071517944335,3.092880570624886,3.8465133427357445,2350276412
usq,-69.2968215942382,-56.9039077758789,3.0575178692889513,3.741078293140658,2350293079
usq,-70.926887512207,-58.9040298461914,3.039466256930158,3.7716081613121597,2350309746
usq,-72.3424606323242,-60.7946891784668,3.0197872222491413,3.9312359283838325,2350326413
usq,-73.5979919433593,-62.5297393798828,2.9789304742408267,4.19512188575155,2350343080
usq,-74.6587219238281,-64.1238403320312,2.900716815619109,4.520965409375034,2350359747
usq,-75.4196853637695,-65.5140762329101,2.7770660919564727,4.852150246102812,2350376414
usq,-75.8899383544921,-66.6324615478515,2.612675279016943,5.124678258967386,2350393081
usq,-76.178726196289,-67.5409622192382,2.4275380283185637,5.278126479857482,2350409748
usq,-76.3813552856445,-68.2973403930664,2.2548688180069756,5.269004250895981,2350426415
usq,-76.4874496459961,-68.9839553833007,2.133541228281651,5.082884662128668,2350443082
usq,-76.5062713623046,-69.623046875,2.0968961608312267,4.740869059046862,2350459749
usq,-76.42236328125,-70.2252578735351,2.1619084422311667,4.297233101056729,2350476416
usq,-76.2527923583984,-70.7658081054687,2.3228306137279606,3.828085990509459,2350493083
usq,-76.0256652832031,-71.2055358886718,2.551608234290573,3.414002626593552,2350509750
usq,-75.7321395874023,-71.487564086914,2.804713894881991,3.121406218628439,2350526417
usq,-75.4522476196289,-71.5676803588867,3.033855593201862,2.9875830858198644,2350543084
usq,-75.2502517700195,-71.4941177368164,3.1970915497005987,3.013058700661288,2350559751
usq,-75.1096420288086,-71.3444290161132,3.2673644457757565,3.1631766215369828,2350576418
usq,-75.0333023071289,-71.1323318481445,3.23683331165403,3.378364909002778,2350593085
usq,-75.0103454589843,-70.8888244628906,3.1167977621830025,3.590139423018131,2350609752
usq,-75.0511398315429,-70.6788635253906,2.933904264324279,3.738208103286074,2350626419
usq,-75.0943298339843,-70.5358200073242,2.7236983019984513,3.7839408654788578,2350643086
usq,-75.1393890380859,-70.439697265625,2.522797018488708,3.7170444943130247,2350659753
usq,-75.2089614868164,-70.3682098388671,2.3612447555287384,3.5547131311473774,2350676420
usq,-75.2698745727539,-70.3141098022461,2.2568174282747466,3.3346975530919925,2350693087
usq,-75.3125915527343,-70.2396621704101,2.212756835710371,3.1049475549987653,2350709754
usq,-75.3202133178711,-70.1932296752929,2.219467266158147,2.912680399006845,2350726421
usq,-75.3092498779296,-70.1590194702148,2.2594343227237945,2.7952599459841303,2350743088
usq,-75.2868499755859,-70.1127700805664,2.313656973274691,2.774461794671205,2350759755
usq,-75.2426376342773,-70.0447235107421,2.3676322351811607,2.8546997438484767,2350776422
usq,-75.1826248168945,-69.932144165039,2.4153337483897426,3.024770034718116,2350793089
usq,-75.1043853759765,-69.7929992675781,2.460320058305004,3.261967134962953,2350809756
usq,-75.0118942260742,-69.6366882324218,2.513810717559364,3.537300618708115,2350826423
usq,-74.8951950073242,-69.4726257324218,2.5902357981896333,3.8208811401567004,2350843090
usq,-74.7500762939453,-69.2727508544921,2.7014401964860197,4.086925016941136,2350859757
usq,-74.5748672485351,-69.0358047485351,2.8512846003642167,4.317902438172001,2350876424
usq,-74.3507232666015,-68.777099609375,3.032492343838646,4.5071249625091365,2350893091
usq,-74.0593719482421,-68.4994049072265,3.226956195047426,4.658875945733561,2350909758
usq,-73.6911544799804,-68.1501998901367,3.4094644220988086,4.785463463057368,2350926425
usq,-73.228645324707,-67.6688537597656,3.5535311788838952,4.901493219569502,2350943092
usq,-72.6706771850586,-67.0606231689453,3.6374026867251623,5.016920600776842,2350959759
usq,-72.0167388916015,-66.3596038818359,3.6486083300329013,5.131374193232471,2350976426
usq,-71.2400588989257,-65.5557403564453,3.5863057250605572,5.232199802378522,2350993093
usq,-70.3302459716796,-64.6466522216796,3.461507095186879,5.297474721984716,2351009760
usq,-69.2884063720703,-63.6091957092285,3.295587076194401,5.30333275683675,2351026427
usq,-68.1679229736328,-62.3673782348632,3.11723622220874,5.233147658470097,2351043094
usq,-66.9196090698242,-60.9394340515136,2.9577391834423827,5.085227994939931,2351059761
usq,-65.4681549072265,-59.4483680725097,2.844797428336435,4.876094101777258,2351076428
usq,-64.0054321289062,-57.9431037902832,2.7962107876777864,4.638018824166674,2351093095
usq,-62.5751342773437,-56.2928161621093,2.8157046057650432,4.411651899821955,2351109762
usq,-61.1088371276855,-54.5333137512207,2.892814621862232,4.236276457807375,2351126429
usq,-59.488166809082,-52.7585144042968,3.0068470288999083,4.140882601698589,2351143096
usq,-57.5656967163085,-50.9492149353027,3.132910885346991,4.138700161862119,2351159763
usq,-55.6619186401367,-49.1809349060058,3.247569481623479,4.22652569481088,2351176430
usq,-53.9067840576171,-47.442886352539,3.3329719280835137,4.388659410598715,2351193097
usq,-52.0633010864257,-45.6857032775878,3.379843390820357,4.603858957145276,2351209764
usq,-50.1502799987793,-43.8708114624023,3.389823740278701,4.852569086437302,2351226431
usq,-48.1709365844726,-42.0788688659668,3.3764941355579388,5.12128666802673,2351243098
usq,-46.2151794433593,-40.296588897705,3.363691927186478,5.402065280216644,2351259765
usq,-44.2263221740722,-38.4198455810546,3.38055885361389,5.6878715659826735,2351276432
usq,-42.2388038635253,-36.5213088989257,3.454479047520832,5.967248615291185,2351293099
usq,-40.3853111267089,-34.6414375305175,3.603992745590502,6.222413733542597,2351309766
usq,-38.582347869873,-32.9107246398925,3.833340368039269,6.432780760568956,2351326433
usq,-36.7660369873046,-31.3077697753906,4.129478409871195,6.582402860554867,2351343100
usq,-34.9480895996093,-29.6986045837402,4.462294945958235,6.667399675636355,2351359767
usq,-33.2070350646972,-28.0177307128906,4.789064484201738,6.699466161658698,2351376434
usq,-31.5239601135253,-26.309154510498,5.063590606517158,6.703638836417475,2351393101
usq,-29.8618068695068,-24.6199607849121,5.24838373319213,6.711168249222671,2351409768
usq,-28.259349822998,-22.9744186401367,5.32586230423068,6.750336284955806,2351426435
usq,-26.7577056884765,-21.3395404815673,5.304011348988835,6.838729000209285,2351443102
usq,-25.3503665924072,-19.6768188476562,5.213982728407828,6.97968397586525,2351459769
usq,-23.9339427947998,-17.9898090362548,5.100570788989924,7.163688874167873,2351476436
usq,-22.4963626861572,-16.3508071899414,5.009272875679874,7.373317763376729,2351493103
usq,-21.0817146301269,-14.7731618881225,4.974422595986458,7.589010764596312,2351509770
usq,-19.7060871124267,-13.2200965881347,5.011785940974994,7.793255278303116,2351526437
usq,-18.333812713623,-11.6983175277709,5.11707179269753,7.9721581968562445,2351543104
usq,-16.9238471984863,-10.1998348236083,5.269957197097557,8.11500370076562,2351559771
usq,-15.482720375061,-8.73208999633789,5.441822823331992,8.213259204073859,2351576438
usq,-14.0546245574951,-7.31681966781616,5.604544334659221,8.260330754292447,2351593105
usq,-12.6558847427368,-5.91687536239624,5.737590596423124,8.252518699277791,2351609772
usq,-11.3005723953247,-4.53810596466064,5.831483570609838,8.190710612994737,2351626439
usq,-9.98188114166259,-3.22289490699768,5.887171748899236,8.081878815885547,2351643106
usq,-8.71848106384277,-1.90400612354278,5.912472340649472,7.939554793110666,2351659773
usq,-7.49798536300659,-0.574966430664062,5.917710059343738,7.7829002837899175,2351676440
usq,-6.29357004165649,0.742332577705383,5.912524879598893,7.634444394670674,2351693107
usq,-5.10701465606689,2.02007985115051,5.904673617006486,7.516816390461273,2351709774
usq,-3.95211052894592,3.27148103713989,5.900296113732844,7.448917047386937,2351726441
usq,-2.82863163948059,4.49558877944946,5.9044268920195435,7.442114031078667,2351743108
usq,-1.72635781764984,5.70449590682983,5.920793689280436,7.497301450450426,2351759775
usq,-0.68346482515335,6.86710882186889,5.95076985092942,7.603856301965593,2351776442
usq,0.264257788658142,7.98193502426147,5.9921514309453,7.741330793713275,2351793109
usq,1.11752712726593,9.03027820587158,6.038805714850237,7.883957179717947,2351809776
usq,1.90320813655853,10.0139036178588,6.081984671242293,8.006894882682078,2351826443
usq,2.63167190551757,10.9282855987548,6.113236491823737,8.092174974636821,2351843110
usq,3.29144430160522,11.7668838500976,6.1277785496392925,8.132147267007808,2351859777
usq,3.84874248504638,12.5185441970825,6.126612834253044,8.129197737290811,2351876444
usq,4.29298830032348,13.1659908294677,6.116077635242027,8.092194116837746,2351893111
usq,4.61907052993774,13.6913299560546,6.104773707975534,8.031618198183224,2351909778
usq,4.87068128585815,14.1149320602417,6.099119508314242,7.955755158933642,2351926445
usq,5.08373832702636,14.471881866455,6.099419154541278,7.869388266360703,2351943112
usq,5.23344373703002,14.7600526809692,6.098043109176864,7.774850108470739,2351959779
usq,5.3123812675476,14.9755792617797,6.080467057485954,7.6740977705222715,2351976446
usq,5.33985185623168,15.10728931427,6.029019728112886,7.570348539633511,2351993113
usq,5.32230472564697,15.1855173110961,5.928551488896535,7.46850095380905,2352009780
usq,5.25656270980835,15.2282247543334,5.772798836820535,7.3744030430861285,2352026447
usq,5.14065170288085,15.227647781372,5.56984086525272,7.293579555811944,2352043114
usq,5.01490116119384,15.1786813735961,5.344786900144879,7.230228926359895,2352059781
usq,4.86662769317626,15.093240737915,5.137989361789451,7.187163439956744,2352076448
usq,4.70277976989746,14.9753713607788,4.997938327658666,7.166860648413046,2352093115
usq,4.5536241531372,14.8330688476562,4.969616593046871,7.173049135696615,2352109782
usq,4.33426856994628,14.6507511138916,5.081097318455585,7.211699474037264,2352126449
usq,3.99823093414306,14.4473514556884,5.3326972318783765,7.290398224393043,2352143116
usq,3.71846485137939,14.222580909729,5.6930253202048915,7.415890101078751,2352159783
usq,3.43614602088928,13.9401044845581,6.104275133194729,7.590610495524914,2352176450
usq,3.02718234062194,13.610873222351,6.495725665500801,7.809700886261714,2352193117
usq,2.47357654571533,13.1925287246704,6.801235721801095,8.059945396092665,2352209784
usq,1.7854721546173,12.6852626800537,6.975089204511865,8.321279101403581,2352226451
usq,0.971905708312988,12.0974521636962,7.001429380519605,8.570391805868235,2352243118
usq,0.038038183003664,11.3691244125366,6.895119761738367,8.785151877928685,2352259785
usq,-0.994479417800903,10.5322256088256,6.694923364517028,8.948507848127262,2352276452
usq,-2.08363270759582,9.62288093566894,6.452099285005187,9.050967827306328,2352293119
usq,-3.21399688720703,8.64277172088623,6.2181578779706035,9.091263276600364,2352309786
usq,-4.40601253509521,7.57832288742065,6.034767426934202,9.075259093742421,2352326453
usq,-5.67168521881103,6.44213485717773,5.927417630123042,9.013656463402754,2352343120
usq,-7.01224708557128,5.23421764373779,5.903134622902148,8.919399198711858,2352359787
usq,-8.41917610168457,3.94931316375732,5.951678296676954,8.805628769597119,2352376454
usq,-9.87130832672119,2.58570909500122,6.049290824870964,8.684496406775056,2352393121
usq,-11.3702478408813,1.13616633415222,6.164048534088303,8.566510677233126,2352409788
usq,-12.9276714324951,-0.39288580417633,6.261957088496955,8.459856135644548,2352426455
usq,-14.5453796386718,-1.97007632255554,6.3129637796619935,8.369415669495124,2352443122
usq,-16.2173252105712,-3.58873295783996,6.296044786174288,8.29577787369917,2352459789
usq,-17.9375114440917,-5.25321149826049,6.202568552659507,8.234858681073241,2352476456
usq,-19.6783275604248,-6.93845605850219,6.037338632036497,8.178659617848487,2352493123
usq,-21.4478607177734,-8.64366245269775,5.817103458793567,8.117206917259926,2352509790
usq,-23.272756576538,-10.3728017807006,5.56683525451891,8.041162199415709,2352526457
usq,-25.136827468872,-12.1327304840087,5.314615774423306,7.944258437544167,2352543124
usq,-27.0226745605468,-13.92378616333,5.0863512172567065,7.824745891141359,2352559791
usq,-28.9176349639892,-15.7472229003906,4.901574355402957,7.6854141966605765,2352576458
usq,-30.8074054718017,-17.6156940460205,4.771182428907998,7.532317225157752,2352593125
usq,-32.7202529907226,-19.5129089355468,4.697243679513928,7.3727951768630895,2352609792
usq,-34.6323204040527,-21.4199619293212,4.67432455013447,7.21352758201366,2352626459
usq,-36.5280685424804,-23.3328323364257,4.691462991088463,7.05911764453497,2352643126
usq,-38.4529190063476,-25.2632942199707,4.734033147865235,6.911299891235682,2352659793
usq,-40.4150123596191,-27.1731414794921,4.785168819809452,6.768586863359641,2352676460
usq,-42.3752059936523,-29.1133785247802,4.826881490754789,6.626197191666736,2352693127
usq,-44.3160858154296,-31.0793209075927,4.841270020464612,6.476326404727822,2352709794
usq,-46.2858200073242,-33.0455322265625,4.81212852015026,6.308983832499352,2352726461
usq,-48.3005065917968,-35.002628326416,4.726901646010122,6.113594692209785,2352743128
usq,-50.3156700134277,-37.0495109558105,4.5786093101355645,5.881376252264331,2352759795
usq,-52.3723068237304,-39.1467933654785,4.367315815136622,5.608163887921074,2352776462
usq,-54.4336204528808,-41.2384872436523,4.100914120613107,5.296955849797096,2352793129
usq,-56.4921836853027,-43.3315544128418,3.795188137056307,4.959247880934791,2352809796
usq,-58.5578002929687,-45.394775390625,3.4731266534055263,4.614568552690858,2352826463
usq,-60.6062583923339,-47.4682693481445,3.1633179137980436,4.28841430899845,2352843130
usq,-62.5576362609863,-49.6051177978515,2.897115470766836,4.009413389231171,2352859797
usq,-64.4334335327148,-51.7755508422851,2.704331671052716,3.8064447694512573,2352876464
usq,-66.2725830078125,-53.9450073242187,2.607641422649726,3.7056946143927556,2352893131
usq,-68.0346374511718,-56.0638275146484,2.6166405113107385,3.7270018113097962,2352909798
usq,-69.6542053222656,-58.0443420410156,2.7232746179429177,3.8790553444928544,2352926465
usq,-71.1327209472656,-59.8711700439453,2.900631996010623,4.154100537914437,2352943132
usq,-72.3762588500976,-61.5661659240722,3.106509173054509,4.524093140487066,2352959799
usq,-73.3210830688476,-63.1388893127441,3.2917415563533825,4.940757314233234,2352976466
usq,-74.0191574096679,-64.485366821289,3.4115118542927565,5.3411539986294425,2352993133
usq,-74.5604629516601,-65.5868225097656,3.4364842635811623,5.658352548842696,2353009800
usq,-74.9942779541015,-66.5643997192382,3.3603651578982756,5.834633207703938,2353026467
usq,-75.2926483154296,-67.4702606201171,3.201534008236726,5.833529447580131,2353043134
usq,-75.4739761352539,-68.3272247314453,2.998232030680158,5.647469153926671,2353059801
usq,-75.5525436401367,-69.0934371948242,2.798659734272025,5.299302834072581,2353076468
usq,-75.5442123413086,-69.6765594482421,2.648636391417257,4.837659403963391,2353093135
usq,-75.4645309448242,-70.1110153198242,2.580002408804277,4.327295065131487,2353109802
usq,-75.339485168457,-70.4318008422851,2.602716344914402,3.8364881579555123,2353126469
usq,-75.1985626220703,-70.6239929199218,2.7026814610652754,3.4242146187467033,2353143136
usq,-75.0709915161132,-70.6786727905273,2.845839620941974,3.130007533127704,2353159803
usq,-74.9575042724609,-70.6227340698242,2.987292977606694,2.9686807678679115,2353176470
usq,-74.8752288818359,-70.4762573242187,3.0827426024010967,2.930646617572386,2353193137
usq,-74.857551574707,-70.3013839721679,3.0989981067041796,2.987051103238614,2353209804
usq,-74.904426574707,-70.1301803588867,3.020930807800846,3.0979815493290284,2353226471
usq,-74.996955871582,-70.0055999755859,2.853630537804231,3.221705311851732,2353243138
usq,-75.1064300537109,-69.9166717529296,2.6199925282740306,3.3230797281261486,2353259805
usq,-75.2116165161132,-69.82275390625,2.3549794605955405,3.3797177971682304,2353276472
usq,-75.284309387207,-69.7569808959961,2.098236392958725,3.385069052289533,2353293139
usq,-75.3262023925781,-69.7266006469726,1.8867221741928326,3.3481451453393687,2353309806
usq,-75.3251647949218,-69.7012329101562,1.7487383027911443,3.29009220365315,2353326473
usq,-75.2837905883789,-69.6742553710937,1.7002663643634413,3.2382642601244838,2353343140
usq,-75.2170791625976,-69.6399688720703,1.7439045420620705,3.2190117264515647,2353359807
usq,-75.147705078125,-69.5758743286132,1.8700567361056366,3.2509399827403103,2353376474
usq,-75.0869064331054,-69.4626693725586,2.059629196317993,3.3404929275307755,2353393141
usq,-75.0443344116211,-69.333511352539,2.2875056981727924,3.4810460947097512,2353409808
usq,-75.0161209106445,-69.1765594482421,2.526391434247029,3.6554526122658246,2353426475
usq,-74.9970092773437,-68.9646911621093,2.7508963104263287,3.840860960810674,2353443142
usq,-74.9611358642578,-68.7082977294921,2.9416789775506955,4.014251688451386,2353459809
usq,-74.89697265625,-68.4061584472656,3.089068663043295,4.157562502854515,2353476476
usq,-74.7933883666992,-68.0529708862304,3.1950872117637834,4.261910769374359,2353493143
usq,-74.6297149658203,-67.6415634155273,3.2726508605692195,4.3306035704267805,2353509810
usq,-74.388069152832,-67.1453704833984,3.3413147426932426,4.380186223061134,2353526477
usq,-74.047248840332,-66.5230331420898,3.4202125480864636,4.438276277822517,2353543144
usq,-73.596435546875,-65.7681503295898,3.520290935447774,4.53722361523848,2353559811
usq,-72.9794387817382,-64.9341888427734,3.638723943423295,4.704127103289891,2353576478
usq,-72.1239318847656,-63.9852333068847,3.7579156535498397,4.949870918613766,2353593145
usq,-71.0150451660156,-62.9299354553222,3.849801713812222,5.261347264968617,2353609812
usq,-69.687385559082,-61.8082466125488,3.88401950463434,5.600677634484259,2353626479
usq,-68.2202224731445,-60.5812110900878,3.837025332477671,5.912696821750323,2353643146
usq,-66.6942749023437,-59.2157173156738,3.699092404559941,6.138342263266746,2353659813
usq,-65.0528411865234,-57.7899093627929,3.477238864572323,6.22910256412467,2353676480
usq,-63.2648658752441,-56.2793540954589,3.1938518672227914,6.157978664551746,2353693147
usq,-61.494529724121,-54.6545257568359,2.882286639890644,5.92495045905364,2353709814
usq,-59.703067779541,-52.979133605957,2.581374243350156,5.557371975660399,2353726481
usq,-57.8257827758789,-51.2720489501953,2.330353892439509,5.106302775832727,2353743148
usq,-56.0706214904785,-49.5770378112793,2.1647112093391834,4.639090315620899,2353759815
usq,-54.3889274597168,-47.8914222717285,2.1125977941346257,4.22844252469436,2353776482
usq,-52.6267356872558,-46.1035804748535,2.191437082825447,3.939642808532053,2353793149
usq,-50.713035583496,-44.2731170654296,2.4047925807928467,3.8192365993718282,2353809816
usq,-48.7579917907714,-42.5235862731933,2.740089223241095,3.888438391558171,2353826483
usq,-46.800910949707,-40.81396484375,3.168082205336348,4.142223962354783,2353843150
usq,-44.8747673034668,-39.0252647399902,3.645046356431716,4.552489852393863,2353859817
usq,-43.0025558471679,-37.1464614868164,4.1183667513204245,5.0730286757260945,2353876484
usq,-41.1058807373046,-35.2571372985839,4.535267784079391,5.645477852638564,2353893151
usq,-39.1275787353515,-33.4570198059082,4.85294584572094,6.206846321387667,2353909818
usq,-37.19966506958,-31.7525043487548,5.047203683962044,6.698920648283585,2353926485
usq,-35.4201850891113,-30.1432514190673,5.116801221706249,7.078017522549157,2353943152
usq,-33.7703895568847,-28.5557346343994,5.082282904779872,7.322035207923239,2353959819
usq,-32.168888092041,-26.8960227966308,4.980049155350631,7.432213231891963,2353976486
usq,-30.5464839935302,-25.1837882995605,4.853690417420828,7.429357997133098,2353993153
usq,-28.8972091674804,-23.5253028869628,4.744742165816086,7.346785804764621,2354009820
usq,-27.2943744659423,-21.94455909729,4.684674326185152,7.223041937653178,2354026487
usq,-25.7242984771728,-20.4254341125488,4.689720496996787,7.096273685993524,2354043154
usq,-24.1921329498291,-18.9256515502929,4.759863630923945,7.000282738376206,2354059821
usq,-22.7003345489501,-17.3786315917968,4.882274723268222,6.9613366127200305,2354076488
usq,-21.2301139831542,-15.7222385406494,5.03779254165859,6.995300041795152,2354093155
usq,-19.7644634246826,-14.0134572982788,5.207663936792851,7.105771398962921,2354109822
usq,-18.2912540435791,-12.3482036590576,5.37777520247626,7.2843813304064335,2354126489
usq,-16.8396606445312,-10.7677974700927,5.539074005342725,7.5136026094087365,2354143156
usq,-15.39191532135,-9.29530429840087,5.684951710401894,7.7709488255798975,2354159823
usq,-13.9718313217163,-7.89026880264282,5.807882644440834,8.032586564542553,2354176490
usq,-12.5974540710449,-6.4289231300354,5.89781095996364,8.274965158948845,2354193157
usq,-11.261640548706,-5.01232004165649,5.9436136152399905,8.474779163138432,2354209824
usq,-9.94065189361572,-3.60381364822387,5.937168749255921,8.609199332905186,2354226491
usq,-8.66167449951171,-2.19321417808532,5.878112090725265,8.658514060246697,2354243158
usq,-7.42054796218872,-0.745199799537658,5.776971004305413,8.611704960629988,2354259825
usq,-6.18496942520141,0.694353580474853,5.655126073852982,8.472998914481757,2354276492
usq,-4.99667119979858,2.07278943061828,5.541453033390675,8.26580062804086,2354293159
usq,-3.77960896492004,3.36186861991882,5.466709182464253,8.03083896711645,2354309826
usq,-2.54851794242858,4.5785059928894,5.457149520490782,7.817771075919034,2354326493
usq,-1.33662557601928,5.76441144943237,5.528596183556904,7.672574407538419,2354343160
usq,-0.163910269737243,6.91268491744995,5.6818783600200575,7.625129153932887,2354359827
usq,0.929262101650238,8.05263328552246,5.900631408413648,7.681401381059155,2354376494
usq,1.98529267311096,9.19385528564453,6.152602283842556,7.822727676615243,2354393161
usq,3.04767704010009,10.3629293441772,6.395162429885177,8.011980583495083,2354409828
usq,4.00124359130859,11.4733438491821,6.584395122721287,8.20414185784823,2354426495
usq,4.78774738311767,12.5033550262451,6.685478400787355,8.357786367708957,2354443162
usq,5.44409751892089,13.3884763717651,6.6811580422858885,8.44422475238305,2354459829
usq,6.00461196899414,14.1772346496582,6.5755406562476955,8.452158258077677,2354476496
usq,6.48120164871215,14.8788042068481,6.392049000148644,8.387194962996382,2354493163
usq,6.87162065505981,15.4941320419311,6.166389048935812,8.267099113944983,2354509830
usq,7.19948577880859,16.01877784729,5.9369259958492036,8.114822335909196,2354526497
usq,7.46630716323852,16.4584732055664,5.735420644687144,7.9517742352389575,2354543164
usq,7.66370868682861,16.8145885467529,5.580592745587807,7.793248636387344,2354559831
usq,7.78483295440673,17.1060962677001,5.475844570128365,7.646776004818466,2354576498
usq,7.8348708152771,17.3273868560791,5.411252836118011,7.513083924083571,2354593165
usq,7.83105421066284,17.4764060974121,5.368991210275531,7.38875327663108,2354609832
usq,7.78745317459106,17.5404510498046,5.330710813264302,7.269538911329294,2354626499
usq,7.69688653945922,17.5433959960937,5.284944418208157,7.153450243595443,2354643166
usq,7.56221628189086,17.4854106903076,5.232322986286922,7.04290717723716,2354659833
usq,7.41658401489257,17.3751354217529,5.186609235090326,6.945555277452939,2354676500
usq,7.2165560722351,17.2303886413574,5.170634505368118,6.873611704253363,2354693167
usq,6.94164180755615,17.0622291564941,5.208109554216144,6.84187011764818,2354709834
usq,6.62456035614013,16.8394832611084,5.314182079607798,6.864681819363932,2354726501
usq,6.23649072647094,16.5757942199707,5.488415463985773,6.952384996146259,2354743168
usq,5.73198890686035,16.3029232025146,5.712978341715251,7.1078795151654,2354759835
usq,5.15772628784179,15.9365253448486,5.956709486127039,7.324363004040846,2354776502
usq,4.47418689727783,15.4001913070678,6.183465253235416,7.585362524294493,2354793169
usq,3.66225576400756,14.753999710083,6.36174992688566,7.867623657505853,2354809836
usq,2.72962045669555,13.9959526062011,6.472475115984734,8.146119615786926,2354826503
usq,1.67984521389007,13.1517820358276,6.512647299777642,8.39925569664809,2354843170
usq,0.543614149093627,12.2213306427001,6.494349070548808,8.612290279967464,2354859837
usq,-0.647583603858947,11.1970090866088,6.439916692432555,8.778154218012547,2354876504
usq,-1.90650880336761,10.0924596786499,6.375182055958814,8.896275491804303,2354893171
usq,-3.22967195510864,8.91523170471191,6.322836362960957,8.970695768505205,2354909838
usq,-4.63945531845092,7.67415285110473,6.297544432450779,9.008453076145669,2354926505
usq,-6.1264476776123,6.35917425155639,6.30370267712809,9.01840804983652,2354943172
usq,-7.66459083557128,4.97555589675903,6.335942244053808,9.010115321221932,2354959839
usq,-9.24069499969482,3.52240085601806,6.381795535054159,8.992340885341797,2354976506
usq,-10.8543872833251,1.99263882637023,6.425499850181739,8.971250984832006,2354993173
usq,-12.4983491897583,0.399308055639266,6.451792871645154,8.94875782298224,2355009840
usq,-14.1831846237182,-1.23526358604431,6.448752988611171,8.921711159281378,2355026507
usq,-15.8972206115722,-2.89654803276062,6.409152914884338,8.882480996237428,2355043174
usq,-17.6443557739257,-4.57148742675781,6.330301080310163,8.82102329314811,2355059841
usq,-19.4396953582763,-6.27198314666748,6.21282815368763,8.727909712282647,2355076508
usq,-21.3108386993408,-8.01562023162841,6.059201057870526,8.597310722074278,2355093175
usq,-23.2272205352783,-9.82485389709472,5.87275871042975,8.42884424757505,2355109842
usq,-25.1694221496582,-11.6798114776611,5.657706782016598,8.227652387977184,2355126509
usq,-27.1142616271972,-13.5766639709472,5.419937218347846,8.002842327752106,2355143176
usq,-29.0375652313232,-15.4937105178833,5.168054144499596,7.7650901483892465,2355159843
usq,-30.9565391540527,-17.4343185424804,4.913847738054465,7.524393173119757,2355176510
usq,-32.8976325988769,-19.403600692749,4.671712490534916,7.288628904860047,2355193177
usq,-34.8205184936523,-21.3962135314941,4.456982257435014,7.063007490778428,2355209844
usq,-36.7629470825195,-23.3985519409179,4.283579495119017,6.850056086685736,2355226511
usq,-38.6916198730468,-25.3645439147949,4.161561277417745,6.6496939589381245,2355243178
usq,-40.6018333435058,-27.2935276031494,4.095092385862205,6.459246712002212,2355259845
usq,-42.516487121582,-29.2241458892822,4.081225175475359,6.273657769829549,2355276512
usq,-44.4272880554199,-31.1782321929931,4.109728800945707,6.086343526800938,2355293179
usq,-46.325454711914,-33.1715049743652,4.1640825614661345,5.890913978368222,2355309846
usq,-48.2426033020019,-35.1573410034179,4.223584974845957,5.68345008156287,2355326513
usq,-50.1912956237793,-37.1158790588378,4.266345145835519,5.464541970338049,2355343180
usq,-52.1184844970703,-39.1044731140136,4.272767486806821,5.240221486757697,2355359847
usq,-54.0608177185058,-41.1069602966308,4.229019351420431,5.021382505412938,2355376514
usq,-56.0391197204589,-43.1162796020507,4.129844150227283,4.821974855493326,2355393181
usq,-58.0144996643066,-45.1435470581054,3.9799964234763543,4.656683282582363,2355409848
usq,-59.9948120117187,-47.2294540405273,3.7937105334222596,4.538723062034553,2355426515
usq,-61.9455757141113,-49.3492393493652,3.5920730485939707,4.478022459297586,2355443182
usq,-63.8007087707519,-51.4836997985839,3.3987679093099277,4.479804948397068,2355459849
usq,-65.5539016723632,-53.6097717285156,3.2350974239470855,4.543569719840958,2355476516
usq,-67.2047576904296,-55.7045631408691,3.1153446419245503,4.662567126062624,2355493183
usq,-68.72900390625,-57.75825881958,3.0435432033743948,4.823931220203317,2355509850
usq,-70.0808410644531,-59.691722869873,3.0126256193302057,5.009600411987402,2355526517
usq,-71.2901611328125,-61.4335441589355,3.0066097343099436,5.197996795691464,2355543184
usq,-72.3339385986328,-62.9640464782714,3.0057662887366057,5.366193966208607,2355559851
usq,-73.1729431152343,-64.3092346191406,2.99357988945465,5.49214609634449,2355576518
usq,-73.8514328002929,-65.515510559082,2.9631636875244705,5.556636751294501,2355593185
usq,-74.4117355346679,-66.5782165527343,2.920359459540394,5.544945239516285,2355609852
usq,-74.8636169433593,-67.4937438964843,2.8816689500489394,5.448575972488648,2355626519
usq,-75.2105178833007,-68.3019866943359,2.867293204764315,5.267315617737675,2355643186
usq,-75.42626953125,-68.9351806640625,2.891887324875387,5.011203829403378,2355659853
usq,-75.5169906616211,-69.3607635498046,2.9568656795355097,4.701227481919463,2355676520
usq,-75.5047760009765,-69.6245880126953,3.0475313492143403,4.3674709364247235,2355693187
usq,-75.4307098388671,-69.7630462646484,3.1363061724532857,4.044345634300957,2355709854
usq,-75.3354949951171,-69.8002548217773,3.190928444475004,3.76386902493881,2355726521
usq,-75.2343063354492,-69.7432022094726,3.1846704115990794,3.548955067665021,2355743188
usq,-75.152473449707,-69.5983428955078,3.1049932354063103,3.4088069977083792,2355759855
usq,-75.0968933105468,-69.4171600341796,2.9577219354491366,3.3377977667204664,2355776522
usq,-75.078987121582,-69.2383422851562,2.7654831700271667,3.3180879936170546,2355793189
usq,-75.0713806152343,-69.0629501342773,2.56115809822918,3.3251194397960573,2355809856
usq,-75.0747528076171,-68.9367904663086,2.3787068362042896,3.3343535485772358,2355826523
usq,-75.1020736694336,-68.8785858154296,2.2443884282148474,3.3273791172022618,2355843190
usq,-75.1375503540039,-68.8550796508789,2.1710091970035763,3.295843470011122,2355859857
usq,-75.1466674804687,-68.862564086914,2.1566257511408375,3.2424506607223083,2355876524
usq,-75.1106948852539,-68.8953247070312,2.187567792940434,3.179213556748464,2355893191
usq,-75.0633239746093,-68.9534912109375,2.2442653946875333,3.123862429474782,2355909858
usq,-75.0347137451171,-68.9848403930664,2.3076217948157445,3.095555318823522,2355926525
usq,-75.0311965942382,-69.0027465820312,2.3637884766849586,3.110835644787419,2355943192
usq,-75.0511627197265,-69.0469894409179,2.4060662221477376,3.1803928217442285,2355959859
usq,-75.0722274780273,-69.0865249633789,2.4338703835103765,3.3068823482296876,2355976526
usq,-75.1052474975586,-69.1001510620117,2.449764557468705,3.4839688952441716,2355993193
usq,-75.1590728759765,-69.0946807861328,2.4561369020184665,3.6967759041555586,2356009860
usq,-75.215576171875,-69.0660552978515,2.453044097639764,3.9238832161778587,2356026527
usq,-75.2662200927734,-69.0055236816406,2.4381210013073202,4.140793277030714,2356043194
usq,-75.295669555664,-68.9437637329101,2.4084662480140566,4.32437951055548,2356059861
usq,-75.3188934326171,-68.854866027832,2.3634936352811744,4.457369306323086,2356076528
usq,-75.3443450927734,-68.7401733398437,2.307347380882761,4.531651916046838,2356093195
usq,-75.3541259765625,-68.613540649414,2.249777950068926,4.5493780665671135,2356109862
usq,-75.3270111083984,-68.4690246582031,2.2051176374113264,4.521496742464718,2356126529
usq,-75.2393417358398,-68.2481994628906,2.1897624447742525,4.464350541895969,2356143196
usq,-75.0897750854492,-67.9127426147461,2.21903484713865,4.395756358024543,2356159863
usq,-74.8766708374023,-67.4777069091796,2.304324635069294,4.332113158093515,2356176530
usq,-74.568733215332,-66.9159622192382,2.451032865140382,4.287338657915919,2356193197
usq,-74.1324234008789,-66.2003631591796,2.657345366012015,4.273270709058827,2356209864
usq,-73.5549163818359,-65.3877563476562,2.9136013856805056,4.300336094514869,2356226531
usq,-72.8618545532226,-64.5169601440429,3.202172629680462,4.377288626579462,2356243198
usq,-72.0116882324218,-63.5841178894043,3.4981220878306214,4.509526393212487,2356259865
usq,-70.9586410522461,-62.5019340515136,3.7710593975663356,4.6963703251478455,2356276532
usq,-69.6726989746093,-61.1907577514648,3.988346199560545,4.928267949948709,2356293199
usq,-68.1864242553711,-59.7567520141601,4.119334798705267,5.185074795205396,2356309866
usq,-66.4352264404296,-58.3322677612304,4.140020888689752,5.436456677879508,2356326533
usq,-64.511978149414,-56.8535079956054,4.037527409736012,5.6451097992555335,2356343200
usq,-62.5588912963867,-55.2984161376953,3.814039014924879,5.772901277724393,2356359867
usq,-60.5296630859375,-53.704734802246,3.489799023312453,5.789168046122565,2356376534
usq,-58.5390319824218,-52.0732612609863,3.1043264916099034,5.6793450543468005,2356393201
usq,-56.6421127319335,-50.4700393676757,2.7143894378980926,5.451242696529628,2356409868
usq,-54.7655334472656,-48.863784790039,2.3872747912064147,5.136488565744297,2356426535
usq,-53.058006286621,-47.1611785888671,2.189177446990022,4.786343509301709,2356443202
usq,-51.4546661376953,-45.4041557312011,2.170764284851119,4.463341578123105,2356459869
usq,-49.7515716552734,-43.506420135498,2.3538662647601427,4.231160623912311,2356476536
usq,-47.9449043273925,-41.5219955444335,2.7236476102404934,4.144249372283254,2356493203
usq,-46.0316276550293,-39.5941772460937,3.2293343444025915,4.237693090962758,2356509870
usq,-44.0843276977539,-37.65625,3.7941954100993738,4.518500845375354,2356526537
usq,-42.267478942871,-35.714370727539,4.332601165646438,4.961418054057459,2356543204
usq,-40.4924545288085,-33.8282623291015,4.769477844484677,5.512737737089648,2356559871
usq,-38.6261863708496,-32.0958061218261,5.056467285195473,6.102562267112015,2356576538
usq,-36.7160530090332,-30.5052070617675,5.180301718431704,6.661249251086445,2356593205
usq,-34.8398132324218,-28.9876708984375,5.1618237497270725,7.133351820153162,2356609872
usq,-33.1252555847168,-27.4007511138916,5.047244615720337,7.4844626575760875,2356626539
usq,-31.5634479522705,-25.7069644927978,4.895191774459327,7.701110305340269,2356643206
usq,-30.0289783477783,-24.0144367218017,4.7632913808598,7.787249600285111,2356659873
usq,-28.449836730957,-22.3857231140136,4.696973262847285,7.760735134219768,2356676540
usq,-26.8950901031494,-20.7958183288574,4.721972456346148,7.650625534769905,2356693207
usq,-25.3481712341308,-19.2203845977783,4.841372282059519,7.494009087280079,2356709874
usq,-23.8142185211181,-17.6533412933349,5.0376890699777475,7.330994852043631,2356726541
usq,-22.3101577758789,-16.1151523590087,5.279585910015348,7.198163018453629,2356743208
usq,-20.8611736297607,-14.5924282073974,5.531198775782838,7.122414947996143,2356759875
usq,-19.4869232177734,-13.0713748931884,5.7608281810958175,7.11742333124947,2356776542
usq,-18.1670494079589,-11.5622310638427,5.946123457524004,7.183671434057692,2356793209
usq,-16.8796730041503,-10.0526723861694,6.074917651700923,7.311398285621663,2356809876
usq,-15.5777206420898,-8.56597900390625,6.143223598947368,7.484735786814937,2356826543
usq,-14.2436666488647,-7.09848880767822,6.152959720860362,7.685317397833092,2356843210
usq,-12.910358428955,-5.65471982955932,6.111164559745205,7.89436208935342,2356859877
usq,-11.6135425567626,-4.26680374145507,6.03058738892773,8.093228920394148,2356876544
usq,-10.3509140014648,-2.9233956336975,5.930020729918585,8.263307887787462,2356893211
usq,-9.13119792938232,-1.60274910926818,5.832574028109202,8.386496766164187,2356909878
usq,-7.96509170532226,-0.330364406108856,5.76134278577529,8.447166969258536,2356926545
usq,-6.84895372390747,0.872235238552093,5.733769089062192,8.43557289274223,2356943212
usq,-5.77409982681274,2.00729966163635,5.757159355242964,8.351624838051453,2356959879
usq,-4.72084093093872,3.08111667633056,5.827449652946641,8.20739081759804,2356976546
usq,-3.64718151092529,4.13099002838134,5.931602769321753,8.02688638578758,2356993213
usq,-2.63069987297058,5.1469759941101,6.052196415794071,7.842556891662972,2357009880
usq,-1.67166221141815,6.13334321975708,6.172034038262607,7.689007917586791,2357026547
usq,-0.788847208023071,7.08389139175415,6.277209485892319,7.595548933887683,2357043214
usq,0.0537796393036842,8.00476741790771,6.358233146305546,7.57959927156452,2357059881
usq,0.869194328784942,8.89272022247314,6.4097137191860485,7.642802332996578,2357076548
usq,1.59761726856231,9.73499011993408,6.429413360000733,7.770890410983085,2357093215
usq,2.26243782043457,10.5260877609252,6.417450560952079,7.937207090536252,2357109882
usq,2.88903379440307,11.2246236801147,6.376137340407692,8.108730760424283,2357126549
usq,3.41588544845581,11.8617839813232,6.31036377189839,8.252887067665858,2357143216
usq,3.82594680786132,12.4369831085205,6.227787978846832,8.343579865670481,2357159883
usq,4.12636804580688,12.9070663452148,6.137892201130927,8.365431020354992,2357176550
usq,4.36165237426757,13.2796096801757,6.04956124348204,8.315692613992866,2357193217
usq,4.55234050750732,13.5733518600463,5.967913320721643,8.203527039756997,2357209884
usq,4.69009017944335,13.8171157836914,5.89192898097751,8.046709409639258,2357226551
usq,4.77964401245117,14.0123872756958,5.814422101137047,7.86658537082744,2357243218
usq,4.81124687194824,14.1395111083984,5.725045523361246,7.6829524438903425,2357259885
usq,4.78441715240478,14.2112140655517,5.6157289603041844,7.510700315335105,2357276552
usq,4.70604753494262,14.2346668243408,5.486754707486161,7.359257080484344,2357293219
usq,4.58520078659057,14.2035627365112,5.351041090532468,7.2345867265122035,2357309886
usq,4.41130208969116,14.11288356781,5.234396066923851,7.1423953929794255,2357326553
usq,4.23038721084594,13.9849166870117,5.170595526947629,7.0907734438912575,2357343220
usq,4.03188228607177,13.8107624053955,5.191964141484021,7.090766177668808,2357359887
usq,3.72072601318359,13.613055229187,5.3181725817211545,7.154199822236682,2357376554
usq,3.38199567794799,13.4282169342041,5.547316256763098,7.289294323457316,2357393221
usq,3.00923991203308,13.184136390686,5.853086893146525,7.495761972851568,2357409888
usq,2.54048490524292,12.8173189163208,6.189737201087922,7.761627005086494,2357426555
usq,1.92579090595245,12.3420886993408,6.503422758659862,8.063489392633947,2357443222
usq,1.12120079994201,11.7949829101562,6.745964455633454,8.370538266678777,2357459889
usq,0.166060924530029,11.1478462219238,6.8863800429904956,8.651027079114654,2357476556
usq,-0.912908375263214,10.3757858276367,6.916812544334022,8.879006949243852,2357493223
usq,-2.06173706054687,9.5155963897705,6.851815023837118,9.03921968861462,2357509890
usq,-3.26702547073364,8.57103061676025,6.7221511354859995,9.12888542007574,2357526557
usq,-4.535005569458,7.53341007232666,6.565583378935136,9.156202433402779,2357543224
usq,-5.84527540206909,6.40228414535522,6.417400165623398,9.136373712307943,2357559891
usq,-7.21763515472412,5.18605995178222,6.302942147953762,9.086632979233205,2357576558
usq,-8.67218208312988,3.88798022270202,6.233505240376417,9.021856297974816,2357593225
usq,-10.1945352554321,2.51005983352661,6.2060229537134965,8.951897547988464,2357609892
usq,-11.7377309799194,1.05775845050811,6.20605811663501,8.881004984334643,2357626559
usq,-13.3087129592895,-0.451731204986572,6.212995033096955,8.80889945823613,2357643226
usq,-14.9238948822021,-2.018718957901,6.205994071441613,8.732619393384052,2357659893
usq,-16.5789756774902,-3.63173031806945,6.169257444793737,8.648222063909655,2357676560
usq,-18.2748546600341,-5.28500080108642,6.09541455207336,8.551825940498283,2357693227
usq,-19.9868030548095,-6.9831371307373,5.986316735584389,8.440029877942713,2357709894
usq,-21.7183933258056,-8.71977424621582,5.851184671848516,8.31012052296394,2357726561
usq,-23.4956588745117,-10.4779119491577,5.702790407067406,8.16047254562894,2357743228
usq,-25.2893772125244,-12.267632484436,5.552993550595642,7.991217776474849,2357759895
usq,-27.0960178375244,-14.0917205810546,5.409199439937275,7.8049006922182,2357776562
usq,-28.9348201751709,-15.9122419357299,5.272945278253414,7.606734380821816,2357793229
usq,-30.7687397003173,-17.7327861785888,5.140936625472541,7.404254424528567,2357809896
usq,-32.5897750854492,-19.5672607421875,5.007873744510221,7.206413837018617,2357826563
usq,-34.3976974487304,-21.4289398193359,4.8697974198245975,7.022250712829502,2357843230
usq,-36.2262573242187,-23.2855682373046,4.726660020449343,6.859219530224485,2357859897
usq,-38.0750045776367,-25.1262397766113,4.583284655342539,6.721326030686637,2357876564
usq,-39.9281845092773,-26.9548778533935,4.448530130390353,6.607448716784263,2357893231
usq,-41.7792129516601,-28.7875232696533,4.333039591402083,6.510472167248744,2357909898
usq,-43.625129699707,-30.652488708496,4.246252321212274,6.41778686754938,2357926565
usq,-45.4712944030761,-32.518325805664,4.193430532955263,6.313255223280625,2357943232
usq,-47.3307151794433,-34.3748054504394,4.173426485815104,6.180200611232861,2357959899
usq,-49.1336784362793,-36.2038993835449,4.177831281372552,6.004744844996426,2357976566
usq,-50.9201126098632,-38.0494842529296,4.191910459087796,5.778983638146618,2357993233
usq,-52.7305068969726,-39.9349060058593,4.197292198564232,5.503711794161275,2358009900
usq,-54.6120414733886,-41.841567993164,4.175872254044625,5.190315446923137,2358026567
usq,-56.5354804992675,-43.7927856445312,4.114056532798219,4.8610997211274265,2358043234
usq,-58.5009002685546,-45.8077011108398,4.006373532817156,4.547202042887105,2358059901
usq,-60.4737663269043,-47.8325691223144,3.857588776834389,4.283754471410114,2358076568
usq,-62.369155883789,-49.9007873535156,3.6826373712962064,4.103001027380855,2358093235
usq,-64.2030181884765,-51.9836540222168,3.503957497566194,4.0271197808016845,2358109902
usq,-65.9507064819336,-54.1214637756347,3.3462912241367206,4.0629445593135,2358126569
usq,-67.6130752563476,-56.3197860717773,3.229817957574437,4.200264248756829,2358143236
usq,-69.1886367797851,-58.4655456542968,3.16342161431877,4.414008689435549,2358159903
usq,-70.6671066284179,-60.4645652770996,3.140500943845201,4.669099086903013,2358176570
usq,-71.998420715332,-62.2608833312988,3.1395199946111014,4.926008751312705,2358193237
usq,-73.1072387695312,-63.8571319580078,3.130214265913393,5.1456354538916065,2358209904
usq,-73.9440460205078,-65.323745727539,3.0842002240760014,5.293396830193927,2358226571
usq,-74.5401382446289,-66.6625823974609,2.986435198168085,5.343319181123648,2358243238
usq,-74.9891967773437,-67.8204498291015,2.842781559925081,5.28247700655778,2358259905
usq,-75.3473663330078,-68.812271118164,2.6799283780173098,5.114787102961072,2358276572
usq,-75.5668334960937,-69.6553573608398,2.537043277534876,4.8621128129709295,2358293239
usq,-75.610237121582,-70.3997344970703,2.4521984284618017,4.561010165292791,2358309906
usq,-75.5169067382812,-71.0833129882812,2.448804890465733,4.255236319268739,2358326573
usq,-75.3675765991211,-71.5987472534179,2.527022621418119,3.986132096956573,2358343240
usq,-75.2142868041992,-71.9107055664062,2.6629248288490013,3.783827312045821,2358359907
usq,-75.0473098754882,-72.0328216552734,2.8153362788545384,3.661566552784343,2358376574
usq,-74.8849868774414,-72.0220184326171,2.9377981499195185,3.61408706765911,2358393241
usq,-74.770523071289,-71.9207992553711,2.9916638687809565,3.619849222293298,2358409908
usq,-74.715087890625,-71.7341842651367,2.956229002117057,3.646361365293224,2358426575
usq,-74.7151870727539,-71.4842147827148,2.8330602979726343,3.6576054723476457,2358443242
usq,-74.7761459350586,-71.2381591796875,2.6438440856201124,3.6223118966722776,2358459909
usq,-74.8855819702148,-71.0199203491211,2.423235538567369,3.5214940542329267,2358476576
usq,-75.0261001586914,-70.8491744995117,2.2095117361246697,3.3535056421586167,2358493243
usq,-75.1623001098632,-70.7552108764648,2.0359518641850647,3.1352403735985703,2358509910
usq,-75.2620315551757,-70.7382736206054,1.9249828824856843,2.898996113282711,2358526577
usq,-75.3069229125976,-70.7490921020507,1.8857959161697704,2.6856746045063984,2358543244
usq,-75.3152847290039,-70.785400390625,1.9149957124707955,2.5359504511394606,2358559911
usq,-75.301025390625,-70.8500823974609,1.9992905099643925,2.4814733205831025,2358576578
usq,-75.2592544555664,-70.9224243164062,2.1192364867878424,2.537976189932666,2358593245
usq,-75.1756820678711,-70.9531097412109,2.253294143193379,2.701576767316025,2358609912
usq,-75.0689697265625,-70.9345092773437,2.3816087024727763,2.9489275384552958,2358626579
usq,-74.991340637207,-70.880859375,2.4889151206399367,3.2413168162521973,2358643246
usq,-74.9519958496093,-70.8107147216796,2.566011066455541,3.532175282171024,2358659913
usq,-74.9455795288086,-70.7650985717773,2.6096067355225525,3.776573087098397,2358676580
usq,-74.957649230957,-70.7581329345703,2.6209750563468384,3.940465545514962,2358693247
usq,-74.9973754882812,-70.7551651000976,2.604249967752341,4.0072093322184115,2358709914
usq,-75.0742416381836,-70.7394332885742,2.5651218512870364,3.97958788100244,2358726581
usq,-75.1811752319336,-70.7110137939453,2.5101877293579618,3.8770631073581825,2358743248
usq,-75.3063507080078,-70.6688995361328,2.4467161608166066,3.7295359351169233,2358759915
usq,-75.4287872314453,-70.5999679565429,2.3823509455335294,3.569828576332673,2358776582
usq,-75.5355606079101,-70.5220565795898,2.3243603036330347,3.4270701222002993,2358793249
usq,-75.6220626831054,-70.4496612548828,2.2783747876626883,3.3223714729011533,2358809916
usq,-75.6891250610351,-70.3155517578125,2.247013241526071,3.267137682641811,2358826583
usq,-75.7266311645507,-70.116340637207,2.229164269195181,3.2635970853432594,2358843250
usq,-75.7041244506836,-69.9015350341796,2.2207094537436878,3.30685395906451,2358859917
usq,-75.6131515502929,-69.6870651245117,2.216960718527329,3.387855153429468,2358876584
usq,-75.4640121459961,-69.4454574584961,2.216161389579832,3.4967667599664884,2358893251
usq,-75.2840270996093,-69.1591796875,2.222563574193359,3.6261656176320667,2358909918
usq,-75.0548629760742,-68.8150787353515,2.2474144552664392,3.7732421392938926,2358926585
usq,-74.7676239013671,-68.3923797607421,2.3068824589405037,3.9401753578712833,2358943252
usq,-74.4294891357421,-67.8610687255859,2.4172334465219834,4.1322259246176545,2358959919
usq,-74.0377044677734,-67.2223281860351,2.5887917183353752,4.35388743464394,2358976586
usq,-73.539794921875,-66.5386886596679,2.8207839714277685,4.604324165231728,2358993253
usq,-72.8966369628906,-65.8058853149414,3.0988338744689115,4.873842668008244,2359009920
usq,-72.1279678344726,-64.9747467041015,3.3959009604661423,5.142965537978367,2359026587
usq,-71.2339248657226,-64.0448608398437,3.676346840217645,5.384805846782645,2359043254
usq,-70.1854705810546,-63.023323059082,3.9019884701079492,5.57023976837867,2359059921
usq,-68.9914169311523,-61.8747863769531,4.038666348467474,5.674368494337537,2359076588
usq,-67.7183456420898,-60.5642356872558,4.062033397504301,5.682354410544336,2359093255
usq,-66.4075469970703,-59.077293395996,3.96177781089532,5.593003797881916,2359109922
usq,-64.9330139160156,-57.5254325866699,3.743965955086241,5.4192716713731155,2359126589
usq,-63.2726325988769,-55.9512176513671,3.431353953393423,5.1858864228479495,2359143256
usq,-61.5351905822753,-54.3030090332031,3.0615103396900425,4.925142691253433,2359159923
usq,-59.8375549316406,-52.621036529541,2.6828125089542114,4.672177106713659,2359176590
usq,-58.17769241333,-50.9080467224121,2.348869025325996,4.460674310236924,2359193257
usq,-56.4868087768554,-49.2201995849609,2.1121991175227217,4.319450178717028,2359209924
usq,-54.6978492736816,-47.5539321899414,2.0177499764148608,4.270130810128021,2359226591
usq,-52.8989601135253,-45.790225982666,2.096467528204744,4.325903780850985,2359243258
usq,-51.1890563964843,-44.0387840270996,2.359313354781273,4.490740868701143,2359259925
usq,-49.5075569152832,-42.3339691162109,2.7927998750427667,4.758151918770924,2359276592
usq,-47.7905616760253,-40.5483093261718,3.357550260692398,5.109306844891413,2359293259
usq,-46.0019035339355,-38.6982841491699,3.991083522485696,5.511995541208183,2359309926
usq,-44.1581153869628,-36.891128540039,4.6152940471820525,5.922869863651792,2359326593
usq,-42.2960357666015,-35.2065658569335,5.148396780537266,6.29444868795799,2359343260
usq,-40.5160102844238,-33.6371917724609,5.5201860719086415,6.585736506370996,2359359927
usq,-38.8768272399902,-32.1060256958007,5.6877806588718345,6.772720097238752,2359376594
usq,-37.3384819030761,-30.5340328216552,5.647140867568877,6.854340665659481,2359393261
usq,-35.7735519409179,-28.970323562622,5.435369157328262,6.851390535864167,2359409928
usq,-34.2433433532714,-27.4540386199951,5.121540809896066,6.799001237117967,2359426595
usq,-32.8019485473632,-25.9684410095214,4.788656500033446,6.73600053491576,2359443262
usq,-31.3908462524414,-24.5153522491455,4.5132958906748035,6.695127675772755,2359459929
usq,-29.9882354736328,-23.0685691833496,4.350039510863136,6.697001881984257,2359476596
usq,-28.5997505187988,-21.63081741333,4.324591084808781,6.748822340090971,2359493263
usq,-27.2075290679931,-20.1548099517822,4.435115711106116,6.847007493778081,2359509930
usq,-25.8165550231933,-18.6683387756347,4.658425063796664,6.98187345294062,2359526597
usq,-24.4277648925781,-17.1944503784179,4.957512492967706,7.142179703068256,2359543264
usq,-23.0304489135742,-15.7469978332519,5.288640323072137,7.317920231472104,2359559931
usq,-21.5865058898925,-14.3189792633056,5.607792999041051,7.500840266800617,2359576598
usq,-20.1465549468994,-12.902244567871,5.876651308014337,7.683282415295835,2359593265
usq,-18.7692070007324,-11.4936866760253,6.067610700062196,7.856597070552707,2359609932
usq,-17.4684104919433,-10.1006422042846,6.166839554931764,8.010305287360257,2359626599
usq,-16.2163066864013,-8.72707843780517,6.174638589054139,8.132650400973555,2359643266
usq,-14.9667425155639,-7.39239501953125,6.103253308118921,8.212459211465246,2359659933
usq,-13.7113351821899,-6.09470796585083,5.973180945426562,8.241682322033695,2359676600
usq,-12.4789295196533,-4.79507064819335,5.809362063453217,8.217777774752774,2359693267
usq,-11.2584009170532,-3.49802732467651,5.638257690682386,8.145213191492008,2359709934
usq,-10.0309715270996,-2.23130702972412,5.485910198591069,8.03564206905951,2359726601
usq,-8.80881786346435,-1.03471887111663,5.376259196324139,7.906650417496015,2359743268
usq,-7.63936948776245,0.129761755466461,5.328830891332467,7.77930866207163,2359759935
usq,-6.47191524505615,1.24842166900634,5.355568303080743,7.675005064860877,2359776602
usq,-5.3258261680603,2.36126708984375,5.457556189350823,7.612091636840959,2359793269
usq,-4.20799970626831,3.47012162208557,5.623039212263584,7.602788790729248,2359809936
usq,-3.15366721153259,4.5671100616455,5.828041344572321,7.650751705801921,2359826603
usq,-2.15062475204467,5.62234210968017,6.0401618654447145,7.749815633983873,2359843270
usq,-1.17369747161865,6.65786504745483,6.22512007749323,7.8845668372659246,2359859937
usq,-0.194838345050811,7.65910768508911,6.354657708320683,8.03318269080661,2359876604
usq,0.73121953010559,8.60320663452148,6.413664472072958,8.172223854467948,2359893271
usq,1.51969790458679,9.51598167419433,6.404131096302315,8.28200793792206,2359909938
usq,2.18711400032043,10.3625946044921,6.344152150638229,8.350603166459162,2359926605
usq,2.75944542884826,11.1288452148437,6.2618306458087565,8.374998109171347,2359943272
usq,3.28876900672912,11.7894296646118,6.185983790346445,8.359420408085697,2359959939
usq,3.77132391929626,12.3624610900878,6.136879403800415,8.312076068945377,2359976606
usq,4.14476060867309,12.8739919662475,6.120071113895093,8.241910694514,2359993273
usq,4.45104169845581,13.321662902832,6.125024754586309,8.15642944302569,2360009940
usq,4.65027141571044,13.7084283828735,6.128602449309257,8.060820919787911,2360026607
usq,4.82370567321777,14.0231771469116,6.102300517107381,7.958101155364335,2360043274
usq,4.95785951614379,14.2834844589233,6.021479129493969,7.849815115219626,2360059941
usq,5.02451133728027,14.4919729232788,5.874447294626036,7.736920677671405,2360076608
usq,5.04153823852539,14.6438245773315,5.669088502227199,7.620709980900358,2360093275
usq,5.01992130279541,14.7384061813354,5.434873766092933,7.503825185133981,2360109942
usq,4.95635652542114,14.7749052047729,5.2188514598271585,7.3914284796540635,2360126609
usq,4.84172677993774,14.7356691360473,5.075637305660781,7.292324571804174,2360143276
usq,4.68431329727172,14.6471834182739,5.053324038149088,7.219439697982903,2360159943
usq,4.49503374099731,14.5334386825561,5.178999351215664,7.18883786105998,2360176610
usq,4.24896097183227,14.399845123291,5.448440795992687,7.216700604047521,2360193277
usq,3.99700450897216,14.2596435546875,5.8239167403259176,7.314500711146493,2360209944
usq,3.76299381256103,14.0719089508056,6.241721868037675,7.483719828639359,2360226611
usq,3.45566225051879,13.7461242675781,6.627737838598863,7.712293107772703,2360243278
usq,2.95453667640686,13.2905874252319,6.91626053782102,7.97480202257074,2360259945
usq,2.23661112785339,12.7665481567382,7.066032444052623,8.237071552410043,2360276612
usq,1.37654364109039,12.1684885025024,7.06857346116357,8.463932508774256,2360293279
usq,0.36770811676979,11.4743328094482,6.946939384888355,8.627574757805755,2360309946
usq,-0.766324043273925,10.681396484375,6.746434748024806,8.713788922932649,2360326613
usq,-1.9789320230484,9.81964874267578,6.521085383402545,8.724347286435817,2360343280
usq,-3.21640419960021,8.88673400878906,6.320196582466017,8.675215012128211,2360359947
usq,-4.49081707000732,7.85976076126098,6.178387853559381,8.591554267576958,2360376614
usq,-5.82260751724243,6.73059272766113,6.110855335786479,8.501157695501798,2360393281
usq,-7.22975444793701,5.49729013442993,6.113919886075589,8.42798054536485,2360409948
usq,-8.71981906890869,4.17153787612915,6.1695717400137955,8.387080919647836,2360426615
usq,-10.2680559158325,2.77825450897216,6.251984213059712,8.381800399237171,2360443282
usq,-11.8472633361816,1.33441770076751,6.333973236610146,8.40356413760148,2360459949
usq,-13.4508352279663,-0.157815128564834,6.392004910002462,8.434267446128395,2360476616
usq,-15.0852909088134,-1.70653426647186,6.409218911752571,8.450799443591324,2360493283
usq,-16.768159866333,-3.30829429626464,6.376615526928466,8.43079977387565,2360509950
usq,-18.4961795806884,-4.95022296905517,6.292843271806399,8.358324809815183,2360526617
usq,-20.2650451660156,-6.63170480728149,6.163023123315697,8.227928007898148,2360543284
usq,-22.0797004699707,-8.36286735534668,5.9969819221302405,8.045966914702305,2360559951
usq,-23.9330749511718,-10.1389465332031,5.807251625467036,7.828772172155892,2360576618
usq,-25.8099746704101,-11.944260597229,5.607168798134943,7.598369666303992,2360593285
usq,-27.7092609405517,-13.7755870819091,5.409311551728572,7.377246006934433,2360609952
usq,-29.6125202178955,-15.6132135391235,5.224370520344614,7.183784606825196,2360626619
usq,-31.5070419311523,-17.4460182189941,5.060448834334902,7.029432441546483,2360643286
usq,-33.3902893066406,-19.2789974212646,4.9227413434602125,6.917756130158238,2360659953
usq,-35.250690460205,-21.1381931304931,4.813498004923386,6.84483629080358,2360676620
usq,-37.1065254211425,-23.0112361907959,4.732116486533551,6.800257477131786,2360693287
usq,-38.9945945739746,-24.8991298675537,4.675223020560519,6.768258606966832,2360709954
usq,-40.8670349121093,-26.7816505432128,4.6367507366333856,6.7291418690370275,2360726621
usq,-42.7404594421386,-28.6613388061523,4.6082234374599205,6.661419003080743,2360743288
usq,-44.6253814697265,-30.5280494689941,4.579537753028476,6.54509734585473,2360759955
usq,-46.4961280822753,-32.399242401123,4.540411828456922,6.365934462628803,2360776622
usq,-48.3033561706543,-34.294864654541,4.482351205802373,6.119709985681252,2360793289
usq,-50.1158638000488,-36.1343421936035,4.400610752968677,5.815051476076188,2360809956
usq,-51.9429130554199,-37.9386024475097,4.295428114107778,5.473495017689012,2360826623
usq,-53.7772407531738,-39.7938194274902,4.171925057274051,5.126306352653596,2360843290
usq,-55.5765914916992,-41.6896209716796,4.038496840272006,4.808777802461435,2360859957
usq,-57.3937454223632,-43.5435638427734,3.9040886128836867,4.553680685196341,2360876624
usq,-59.2993354797363,-45.4443778991699,3.775268688503092,4.385780482397043,2360893291
usq,-61.167739868164,-47.3617897033691,3.654186471166083,4.318627976545838,2360909958
usq,-63.0133171081543,-49.2212753295898,3.5382241277678492,4.353639727631593,2360926625
usq,-64.8085479736328,-51.0927200317382,3.4215634201749223,4.480660582149236,2360943292
usq,-66.4719696044921,-53.0418624877929,3.29822513516031,4.679329649262402,2360959959
usq,-67.9334869384765,-55.0754051208496,3.1655327441490435,4.921292278672425,2360976626
usq,-69.2284851074218,-57.0547637939453,3.0265836305180813,5.173718294766654,2360993293
usq,-70.4020004272461,-58.8402633666992,2.8905002422431103,5.404151255337016,2361009960
usq,-71.4818572998046,-60.4244651794433,2.77012592248414,5.58566666024492,2361026627
usq,-72.4350967407226,-61.8726348876953,2.678065933269002,5.700505959640544,2361043294
usq,-73.2369155883789,-63.2136116027832,2.6228436264860924,5.740626790453698,2361059961
usq,-73.8507995605468,-64.4360656738281,2.6068812231231537,5.705092123576364,2361076628
usq,-74.2762680053711,-65.4764175415039,2.626991232830221,5.59603097386748,2361093295
usq,-74.5674667358398,-66.2978363037109,2.6766470843421897,5.415755272503323,2361109962
usq,-74.7578964233398,-66.9609069824218,2.748370701708242,5.166874979496601,2361126629
usq,-74.844970703125,-67.5067596435546,2.8347452849671826,4.855427586608304,2361143296
usq,-74.8290863037109,-67.977310180664,2.9277138001658014,4.495277391952871,2361159963
usq,-74.770751953125,-68.3493499755859,3.017165152468299,4.111225063112458,2361176630
usq,-74.7187118530273,-68.6000671386718,3.090425657309748,3.738606483860158,2361193297
usq,-74.6582489013671,-68.7434005737304,3.1337539916980335,3.418421277689065,2361209964
usq,-74.5392532348632,-68.7820281982421,3.1356594004009595,3.188820199131212,2361226631
usq,-74.4118347167968,-68.6981506347656,3.0906941361164946,3.0754814243214246,2361243298
usq,-74.348876953125,-68.5535888671875,3.0020197888331737,3.0842090220851746,2361259965
usq,-74.3279800415039,-68.3955612182617,2.8816097622365127,3.1984808227090804,2361276632
usq,-74.3416671752929,-68.2496948242187,2.747982127397684,3.382928121751691,2361293299
usq,-74.3870391845703,-68.0970077514648,2.622263230468467,3.5917113440481674,2361309966
usq,-74.4497299194336,-67.9845504760742,2.523783490107605,3.7792866452148166,2361326633
usq,-74.5070037841796,-67.9238967895507,2.4662941035510535,3.9105372368240374,2361343300
usq,-74.5489196777343,-67.8882446289062,2.45552482587453,3.9676702411841855,2361359967
usq,-74.5664443969726,-67.8527526855468,2.4884411603927914,3.952388038630349,2361376634
usq,-74.5566101074218,-67.8080596923828,2.554275001708824,3.8832272740166744,2361393301
usq,-74.514045715332,-67.7514343261718,2.637106654499523,3.7892287554332538,2361409968
usq,-74.4561233520507,-67.6969146728515,2.7194182882627613,3.70196081135501,2361426635
usq,-74.3908157348632,-67.643569946289,2.7857412508223045,3.648143306978688,2361443302
usq,-74.3251342773437,-67.5829315185546,2.825476946392533,3.644601029015119,2361459969
usq,-74.2620315551757,-67.4840087890625,2.8342462658966854,3.6962004758918288,2361476636
usq,-74.2152481079101,-67.3653717041015,2.813600397683618,3.796349603698985,2361493303
usq,-74.2013473510742,-67.2179260253906,2.7694312677810986,3.929158267881971,2361509970
usq,-74.2043914794921,-67.0589294433593,2.709792355315663,4.072562688523007,2361526637
usq,-74.2080154418945,-66.8904418945312,2.6429304209626476,4.20213191326639,2361543304
usq,-74.2092819213867,-66.705337524414,2.5760648925082483,4.295384803755779,2361559971
usq,-74.2073593139648,-66.490119934082,2.5149648204594515,4.336174534493167,2361576638
usq,-74.1922149658203,-66.2451934814453,2.463967513761004,4.318323928838717,2361593305
usq,-74.1560745239257,-65.9872131347656,2.4260112964620055,4.247550294403535,2361609972
usq,-74.0911026000976,-65.7248992919921,2.4025197164924155,4.140997065717345,2361626639
usq,-74.0069503784179,-65.4479446411132,2.393339193388632,4.024327424214766,2361643306
usq,-73.8946304321289,-65.1257247924804,2.3970993132176877,3.9269990077900414,2361659973
usq,-73.7619171142578,-64.7574996948242,2.412182756429719,3.876696830228683,2361676640
usq,-73.599983215332,-64.3627777099609,2.4380651387734513,3.8939454630579213,2361693307
usq,-73.3998718261718,-63.9625625610351,2.476412746181534,3.9878961708325305,2361709974
usq,-73.1248703002929,-63.5514678955078,2.5312973852513383,4.154285976705581,2361726641
usq,-72.7813034057617,-63.0728416442871,2.6082773273948052,4.376353696040494,2361743308
usq,-72.4023971557617,-62.547061920166,2.7126697652973193,4.62877796374998,2361759975
usq,-71.9585037231445,-61.9953880310058,2.8476701703931555,4.883555058020202,2361776642
usq,-71.4064636230468,-61.4006271362304,3.012779654756347,5.115765057028724,2361793309
usq,-70.7425460815429,-60.7714920043945,3.202514416827993,5.3071875608381225,2361809976
usq,-69.9269332885742,-60.1090545654296,3.405193932110168,5.447037605835331,2361826643
usq,-68.9675750732421,-59.3717803955078,3.6020734657220457,5.530969426491837,2361843310
usq,-67.9506683349609,-58.5037536621093,3.767821619929682,5.560444012002899,2361859977
usq,-66.8995285034179,-57.4388122558593,3.8735338615082333,5.543553078853402,2361876644
usq,-65.6977615356445,-56.2110366821289,3.892648907430236,5.496084479739388,2361893311
usq,-64.2928924560546,-54.888011932373,3.8086474345384453,5.440099503200416,2361909978
usq,-62.7575759887695,-53.6279258728027,3.622152452666315,5.398344814445907,2361926645
usq,-61.0926704406738,-52.3717002868652,3.354762853642636,5.386066888792765,2361943312
usq,-59.2422332763671,-50.9538650512695,3.0478061423496703,5.4046353299181416,2361959979
usq,-57.3780212402343,-49.3485870361328,2.755806905949963,5.441114183445271,2361976646
usq,-55.5490188598632,-47.6489715576171,2.5361528207142947,5.474418649171272,2361993313
usq,-53.775218963623,-45.9593925476074,2.4375535767113736,5.484807231620646,2362009980
usq,-51.989330291748,-44.3841400146484,2.4900974800385707,5.462240168549837,2362026647
usq,-50.0928001403808,-42.8448410034179,2.699096394590041,5.410804318263432,2362043314
usq,-48.2416076660156,-41.2073860168457,3.0438393117302747,5.34865241609068,2362059981
usq,-46.4408798217773,-39.4721527099609,3.481253442126151,5.303937060078382,2362076648
usq,-44.5932884216308,-37.6892852783203,3.9535813670531548,5.307503856289883,2362093315
usq,-42.6737213134765,-35.8812065124511,4.3986549257562615,5.383922073480884,2362109982
usq,-40.769115447998,-34.0251579284668,4.761122907438257,5.5436680459146475,2362126649
usq,-38.9248580932617,-32.2174453735351,5.002837608873467,5.77947569106288,2362143316
usq,-37.0834007263183,-30.4440631866455,5.110375732851399,6.068185858031666,2362159983
usq,-35.253547668457,-28.7839889526367,5.097596603152684,6.376887134640126,2362176650
usq,-33.511489868164,-27.1737842559814,5.001767061697727,6.6706553734462215,2362193317
usq,-31.8267803192138,-25.5526180267334,4.873443722715636,6.9195817969995135,2362209984
usq,-30.1616134643554,-23.9285717010498,4.762609631506825,7.104065773977393,2362226651
usq,-28.5418014526367,-22.3131389617919,4.705403938884964,7.218066192923454,2362243318
usq,-26.9973983764648,-20.7169399261474,4.715979910249634,7.269807487195901,2362259985
usq,-25.482250213623,-19.1558628082275,4.786182517530268,7.27925251586097,2362276652
usq,-23.9609622955322,-17.6178340911865,4.892630803502741,7.27240168229528,2362293319
usq,-22.4420623779296,-16.0443630218505,5.007925235066119,7.273952719576132,2362309986
usq,-20.9063720703125,-14.4539289474487,5.1113692874306995,7.300930903181196,2362326653
usq,-19.3545837402343,-12.8487854003906,5.1952454319997114,7.359594783192924,2362343320
usq,-17.8402385711669,-11.2519006729125,5.2648659517411485,7.4462803055633415,2362359987
usq,-16.3571491241455,-9.69107055664062,5.333247856406385,7.550950590318299,2362376654
usq,-14.8944282531738,-8.18152046203613,5.41316599550284,7.66133374737298,2362393321
usq,-13.437008857727,-6.69743728637695,5.509919115354154,7.766041223904166,2362409988
usq,-11.9746742248535,-5.19090461730957,5.617542280641787,7.856247821134747,2362426655
usq,-10.4989891052246,-3.65607690811157,5.719831051095991,7.926373339994896,2362443322
usq,-9.03709697723388,-2.09178829193115,5.795776779446383,7.9742976722709304,2362459989
usq,-7.60512113571167,-0.572001993656158,5.827352342298277,8.00122475953904,2362476656
usq,-6.20047998428344,0.891128003597259,5.806707829164617,8.010934432046458,2362493323
usq,-4.83433723449707,2.30920362472534,5.7401444438857565,8.008229867465772,2362509990
usq,-3.50373864173889,3.68777108192443,5.647528781651946,7.996907903657326,2362526657
usq,-2.21262788772583,5.01842880249023,5.55744704796418,7.97815032006539,2362543324
usq,-0.942019999027252,6.32342529296875,5.499727079011919,7.950345263783839,2362559991
usq,0.302951663732528,7.62745141983032,5.497591433801186,7.9107869417269185,2362576658
usq,1.52889430522918,8.94034194946289,5.561590113583186,7.858730412619178,2362593325
usq,2.75180983543396,10.2308492660522,5.686805222013165,7.798440488588102,2362609992
usq,3.97194576263427,11.4907836914062,5.853940618869248,7.740642130748746,2362626659
usq,5.16795253753662,12.7148561477661,6.034006519864672,7.701298240155029,2362643326
usq,6.33019065856933,13.9103450775146,6.19539668175456,7.697673926617365,2362659993
usq,7.42382144927978,15.0839986801147,6.311349408680784,7.742730441482133,2362676660
usq,8.38882732391357,16.2324314117431,6.365541329200906,7.8395970943358915,2362693327
usq,9.26633071899414,17.3421268463134,6.354309504359042,7.978012448620192,2362709994
usq,10.0821571350097,18.4126796722412,6.285450061881644,8.134254216407045,2362726661
usq,10.817681312561,19.3729362487792,6.174760631553381,8.27523826025863,2362743328
usq,11.4181880950927,20.2097854614257,6.041794638089303,8.366151161009267,2362759995
usq,11.8949737548828,20.9251651763916,5.905866443211898,8.37948200090601,2362776662
usq,12.2878160476684,21.5219039916992,5.7828189278682505,8.302450239848572,2362793329
usq,12.6243124008178,21.9989185333251,5.682771062651643,8.1403184121989,2362809996
usq,12.8925333023071,22.3819904327392,5.608943917987885,7.914731042606669,2362826663
usq,13.0823240280151,22.6978569030761,5.557629147028013,7.658005457898333,2362843330
usq,13.1897821426391,22.9673500061035,5.519386351311567,7.405335341454554,2362859997
usq,13.2041578292846,23.1475811004638,5.481517453444141,7.187041453976369,2362876664
usq,13.126238822937,23.2306442260742,5.431618116956959,7.022681854427883,2362893331
usq,12.9888458251953,23.2294673919677,5.361584274077487,6.91828832219033,2362909998
usq,12.8111133575439,23.1635208129882,5.27107417015471,6.867242004107457,2362926665
usq,12.5808019638061,23.0363273620605,5.169303740094482,6.854357750793155,2362943332
usq,12.3158750534057,22.8549365997314,5.074300210421324,6.861859627119168,2362959999
usq,12.032525062561,22.6519031524658,5.009372319972888,6.875444237233457,2362976666
usq,11.736081123352,22.4076042175292,4.9974408110935755,6.888693149518701,2362993333
usq,11.3665885925292,22.1309947967529,5.05472000691621,6.904612295359194,2363010000
usq,10.9093036651611,21.8399295806884,5.185712691426128,6.933899125212654,2363026667
usq,10.4144783020019,21.5155506134033,5.381264821595585,6.990557936911071,2363043334
usq,9.8635549545288,21.1355285644531,5.620375408124701,7.086444520301314,2363060001
usq,9.2209415435791,20.6771926879882,5.874940100302293,7.226730935801341,2363076668
usq,8.48086738586425,20.1168231964111,6.115548675729764,7.407770592246941,2363093335
usq,7.64844512939453,19.4674530029296,6.316549431883272,7.617679844688968,2363110002
usq,6.71426010131835,18.6928215026855,6.459541799453902,7.838945632113726,2363126669
usq,5.66271638870239,17.7999439239501,6.535338030603718,8.052061420040047,2363143336
usq,4.52996015548706,16.8506603240966,6.544660523639332,8.239334019000715,2363160003
usq,3.3450129032135,15.8394756317138,6.497564127638372,8.38807302556035,2363176670
usq,2.09310698509216,14.7654962539672,6.41135513319954,8.492384220543425,2363193337
usq,0.762516856193542,13.6081447601318,6.307048717327433,8.553146277542918,2363210004
usq,-0.658255696296691,12.376576423645,6.205060142791354,8.5764841323686,2363226671
usq,-2.14329886436462,11.0772314071655,6.121308946301558,8.571626165563893,2363243338
usq,-3.69548201560974,9.70115375518798,6.064789433183204,8.548979683941992,2363260005
usq,-5.29389190673828,8.25017070770263,6.037019228418198,8.518704014035432,2363276672
usq,-6.93641519546508,6.71026992797851,6.033081083956739,8.48953323221786,2363293339
usq,-8.61677360534668,5.08970832824707,6.043596988513482,8.467509886471833,2363310006
usq,-10.3584699630737,3.39171171188354,6.056978178900844,8.454627033064227,2363326673
usq,-12.13339138031,1.65439581871032,6.06151006339708,8.447802474814416,2363343340
usq,-13.9303379058837,-0.111245065927505,6.047052487945959,8.43877561265918,2363360007
usq,-15.7354698181152,-1.882621884346,6.006267008260489,8.415319579377227,2363376674
usq,-17.5218086242675,-3.65190458297729,5.935360483114483,8.36374276913495,2363393341
usq,-19.3157577514648,-5.40871953964233,5.834415040963941,8.272214986119213,2363410008
usq,-21.1347007751464,-7.15339660644531,5.707414740372096,8.134132125808819,2363426675
usq,-22.9743957519531,-8.89807319641113,5.5619958122874,7.950622389283857,2363443342
usq,-24.8323726654052,-10.6975173950195,5.408785253784317,7.731444479464413,2363460009
usq,-26.7250690460205,-12.5398864746093,5.260131901072211,7.493893932209023,2363476676
usq,-28.6559123992919,-14.4015159606933,5.128199385983803,7.259819958333146,2363493343
usq,-30.590705871582,-16.2874774932861,5.022697891444605,7.051372153949633,2363510010
usq,-32.4942626953125,-18.196340560913,4.94875344986206,6.886519081354975,2363526677
usq,-34.3908767700195,-20.1215763092041,4.905399977037554,6.775484120230307,2363543344
usq,-36.2929611206054,-22.0812911987304,4.885004873049672,6.718855750086045,2363560011
usq,-38.2139244079589,-24.0130195617675,4.873798525175644,6.707422237870566,2363576678
usq,-40.172191619873,-25.9128341674804,4.853646249472975,6.723271859737725,2363593345
usq,-42.135887145996,-27.8089332580566,4.805124403218405,6.741778031697455,2363610012
usq,-44.0765228271484,-29.6936779022216,4.7116092712348445,6.734557050285872,2363626679
usq,-46.0318565368652,-31.604881286621,4.563463780593385,6.673721471865131,2363643346
usq,-48.0025291442871,-33.5559844970703,4.3609283605664615,6.537339194658373,2363660013
usq,-49.980899810791,-35.45601272583,4.114535452900449,6.315129069862028,2363676680
usq,-51.988182067871,-37.3480262756347,3.842884087618285,6.012668382344696,2363693347
usq,-54.0617637634277,-39.3013381958007,3.5688536815665097,5.65231335347028,2363710014
usq,-56.1497459411621,-41.2801437377929,3.3159214856021384,5.269855788406557,2363726681
usq,-58.2330856323242,-43.3337173461914,3.1057077406941387,4.907418130426749,2363743348
usq,-60.2632980346679,-45.4811096191406,2.956625728912308,4.604593173742218,2363760015
usq,-62.21577835083,-47.6902198791503,2.882600066351617,4.390603003569671,2363776682
usq,-64.1052322387695,-49.9422225952148,2.890963505041928,4.279806428529205,2363793349
usq,-65.898208618164,-52.1221542358398,2.9795982540323593,4.271363825346179,2363810016
usq,-67.5814971923828,-54.1609420776367,3.1343114060023,4.352062058419108,2363826683
usq,-69.0548706054687,-56.0915641784668,3.327783773664429,4.500257042327041,2363843350
usq,-70.2564163208007,-57.8894119262695,3.521227903130659,4.689191520036159,2363860017
usq,-71.2417373657226,-59.554401397705,3.6693221390795427,4.889220355271563,2363876684
usq,-72.0545654296875,-61.0494270324707,3.7281621577271538,5.069705658762494,2363893351
usq,-72.7210006713867,-62.3599777221679,3.6650270318087945,5.201684581395176,2363910018
usq,-73.2923049926757,-63.5248870849609,3.4678933763501294,5.261742580216243,2363926685
usq,-73.7565078735351,-64.567024230957,3.1520363490442063,5.236402239839529,2363943352
usq,-74.1169204711914,-65.4960479736328,2.7610091729394144,5.125543555164181,2363960019
usq,-74.4383697509765,-66.3586959838867,2.360219214680535,4.943366031788437,2363976686
usq,-74.7886047363281,-67.1657485961914,2.0234076497596107,4.716097637002559,2363993353
usq,-75.054946899414,-67.8270950317382,1.8150415020238524,4.476659489577356,2364010020
usq,-75.174446105957,-68.3257675170898,1.7737109849799262,4.25746370008982,2364026687
usq,-75.2200241088867,-68.6607360839843,1.9018847500834113,4.083213533440359,2364043354
usq,-75.2287063598632,-68.8814849853515,2.165423410688274,3.9657386652984017,2364060021
usq,-75.1809463500976,-68.9948806762695,2.5028364856786656,3.9023577580266138,2364076688
usq,-75.1086349487304,-69.0020370483398,2.8409265314353527,3.878163621154517,2364093355
usq,-75.0554122924804,-68.9486465454101,3.1117099300692135,3.8714304246513827,2364110022
usq,-75.0376434326171,-68.8957748413086,3.2659623737714334,3.860469915544676,2364126689
usq,-75.0608596801757,-68.878791809082,3.28076561527404,3.8298975480227275,2364143356
usq,-75.1089782714843,-68.8675003051757,3.160657340857523,3.774477941161849,2364160023
usq,-75.1557998657226,-68.8673400878906,2.9334266779990283,3.6995152499343336,2364176690
usq,-75.1775970458984,-68.8657760620117,2.64224498905223,3.6179347534560486,2364193357
usq,-75.1734237670898,-68.8831329345703,2.3361328411395728,3.545307919518943,2364210024
usq,-75.1807556152343,-68.893684387207,2.060880519992693,3.494636847906597,2364226691
usq,-75.1871337890625,-68.9064025878906,1.8522109260798598,3.4725449505256973,2364243358
usq,-75.151008605957,-68.9304046630859,1.7320983493831206,3.477790807180676,2364260025
usq,-75.0778503417968,-68.9482421875,1.7081099605584635,3.502145821123719,2364276692
usq,-75.0077438354492,-68.9579620361328,1.7749568473507917,3.5330623866148185,2364293359
usq,-74.9174880981445,-68.9699783325195,1.9173076403080087,3.557341070379828,2364310026
usq,-74.8096694946289,-68.9664688110351,2.113095260612625,3.5649894955028567,2364326693
usq,-74.7075119018554,-68.9256057739257,2.3367711238314333,3.552427348953017,2364343360
usq,-74.6172943115234,-68.8759536743164,2.5621672720118447,3.524179514401941,2364360027
usq,-74.5486984252929,-68.8403167724609,2.764832883753723,3.4924339568014413,2364376694
usq,-74.5174560546875,-68.8127746582031,2.923901299454943,3.4743714822307235,2364393361
usq,-74.5007247924804,-68.7516403198242,3.0236932876070965,3.487793882086331,2364410028
usq,-74.4470291137695,-68.6372985839843,3.0553091870174467,3.5460849390016946,2364426695
usq,-74.3507614135742,-68.4904403686523,3.018268895878498,3.653899980184426,2364443362
usq,-74.2500686645507,-68.2999649047851,2.921790760345542,3.8051198442549645,2364460029
usq,-74.1302261352539,-68.0634384155273,2.784854372160494,3.984235325406731,2364476696
usq,-74.00927734375,-67.7848205566406,2.634251939776396,4.171215333949003,2364493363
usq,-73.8965606689453,-67.4564208984375,2.5005735743589343,4.348323772904725,2364510030
usq,-73.7580871582031,-67.0796661376953,2.4130625824922456,4.50609622784498,2364526697
usq,-73.5500564575195,-66.6173248291015,2.3947933303223934,4.645643215554951,2364543364
usq,-73.2249450683593,-66.0215148925781,2.4592852470040034,4.775919951243345,2364560031
usq,-72.7414932250976,-65.27294921875,2.6087625599304376,4.9069920428923295,2364576698
usq,-72.0701065063476,-64.4111022949218,2.833523305712103,5.0423756751013595,2364593365
usq,-71.2019271850586,-63.4303359985351,3.1118785986087447,5.17410158549146,2364610032
usq,-70.1566772460937,-62.3531990051269,3.4108366077385583,5.282952969639893,2364626699
usq,-68.9038848876953,-61.1857986450195,3.688484657811103,5.344033444058262,2364643366
usq,-67.4098587036132,-59.8840675354003,3.8991074523107563,5.335585378931565,2364660033
usq,-65.7380142211914,-58.5368385314941,4.001215604654382,5.24776439272119,2364676700
usq,-63.9661560058593,-57.1580238342285,3.9672665751706697,5.088218128947292,2364693367
usq,-62.2002449035644,-55.6592140197753,3.7926688111949667,4.882512878453937,2364710034
usq,-60.5051002502441,-54.106216430664,3.5012333244270524,4.66911133296414,2364726701
usq,-58.8771324157714,-52.5689659118652,3.1447763702300513,4.490254241438067,2364743368
usq,-57.2088165283203,-50.9298210144043,2.7959471577606645,4.381432163062023,2364760035
usq,-55.3766746520996,-49.2431297302246,2.53512608936479,4.362766783994231,2364776702
usq,-53.5390434265136,-47.5142364501953,2.4338246815094307,4.4351245764054195,2364793369
usq,-51.752384185791,-45.8550682067871,2.538028102010229,4.582134366756207,2364810036
usq,-50.0035705566406,-44.1629829406738,2.8553659327552676,4.77706078871011,2364826703
usq,-48.2971954345703,-42.4619255065918,3.349891670626962,4.991645586175764,2364843370
usq,-46.6144142150878,-40.7156410217285,3.9471399655403543,5.203546534917112,2364860037
usq,-44.8918342590332,-38.9403839111328,4.5495412076715,5.400289492758899,2364876704
usq,-43.0593795776367,-37.1746215820312,5.058762627078952,5.579812546592796,2364893371
usq,-41.1285247802734,-35.4261207580566,5.398785876258851,5.748967351765507,2364910038
usq,-39.2907104492187,-33.7417030334472,5.533088034706119,5.920906860616542,2364926705
usq,-37.587776184082,-32.0699462890625,5.471408167431077,6.1111827977497715,2364943372
usq,-36.0188217163085,-30.3865699768066,5.265055563023003,6.332305808506671,2364960039
usq,-34.5179405212402,-28.7324142456054,4.992827797381963,6.587856298216089,2364976706
usq,-33.0428886413574,-27.1937198638916,4.741356760396302,6.868635043213672,2364993373
usq,-31.621877670288,-25.7757854461669,4.584347423498913,7.153237032359566,2365010040
usq,-30.2011985778808,-24.3555431365966,4.56542713532816,7.413554705761148,2365026707
usq,-28.7827186584472,-22.8492259979248,4.6890739017002305,7.623267109444595,2365043374
usq,-27.3145446777343,-21.2279338836669,4.922431967047097,7.765937184331877,2365060041
usq,-25.9059658050537,-19.5956668853759,5.207476063110806,7.839683342432041,2365076708
usq,-24.567735671997,-18.0538825988769,5.479251182499853,7.857056561570419,2365093375
usq,-23.2500476837158,-16.6263923645019,5.683853862458098,7.840637304991515,2365110042
usq,-21.9751853942871,-15.243369102478,5.790598555789857,7.816106368003113,2365126709
usq,-20.702241897583,-13.8419151306152,5.7958249026498345,7.804954835785055,2365143376
usq,-19.3963718414306,-12.3904161453247,5.7192123865966185,7.818844583604317,2365160043
usq,-18.074026107788,-10.9171056747436,5.595562925443601,7.857136579778773,2365176710
usq,-16.7809295654296,-9.46002101898193,5.465246227480965,7.908264544640466,2365193377
usq,-15.5232286453247,-8.04208660125732,5.365524189647336,7.954471091543365,2365210044
usq,-14.3134622573852,-6.67129850387573,5.323824551642022,7.978275050017264,2365226711
usq,-13.1273870468139,-5.34211587905883,5.353364226146212,7.96841767519887,2365243378
usq,-11.9503812789917,-4.06059885025024,5.451339648534733,7.923269695737007,2365260045
usq,-10.78462600708,-2.84866404533386,5.599878772394555,7.850702247533316,2365276712
usq,-9.63960742950439,-1.69837713241577,5.769795983442131,7.764810834215136,2365293379
usq,-8.50017833709716,-0.605070412158966,5.926785472708371,7.681028854154481,2365310046
usq,-7.39181756973266,0.499919861555099,6.039069267109512,7.611565162837793,2365326713
usq,-6.37819862365722,1.6261670589447,6.084892649807902,7.562646720711016,2365343380
usq,-5.3804497718811,2.6965160369873,6.057976213367678,7.534131195672886,2365360047
usq,-4.41840887069702,3.73784756660461,5.9693802483424285,7.521219432451054,2365376714
usq,-3.47942781448364,4.72986316680908,5.8451966348844895,7.517495004371093,2365393381
usq,-2.55423879623413,5.70961999893188,5.720665267131901,7.518253613005405,2365410048
usq,-1.65156924724578,6.69652271270751,5.632198176189918,7.5229725394550035,2365426715
usq,-0.772495448589325,7.67483615875244,5.609101757354313,7.535944838993783,2365443382
usq,0.0701565146446228,8.62172698974609,5.666641250802683,7.564689549484011,2365460049
usq,0.877614915370941,9.53514575958252,5.8018496545244505,7.61657353277758,2365476716
usq,1.60025084018707,10.4097242355346,5.99328639613773,7.694776354483228,2365493383
usq,2.264084815979,11.2286720275878,6.205456471757562,7.795056238018299,2365510050
usq,2.86553502082824,11.9493179321289,6.397380804153061,7.9046797401661255,2365526717
usq,3.39502596855163,12.5718555450439,6.533096517236638,8.004306107954049,2365543384
usq,3.80291485786438,13.1147670745849,6.590676879047297,8.07253552528636,2365560051
usq,4.09268474578857,13.5762529373168,6.5666689475278766,8.09159312795791,2365576718
usq,4.28766107559204,13.952220916748,6.474671572503725,8.052016657807517,2365593385
usq,4.42861413955688,14.2498455047607,6.339124846566805,7.954745994255227,2365610052
usq,4.52257585525512,14.5001916885375,6.187019920175005,7.810276787663588,2365626719
usq,4.59542083740234,14.6853351593017,6.04052327139561,7.635665202034153,2365643386
usq,4.62151288986206,14.8415279388427,5.912657039927837,7.450660476552783,2365660053
usq,4.58167123794555,14.949517250061,5.8068747527456575,7.274165332402542,2365676720
usq,4.48135471343994,14.9966297149658,5.720174177837335,7.121842251209253,2365693387
usq,4.34590625762939,14.9854383468627,5.648450529000715,7.005197846243045,2365710054
usq,4.19021606445312,14.914960861206,5.592096484667638,6.932013665032423,2365726721
usq,4.03572463989257,14.7900114059448,5.559546545454355,6.907609382668862,2365743388
usq,3.8873872756958,14.6489353179931,5.566864268630934,6.936158933214969,2365760055
usq,3.74098253250122,14.4969606399536,5.632771686315591,7.02122352774575,2365776722
usq,3.52822399139404,14.3256273269653,5.770456992873945,7.164934193323717,2365793389
usq,3.24615669250488,14.1407709121704,5.979282615407163,7.365861453202458,2365810056
usq,2.96632289886474,13.9080305099487,6.240142134697035,7.6163784940726735,2365826723
usq,2.66202402114868,13.5735492706298,6.517065852712898,7.900882062098955,2365843390
usq,2.25583791732788,13.154878616333,6.765106400682095,8.196128362144407,2365860057
usq,1.67479491233825,12.6827955245971,6.941856057492479,8.474057697362895,2365876724
usq,0.926694810390472,12.1260166168212,7.018581575541011,8.706365152400428,2365893391
usq,0.0822310224175453,11.4753885269165,6.987417568079763,8.869486310832187,2365910058
usq,-0.812765955924987,10.7378311157226,6.862718909555653,8.94881026141299,2365926725
usq,-1.79032158851623,9.89561462402343,6.676568847754566,8.941384712801746,2365943392
usq,-2.85323238372802,8.97222232818603,6.470006183500423,8.856707902893799,2365960059
usq,-4.00993871688842,7.97995233535766,6.282579166566434,8.715371017069893,2365976726
usq,-5.2503867149353,6.90868043899536,6.143163429000459,8.545537745368629,2365993393
usq,-6.55661487579345,5.75574350357055,6.064416408212969,8.37767378150596,2366010060
usq,-7.91131019592285,4.52272748947143,6.041939146598115,8.238494685344362,2366026727
usq,-9.31952285766601,3.23191857337951,6.057727699540117,8.145535362243576,2366043394
usq,-10.7817859649658,1.89219439029693,6.086400957309433,8.10378502148342,2366060061
usq,-12.2908697128295,0.500671207904815,6.102255490315522,8.10535212134512,2366076728
usq,-13.8493680953979,-0.929409265518188,6.085357157879723,8.132253075048103,2366093395
usq,-15.4435176849365,-2.40501904487609,6.0254210267957315,8.16149234502122,2366110062
usq,-17.0498447418212,-3.9160771369934,5.922941293582335,8.170974654064088,2366126729
usq,-18.6784057617187,-5.48575162887573,5.78774235214626,8.144653440785692,2366143396
usq,-20.347427368164,-7.09394931793212,5.6356909286470955,8.075656695952983,2366160063
usq,-22.0267314910888,-8.74588012695312,5.484617484375705,7.966791448218698,2366176730
usq,-23.7300109863281,-10.4194440841674,5.3504875800825475,7.828604336336431,2366193397
usq,-25.4754543304443,-12.1040525436401,5.244597289866878,7.675837751944489,2366210064
usq,-27.248249053955,-13.8000392913818,5.17217890618292,7.523463650935526,2366226731
usq,-29.0265483856201,-15.5047206878662,5.132427735968614,7.3834087000182,2366243398
usq,-30.7718563079834,-17.2195529937744,5.11967518733435,7.262679639454042,2366260065
usq,-32.5041046142578,-18.9670600891113,5.125255021638456,7.16304447582414,2366276732
usq,-34.2510681152343,-20.7557563781738,5.139520489774985,7.081914157263178,2366293399
usq,-36.0148391723632,-22.5529994964599,5.153473281483221,7.013741890419703,2366310066
usq,-37.8113136291503,-24.3468418121337,5.159610185616039,6.951225486036171,2366326733
usq,-39.6526565551757,-26.1530399322509,5.151896387695818,6.885921623307883,2366343400
usq,-41.4887390136718,-27.96311378479,5.125134718849575,6.808453588810986,2366360067
usq,-43.3581733703613,-29.7589473724365,5.074251990563976,6.708985586619219,2366376734
usq,-45.2472229003906,-31.5323772430419,4.994059794100686,6.5786409718845995,2366393401
usq,-47.0664405822753,-33.2999267578125,4.879858466882909,6.411895834436823,2366410068
usq,-48.8135070800781,-35.0582389831543,4.72888400115442,6.209021570133737,2366426735
usq,-50.6393356323242,-36.7845268249511,4.5421429582215405,5.977120422870904,2366443402
usq,-52.5446319580078,-38.5169677734375,4.325823458561236,5.728788367795968,2366460069
usq,-54.4248962402343,-40.2552070617675,4.091436769579423,5.478782110796493,2366476736
usq,-56.3223800659179,-42.0030212402343,3.8542397710398677,5.240324231212474,2366493403
usq,-58.3256301879882,-43.8124694824218,3.630181567346748,5.022905477180054,2366510070
usq,-60.3842430114746,-45.6625251770019,3.432292585544962,4.832495125517773,2366526737
usq,-62.4057121276855,-47.5166282653808,3.2677602886258645,4.673659322759088,2366543404
usq,-64.3318710327148,-49.4278945922851,3.1367350680751995,4.552093531387343,2366560071
usq,-66.1393280029296,-51.3604125976562,3.033271178456323,4.475929006820115,2366576738
usq,-67.8640213012695,-53.3077011108398,2.9480316782431784,4.4547985814355595,2366593405
usq,-69.4327850341796,-55.2471809387207,2.871765586113674,4.4967014254624855,2366610072
usq,-70.7754135131836,-57.1478118896484,2.7982497836168805,4.603718070605815,2366626739
usq,-71.9079666137695,-58.9505157470703,2.7254949369159847,4.768120987468988,2366643406
usq,-72.8677902221679,-60.6489868164062,2.6546957865918017,4.970220207675637,2366660073
usq,-73.6636199951171,-62.1905326843261,2.5875855265198755,5.1786778297553395,2366676740
usq,-74.3127822875976,-63.5949821472168,2.5239399102644464,5.3535287402374045,2366693407
usq,-74.803726196289,-64.7640762329101,2.461120586065871,5.451920836455999,2366710074
usq,-75.1328201293945,-65.7429046630859,2.3963922631763053,5.436256111193545,2366726741
usq,-75.3311080932617,-66.5576019287109,2.330893407019234,5.283558969695898,2366743408
usq,-75.4663772583007,-67.3051071166992,2.2727840645501742,4.993743951027639,2366760075
usq,-75.5441818237304,-67.9908981323242,2.2371785153797488,4.59382890110091,2366776742
usq,-75.5214309692382,-68.5767745971679,2.2420260849986957,4.135732225527288,2366793409
usq,-75.4435577392578,-69.0947647094726,2.301246252674753,3.6870853994409756,2366810076
usq,-75.333251953125,-69.5220489501953,2.4179461133999993,3.3168318512142796,2366826743
usq,-75.1706008911132,-69.8684616088867,2.5806603213293684,3.079358360935336,2366843410
usq,-75.0139541625976,-70.0900192260742,2.7642860434690366,3.0016758435667685,2366860077
usq,-74.9012222290039,-70.1627197265625,2.9354643636427267,3.077331055538558,2366876744
usq,-74.8343505859375,-70.1123809814453,3.060529689784424,3.268639504536608,2366893411
usq,-74.8172302246093,-69.9791030883789,3.1134678206014295,3.516424064484741,2366910078
usq,-74.8592834472656,-69.8274154663086,3.081688674813005,3.754578946138307,2366926745
usq,-74.9294891357421,-69.714111328125,2.9684205046829737,3.9257371446494322,2366943412
usq,-74.9912185668945,-69.6369018554687,2.7915893365513527,3.9940690798194534,2366960079
usq,-75.0785522460937,-69.5851211547851,2.579806985663315,3.9519218206930797,2366976746
usq,-75.1792907714843,-69.5693588256836,2.3665247934959277,3.8187805326987876,2366993413
usq,-75.2571563720703,-69.5840988159179,2.1835976032377795,3.6334589966590105,2367010080
usq,-75.2854232788086,-69.6390609741211,2.055477293181938,3.4424267861950324,2367026747
usq,-75.2657241821289,-69.6804046630859,1.995068840959764,3.287850695611677,2367043414
usq,-75.2396697998046,-69.7056732177734,2.002013175527116,3.1982777136217604,2367060081
usq,-75.1869201660156,-69.7429504394531,2.0637885119306274,3.1836636084213796,2367076748
usq,-75.1144332885742,-69.7503814697265,2.1594447480115657,3.2353190102015668,2367093415
usq,-75.0302124023437,-69.7034683227539,2.265054928295009,3.330400942266168,2367110082
usq,-74.9532470703125,-69.6296691894531,2.3593907088193524,3.439632421203074,2367126749
usq,-74.8780899047851,-69.5924987792968,2.4282650506330117,3.536041963326349,2367143416
usq,-74.8192443847656,-69.5703735351562,2.4665379105803016,3.6021132901462174,2367160083
usq,-74.792121887207,-69.5689163208007,2.4776566733262047,3.6332621842153667,2367176750
usq,-74.7790069580078,-69.5736389160156,2.4713080886021763,3.6369512879491595,2367193417
usq,-74.7704925537109,-69.5430297851562,2.4600136013023164,3.6283452026422567,2367210084
usq,-74.7447967529296,-69.4545059204101,2.455446733166761,3.624398218643249,2367226751
usq,-74.7036666870117,-69.3339538574218,2.465192992880454,3.638336845044844,2367243418
usq,-74.6501693725586,-69.207290649414,2.490687828016967,3.675934266886204,2367260085
usq,-74.5567245483398,-69.0761489868164,2.5269507398267272,3.734266963322609,2367276752
usq,-74.4115447998046,-68.9095153808593,2.564283675991054,3.803074499242749,2367293419
usq,-74.2408905029296,-68.7052688598632,2.5914220729620996,3.8683837810230215,2367310086
usq,-74.0698471069336,-68.4431762695312,2.599106017849008,3.917562214306591,2367326753
usq,-73.8754806518554,-68.14990234375,2.5830191214630775,3.9444343464338583,2367343420
usq,-73.6402893066406,-67.8450393676757,2.5455017497702506,3.952804370501649,2367360087
usq,-73.3510131835937,-67.5170669555664,2.495998039833745,3.9570053543267356,2367376754
usq,-72.9987487792968,-67.1379241943359,2.4504200681195973,3.978986114245455,2367393421
usq,-72.5732040405273,-66.7039489746093,2.429436001925549,4.0425995480307115,2367410088
usq,-72.0564346313476,-66.185317993164,2.4554898103192784,4.166695018932266,2367426755
usq,-71.4581832885742,-65.5870132446289,2.548607951061446,4.3590311046384285,2367443422
usq,-70.764533996582,-64.9043273925781,2.7217596905891073,4.612829717095577,2367460089
usq,-69.9684448242187,-64.1257934570312,2.9771179918979658,4.907047737349015,2367476756
usq,-69.1142501831054,-63.2324981689453,3.304341540237851,5.2103182649435364,2367493423
usq,-68.147476196289,-62.1756973266601,3.680970839291314,5.487324465465045,2367510090
usq,-66.9976654052734,-60.9916038513183,4.0740439370137365,5.705566803683086,2367526757
usq,-65.7135543823242,-59.7718467712402,4.442025264949944,5.840519011972678,2367543424
usq,-64.3836898803711,-58.4400367736816,4.737174246473161,5.8781563611963135,2367560091
usq,-63.0614852905273,-57.0063743591308,4.909586896207505,5.815252891000408,2367576758
usq,-61.7274742126464,-55.446475982666,4.9141547243317145,5.6587215088212925,2367593425
usq,-60.2677192687988,-53.782356262207,4.720323946298472,5.425031724011947,2367610092
usq,-58.5214042663574,-52.0207252502441,4.322718317200728,5.139760384242719,2367626759
usq,-56.733097076416,-50.2815284729003,3.749659355764198,4.836532210635222,2367643426
usq,-55.0231285095214,-48.5125732421875,3.066760599514877,4.554539799417974,2367660093
usq,-53.3293113708496,-46.7745704650878,2.3734552073779276,4.334351892355594,2367676760
usq,-51.662540435791,-45.0148963928222,1.7910339857051265,4.212413328243575,2367693427
usq,-49.9256553649902,-43.3528747558593,1.4420709675661334,4.215225537809522,2367710094
usq,-48.2086448669433,-41.819236755371,1.423886821735596,4.354471342436243,2367726761
usq,-46.6145286560058,-40.2283172607421,1.7824252350612761,4.624165673324252,2367743428
usq,-45.0061111450195,-38.509220123291,2.4951062658591265,5.000425732680308,2367760095
usq,-43.3236808776855,-36.7204132080078,3.4694562056261726,5.4440908270362325,2367776762
usq,-41.5699882507324,-34.9435844421386,4.558984403369618,5.906333367854153,2367793429
usq,-39.7422370910644,-33.2185249328613,5.592042446267051,6.337120685799018,2367810096
usq,-37.9365234375,-31.5186042785644,6.406202775292857,6.6953680040500485,2367826763
usq,-36.2620964050293,-29.8373126983642,6.880455534917714,6.958106335699589,2367843430
usq,-34.686050415039,-28.2258205413818,6.9588459378420735,7.12516588807991,2367860097
usq,-33.1608657836914,-26.6817073822021,6.660907371672671,7.216952158250888,2367876764
usq,-31.6795272827148,-25.1263465881347,6.076382651678536,7.265745106398991,2367893431
usq,-30.2258758544921,-23.5449333190917,5.344739732728607,7.3038911129877615,2367910098
usq,-28.8989276885986,-21.9775352478027,4.623779204869182,7.353441203461941,2367926765
usq,-27.6208057403564,-20.4560832977294,4.055096065503671,7.420756940186501,2367943432
usq,-26.3136882781982,-18.9560794830322,3.7355956126289875,7.4973129865048325,2367960099
usq,-24.9527893066406,-17.4405097961425,3.702406468562111,7.565648913045715,2367976766
usq,-23.5417461395263,-15.9169979095458,3.93372305221278,7.607909861097195,2367993433
usq,-22.1199874877929,-14.4002571105957,4.3626085636208325,7.6138524205887705,2368010100
usq,-20.7317390441894,-12.918342590332,4.897436472606583,7.585559549171413,2368026767
usq,-19.3532962799072,-11.4886417388916,5.442697649026781,7.537324248380614,2368043434
usq,-17.9973850250244,-10.0971899032592,5.916200182991781,7.490916582267542,2368060101
usq,-16.6533164978027,-8.75697231292724,6.261036688114509,7.468136090302589,2368076768
usq,-15.3339576721191,-7.4902286529541,6.45180526607265,7.4835182969605505,2368093435
usq,-14.086570739746,-6.24589967727661,6.494766627650883,7.539920737425595,2368110102
usq,-12.8994464874267,-4.97068262100219,6.421985889607688,7.6284746816702285,2368126769
usq,-11.7157011032104,-3.72088313102722,6.280645586582374,7.7325195502559385,2368143436
usq,-10.4913320541381,-2.47549962997436,6.120211414986779,7.8334970170913145,2368160103
usq,-9.25666427612304,-1.30146443843841,5.980985569083196,7.916228799184016,2368176770
usq,-8.04002666473388,-0.152885422110557,5.887090188865678,7.971781414722739,2368193437
usq,-6.85816431045532,1.02585351467132,5.845239676565877,7.997640934264709,2368210104
usq,-5.7089819908142,2.19788265228271,5.848623904541585,7.996226142412531,2368226771
usq,-4.58044815063476,3.30527782440185,5.883705312917164,7.973221256327893,2368243438
usq,-3.50103902816772,4.36550855636596,5.937156891466371,7.936760788625283,2368260105
usq,-2.4737524986267,5.41409873962402,6.000519161109245,7.8975497563853345,2368276772
usq,-1.43801772594451,6.44777536392211,6.071224824977295,7.869115064351327,2368293439
usq,-0.431110024452209,7.48323917388916,6.150153752354666,7.867002710390919,2368310106
usq,0.536374866962432,8.46904945373535,6.237364282397697,7.906044709688789,2368326773
usq,1.43528139591217,9.40282344818115,6.3283823228669505,7.995758551517875,2368343440
usq,2.22362184524536,10.2860898971557,6.412923475793646,8.13519421104499,2368360107
usq,2.88578057289123,11.0918130874633,6.476490941824621,8.30948562252079,2368376774
usq,3.41803646087646,11.8195266723632,6.503883231336972,8.490276983639376,2368393441
usq,3.84278273582458,12.4316635131835,6.4830184132387885,8.640844272128,2368410108
usq,4.17374277114868,12.9281425476074,6.40772249947624,8.72475530322988,2368426775
usq,4.43434906005859,13.3194246292114,6.278857408624376,8.715399974104423,2368443442
usq,4.62738513946533,13.6337881088256,6.103908047903946,8.603359750808524,2368460109
usq,4.72758150100708,13.8815374374389,5.895590661937237,8.399328391999285,2368476776
usq,4.75766801834106,14.0537557601928,5.670135549831533,8.131745980412937,2368493443
usq,4.72920846939086,14.160828590393,5.445769836383811,7.839992967103087,2368510110
usq,4.65107345581054,14.2248973846435,5.241671617916646,7.56534207397337,2368526777
usq,4.52448177337646,14.2456331253051,5.0772740357426756,7.3423904603593435,2368543444
usq,4.33811235427856,14.1999835968017,4.971350913640074,7.193283462457739,2368560111
usq,4.10658359527587,14.0899305343627,4.940127780176427,7.125953968530685,2368576778
usq,3.8336763381958,13.9339122772216,4.994055816124893,7.136233002521144,2368593445
usq,3.53165674209594,13.7324905395507,5.1338213780879185,7.212461328678415,2368610112
usq,3.14122915267944,13.4634256362915,5.347152514448245,7.340548087833461,2368626779
usq,2.70975589752197,13.1683712005615,5.608374066088345,7.507515967309499,2368643446
usq,2.27144360542297,12.8353729248046,5.882023483826022,7.702417279758644,2368660113
usq,1.73895645141601,12.4282503128051,6.130266829217936,7.914819756744853,2368676780
usq,1.0814299583435,11.8963327407836,6.322051754863651,8.132314098505491,2368693447
usq,0.328929632902145,11.2851686477661,6.440861660923408,8.339023205525434,2368710114
usq,-0.512033700942993,10.6112728118896,6.488206092232995,8.51652365315268,2368726781
usq,-1.4574007987976,9.86565494537353,6.481518173984101,8.647246941613504,2368743448
usq,-2.47112703323364,9.03793621063232,6.447252196064242,8.719111347122732,2368760115
usq,-3.53268146514892,8.13677406311035,6.41174026035565,8.729476031054208,2368776782
usq,-4.63941001892089,7.17990684509277,6.393006168946642,8.68668172485965,2368793449
usq,-5.79359531402587,6.16442346572876,6.396062853396982,8.608326057143005,2368810116
usq,-6.99803209304809,5.08564090728759,6.412734859537952,8.516699460022911,2368826783
usq,-8.27595996856689,3.92912745475769,6.425542227627147,8.432953962989892,2368843450
usq,-9.65399360656738,2.68789768218994,6.414173586190005,8.372038129787748,2368860117
usq,-11.1388721466064,1.37398850917816,6.362606602620763,8.339961314843006,2368876784
usq,-12.695086479187,2.39056626014644e-05,6.2648624413650635,8.333825878461036,2368893451
usq,-14.3022651672363,-1.43122899532318,6.1277034318610015,8.3439535635834,2368910118
usq,-15.9246377944946,-2.92689204216003,5.969388014056376,8.356916044659341,2368926785
usq,-17.5837116241455,-4.48201513290405,5.814804903271388,8.358458789640538,2368943452
usq,-19.2927780151367,-6.09637737274169,5.688545512751367,8.33584966068566,2368960119
usq,-21.0489635467529,-7.76420307159423,5.608198452902981,8.27965560334566,2368976786
usq,-22.8048419952392,-9.46966648101806,5.579964498520605,8.185069971601706,2368993453
usq,-24.5589141845703,-11.1932077407836,5.597661267310777,8.052688902292479,2369010120
usq,-26.333698272705,-12.9267663955688,5.644875013196901,7.888381042839057,2369026787
usq,-28.1324081420898,-14.699909210205,5.699091594457513,7.7019731202244825,2369043454
usq,-29.9611072540283,-16.5068054199218,5.73641339699687,7.504937829763748,2369060121
usq,-31.8519210815429,-18.3331298828125,5.735795472741828,7.30780490698137,2369076788
usq,-33.7828254699707,-20.1794624328613,5.682244009737557,7.118222655506512,2369093455
usq,-35.732551574707,-22.0559654235839,5.568797762704852,6.940307576510153,2369110122
usq,-37.6710243225097,-23.9621963500976,5.397234408552116,6.775297072066445,2369126789
usq,-39.6241378784179,-25.8834915161132,5.177398547019474,6.622913222180255,2369143456
usq,-41.5703773498535,-27.7967147827148,4.925057417418709,6.482532622943934,2369160123
usq,-43.4974250793457,-29.7146186828613,4.658452289765732,6.353333130409936,2369176790
usq,-45.4248962402343,-31.6449604034423,4.39423597498329,6.233055727777438,2369193457
usq,-47.4033851623535,-33.5630683898925,4.143996680769135,6.115827490361764,2369210124
usq,-49.3827438354492,-35.4614372253418,3.912645597258792,5.9903853230132995,2369226791
usq,-51.3639450073242,-37.4744186401367,3.6993777173086393,5.840476517709548,2369243458
usq,-53.3532981872558,-39.5682907104492,3.5009189338982973,5.648629669202127,2369260125
usq,-55.3998641967773,-41.6791343688964,3.3158106965268312,5.402856143079135,2369276792
usq,-57.5639114379882,-43.7482795715332,3.147938473325111,5.103970935221313,2369293459
usq,-59.7593879699707,-45.8384895324707,3.0076009502627454,4.770336921313769,2369310126
usq,-61.8840751647949,-47.9044494628906,2.9092485015706147,4.437612722808532,2369326793
usq,-63.991600036621,-49.979995727539,2.866419751513142,4.153092573799567,2369343460
usq,-66.0508499145507,-52.0346450805664,2.8857525290441344,3.966308853905388,2369360127
usq,-67.8939132690429,-54.0019226074218,2.962476777996439,3.91865703858079,2369376794
usq,-69.5344009399414,-55.8182983398437,3.079204557419515,4.034511064236739,2369393461
usq,-71.0791320800781,-57.4518699645996,3.2084771345738154,4.315083630183417,2369410128
usq,-72.4536895751953,-58.902847290039,3.3181240799810077,4.735182482440544,2369426795
usq,-73.5050048828125,-60.173469543457,3.377685093662475,5.242911436266205,2369443462
usq,-74.3313064575195,-61.2520904541015,3.3642526916510342,5.76323215768133,2369460129
usq,-75.0511474609375,-62.1644630432128,3.2668681290462116,6.207016190263643,2369476796
usq,-75.634780883789,-62.9417839050293,3.0892959897678693,6.4863931554862075,2369493463
usq,-76.0451354980468,-63.5706062316894,2.8509906950063533,6.534525369104424,2369510130
usq,-76.2446365356445,-64.0192794799804,2.585547359376017,6.324732326274347,2369526797
usq,-76.2711486816406,-64.3372039794921,2.3357353841991695,5.882216832424547,2369543464
usq,-76.2465057373046,-64.5581436157226,2.1449326650870724,5.2828396932236785,2369560131
usq,-76.1949691772461,-64.722427368164,2.046276710751086,4.6373118591999045,2369576798
usq,-76.1551818847656,-64.8211669921875,2.052478905145935,4.064393542377598,2369593465
usq,-76.1197738647461,-64.7938385009765,2.1501079564911048,3.6610617243813346,2369610132
usq,-76.0602188110351,-64.63037109375,2.301363746646658,3.4791104976733758,2369626799
usq,-75.9641342163086,-64.3670959472656,2.4537724886344945,3.515431541036511,2369643466
usq,-75.8740844726562,-64.0896377563476,2.5549454421884636,3.7181781361589463,2369660133
usq,-75.8121643066406,-63.8618583679199,2.567395503352721,4.005384570732963,2369676800
usq,-75.7752151489257,-63.728172302246,2.4785896642550655,4.2888555525088385,2369693467
usq,-75.742561340332,-63.6814727783203,2.3036012752877415,4.495669454288799,2369710134
usq,-75.7282104492187,-63.731819152832,2.080493997948498,4.5820551363787265,2369726801
usq,-75.7415695190429,-63.8558692932128,1.8605718296504605,4.53791683367262,2369743468
usq,-75.7331237792968,-64.0199890136718,1.696391024115729,4.383144284083591,2369760135
usq,-75.6812515258789,-64.1841201782226,1.6302792193622364,4.158419086122015,2369776802
usq,-75.5977401733398,-64.3669128417968,1.6855839856871402,3.913745846557672,2369793469
usq,-75.4925842285156,-64.5427169799804,1.8622318421487478,3.6976434710519914,2369810136
usq,-75.3674697875976,-64.6936645507812,2.1373378302791597,3.548905132470301,2369826803
usq,-75.2407684326171,-64.8037185668945,2.4704662643865887,3.491466284929001,2369843470
usq,-75.1318054199218,-64.9157104492187,2.8119361637897278,3.5319777887712887,2369860137
usq,-75.0702514648437,-65.02783203125,3.1118517697886086,3.65963715875251,2369876804
usq,-75.0519866943359,-65.1317138671875,3.327778491102724,3.8483455532503172,2369893471
usq,-75.0510177612304,-65.2217330932617,3.430041932917287,4.061514975000333,2369910138
usq,-75.0609664916992,-65.2742614746093,3.404773440131156,4.259320690930541,2369926805
usq,-75.0828475952148,-65.2976379394531,3.2553182478668994,4.407073324642844,2369943472
usq,-75.1047210693359,-65.3178558349609,3.0022983164957453,4.482434929319144,2369960139
usq,-75.1245498657226,-65.3655014038086,2.6819499799434223,4.4791936992181896,2369976806
usq,-75.1587982177734,-65.4149551391601,2.3420272048274158,4.406466085051042,2369993473
usq,-75.1986846923828,-65.4319152832031,2.035002641728599,4.284021333736133,2370010140
usq,-75.2142181396484,-65.4064483642578,1.80937577472329,4.1359863939010015,2370026807
usq,-75.1885833740234,-65.3564224243164,1.7009634643030374,3.9856034439212076,2370043474
usq,-75.1246795654296,-65.2957992553711,1.726400255248914,3.8526789132366677,2370060141
usq,-75.0056991577148,-65.2200469970703,1.8804951961869596,3.753493739860502,2370076808
usq,-74.8416595458984,-65.1306076049804,2.137963584485244,3.7014906329115806,2370093475
usq,-74.6460876464843,-65.0064468383789,2.4589695731065158,3.7070233219752073,2370110142
usq,-74.4087677001953,-64.8210754394531,2.797211892419238,3.775786591606222,2370126809
usq,-74.1112670898437,-64.5561370849609,3.1089272316535257,3.9071297574501274,2370143476
usq,-73.7598114013671,-64.2253112792968,3.3610172709801533,4.094002298571578,2370160143
usq,-73.3642501831054,-63.8181037902832,3.5365101348694523,4.325311065064826,2370176810
usq,-72.9072647094726,-63.335578918457,3.6359294687449415,4.589632938176366,2370193477
usq,-72.3330154418945,-62.7742118835449,3.674088142175004,4.877846696954873,2370210144
usq,-71.642951965332,-62.1524276733398,3.6733132597647775,5.18247112391161,2370226811
usq,-70.822151184082,-61.4575119018554,3.6555991049168797,5.4934840501502995,2370243478
usq,-69.780403137207,-60.6592674255371,3.63674467294236,5.793008514118916,2370260145
usq,-68.482795715332,-59.7422103881835,3.6245027712065543,6.05266997193374,2370276812
usq,-67.0006484985351,-58.7183036804199,3.620499600804807,6.236492901731739,2370293479
usq,-65.4537048339843,-57.6028327941894,3.623570480090074,6.30935952486494,2370310146
usq,-63.8228607177734,-56.3695945739746,3.6317091185932417,6.248024530651797,2370326813
usq,-62.0741386413574,-54.9922065734863,3.6414877657509446,6.050233329661066,2370343480
usq,-60.3006896972656,-53.4796714782714,3.6464343103473187,5.738320615712632,2370360147
usq,-58.5844039916992,-51.8429069519043,3.6373267481262883,5.356120647254277,2370376814
usq,-56.8979759216308,-50.0945434570312,3.6061540241289896,4.960654761415165,2370393481
usq,-55.2019271850585,-48.3215637207031,3.5522406646644376,4.611552903183937,2370410148
usq,-53.4697532653808,-46.5683822631835,3.4864796760219994,4.361095514002973,2370426815
usq,-51.7264251708984,-44.7477645874023,3.4302403668951365,4.246727046238977,2370443482
usq,-49.9919052124023,-42.9351921081543,3.408998203026023,4.286768258030172,2370460149
usq,-48.336612701416,-41.1926689147949,3.444155840845872,4.479242006338346,2370476816
usq,-46.6577758789062,-39.4284706115722,3.547201120654165,4.803286118061837,2370493483
