Label,Left_Hip_q,Right_Hip_q,Left_Hip_qd,Right_Hip_qd,SampleTimeFine
sw,-83.0375366210937,-64.4188385009765,-27.0638637542724,15.8565578460693,151949773
sw,-83.2313766479492,-65.0373153686523,-25.957358708365177,9.66132136715613,151966440
sw,-83.2197647094726,-65.5181884765625,-25.09057106550534,8.280117085593702,151983107
sw,-82.9495697021484,-65.9407348632812,-26.36052645874098,6.693416849492578,151999774
sw,-82.445083618164,-66.3101654052734,-31.390246027689685,4.81852271657222,152016441
sw,-81.5799789428711,-66.4414749145507,-40.958410713215784,2.8664994956312873,152033108
sw,-80.3665084838867,-66.7558517456054,-54.82433151123045,1.355008142062271,152049775
sw,-78.7997131347656,-66.8859939575195,-71.77225807291445,0.9895905258611332,152066442
sw,-76.7188339233398,-66.631103515625,-89.86386637540956,2.4395841695984193,152083109
sw,-74.2635116577148,-66.8595504760742,-106.84398660529766,6.089640583599729,152099776
sw,-72.180435180664,-67.734634399414,-120.61354394555998,11.876151083420387,152116443
sw,-70.9434051513671,-69.2626953125,-129.6675252626033,19.28914525390919,152133110
sw,-69.9765625,-70.804443359375,-133.39480836752256,27.5394236140829,152149777
sw,-69.0136184692382,-71.9479293823242,-132.15691979276767,35.806026677873,152166444
sw,-68.0842361450195,-73.0190124511718,-127.11326532871853,43.447182675497665,152183111
sw,-67.2311706542968,-74.3037796020507,-119.83796965102191,50.09546033217713,152199778
sw,-66.3340148925781,-75.6811294555664,-111.8511844272886,55.62943325158528,152216445
sw,-65.261734008789,-77.0036010742187,-104.22357235535989,60.0693398973252,152233112
sw,-64.0062713623046,-78.3563079833984,-97.3790478164084,63.46147920367822,152249779
sw,-62.7298431396484,-79.7727966308593,-91.13152313075233,65.80445351060395,152266446
sw,-61.6062774658203,-81.26025390625,-84.89641294089162,67.04351899188148,152283113
sw,-60.6131706237793,-82.7694778442382,-77.96604982433287,67.12535631253377,152299780
sw,-59.7013778686523,-84.153938293457,-69.74485093154955,66.07564934465935,152316447
sw,-58.9385032653808,-85.2744522094726,-59.88607495216767,64.05147047786477,152333114
sw,-58.4794044494628,-86.2084732055664,-48.327781849035524,61.337212337330214,152349781
sw,-58.3730239868164,-87.0097122192382,-35.26814581298582,58.28629087428726,152366448
sw,-58.4039497375488,-87.7010116577148,-21.134405465444875,55.238630954047366,152383115
sw,-58.4554252624511,-88.1269607543945,-6.578204899940087,52.449630435619916,152399782
sw,-58.6770820617675,-88.0751190185546,7.516969128420229,50.05195643777328,152416449
sw,-59.2177734375,-87.6241455078125,20.07068812489708,48.05233395682499,152433116
sw,-60.0784873962402,-86.9794921875,29.934986235551694,46.35422236054158,152449783
sw,-61.1991577148437,-86.2935638427734,36.119253691603895,44.79557413834258,152466450
sw,-62.2143287658691,-85.6076965332031,38.044235665467404,43.19327732310102,152483117
sw,-63.0377235412597,-84.9776535034179,35.72292214076696,41.38806207774859,152499784
sw,-63.4009780883789,-84.3239135742187,29.788934111284757,39.284661706603785,152516451
sw,-63.7239303588867,-83.6118087768554,21.36163105749639,36.881187412704065,152533118
sw,-64.2895736694336,-82.8858337402343,11.806883044737415,34.27793334446594,152549785
sw,-64.5903930664062,-82.2346954345703,2.4797180896352087,31.651694299463326,152566452
sw,-64.4606018066406,-81.8168334960937,-5.48567174198442,29.184526508142522,152583119
sw,-64.1987075805664,-81.5241165161132,-11.307595791037281,26.951271480924802,152599786
sw,-63.8831710815429,-81.3513946533203,-14.596814024629651,24.793995683924873,152616453
sw,-63.7160491943359,-81.3179397583007,-15.299982521230678,22.23100832745075,152633120
sw,-63.9435157775878,-81.3166961669921,-13.567500536952393,18.450711923342443,152649787
sw,-64.4181137084961,-81.2845382690429,-9.608379549604914,12.42119511825891,152666454
sw,-64.4755477905273,-81.3455581665039,-3.6147978841824013,3.1098392316954135,152683121
sw,-64.1809539794921,-81.6233291625976,4.199179018213619,-10.233625572213192,152699788
sw,-64.1603851318359,-81.9338912963867,13.484892209230638,-27.806136775762322,152716455
sw,-64.9515991210937,-82.1052703857421,23.678372928651896,-49.07456597232376,152733122
sw,-66.4035339355468,-81.9127426147461,34.0419597579285,-72.75785829579678,152749789
sw,-67.6448135375976,-81.2901840209961,43.82890580116697,-96.99277427436411,152766456
sw,-68.6892776489257,-80.3552093505859,52.48382992193951,-119.65141246325007,152783123
sw,-69.9605636596679,-79.2282791137695,59.77480502726496,-138.72367719907626,152799790
sw,-71.3101501464843,-77.9794311523437,65.80457875532102,-152.6541608667223,152816457
sw,-72.7377471923828,-76.5536041259765,70.91401387509812,-160.5484349206733,152833124
sw,-74.2066421508789,-74.8840713500976,75.52678263380467,-162.22172847992235,152849791
sw,-75.7143249511718,-72.8720397949218,79.9878420099885,-158.11460899692236,152866458
sw,-77.291633605957,-70.9992141723632,84.43655891785968,-149.12261293194885,152883125
sw,-78.8846817016601,-69.3690567016601,88.74074041715706,-136.38807708197015,152899792
sw,-80.421760559082,-67.8593139648437,92.50300314210185,-121.09960345282798,152916459
sw,-81.9098281860351,-66.4292907714843,95.13542031561086,-104.33918898639584,152933126
sw,-83.3214797973632,-64.9724655151367,95.9834915851684,-87.00063766963493,152949793
sw,-84.5675811767578,-63.7763519287109,94.47010973559132,-69.77717796528258,152966460
sw,-85.4714813232421,-62.9494132995605,90.22807424276391,-53.195977768006216,152983127
sw,-85.8476791381836,-62.3613548278808,83.19568826992132,-37.67253480665105,152999794
sw,-85.7027206420898,-61.8464012145996,73.65968435816464,-23.56264275084177,153016461
sw,-85.3066482543945,-61.5571975708007,62.238644192797125,-11.193377011193386,153033128
sw,-84.9316787719726,-61.7683792114257,49.807942679914326,-0.8593152013027987,153049795
sw,-84.6510467529296,-62.4236526489257,37.376655500495865,7.214917332239664,153066462
sw,-84.4199829101562,-63.261131286621,25.937463986407632,12.92354839564074,153083129
sw,-84.2291183471679,-64.1330871582031,16.317132765662056,16.308920793106193,153099796
sw,-84.138069152832,-64.9367599487304,9.052939190412957,17.55462422490737,153116463
sw,-84.1196670532226,-65.5847778320312,4.311236071931347,16.95274723235377,153133130
sw,-84.1394653320312,-66.273193359375,1.8548275881069682,14.871442904040615,153149797
sw,-84.1367950439453,-67.0801239013671,1.0609460207377657,11.74070281745443,153166464
sw,-84.0942230224609,-67.8109893798828,0.9907009781268095,8.048473224930719,153183131
sw,-83.9632720947265,-68.1289901733398,0.5097328890196472,4.3184456002653935,153199798
sw,-83.8001174926757,-68.040901184082,-1.5456860992847332,1.046683693222602,153216465
sw,-83.4957275390625,-67.8074264526367,-6.17439840089832,-1.3914896400999288,153233132
sw,-82.9262390136718,-67.5128936767578,-14.020565679441205,-2.814854893112845,153249799
sw,-82.2749328613281,-67.4245376586914,-25.23273784190505,-3.233724115900382,153266466
sw,-81.4862289428711,-67.9247131347656,-39.41391831473793,-2.75582916350413,153283133
sw,-80.3348922729492,-68.2511444091796,-55.682432824515615,-1.4495548323863692,153299800
sw,-78.5618591308593,-68.2693481445312,-72.8290023629254,0.7491088274233433,153316467
sw,-76.3389816284179,-68.4801406860351,-89.52838141740561,4.024864540183872,153333134
sw,-74.1807861328125,-68.8780364990234,-104.55770512403808,8.576931922832186,153349801
sw,-72.7427597045898,-69.8555221557617,-116.98260634283423,14.488933457598707,153366468
sw,-71.9872436523437,-71.2068176269531,-126.28060573913709,21.65118118473121,153383135
sw,-71.323974609375,-72.3196945190429,-132.37458421949302,29.767610349958762,153399802
sw,-70.4852981567382,-73.4523849487304,-135.55948109560003,38.424806693842356,153416469
sw,-69.4551773071289,-74.7984542846679,-136.33483654743884,47.17299363671268,153433136
sw,-68.2383193969726,-76.3019561767578,-135.19665371747658,55.578009534342605,153449803
sw,-66.7564163208007,-77.8664779663086,-132.46712685376846,63.231504880724536,153466470
sw,-65.069465637207,-79.4240417480468,-128.2263371764361,69.73329130869969,153483137
sw,-63.372703552246,-81.0525817871093,-122.35987812016594,74.67620228750815,153499804
sw,-61.81689453125,-82.708625793457,-114.68213323549013,77.6655870281843,153516471
sw,-60.3868446350097,-84.4072875976562,-105.06957959448359,78.38818375164851,153533138
sw,-59.056827545166,-86.0376052856445,-93.5502864372373,76.71343136199319,153549805
sw,-57.8720893859863,-87.4418182373046,-80.32860095212723,72.78254519978749,153566472
sw,-56.9657745361328,-88.5785217285156,-65.75708788349331,67.03625594280895,153583139
sw,-56.392032623291,-89.0377426147461,-50.288525531038985,60.15559297024508,153599806
sw,-56.0249977111816,-88.7148818969726,-34.442585154209766,52.92842453845724,153616473
sw,-55.7471466064453,-88.1770553588867,-18.801693873128503,46.08726320614752,153633140
sw,-55.6217880249023,-87.5532760620117,-4.016474575661387,40.17514515583254,153649807
sw,-55.9936866760253,-86.817153930664,9.222315529219287,35.480993128875156,153666474
sw,-56.7400970458984,-86.0950546264648,20.275070227025125,32.05207356581604,153683141
sw,-57.5825042724609,-85.5095672607421,28.688909145880327,29.75827003173362,153699808
sw,-58.378604888916,-85.0658874511718,34.31231909044328,28.369374058353365,153716475
sw,-58.9999618530273,-84.6036300659179,37.32182626590758,27.61602102959064,153733142
sw,-59.566967010498,-84.1148376464843,38.14177972112588,27.22434143750432,153749809
sw,-60.1767387390136,-83.5888977050781,37.300158367607565,26.927615481623565,153766476
sw,-60.8216667175293,-83.1136474609375,35.29479012341026,26.459827775716906,153783143
sw,-61.5741500854492,-82.6962661743164,32.52870050791946,25.533002542335925,153799810
sw,-62.3494453430175,-82.4105453491211,29.327485753714516,23.801989439715403,153816477
sw,-62.9717636108398,-82.3396072387695,26.007239254090823,20.829330306188705,153833144
sw,-63.4095039367675,-82.3617477416992,22.941552581345498,16.072829616658826,153849811
sw,-64.0201263427734,-82.3837738037109,20.583492055766413,8.919927249999466,153866478
sw,-64.6535568237304,-82.4916000366211,19.42180948040805,-1.2194663418648846,153883145
sw,-64.8925323486328,-82.7971496582031,19.87926519386416,-14.771950037570631,153899812
sw,-65.1533966064453,-83.165054321289,22.19040239978191,-31.841579748612602,153916479
sw,-65.8586807250976,-83.1651077270507,26.31642680701281,-52.07260527132971,153933146
sw,-67.1028060913086,-82.370491027832,31.94645860341606,-74.57413832585985,153949813
sw,-68.4224777221679,-80.7925262451171,38.59106970015329,-97.94061035061472,153966480
sw,-69.493911743164,-78.9343109130859,45.72240713476359,-120.38587797656527,153983147
sw,-70.5594787597656,-77.094985961914,52.895014253839605,-139.97986564682844,153999814
sw,-71.84814453125,-75.3210678100586,59.80455843722885,-154.94288036831858,154016481
sw,-73.2960739135742,-73.5401916503906,66.28198743087319,-163.93161927438211,154033148
sw,-74.7781143188476,-71.7600860595703,72.24606544890565,-166.25244342006806,154049815
sw,-76.2604675292968,-69.9819564819336,77.6404170998971,-161.95621434766784,154066482
sw,-77.7838134765625,-68.1974182128906,82.37493862939601,-151.79554253158614,154083149
sw,-79.3271102905273,-66.5888137817382,86.28629817814642,-137.05690187533818,154099816
sw,-80.7997894287109,-65.1799392700195,89.12805627645886,-119.31262008887037,154116483
sw,-82.2275390625,-63.94136428833,90.59408392453724,-100.15776290867844,154133150
sw,-83.5491638183593,-62.7902374267578,90.3695246375913,-80.99225330657309,154149817
sw,-84.7394409179687,-61.8320579528808,88.19539587884691,-62.88340063803003,154166484
sw,-85.7060928344726,-61.2078475952148,83.93024758810128,-46.51585284313477,154183151
sw,-86.3128433227539,-60.8947448730468,77.59608404607121,-32.218137010686576,154199818
sw,-86.4091033935546,-60.6566009521484,69.40232832093312,-20.045793899784357,154216485
sw,-86.1549911499023,-60.404125213623,59.745820465178255,-9.892387882279875,154233152
sw,-85.7849960327148,-60.4819526672363,49.185681119426185,-1.5926189514174727,154249819
sw,-85.4585189819336,-61.1081390380859,38.3930363099978,5.012221646280166,154266486
sw,-85.1998443603515,-61.9456214904785,28.07979114930543,10.053454893259776,154283153
sw,-84.9902725219726,-62.7448844909668,18.91563501841028,13.641408328192501,154299820
sw,-84.8675994873046,-63.5352210998535,11.444102681177352,15.875107534432106,154316487
sw,-84.8316497802734,-64.2318115234375,6.006080047387157,16.845910535685817,154333154
sw,-84.8000183105468,-64.7940444946289,2.676198539083553,16.64510229208235,154349821
sw,-84.7582855224609,-65.5964431762695,1.2178926840869169,15.390758088080066,154366488
sw,-84.7031707763671,-66.5491409301757,1.066755778652616,13.273483570047706,154383155
sw,-84.6353454589843,-67.2275466918945,1.355936929892232,10.594148356514042,154399822
sw,-84.4824295043945,-67.591682434082,0.9968931451216521,7.753067977160315,154416489
sw,-84.2908172607421,-67.6411666870117,-1.1800588997220585,5.169712463426602,154433156
sw,-83.9959640502929,-67.5819549560546,-6.238093211840424,3.1601463799731606,154449823
sw,-83.4560241699218,-67.4302062988281,-14.93111241163204,1.8425275540936765,154466490
sw,-82.792984008789,-67.7240982055664,-27.529856330499303,1.1405955609994956,154483157
sw,-81.8342971801757,-68.6767501831054,-43.71894509282763,0.8994340323110763,154499824
sw,-80.3948135375976,-69.0171203613281,-62.59196592583453,1.0487931587241297,154516491
sw,-78.3243026733398,-68.9910049438476,-82.75129517355234,1.7078176284965665,154533158
sw,-75.8704223632812,-69.3207931518554,-102.5009511763787,3.1612132195446567,154549825
sw,-73.6349563598632,-69.9066314697265,-120.10578191509502,5.724851356785315,154566492
sw,-72.225112915039,-70.7002258300781,-134.07579036870615,9.587171553710972,154583159
sw,-71.177505493164,-72.0412292480468,-143.42005028091117,14.71480668819002,154599826
sw,-70.059829711914,-73.3153991699218,-147.80712604259944,20.858928771788218,154616493
sw,-68.7525177001953,-74.3770065307617,-147.57970147830744,27.637272488016592,154633160
sw,-67.4401168823242,-75.3980026245117,-143.6074518756196,34.63448342833486,154649827
sw,-66.2093887329101,-76.5392303466796,-137.01631734598658,41.47277771853472,154666494
sw,-64.8418579101562,-77.7669219970703,-128.87972453686692,47.83770707731079,154683161
sw,-63.3360862731933,-78.9937896728515,-119.96984787470055,53.471233232993264,154699828
sw,-61.9335823059082,-80.2770462036132,-110.63560500662508,58.153871607822865,154716495
sw,-60.7535095214843,-81.631965637207,-100.81972219655692,61.69503075376008,154733162
sw,-59.6471481323242,-82.956672668457,-90.18288415150899,63.94261865027719,154749829
sw,-58.5826416015625,-84.2669448852539,-78.28418716931695,64.8109132900088,154766496
sw,-57.647159576416,-85.5282287597656,-64.76681811702207,64.31232282792419,154783163
sw,-56.9909286499023,-86.7217712402343,-49.506166734123255,62.57134015667048,154799830
sw,-56.7221412658691,-87.7920303344726,-32.692729158105095,59.80447188560026,154816497
sw,-56.6686248779296,-88.7411956787109,-14.84192844279802,56.267784276092435,154833164
sw,-56.7784461975097,-89.4743728637695,3.2617882684593433,52.19491401834017,154849831
sw,-57.1716613769531,-89.5497665405273,20.674392967521243,47.75969128249424,154866498
sw,-58.1107597351074,-88.8343353271484,36.4404810903562,43.088865427112836,154883165
sw,-59.2740745544433,-87.9042587280273,49.75250155734686,38.32178060395372,154899832
sw,-60.4370727539062,-87.035888671875,60.07516704604033,33.67885265850723,154916499
sw,-61.447769165039,-86.4413604736328,67.19092501849497,29.482657525000736,154933166
sw,-62.3838005065918,-86.1026840209961,71.15871479973421,26.09219968098384,154949833
sw,-63.53364944458,-85.8681488037109,72.22725030123401,23.757573616692866,154966500
sw,-64.9688110351562,-85.5993194580078,70.76317329102534,22.450518938985418,154983167
sw,-66.2327804565429,-85.2762756347656,67.2253223310779,21.7457833541524,154999834
sw,-67.1432876586914,-84.9578323364257,62.16722871563321,20.809174674980135,155016501
sw,-67.7289810180664,-84.7302780151367,56.22834891763145,18.505993070721924,155033168
sw,-68.4810104370117,-84.6456298828125,50.09754829605701,13.602981207182568,155049835
sw,-69.9104537963867,-84.5931777954101,44.46655076523752,5.014507461428484,155066502
sw,-71.3174972534179,-84.680435180664,39.99103808181877,-7.958747485078049,155083169
sw,-72.0373611450195,-84.8196487426757,37.24526969188623,-25.440297113419895,155099836
sw,-72.7690963745117,-84.5707168579101,36.64373140304203,-46.86599831242214,155116503
sw,-73.646987915039,-83.4308166503906,38.33817009722702,-70.9689655032523,155133170
sw,-74.7428131103515,-81.2828750610351,42.140764512140954,-95.87654225757787,155149837
sw,-75.7427520751953,-78.573745727539,47.52256344817074,-119.32864305464605,155166504
sw,-76.8230285644531,-75.9498443603515,53.696689176182225,-139.00634377341876,155183171
sw,-78.1755981445312,-73.631103515625,59.76107386585952,-152.9223456247551,155199838
sw,-79.5748901367187,-71.4380950927734,64.86322387574756,-159.78734237449078,155216505
sw,-80.8686904907226,-69.5518112182617,68.3479239510166,-159.253202335201,155233172
sw,-82.1381530761718,-67.7317886352539,69.85337531799895,-151.95844916737403,155249839
sw,-83.3225021362304,-65.925178527832,69.33797289101231,-139.3564611590267,155266506
sw,-84.2343521118164,-64.4033279418945,67.04317101736241,-123.37076914073758,155283173
sw,-84.865234375,-63.2319984436035,63.41298749860213,-105.97176118940884,155299840
sw,-85.3352432250976,-62.2570915222168,58.993001833528425,-88.78931037979946,155316507
sw,-85.6509857177734,-61.4640960693359,54.32767011437051,-72.86077672440116,155333174
sw,-85.7857437133789,-60.7413520812988,49.870033213241506,-58.56847041322427,155349841
sw,-85.7604446411132,-60.2376708984375,45.91374008255726,-45.761019085651434,155366508
sw,-85.5768051147461,-59.993480682373,42.5541399776051,-34.00079484497921,155383175
sw,-85.2816696166992,-59.7422714233398,39.683175067039016,-22.850158424371724,155399842
sw,-84.9821472167968,-59.5030784606933,37.02089149811055,-12.10623033500454,155416509
sw,-84.6732177734375,-59.5367164611816,34.183026020618314,-1.914348071687123,155433176
sw,-84.3246002197265,-60.1313552856445,30.77815741275732,7.268631852749119,155449843
sw,-83.9655075073242,-60.9831047058105,26.519006338781757,14.836572591128549,155466510
sw,-83.6259155273437,-61.9689674377441,21.322429011545328,20.25154111710912,155483177
sw,-83.3397064208984,-63.0533981323242,15.366405954185904,23.231157418554083,155499844
sw,-83.1376190185546,-63.9874801635742,9.075689872915188,23.841960513907363,155516511
sw,-83.0457458496093,-64.5616607666015,3.023298025212458,22.478746062212792,155533178
sw,-83.0924072265625,-65.0379791259765,-2.2399176937069987,19.75504771632303,155549845
sw,-83.2620391845703,-65.7067642211914,-6.3877448604226945,16.358748568763193,155566512
sw,-83.5068969726562,-66.3872375488281,-9.492628562686352,12.927120665016506,155583179
sw,-83.6753845214843,-66.8146362304687,-12.107216936860164,9.969713332486767,155599846
sw,-83.6799163818359,-67.0953140258789,-15.209369633960788,7.836585705913636,155616513
sw,-83.6333618164062,-67.2383117675781,-20.00717491018651,6.716122469121365,155633180
sw,-83.5198059082031,-67.3040695190429,-27.647567929761504,6.652936151366665,155649847
sw,-83.2017135620117,-67.6575775146484,-38.90598192224422,7.584442530038078,155666514
sw,-82.6001281738281,-68.2253341674804,-53.94146889241869,9.390008780695853,155683181
sw,-81.4365921020507,-68.5574493408203,-72.18112342481147,11.934878879388156,155699848
sw,-79.5064468383789,-69.1425628662109,-92.35999644585196,15.091096185997177,155716515
sw,-77.0203781127929,-70.1279678344726,-112.70437924146742,18.736086121180442,155733182
sw,-74.5571746826171,-71.5892639160156,-131.22083223160993,22.74924444340257,155749849
sw,-72.9096145629882,-73.2879791259765,-146.04140787836673,27.02568718619262,155766516
sw,-71.71240234375,-74.5297698974609,-155.76672222376922,31.503782820871965,155783183
sw,-70.3509292602539,-75.5800552368164,-159.73699450242853,36.181772382374334,155799850
sw,-68.5373306274414,-76.7349624633789,-158.15677380153292,41.0999694029244,155816517
sw,-66.8095550537109,-77.9891052246093,-152.01958393661354,46.28665785042314,155833184
sw,-65.2881469726562,-79.253547668457,-142.8321266351592,51.68800347529882,155849851
sw,-63.8482551574707,-80.5055389404296,-132.2089011022254,57.11123451654344,155866518
sw,-62.3353309631347,-81.8550338745117,-121.46073987158304,62.20710096968211,155883185
sw,-60.8879623413085,-83.2888793945312,-111.30169637346222,66.5065193426069,155899852
sw,-59.607852935791,-84.7279357910156,-101.74795678148311,69.50843821515909,155916519
sw,-58.4192161560058,-86.0966567993164,-92.21283047731053,70.79543751525014,155933186
sw,-57.3098640441894,-87.4699783325195,-81.74806710183506,70.1398747429814,155949853
sw,-56.3392715454101,-88.8371887207031,-69.35674016784453,67.56399008505763,155966520
sw,-55.6173362731933,-90.0,-54.30162172439029,63.332298685389006,155983187
sw,-55.1574745178222,-89.3050765991211,-36.34548965282459,57.878605914468174,155999854
sw,-54.9705238342285,-88.4663467407226,-15.877943014177179,51.69553668245202,156016521
sw,-55.1866149902343,-87.7213668823242,6.096997324136719,45.23111237000307,156033188
sw,-55.8155860900878,-86.916763305664,28.114529085471254,38.83345625324448,156049855
sw,-56.9957237243652,-86.1755142211914,48.51355409089529,32.75862528638401,156066522
sw,-58.5075035095214,-85.5703964233398,65.74515003148112,27.22112992397798,156083189
sw,-59.9436264038085,-85.0621566772461,78.63794026764636,22.4434517817524,156099856
sw,-61.1107482910156,-84.6529464721679,86.55184940078934,18.66228163278065,156116523
sw,-62.4049530029296,-84.3024749755859,89.40654755005686,16.070711374687225,156133190
sw,-64.2188415527343,-84.073616027832,87.62371258595037,14.704018299671704,156149857
sw,-65.8909149169921,-84.0028228759765,82.03209914637364,14.301897100273521,156166524
sw,-66.9811935424804,-84.0228271484375,73.75551688396695,14.197368072387336,156183191
sw,-67.738296508789,-84.0634002685546,64.08187694960267,13.28800451150298,156199858
sw,-68.7831497192382,-84.087158203125,54.32229621966929,10.133125052231328,156216525
sw,-70.3120880126953,-84.1496810913086,45.684875360235786,3.18944842718105,156233192
sw,-71.178955078125,-84.2483749389648,39.173505023670536,-8.845326280925628,156249859
sw,-71.6126251220703,-84.2777633666992,35.4941881738855,-26.652381639053353,156266526
sw,-72.3891677856445,-83.9766998291015,34.95490758169919,-49.97184255619087,156283193
sw,-73.3782272338867,-82.8236770629882,37.38522794548624,-77.44223184426944,156299860
sw,-74.2946090698242,-80.6526718139648,42.13320103290127,-106.67497068467236,156316527
sw,-75.3160781860351,-77.7693099975586,48.18156807598601,-134.58914020511557,156333194
sw,-76.743179321289,-74.8169708251953,54.371727968435046,-157.95915971854643,156349861
sw,-78.3308334350586,-72.2759094238281,59.66932811740977,-174.05210139591318,156366528
sw,-79.6351928710937,-70.1420516967773,63.380608654785235,-181.18484094519582,156383195
sw,-80.6943588256836,-68.1970138549804,65.24683823695946,-179.04241405741547,156399862
sw,-81.7396545410156,-66.2076644897461,65.39777029635498,-168.66861015854195,156416529
sw,-82.6871871948242,-64.3995971679687,64.20532887941357,-152.1397872146313,156433196
sw,-83.5319137573242,-62.8808937072753,62.11170690437393,-132.02563528682828,156449863
sw,-84.2693405151367,-61.6787528991699,59.49809332731065,-110.79686789729203,156466530
sw,-84.8461151123046,-60.8018455505371,56.624910310395,-90.34410173127883,156483197
sw,-85.2333831787109,-60.1550064086914,53.6357899378091,-71.72509370097748,156499864
sw,-85.4276962280273,-59.6591262817382,50.593211747284016,-55.17745660049775,156516531
sw,-85.4935455322265,-59.4286422729492,47.51064756040467,-40.35141273353365,156533198
sw,-85.4754638671875,-59.2399787902832,44.361625665668484,-26.660149572440854,156549865
sw,-85.3890533447265,-59.1011276245117,41.07000414248684,-13.62690646876172,156566532
sw,-85.2593460083007,-59.1409759521484,37.503981983801616,-1.1252232769828296,156583199
sw,-85.0795669555664,-59.540958404541,33.49838589523513,10.547805488421167,156599866
sw,-84.8326721191406,-60.5480918884277,28.914202412556484,20.766916240349143,156616533
sw,-84.5489654541015,-61.7498970031738,23.719375933730394,28.787190999109097,156633200
sw,-84.2997894287109,-63.067398071289,18.05360151859935,33.97730212678349,156649867
sw,-84.1237030029296,-64.2809524536132,12.234404403991794,35.9963618929922,156666534
sw,-84.0825500488281,-65.0556945800781,6.6783512947981105,34.873718573951834,156683201
sw,-84.1762390136718,-65.7390060424804,1.7457032518332347,30.997733842140345,156699868
sw,-84.3361129760742,-66.6819534301757,-2.444925476265784,25.045819784585237,156716535
sw,-84.5066680908203,-67.4333801269531,-6.161362287933125,17.885573400103567,156733202
sw,-84.5664978027343,-67.7656555175781,-10.095001726769471,10.45983537193437,156749869
sw,-84.4611206054687,-67.7940368652343,-15.255220262317607,3.660745226062557,156766536
sw,-84.245002746582,-67.6781845092773,-22.734878617328068,-1.7902060107021045,156783203
sw,-83.8847122192382,-67.461929321289,-33.40651507945698,-5.422592140238299,156799870
sw,-83.2332305908203,-67.5136032104492,-47.63358319062231,-7.028547990834025,156816537
sw,-82.0413818359375,-67.808723449707,-65.07728415399214,-6.607923798855745,156833204
sw,-80.2459564208984,-67.8801651000976,-84.65288274783828,-4.28683266986172,156849871
sw,-77.830207824707,-68.1500091552734,-104.65380214374099,-0.25846500373503145,156866538
sw,-75.0889816284179,-68.9462127685546,-123.02902942890454,5.233202975814743,156883205
sw,-72.9411239624023,-69.9603958129882,-137.77042665141204,11.885549708138539,156899872
sw,-71.4285736083984,-71.5318145751953,-147.33577596286904,19.340115518164815,156916539
sw,-69.9954376220703,-73.0381317138671,-151.00403519217147,27.213979193898773,156933206
sw,-68.2030792236328,-74.1319885253906,-149.05036744649806,35.14646808471756,156949873
sw,-66.5779266357421,-75.33837890625,-142.661528582624,42.83120047523035,156966540
sw,-65.367561340332,-76.7512893676757,-133.5911772141715,50.014952707008526,156983207
sw,-64.2404403686523,-78.2110900878906,-123.65433765294685,56.47020520074142,156999874
sw,-62.9550285339355,-79.6584777832031,-114.22998381723832,61.96273369086485,157016541
sw,-61.4765815734863,-81.0856399536132,-105.934998490957,66.23367835503109,157033208
sw,-60.148639678955,-82.5328140258789,-98.55293192854147,69.00881900727491,157049875
sw,-58.9760627746582,-83.9753341674804,-91.19936937538857,70.04168089700482,157066542
sw,-57.8515739440918,-85.3679809570312,-82.63886793120678,69.18576807695591,157083209
sw,-56.8017387390136,-86.7392578125,-71.65304331441158,66.47289127138774,157099876
sw,-55.9903869628906,-88.0559997558593,-57.37659709742909,62.159778405477006,157116543
sw,-55.5388221740722,-89.3344192504882,-39.54508794495157,56.70832603295825,157133210
sw,-55.4353523254394,-90.0,-18.62346775950838,50.690765162535946,157149877
sw,-55.560562133789,-90.0,4.198360566772416,44.64891877962352,157166544
sw,-55.9661560058593,-89.0827255249023,27.149579432483083,38.9650574992756,157183211
sw,-56.8742485046386,-88.271614074707,48.1612707738815,33.801204344627564,157199878
sw,-58.4417495727539,-87.6017532348632,65.25970631498647,29.13140868918663,157216545
sw,-60.2785186767578,-87.026252746582,76.98988310972237,24.845919031025296,157233212
sw,-61.8984184265136,-86.5422592163086,82.74396569267486,20.873832111633934,157249879
sw,-63.0283088684082,-86.1444091796875,82.87875852787226,17.26639273570216,157266546
sw,-64.4340362548828,-85.7699661254882,78.58342546532387,14.202352888439439,157283213
sw,-65.8614120483398,-85.5523910522461,71.55722118430691,11.906098299992546,157299880
sw,-66.7235412597656,-85.4988098144531,63.61394916453471,10.49845273907839,157316547
sw,-67.3160095214843,-85.505386352539,56.32739053648324,9.824839502109487,157333214
sw,-67.7941589355468,-85.5235900878906,50.79840711401666,9.32126117173176,157349881
sw,-68.8192138671875,-85.5247344970703,47.58267903626106,7.978065497257334,157366548
sw,-70.3068161010742,-85.5556030273437,46.766109020865194,4.440861125257739,157383215
sw,-71.3587951660156,-85.7251586914062,48.1194415552299,-2.7474552358249644,157399882
sw,-72.1160125732421,-85.7349243164062,51.238263283364255,-14.799098852237556,157416549
sw,-73.2707290649414,-85.2547607421875,55.60627941980798,-32.29927773021788,157433216
sw,-74.5926437377929,-84.0168914794921,60.58970617643537,-54.88717275775317,157449883
sw,-75.7269287109375,-81.818115234375,65.42556470114994,-81.10608581159639,157466550
sw,-77.0022048950195,-79.0128707885742,69.26959775104534,-108.5048488135305,157483217
sw,-78.7424392700195,-76.0296096801757,71.32708864642831,-134.00985460190805,157499884
sw,-80.4739761352539,-73.3335189819336,71.03347848516285,-154.5007186500529,157516551
sw,-81.7358474731445,-70.8664016723632,68.21181175417198,-167.44646289667546,157533218
sw,-82.8525466918945,-68.8477783203125,63.13269540500278,-171.42817366624823,157549885
sw,-83.7268981933593,-66.9215316772461,56.44468008218981,-166.4045948221483,157566552
sw,-84.3429641723632,-64.9680938720703,49.00514248710033,-153.6564918412546,157583219
sw,-84.8958892822265,-63.1804580688476,41.68406962730729,-135.4396356765726,157599886
sw,-85.38671875,-61.8089714050293,35.21200097798277,-114.45073145445092,157616553
sw,-85.7640533447265,-60.8533401489257,30.10659416324597,-93.24877485020085,157633220
sw,-86.050178527832,-60.2523231506347,26.666758409586304,-73.77470562443308,157649887
sw,-86.2204208374023,-59.7788963317871,24.99508173982111,-57.07839542657843,157666554
sw,-86.3128433227539,-59.3586120605468,25.01023014380049,-43.30140980878551,157683221
sw,-86.3570709228515,-58.9985656738281,26.43537171581505,-31.891874790699948,157699888
sw,-86.3475189208984,-58.5314102172851,28.779230920712344,-21.964964197095718,157716555
sw,-86.2822189331054,-58.2338371276855,31.345094381573233,-12.68815920511857,157733222
sw,-86.0823364257812,-58.2094268798828,33.300126655890224,-3.5750200192421246,157749889
sw,-85.7721939086914,-58.4761123657226,33.81459285755603,5.387744028256341,157766556
sw,-85.3790817260742,-59.2744445800781,32.248869071850706,13.79274804219012,157783223
sw,-84.9190139770507,-60.4727668762207,28.338699323489124,20.99552498993668,157799890
sw,-84.4615783691406,-61.7417335510253,22.316125184844264,26.34285524716315,157816557
sw,-84.1041259765625,-62.7339477539062,14.910081318283781,29.359218128120354,157833224
sw,-83.9537658691406,-63.4319686889648,7.197757301957948,29.841346108741423,157849891
sw,-84.0626754760742,-63.8793258666992,0.3215425292591522,27.86444557882903,157866558
sw,-84.3682098388671,-64.4629135131836,-4.86430464591913,23.743434753154013,157883225
sw,-84.7479400634765,-65.3424758911132,-8.115883778642186,17.995335867736824,157899892
sw,-85.0165023803711,-65.9895858764648,-9.982411924259551,11.316084093781713,157916559
sw,-85.0971984863281,-66.30322265625,-11.773188034667237,4.544802587781106,157933226
sw,-84.9732818603515,-66.2724304199218,-15.295567083772806,-1.422363593702929,157949893
sw,-84.7043151855468,-66.0690841674804,-22.421796485436808,-5.774587385991683,157966560
sw,-84.1575622558593,-65.7112731933593,-34.59430748795271,-7.940213640796397,157983227
sw,-83.2180023193359,-65.8804855346679,-52.39460396827415,-7.683779271190579,157999894
sw,-81.7419128417968,-66.3525238037109,-75.28099986004426,-5.105625724026786,158016561
sw,-79.5384902954101,-66.3963928222656,-101.55902126401557,-0.5614675298306326,158033228
sw,-76.6414718627929,-66.7126693725586,-128.60101587374507,5.443255661886775,158049895
sw,-73.6092529296875,-67.2695007324218,-153.2866365955865,12.341495396191451,158066562
sw,-71.5045471191406,-68.4015197753906,-172.59274815781504,19.571075129795204,158083229
sw,-69.7111892700195,-69.8613739013671,-184.21775013868816,26.63583821474066,158099896
sw,-67.5160522460937,-71.1418151855468,-187.0889025631468,33.16506406812099,158116563
sw,-64.9619674682617,-72.2687606811523,-181.59491873386872,38.95327544993835,158133230
sw,-63.0239105224609,-73.4344100952148,-169.4385271881424,43.96135232931776,158149897
sw,-61.5896873474121,-74.8518524169921,-153.12221448737685,48.28007835080983,158166564
sw,-60.2658805847168,-76.3519897460937,-135.22335534376467,52.07499708115554,158183231
sw,-58.8984222412109,-77.7681350708007,-117.7029637627915,55.52959624031562,158199898
sw,-57.5300750732421,-79.1361389160156,-101.46944243552852,58.79157113836817,158216565
sw,-56.4855880737304,-80.4379119873046,-86.30450251892704,61.922971669079544,158233232
sw,-55.7158432006835,-81.6944961547851,-71.12705991308717,64.86232429751249,158249899
sw,-55.0471153259277,-82.9062957763671,-54.48377040908795,67.41298204511145,158266566
sw,-54.4751434326171,-84.1602478027343,-35.122759896456856,69.26734276051884,158283233
sw,-54.1563911437988,-85.4730377197265,-12.508649368533288,70.06329522987946,158299900
sw,-54.336311340332,-86.7648162841796,12.844870303374183,69.45656290741553,158316567
sw,-55.0641632080078,-87.9525375366211,39.313795124921796,67.18913887028594,158333234
sw,-56.2199592590332,-89.1122055053711,64.40681324363784,63.14186255136473,158349901
sw,-58.040168762207,-90.0,85.27303361686832,57.371237718749335,158366568
sw,-60.2464218139648,-89.0882873535156,99.36068066742692,50.13491901803329,158383235
sw,-62.2831764221191,-88.0942306518554,105.05893298805964,41.90165794661106,158399902
sw,-64.1120529174804,-87.3760986328125,102.14550835539761,33.32828154996619,158416569
sw,-66.4534301757812,-86.8787689208984,91.90787805003266,25.183089401454573,158433236
sw,-68.0604782104492,-86.5392074584961,76.89012658219889,18.208385796793763,158449903
sw,-68.4970550537109,-86.2963638305664,60.31594430881141,12.938057882613592,158466570
sw,-68.2682037353515,-86.1673278808593,45.33812347842122,9.507440455236802,158483237
sw,-68.1430053710937,-86.169677734375,34.34260859117361,7.505225672756761,158499904
sw,-69.2102813720703,-86.3081665039062,28.535323573626744,5.920034147048945,158516571
sw,-70.6386108398437,-86.5030746459961,27.925203556239808,3.226919005680962,158533238
sw,-71.468765258789,-86.5991287231445,31.63657885899691,-2.362623744474893,158549905
sw,-72.1875076293945,-86.3974990844726,38.353321079753776,-12.503574025550968,158566572
sw,-73.3744583129882,-85.5803527832031,46.69355633269317,-28.243907450286468,158583239
sw,-74.5576782226562,-83.9624328613281,55.41425095767401,-49.59776599469927,158599906
sw,-75.6155166625976,-81.6048736572265,63.46506725042571,-75.31345177968373,158616573
sw,-76.8402099609375,-78.534065246582,69.9801721492322,-102.95630644397127,158633240
sw,-78.5444412231445,-75.0442962646484,74.29270915038843,-129.335785859602,158649907
sw,-80.3535385131836,-72.0115814208984,75.99949262809248,-151.17939259595335,158666574
sw,-81.8952102661132,-69.654914855957,75.03891775791958,-165.8539351303387,158683241
sw,-83.1789245605468,-67.6537399291992,71.71740947427627,-171.91236577266525,158699908
sw,-84.3666076660156,-65.7378768920898,66.6428141936532,-169.31062817136632,158716575
sw,-85.2655868530273,-63.8380432128906,60.57446656550149,-159.25472211988577,158733242
sw,-85.8803482055664,-62.0433959960937,54.24237251095988,-143.75430962907458,158749909
sw,-86.3354263305664,-60.6753578186035,48.19852278683473,-125.04211290875827,158766576
sw,-86.641357421875,-59.5783615112304,42.7427305668686,-105.048193901305,158783243
sw,-86.7938079833984,-58.7857933044433,37.93083573181608,-85.08456378406979,158799910
sw,-86.7800369262695,-58.1481590270996,33.643576884973115,-65.80761617520447,158816577
sw,-86.666633605957,-57.589786529541,29.680714706133305,-47.41845412873422,158833244
sw,-86.5283584594726,-57.2515487670898,25.847809404889677,-29.978931084482664,158849911
sw,-86.394302368164,-57.0905380249023,22.016248675852655,-13.69366561888181,158866578
sw,-86.2780609130859,-57.0819511413574,18.151853060008676,0.9603414056659811,158883245
sw,-86.1754150390625,-57.6291275024414,14.315988717977108,13.300070108067787,158899912
sw,-86.0604019165039,-58.5913505554199,10.643083948946256,22.652655002927265,158916579
sw,-85.9420852661132,-59.4372215270996,7.294046897028926,28.60775377162759,158933246
sw,-85.8738403320312,-60.634048461914,4.384140001023367,31.181350939240502,158949913
sw,-85.9201431274414,-61.8847389221191,1.8918260440858414,30.817915699439624,158966580
sw,-86.0215301513671,-62.6155014038085,-0.42955517954619765,28.240514914324883,158983247
sw,-86.1418685913086,-63.1597518920898,-3.10169925493377,24.226823942456534,158999914
sw,-86.2279968261718,-63.8873634338378,-6.896802998117903,19.41515227744079,159016581
sw,-86.2355880737304,-64.5835266113281,-12.721246808264324,14.222203509040074,159033248
sw,-86.0894393920898,-65.2575912475586,-21.422339166412428,8.894309641806679,159049915
sw,-85.7384643554687,-65.8058166503906,-33.56361939024685,3.646651084743669,159066582
sw,-85.0410919189453,-66.0286560058593,-49.228096133573416,-1.1935964839941435,159083249
sw,-83.5833282470703,-66.0389862060546,-67.90006236095783,-5.118041154050357,159099916
sw,-81.2188415527343,-66.485595703125,-88.45220011250548,-7.480141059603142,159116583
sw,-77.9863204956054,-66.8839950561523,-109.24129820748212,-7.6409572148055,159133250
sw,-74.3189163208007,-66.8000259399414,-128.3044951860964,-5.168731735353884,159149917
sw,-71.1227493286132,-67.0549774169921,-143.6443144996738,-0.0161286536497,159166584
sw,-69.0623245239257,-67.850227355957,-153.57794285355985,7.408924667341157,159183251
sw,-67.2738037109375,-69.0304336547851,-157.09343501433358,16.331157497447226,159199918
sw,-65.2200851440429,-70.1727218627929,-154.1154289325346,25.833548387801684,159216585
sw,-63.3302116394043,-71.1124191284179,-145.56900393944505,35.126024245998664,159233252
sw,-62.0077285766601,-72.1348266601562,-133.17404879585175,43.74268329210841,159249919
sw,-60.9096794128418,-73.4740524291992,-119.00270988401297,51.596581318755405,159266586
sw,-59.8742370605468,-74.858657836914,-104.94022479047052,58.88927427961288,159283253
sw,-58.7940101623535,-76.2498092651367,-92.2364767009955,65.92214381253126,159299920
sw,-57.7283096313476,-77.6868515014648,-81.29167127079141,72.87684895232252,159316587
sw,-56.8396072387695,-79.1517868041992,-71.71718388409606,79.63408387104413,159333254
sw,-56.1308059692382,-80.6489486694336,-62.61317697082098,85.69051736372936,159349921
sw,-55.4615211486816,-82.2560272216796,-52.949592603488995,90.21067675785494,159366588
sw,-54.9517745971679,-83.9389953613281,-41.93187554416546,92.21228187228935,159383255
sw,-54.5613594055175,-85.5974502563476,-29.26050826559356,90.83893841767919,159399922
sw,-54.392593383789,-87.1749954223632,-15.234607045898246,85.63978952831181,159416589
sw,-54.7201042175293,-88.499755859375,-0.691420489701957,76.76665769738337,159433256
sw,-55.3509902954101,-89.0733871459961,13.190405649710161,65.02037647306904,159449923
sw,-56.1702346801757,-88.7182388305664,25.1678561177168,51.723165305297286,159466590
sw,-57.1270523071289,-88.4084854125976,34.21819752698024,38.44883448307312,159483257
sw,-58.1144332885742,-88.0515747070312,39.758729018779455,26.687792276858236,159499924
sw,-59.0126914978027,-87.7794799804687,41.74942107367735,17.539961654757008,159516591
sw,-59.7807388305664,-87.6174774169921,40.663381742895496,11.509533499856605,159533258
sw,-60.3999595642089,-87.4620971679687,37.35277852524218,8.435246548885528,159549925
sw,-60.921573638916,-87.3082656860351,32.868429435188595,7.551170878588497,159566592
sw,-61.5476951599121,-87.105110168457,28.29325786282831,7.648108586681986,159583259
sw,-62.3076210021972,-86.9335021972656,24.620504109379578,7.294419491046287,159599926
sw,-62.9920082092285,-86.7351760864257,22.66608027642464,5.0739035016450975,159616593
sw,-63.2935333251953,-86.4784774780273,22.98330641161331,-0.19525728981412316,159633260
sw,-63.5185394287109,-86.1766967773437,25.768319181999075,-9.286404186274417,159649927
sw,-63.7156944274902,-85.8623733520507,30.791396967407547,-22.451419791205183,159666594
sw,-64.2903976440429,-85.4067993164062,37.41920532601632,-39.376659892025366,159683261
sw,-65.5181503295898,-84.3330307006836,44.768683412144895,-59.206572687891196,159699928
sw,-67.0700454711914,-82.5217895507812,51.961487618984755,-80.62605725041794,159716595
sw,-68.5336303710937,-79.9557647705078,58.378326282502414,-101.99197205111744,159733262
sw,-69.7572250366211,-76.7494125366211,63.79946061836433,-121.51000817659288,159749929
sw,-70.9552917480468,-73.1167526245117,68.37492779300479,-137.4528860481647,159766596
sw,-72.2911834716796,-69.9946823120117,72.45672825268733,-148.39923651431647,159783263
sw,-73.8059921264648,-68.0311203002929,76.38633318696883,-153.44942735647473,159799930
sw,-75.5192565917968,-66.3243713378906,80.33280952963285,-152.36681612603513,159816597
sw,-77.3021850585937,-64.5832290649414,84.23274684770558,-145.6067981757192,159833264
sw,-79.0494689941406,-62.9414558410644,87.8286366853342,-134.21866104231523,159849931
sw,-80.7801055908203,-61.6377944946289,90.7651511529776,-119.63022326421138,159866598
sw,-82.3845977783203,-60.5766067504882,92.691520372142,-103.35873565686587,159883265
sw,-83.7556228637695,-59.7545127868652,93.32879039510557,-86.72638078834994,159899932
sw,-84.9161987304687,-59.0678329467773,92.48534867502255,-70.66765386551864,159916599
sw,-85.8773117065429,-58.451919555664,90.03317066396873,-55.68242421630399,159933266
sw,-86.4525451660156,-57.9579887390136,85.87762714060045,-41.92862375793387,159949933
sw,-86.4685287475586,-57.5298995971679,79.95382635148867,-29.395479964728704,159966600
sw,-86.035285949707,-57.2302932739257,72.26273140083883,-18.075415964649057,159983267
sw,-85.4073104858398,-57.2041282653808,62.934087580300606,-8.064669640034507,159999934
sw,-84.784553527832,-57.4982833862304,52.285636553464315,0.4388855999567304,160016601
sw,-84.2724838256836,-57.8974914550781,40.84585212493592,7.223091533339978,160033268
sw,-83.8711624145507,-58.5536766052246,29.318316761335403,12.178468666433755,160049935
sw,-83.6505966186523,-59.3339004516601,18.483646745236044,15.381599244866793,160066602
sw,-83.5076828002929,-60.2195777893066,9.053214153256421,17.105271007752528,160083269
sw,-83.5155410766601,-60.8436393737793,1.503349102905547,17.752188078804746,160099936
sw,-83.6477890014648,-61.2669067382812,-4.0725673179739745,17.739755217329666,160116603
sw,-83.8763122558593,-61.764907836914,-8.05396396242375,17.38148448328622,160133270
sw,-84.1400070190429,-62.3892631530761,-11.289353706482476,16.813345301467354,160149937
sw,-84.3670272827148,-62.955078125,-14.978676155689405,15.996902203451894,160166604
sw,-84.4197387695312,-63.4869651794433,-20.448555345213155,14.798977355402618,160183271
sw,-84.4081649780273,-64.0525817871093,-28.861071237974883,13.115417387460946,160199938
sw,-84.4153900146484,-64.5549011230468,-40.92394471471486,10.990296268531553,160216605
sw,-84.1577224731445,-64.8137588500976,-56.67683503987821,8.685962259337197,160233272
sw,-83.2934951782226,-65.1431198120117,-75.41001042943641,6.677090249902914,160249939
sw,-81.5114517211914,-65.648193359375,-95.73693790950696,5.564409186078371,160266606
sw,-78.7321853637695,-65.8798446655273,-115.80675161028377,5.927842560041676,160283273
sw,-75.5059661865234,-66.4761047363281,-133.61629676115177,8.164243770279315,160299940
sw,-72.8396606445312,-67.4479751586914,-147.36496516008427,12.371431802681338,160316607
sw,-70.9941482543945,-68.7904510498046,-155.78528385213434,18.32786202905153,160333274
sw,-69.4365158081054,-69.964370727539,-158.37894503141843,25.57251154647729,160349941
sw,-67.6017913818359,-70.9004440307617,-155.49721562640195,33.5413884392262,160366608
sw,-65.8646774291992,-71.9345245361328,-148.23155620476945,41.70094229519234,160383275
sw,-64.5093841552734,-73.2823181152343,-138.12695407369057,49.63900842245921,160399942
sw,-63.2252120971679,-74.792236328125,-126.78954799193102,57.10367720362658,160416609
sw,-61.8940696716308,-76.3633499145507,-115.50468009664574,63.99499869330899,160433276
sw,-60.6347312927246,-77.9464797973632,-104.97909373281708,70.31526042352655,160449943
sw,-59.562084197998,-79.5521926879882,-95.26914199451863,76.0866293506775,160466610
sw,-58.5751152038574,-81.2089157104492,-85.88946326996282,81.2560147984713,160483277
sw,-57.6171531677246,-82.8593521118164,-76.04837214929822,85.6170141077661,160499944
sw,-56.7585067749023,-84.4551773071289,-64.9363801228951,88.7780400215317,160516611
sw,-56.1031150817871,-86.040771484375,-51.99574865844787,90.19454554615788,160533278
sw,-55.6192779541015,-87.5946655273437,-37.11434038142195,89.26810809620217,160549945
sw,-55.3597259521484,-89.3198776245117,-20.708832247133966,85.49923488629265,160566612
sw,-55.4024047851562,-89.5445785522461,-3.682436907505623,78.6631269102246,160583279
sw,-55.7975997924804,-88.0157470703125,12.739880117092609,68.96085319039807,160599946
sw,-56.7600860595703,-87.006118774414,27.270845120494943,57.09237249261488,160616613
sw,-57.9800567626953,-86.1004257202148,38.85138009434434,44.21135753418895,160633280
sw,-59.0951309204101,-85.3674774169921,46.87963875429469,31.751467001996897,160649947
sw,-59.9589538574218,-85.0070724487304,51.29521954610496,21.147515791071054,160666614
sw,-60.6905403137207,-84.9399948120117,52.49447001712801,13.505152542925645,160683281
sw,-61.4219856262207,-85.0406265258789,51.13249396249181,9.296710090566846,160699948
sw,-62.138328552246,-85.0742797851562,47.91601237056999,8.170926512290054,160716615
sw,-62.9385337829589,-84.9384841918945,43.47911975918975,8.946949605212891,160733282
sw,-63.6982765197753,-84.7357177734375,38.374581031917884,9.81509611805987,160749949
sw,-64.2992858886718,-84.5534591674804,33.14555436766521,8.70452768124886,160766616
sw,-64.9780578613281,-84.3992691040039,28.401906246034088,3.72804709966205,160783283
sw,-65.7887573242187,-84.267349243164,24.827275141918,-6.404428674938338,160799950
sw,-66.0722351074218,-84.1168060302734,23.083892808778447,-22.097793734419643,160816617
sw,-65.9643249511718,-83.6673889160156,23.644929333878896,-42.766487407080305,160833284
sw,-66.368782043457,-82.3837509155273,26.63921211638036,-66.92407486748002,160849951
sw,-67.4174499511718,-80.2086334228515,31.80211732688084,-92.43733780242489,160866618
sw,-68.6288986206054,-77.46875,38.57069671925296,-116.88375926406309,160883285
sw,-69.6366500854492,-74.9067077636718,46.274447741973695,-137.9366089416658,160899952
sw,-70.679931640625,-72.9735641479492,54.322243991688254,-153.704691405939,160916619
sw,-71.9565353393554,-71.2175903320312,62.30534608632818,-162.97273848412823,160933286
sw,-73.4143447875976,-69.5127487182617,69.99711869143759,-165.31491277803718,160949953
sw,-74.9259719848632,-68.0076904296875,77.27963548608746,-161.07568702753676,160966620
sw,-76.4451065063476,-66.4839477539062,84.04327745997489,-151.22816410485598,160983287
sw,-78.0524063110351,-64.9501495361328,90.0993841644368,-137.13981813481922,160999954
sw,-79.7022399902343,-63.6596374511718,95.13351045090336,-120.30013383142591,161016621
sw,-81.3189086914062,-62.714988708496,98.7117508579883,-102.07762259711572,161033288
sw,-82.8626022338867,-61.9404869079589,100.33590037071588,-83.56228163936461,161049955
sw,-84.3151092529296,-61.1750144958496,99.53054188378427,-65.51769971641305,161066622
sw,-85.5276260375976,-60.5544242858886,95.94129458701697,-48.42908334469777,161083289
sw,-86.3300857543945,-60.1333808898925,89.42631527946416,-32.60491480516703,161099956
sw,-86.5741806030273,-59.9291610717773,80.12680127914616,-18.281591484788173,161116623
sw,-86.3547134399414,-59.9813270568847,68.50356543674008,-5.692479904329765,161133290
sw,-85.951171875,-60.050048828125,55.32746057856435,4.914960084276307,161149957
sw,-85.5725173950195,-60.5454330444335,41.61540098469238,13.309149092351714,161166624
sw,-85.298599243164,-61.3550148010253,28.512754680639343,19.331319543765403,161183291
sw,-85.1593627929687,-62.2773513793945,17.1345860757696,22.95171691271923,161199958
sw,-85.1416702270507,-63.2562255859375,8.38857544852373,24.300537320840263,161216625
sw,-85.217788696289,-64.1395187377929,2.809314718989314,23.662441521378195,161233292
sw,-85.32861328125,-64.6429901123046,0.4363539034803034,21.439736984725833,161249959
sw,-85.3850936889648,-65.1624679565429,0.764983055185722,18.099939006859437,161266626
sw,-85.3154602050781,-65.8665084838867,2.7871784015624526,14.12419679481034,161283293
sw,-85.1392135620117,-66.3615341186523,5.121676393073374,9.96448979853609,161299960
sw,-84.8735198974609,-66.5661926269531,6.212480652366741,6.006678696164935,161316627
sw,-84.5578079223632,-66.454849243164,4.561253515859307,2.5357820390919574,161333294
sw,-84.2976531982421,-66.2428436279296,-1.044824563301494,-0.28603237659572855,161349961
sw,-83.9711761474609,-66.0311737060546,-11.342281920740714,-2.403607371482429,161366628
sw,-83.4557571411132,-66.3578338623046,-26.458728194550268,-3.7991545227281156,161383295
sw,-82.5500259399414,-67.0702285766601,-45.848680449586034,-4.393330088325406,161399962
sw,-81.0101318359375,-67.2664260864257,-68.30388709473756,-3.9842184979255193,161416629
sw,-78.8031768798828,-67.2438507080078,-92.04770205474613,-2.2877941422851156,161433296
sw,-76.3445053100586,-67.4868621826171,-114.92802580916785,0.9224012334633601,161449963
sw,-74.1476745605468,-68.3003311157226,-134.7160269923963,5.658904608776171,161466630
sw,-72.799446105957,-69.7487030029296,-149.48588358032578,11.653033763670738,161483297
sw,-71.6226425170898,-71.0844421386718,-157.99930542041906,18.42598932735749,161499964
sw,-70.2280120849609,-72.0057373046875,-159.97731764637768,25.459039602119624,161516631
sw,-68.6562423706054,-72.9093017578125,-156.14741679310418,32.37071061282818,161533298
sw,-67.3000564575195,-73.9665069580078,-148.02051126867576,39.02035946211954,161549965
sw,-66.0786819458007,-75.0868835449218,-137.45455441760998,45.507108617502446,161566632
sw,-64.7638320922851,-76.2330322265625,-126.14905162940735,52.077921899211816,161583299
sw,-63.386116027832,-77.4275207519531,-115.23912583339587,58.980346472526726,161599966
sw,-62.0825462341308,-78.7416000366211,-105.108400206374,66.30212316776432,161616633
sw,-60.8697853088378,-80.1130447387695,-95.44924777749755,73.84151514704146,161633300
sw,-59.6479110717773,-81.4653549194336,-85.51517090714594,81.04878446822319,161649967
sw,-58.3971481323242,-82.8817596435546,-74.46253683762387,87.06640448832782,161666634
sw,-57.340232849121,-84.419319152832,-61.67163233676273,90.87207544797754,161683301
sw,-56.6502571105957,-85.9391860961914,-46.962940177084754,91.49879451036412,161699968
sw,-56.3693809509277,-87.2965087890625,-30.67185848529571,88.27998934247216,161716635
sw,-56.2027778625488,-88.3545608520507,-13.593283615252457,81.05624763002668,161733302
sw,-56.1735916137695,-88.4461898803711,3.1659634467750593,70.28807489528464,161749969
sw,-56.6816215515136,-87.7557220458984,18.388136725454252,57.0413188254813,161766636
sw,-57.562931060791,-87.0828857421875,30.965016878130246,42.839655145107486,161783303
sw,-58.5303039550781,-86.5040817260742,40.0958304141135,29.405495038915046,161799970
sw,-59.4017257690429,-86.0923461914062,45.41159255209351,18.332840667682614,161816637
sw,-60.0827369689941,-85.9390487670898,46.99243857160041,10.75084940479868,161833304
sw,-60.6212692260742,-86.0114974975586,45.2918440857836,7.045729393373327,161849971
sw,-61.142822265625,-86.1055450439453,41.0257346463521,6.710269558805387,161866638
sw,-61.8408699035644,-86.1170806884765,35.08812218801771,8.377545832975542,161883305
sw,-62.738410949707,-85.9491424560546,28.512028310536984,10.059729935111546,161899972
sw,-63.4629898071289,-85.6599960327148,22.43630250306128,9.557459868491005,161916639
sw,-63.8880348205566,-85.3728103637695,18.01162157558587,4.948526090842331,161933306
sw,-64.0662841796875,-85.1184997558593,16.210425644571544,-4.9688112686865775,161949973
sw,-63.917984008789,-85.0364685058593,17.58261632292011,-20.39632976146428,161966640
sw,-64.1590042114257,-84.8894119262695,22.069613142798772,-40.49231095481342,161983307
sw,-65.0655441284179,-84.0365524291992,28.99476687278945,-63.56526113506744,161999974
sw,-66.4306640625,-82.2916717529296,37.26905962391503,-87.4369076846404,162016641
sw,-67.6739196777343,-79.781135559082,45.73415724915816,-109.86465841473587,162033308
sw,-68.8438949584961,-76.7560806274414,53.49184849060522,-128.91231452531107,162049975
sw,-69.9222946166992,-73.7455902099609,60.08832112748947,-143.19201790462378,162066642
sw,-71.1497802734375,-71.2324905395507,65.51059836545889,-151.95354512604075,162083309
sw,-72.5578689575195,-69.2008666992187,70.04310097454191,-155.0481156973143,162099976
sw,-74.0666351318359,-67.2542114257812,74.07227043069977,-152.8213519898586,162116643
sw,-75.6410293579101,-65.412368774414,77.91330029027354,-145.9820900538556,162133310
sw,-77.2012634277343,-63.7360343933105,81.69615278265084,-135.46365421801016,162149977
sw,-78.7173461914062,-62.2632827758789,85.3172827572054,-122.275096820781,162166644
sw,-80.1888122558593,-61.1410865783691,88.4481247429832,-107.35158450358885,162183311
sw,-81.5960845947265,-60.1214637756347,90.58711362728738,-91.43946784886694,162199978
sw,-82.9218292236328,-59.2061691284179,91.14299204288281,-75.05884691926751,162216645
sw,-84.1374969482421,-58.4061431884765,89.5401525950755,-58.5591200823542,162233312
sw,-85.2224197387695,-57.853214263916,85.33864432317702,-42.237261533819286,162249979
sw,-86.0559310913086,-57.6254997253418,78.35814665600599,-26.455645399293097,162266646
sw,-86.4706420898437,-57.5765495300293,68.7851172754537,-11.697194218959101,162283313
sw,-86.4442749023437,-57.8502349853515,57.23055803779663,1.4709680667227025,162299980
sw,-86.2277908325195,-58.3228149414062,44.70300572072351,12.507850715899446,162316647
sw,-86.0609054565429,-59.0477447509765,32.475945808581926,21.030660673204977,162333314
sw,-85.9921951293945,-60.0884933471679,21.859335452632838,26.909145930961678,162349981
sw,-85.9759140014648,-61.2036514282226,13.91912405086211,30.282996792258423,162366648
sw,-86.0015869140625,-62.3339958190918,9.21157850357865,31.49776372243765,162383315
sw,-86.0657806396484,-63.2921066284179,7.6022885047874205,30.98838238389365,162399982
sw,-86.1190948486328,-64.0206527709961,8.223618263741097,29.160192596911624,162416649
sw,-86.0458145141601,-64.8919372558593,9.594629357688262,26.316906958963486,162433316
sw,-85.7733535766601,-65.9036483764648,9.889766419681045,22.660030207371552,162449983
sw,-85.4023666381836,-66.5742568969726,7.3034079269537315,18.343851627720703,162466650
sw,-85.0264587402343,-66.9045867919921,0.42752335795157426,13.539010511104449,162483317
sw,-84.6920089721679,-66.9289932250976,-11.448076265549414,8.461779141280646,162499984
sw,-84.1697235107421,-66.7616882324218,-28.182893875179936,3.3661113320280935,162516651
sw,-83.4523468017578,-66.7835998535156,-48.807797461552056,-1.4641214391290729,162533318
sw,-82.1394805908203,-67.5910873413086,-71.7008399755106,-5.687783000569301,162549985
sw,-79.8340301513671,-68.0571212768554,-94.85972647923964,-8.85943688447526,162566652
sw,-76.7432861328125,-67.9927291870117,-116.20475630286354,-10.426915030734426,162583319
sw,-73.6908721923828,-68.0384368896484,-133.86382186611067,-9.826614701782583,162599986
sw,-71.6990051269531,-68.2907485961914,-146.41641033750588,-6.658188751333225,162616653
sw,-70.1818542480468,-68.7786560058593,-153.0834079626425,-0.8528190897951251,162633320
sw,-68.8629760742187,-69.6158752441406,-153.83937675005924,7.2554652235717825,162649987
sw,-67.3350067138671,-70.5592193603515,-149.41041819894207,16.991319089844904,162666654
sw,-65.7191543579101,-71.6027145385742,-141.12525130712493,27.501013542810256,162683321
sw,-64.4078979492187,-72.6959381103515,-130.62136633612994,37.94596505582259,162699988
sw,-63.2714729309082,-73.9523468017578,-119.46401614392452,47.65669136866669,162716655
sw,-62.137393951416,-75.342041015625,-108.78364697310526,56.20519464939086,162733322
sw,-61.0538673400878,-76.769302368164,-99.04422327134755,63.38856421731561,162749989
sw,-60.1145095825195,-78.1883468627929,-90.01312969195337,69.14545502786821,162766656
sw,-59.2200088500976,-79.6733016967773,-80.93602018057429,73.44770927038597,162783323
sw,-58.3009452819824,-81.2042694091796,-70.85760761368873,76.21813649042714,162799990
sw,-57.469123840332,-82.743667602539,-58.98988229328322,77.31454230597326,162816657
sw,-56.8600120544433,-84.2990264892578,-45.01969399019332,76.58896071768547,162833324
sw,-56.6193046569824,-85.7890930175781,-29.269955733691983,73.99358527717837,162849991
sw,-56.667236328125,-87.2448043823242,-12.675548481365306,69.68065502363547,162866658
sw,-56.8694725036621,-88.6342697143554,3.412132380363328,64.04405643117772,162883325
sw,-57.4047622680664,-90.0,17.537056572917546,57.674456371285416,162899992
sw,-58.3115119934082,-90.0,28.487204153555496,51.236730855764975,162916659
sw,-59.3937873840332,-89.2282333374023,35.58723106038649,45.31203754781955,162933326
sw,-60.1828269958496,-88.3691329956054,38.8451979704087,40.260791583786705,162949993
sw,-60.6435508728027,-87.6830291748046,38.898163850950816,36.1511772364671,162966660
sw,-60.9433479309082,-87.1507797241211,36.77198345319452,32.77083585966919,162983327
sw,-61.2939147949218,-86.6437530517578,33.54781863616693,29.713014722896567,162999994
sw,-61.5375785827636,-86.0032577514648,30.06666652083459,26.509416632849682,163016661
sw,-61.7803611755371,-85.3170089721679,26.78136425995938,22.767456133448626,163033328
sw,-62.2313652038574,-84.7307662963867,23.79780140812148,18.26062079635072,163049995
sw,-62.7613677978515,-84.5203170776367,21.06648074808957,12.928311433223552,163066662
sw,-63.2144546508789,-84.6550064086914,18.623693655802956,6.775700694324263,163083329
sw,-63.5521736145019,-85.0066833496093,16.76217899556415,-0.28381198645814815,163099996
sw,-63.9404563903808,-85.4524841308593,16.04347638990456,-8.559516807907366,163116663
sw,-64.0051803588867,-85.9099731445312,17.136670406458883,-18.601355031061928,163133330
sw,-63.8054847717285,-86.3445205688476,20.553228189470367,-31.061726349010954,163149997
sw,-64.2871932983398,-86.3491287231445,26.40810034645264,-46.42678978157152,163166664
sw,-65.560920715332,-85.3865051269531,34.333571928165,-64.70670809898816,163183331
sw,-67.1916351318359,-83.3524093627929,43.591276820891075,-85.20669988184099,163199998
sw,-68.5159378051757,-80.4456405639648,53.31492185518739,-106.48590795088272,163216665
sw,-69.7278366088867,-77.064697265625,62.75204715412926,-126.54802853347906,163233332
sw,-71.0729598999023,-73.8378753662109,71.39880213081109,-143.2187705580765,163249999
sw,-72.6589431762695,-71.5573577880859,79.0026592697516,-154.59392632651347,163266666
sw,-74.4942550659179,-69.6897735595703,85.47683050670861,-159.42500232773523,163283333
sw,-76.4042053222656,-67.6170501708984,90.79049752663227,-157.3452956641849,163300000
sw,-78.323257446289,-65.5107727050781,94.88147775705683,-148.89345258428318,163316667
sw,-80.1858596801757,-63.7709083557128,97.61136297168403,-135.33880502090926,163333334
sw,-81.899787902832,-62.3422927856445,98.76521372338435,-118.35761609796768,163350001
sw,-83.4887084960937,-61.1241340637207,98.08964173388568,-99.6554805882551,163366668
sw,-84.9352340698242,-60.0113334655761,95.35845282329896,-80.65462666954517,163383335
sw,-86.0725021362304,-58.8851242065429,90.45036469304495,-62.33783511979474,163400002
sw,-86.7661514282226,-57.9967765808105,83.42028111902049,-45.26926827731033,163416669
sw,-86.8846740722656,-57.4545059204101,74.5469990313267,-29.736475816182132,163433336
sw,-86.5360412597656,-57.1438903808593,64.34529199912224,-15.917888229883987,163450003
sw,-86.0130233764648,-57.1022682189941,53.53570846484426,-3.991019205003068,163466670
sw,-85.5202255249023,-57.5231628417968,42.970095294153175,5.855187567936746,163483337
sw,-85.1723709106445,-58.2101707458496,33.517179110425694,13.48336030619225,163500004
sw,-84.9525985717773,-58.9399833679199,25.922161700980645,18.888250600550116,163516671
sw,-84.7684173583984,-59.8338394165039,20.66470982974622,22.236666956252588,163533338
sw,-84.6032638549804,-60.799877166748,17.84556919703065,23.841070139585472,163550005
sw,-84.4113540649414,-61.7964668273925,17.129298896877494,24.082127454091356,163566672
sw,-84.1665878295898,-62.5817794799804,17.75966461580533,23.319227258191372,163583339
sw,-83.8448944091796,-63.2526893615722,18.64908030486051,21.82625296602512,163600006
sw,-83.5115737915039,-64.0305862426757,18.52895847462629,19.772577811613306,163616673
sw,-83.1722564697265,-64.8506088256836,16.137233561435302,17.249608381717476,163633340
sw,-82.8540802001953,-65.4434204101562,10.413715483710613,14.328757193223614,163650007
sw,-82.6260299682617,-65.7550659179687,0.6727676350135202,11.129816566609728,163666674
sw,-82.4714660644531,-65.9200286865234,-13.27429736714526,7.878560923480062,163683341
sw,-82.3356399536132,-66.0480804443359,-31.067102267516653,4.934908973023233,163700008
sw,-82.1262283325195,-66.3936233520507,-51.821894870835536,2.7744946947721583,163716675
sw,-81.4899597167968,-66.4307250976562,-74.22780501496541,1.9120872741809178,163733342
sw,-80.0744552612304,-66.3673019409179,-96.69509123948133,2.7767140916299504,163750009
sw,-78.0719757080078,-66.8699035644531,-117.53466237543873,5.583367455225516,163766676
sw,-75.9522323608398,-68.0168991088867,-135.15450461843298,10.265882769184882,163783343
sw,-74.3440246582031,-69.6968002319336,-148.26258351323122,16.510505084757643,163800010
sw,-73.3665542602539,-71.0773010253906,-156.05495796349086,23.869495633208302,163816677
sw,-72.0625839233398,-72.0985717773437,-158.3451553746734,31.885737263348624,163833344
sw,-70.5156173706054,-73.2406387329101,-155.57941884346167,40.16129316183884,163850011
sw,-69.0528945922851,-74.6467666625976,-148.70706280064056,48.34904300191356,163866678
sw,-67.6461563110351,-76.0643844604492,-138.93418926935232,56.09667438970798,163883345
sw,-66.10693359375,-77.5311737060546,-127.44567528265723,62.99403795871714,163900012
sw,-64.5541152954101,-79.1378631591796,-115.19106474635801,68.56637391951595,163916679
sw,-63.0934906005859,-80.7825393676757,-102.78670235084354,72.33144559507978,163933346
sw,-61.883544921875,-82.5339736938476,-90.52513444551012,73.90902016851334,163950013
sw,-60.8524627685546,-84.1416778564453,-78.44692600638052,73.14425477556104,163966680
sw,-59.9536056518554,-85.489501953125,-66.43266348260796,70.19337262256572,163983347
sw,-59.2748489379882,-86.731216430664,-54.29622218745949,65.5297146131014,164000014
sw,-58.9070701599121,-87.9085617065429,-41.88005045077242,59.85795263310873,164016681
sw,-58.4122161865234,-88.9673233032226,-29.15517510276389,53.95890486674387,164033348
sw,-58.191047668457,-90.0,-16.311732519612754,48.511952711759896,164050015
sw,-58.3388328552246,-90.0,-3.803306980637184,43.950326122868226,164066682
sw,-58.7626800537109,-89.3426971435546,7.6955377030199665,40.3952840557217,164083349
sw,-59.4145202636718,-88.4168701171875,17.429401118078573,37.68838655382734,164100016
sw,-60.1969909667968,-87.6082077026367,24.7613136103363,35.50363568427757,164116683
sw,-61.0177421569824,-86.9617233276367,29.35686333408271,33.49041909431963,164133350
sw,-61.7050514221191,-86.3689193725586,31.280729972840312,31.390314507048753,164150017
sw,-62.2144584655761,-85.8512191772461,30.97100206254387,29.087982887005964,164166684
sw,-62.6353683471679,-85.4088058471679,29.109216788336273,26.58620395005625,164183351
sw,-63.0621948242187,-85.0371475219726,26.444690893371703,23.922226033207792,164200018
sw,-63.522045135498,-84.7594757080078,23.642389667012825,21.05841393301634,164216685
sw,-63.9466094970703,-84.510383605957,21.20316671747714,17.783933122028156,164233352
sw,-64.3437805175781,-84.3682098388671,19.467230298921002,13.659170221344466,164250019
sw,-64.7944717407226,-84.3990249633789,18.67413204227559,8.02468485872291,164266686
sw,-65.482437133789,-84.5299072265625,19.029391875971086,0.08433201271321564,164283353
sw,-66.0618362426757,-84.6336669921875,20.72830357924073,-10.942042847456353,164300020
sw,-66.2400665283203,-84.7622833251953,23.91604905445864,-25.617970388086803,164316687
sw,-66.6806564331054,-84.5156707763671,28.610412818498677,-44.08093951764509,164333354
sw,-67.6023406982421,-83.2375183105468,34.647955988245585,-65.875415456399,164350021
sw,-68.8834381103515,-80.9924392700195,41.70378970909979,-89.88057313652273,164366688
sw,-70.095458984375,-78.2306594848632,49.38209733378732,-114.37161943301213,164383355
sw,-71.1771163940429,-75.4889602661132,57.32296375467878,-137.22419157042793,164400022
sw,-72.386962890625,-73.1526641845703,65.26310631718137,-156.23148425938632,164416689
sw,-73.8140563964843,-71.1025314331054,73.02405167673611,-169.46884610715637,164433356
sw,-75.4366760253906,-69.2648086547851,80.44617715157399,-175.62448141500755,164450023
sw,-77.1559906005859,-67.3872451782226,87.3097871736378,-174.21883316342758,164466690
sw,-78.926643371582,-65.3782043457031,93.28131653308525,-165.65566213995405,164483357
sw,-80.7250061035156,-63.6735572814941,97.90688802844036,-151.0872520821118,164500024
sw,-82.4639663696289,-62.3118171691894,100.65766419718226,-132.13321823456076,164516691
sw,-84.1043243408203,-61.1016998291015,101.01612387193245,-110.54582993479333,164533358
sw,-85.5622253417968,-59.8863143920898,98.58203834077405,-87.93118759945435,164550025
sw,-86.6522216796875,-58.7282562255859,93.17352354497255,-65.59918077191573,164566692
sw,-87.1308517456054,-57.8604125976562,84.90203912200664,-44.54627502758052,164583359
sw,-86.9285278320312,-57.2834129333496,74.20756359734789,-25.51582820904564,164600026
sw,-86.3191680908203,-57.1503639221191,61.846583420283324,-9.062147702447179,164616693
sw,-85.7015838623046,-57.5380325317382,48.828221158764734,4.430710853630245,164633360
sw,-85.19482421875,-58.1493339538574,36.295573672477595,14.777553948936694,164650027
sw,-84.8411026000976,-59.0032882690429,25.356026902973596,22.030794927241644,164666694
sw,-84.6397018432617,-59.9603614807128,16.878134882046442,26.482381681011542,164683361
sw,-84.5096969604492,-61.0101814270019,11.289276937604892,28.604553727890103,164700028
sw,-84.4558181762695,-62.0376052856445,8.420570783591076,28.94143673118969,164716695
sw,-84.435562133789,-62.8146133422851,7.4476740026260515,27.989603159612827,164733362
sw,-84.3686294555664,-63.5476722717285,6.964998735235323,26.110154276810007,164750029
sw,-84.1858367919921,-64.5755004882812,5.205721425445207,23.500640396023126,164766696
sw,-83.8768997192382,-65.5896224975586,0.3833970728654939,20.230328513121968,164783363
sw,-83.2905349731445,-66.1345291137695,-8.90909889970882,16.317367209883233,164800030
sw,-82.3669128417968,-66.3528442382812,-23.337872321075462,11.81540411251001,164816697
sw,-81.5013961791992,-66.4046173095703,-42.6032683826499,6.887447961867736,164833364
sw,-80.0707244873046,-66.5479660034179,-65.42218688888998,1.8627068296755391,164850031
sw,-78.0096054077148,-67.250862121582,-89.7308218939924,-2.7271861732621505,164866698
sw,-75.5950622558593,-67.9381027221679,-113.0632529013635,-6.157877594491668,164883365
sw,-73.3145446777343,-67.741828918457,-133.02462555241055,-7.60782726477779,164900032
sw,-71.8312606811523,-67.4376449584961,-147.76113035721002,-6.351591968316845,164916699
sw,-70.7526092529296,-67.4312057495117,-156.32128921713672,-1.997229099215588,164933366
sw,-69.6203231811523,-68.0766220092773,-158.8086794826477,5.337303360470534,164950033
sw,-68.1665573120117,-69.1523513793945,-156.26320465885462,15.001575853946564,164966700
sw,-66.9239120483398,-70.1921615600586,-150.2833702632306,25.962845011393807,164983367
sw,-66.029182434082,-71.2838058471679,-142.49703273074454,37.064091056368326,165000034
sw,-65.0521850585937,-72.5328903198242,-134.0611821056749,47.28553538722391,165016701
sw,-63.8303871154785,-73.9449234008789,-125.37522076804697,55.92299289736758,165033368
sw,-62.4164009094238,-75.2881927490234,-116.10799578701143,62.64466693774274,165050035
sw,-60.9755859375,-76.5667724609375,-105.50329487436085,67.43571093112693,165066702
sw,-59.7561569213867,-77.8677749633789,-92.81527640915749,70.47435189697636,165083369
sw,-58.7735252380371,-79.2393035888671,-77.69103887817212,72.00043533783465,165100036
sw,-58.0590667724609,-80.6763763427734,-60.36752972654028,72.23021173106052,165116703
sw,-57.8627014160156,-82.1460952758789,-41.6467171628778,71.33958678378485,165133370
sw,-57.8209342956543,-83.5559463500976,-22.704842800501794,69.49744912815477,165150037
sw,-57.8166236877441,-84.822525024414,-4.837727461130047,66.90482260291459,165166704
sw,-58.1791954040527,-85.9656066894531,10.768810089363456,63.799232473105334,165183371
sw,-58.6850547790527,-87.0021286010742,23.20404532486035,60.4125722341942,165200038
sw,-59.4122772216796,-87.9615478515625,31.936677148598655,56.90543268031526,165216705
sw,-60.2660255432128,-88.8694458007812,36.87039080578591,53.32001569411968,165233372
sw,-60.9742965698242,-90.0,38.34549962565605,49.587060334416314,165250039
sw,-61.4493293762207,-89.6562194824218,37.07018412241024,45.59448938583653,165266706
sw,-61.8333053588867,-88.5786590576171,33.97884647122661,41.29228907008156,165283373
sw,-62.2068176269531,-87.7472763061523,30.045358881352353,36.78656500529913,165300040
sw,-62.5924415588378,-87.0724334716796,26.10028141363498,32.37535188567119,165316707
sw,-62.9555702209472,-86.5036392211914,22.698325105997544,28.49806953789188,165333374
sw,-63.2713623046875,-86.0403747558593,20.06208275089914,25.60043075490819,165350041
sw,-63.5199012756347,-85.6931610107421,18.106547410066106,23.94660568260809,165366708
sw,-63.6874237060546,-85.4640884399414,16.53516198150602,23.432296067397875,165383375
sw,-63.8693466186523,-85.2205352783203,14.98978724540319,23.46041695771023,165400042
sw,-64.0676879882812,-84.9459228515625,13.226664053589717,22.93176445419731,165416709
sw,-64.395034790039,-84.7050247192382,11.274457374923765,20.37659832235405,165433376
sw,-65.0695114135742,-84.3470916748046,9.515834776792346,14.215827553677611,165450043
sw,-65.6566467285156,-83.9699401855468,8.638653665504325,3.103479335826611,165466710
sw,-65.6896896362304,-83.6804046630859,9.443564759751185,-13.72335041763727,165483377
sw,-65.6556549072265,-83.1186370849609,12.566110603889815,-36.16748277011753,165500044
sw,-66.2115402221679,-81.9296112060546,18.232436509735614,-63.13615344145581,165516711
sw,-67.3900451660156,-79.9451904296875,26.165272201112295,-92.59250356526525,165533378
sw,-68.5991287231445,-77.4181747436523,35.67837946643184,-121.80930239608122,165550045
sw,-69.6118774414062,-74.6326904296875,45.896704363830274,-147.79791536357396,165566712
sw,-70.7867736816406,-72.0393600463867,55.98940821900785,-167.83101102994902,165583379
sw,-72.115982055664,-69.86865234375,65.32708624177327,-179.9321138863733,165600046
sw,-73.6289596557617,-68.174819946289,73.53479400636802,-183.20162773349617,165616713
sw,-75.274055480957,-66.6473236083984,80.45995656673794,-177.8983097922648,165633380
sw,-76.9233474731445,-64.998550415039,86.09142440546584,-165.27310924257768,165650047
sw,-78.5628585815429,-63.4238929748535,90.46381244660408,-147.22257608065965,165666714
sw,-80.1386489868164,-62.1574592590332,93.57458962365217,-125.86985256812426,165683381
sw,-81.6759567260742,-61.1540794372558,95.33517348405292,-103.18717190019657,165700048
sw,-83.1807403564453,-60.3286170959472,95.56890337251316,-80.74666593659327,165716715
sw,-84.6158447265625,-59.5263710021972,94.05579050520721,-59.634201164940855,165733382
sw,-85.8514099121093,-59.0265769958496,90.60881793432236,-40.50221267996399,165750049
sw,-86.7015914916992,-58.78218460083,85.1554765669611,-23.696310113253258,165766716
sw,-87.0007553100586,-58.7165069580078,77.79663974392888,-9.382617790531325,165783383
sw,-86.8118667602539,-59.0418891906738,68.82367426330728,2.374011485953538,165800050
sw,-86.3393325805664,-59.6984634399414,58.68941901562222,11.591867933057843,165816717
sw,-85.8104400634765,-60.3699111938476,47.94221668660482,18.38886785975814,165833384
sw,-85.3778915405273,-61.3069534301757,37.139178447817464,22.991722049843215,165850051
sw,-85.0364685058593,-62.5089836120605,26.7549070448727,25.708763821735996,165866718
sw,-84.7936935424804,-63.6683883666992,17.098839168167107,26.86873332761125,165883385
sw,-84.6803588867187,-64.5555648803711,8.252232766824363,26.7529216968775,165900052
sw,-84.7196960449218,-65.3422927856445,0.03584399137305691,25.552407374121934,165916719
sw,-84.8733291625976,-66.4162673950195,-7.980154169689882,23.368814329745497,165933386
sw,-85.0599746704101,-67.3661422729492,-16.414837310196056,20.255626193036573,165950053
sw,-85.2677383422851,-67.8727035522461,-25.96290489405589,16.279008574281278,165966720
sw,-85.3907928466796,-68.0841064453125,-37.24162019098705,11.574932029133597,165983387
sw,-85.2439575195312,-68.066177368164,-50.6251213401071,6.394107734130648,166000054
sw,-84.5394439697265,-68.2257385253906,-66.10074823713016,1.1388372440961103,166016721
sw,-83.0513000488281,-68.7060012817382,-83.18105053979455,-3.614126917496209,166033388
sw,-80.6920776367187,-68.9459609985351,-100.89706238287415,-7.13628229353206,166050055
sw,-77.6082763671875,-68.8966522216796,-117.8868064879685,-8.653225726375366,166066722
sw,-74.4081268310546,-68.8014068603515,-132.58006673936825,-7.5316844739675615,166083389
sw,-72.1943740844726,-69.2796325683593,-143.4644939504988,-3.481804618649595,166100056
sw,-70.535285949707,-70.3627243041992,-149.39458023515795,3.3236772653946582,166116723
sw,-68.7837295532226,-71.554443359375,-149.8744415484054,12.277116820018179,166133390
sw,-66.7878799438476,-72.5748214721679,-145.22133452044886,22.49451925153443,166150057
sw,-65.0929946899414,-73.5361633300781,-136.5248269789765,33.02448693185599,166166724
sw,-63.8960456848144,-74.761962890625,-125.37606013911949,43.02136042352323,166183391
sw,-62.8713798522949,-76.1526947021484,-113.43830718936981,51.83974674325803,166200058
sw,-61.7400894165039,-77.5187835693359,-102.00924499062127,59.05588271378403,166216725
sw,-60.5235214233398,-78.9182891845703,-91.73134537357562,64.44444995437767,166233392
sw,-59.459903717041,-80.3839950561523,-82.53511658203439,67.94049073612547,166250059
sw,-58.5302963256835,-81.9124069213867,-73.8004183819561,69.6079745243559,166266726
sw,-57.6893615722656,-83.4117965698242,-64.64999192939051,69.62308137682797,166283393
sw,-56.9684143066406,-84.7994918823242,-54.26864584105913,68.26315688075645,166300060
sw,-56.4715270996093,-86.0276336669921,-42.16071805887204,65.8813809607233,166316727
sw,-56.3217315673828,-87.1500930786132,-28.297151160176746,62.85305763914674,166333394
sw,-56.3882217407226,-88.2505645751953,-13.143373652097257,59.50012134106124,166350061
sw,-56.5459022521972,-89.4436264038086,2.4149646084448486,56.0213347206003,166366728
sw,-57.0202751159668,-90.0,17.224973012102865,52.4622716513021,166383395
sw,-57.8578033447265,-89.6695709228515,30.076168014535668,48.747377624228754,166400062
sw,-58.9763603210449,-88.4233093261718,39.93495499427174,44.770991710658535,166416729
sw,-60.171043395996,-87.4290008544921,46.149621474090345,40.51412731340607,166433396
sw,-61.1065940856933,-86.59130859375,48.56068271019727,36.13179779794778,166450063
sw,-61.6584205627441,-85.9610443115234,47.47833443209243,31.956556507552186,166466730
sw,-62.2217483520507,-85.5688018798828,43.548519096498204,28.39460353806928,166483397
sw,-62.9519958496093,-85.3060226440429,37.581806837062835,25.740686995720548,166500064
sw,-63.5343780517578,-85.0670013427734,30.424340042027822,23.982071194152226,166516731
sw,-64.0413284301757,-84.7588806152343,22.90576779191343,22.675533393033316,166533398
sw,-64.3390274047851,-84.4070739746093,15.842803067687907,20.95625910100292,166550065
sw,-64.4207077026367,-84.034553527832,10.047058215767636,17.686554660792797,166566732
sw,-64.4742355346679,-83.7266540527343,6.291629761083344,11.700947243944448,166583399
sw,-64.7297286987304,-83.6303100585937,5.2191407806664145,2.074929380771485,166600066
sw,-64.70458984375,-83.7217178344726,7.20948621378708,-11.654101828649406,166616733
sw,-64.4951629638671,-83.8961029052734,12.258644500690894,-29.359912323838753,166633400
sw,-65.0425491333007,-83.8951034545898,19.936555672052922,-50.3074861042178,166650067
sw,-66.2743225097656,-83.1583480834961,29.471363590288853,-73.22769524877414,166666734
sw,-67.7710647583007,-81.4197311401367,39.94522939538148,-96.46397260211079,166683401
sw,-69.0566329956054,-78.9794540405273,50.519217650048795,-118.16928379494426,166700068
sw,-70.3039932250976,-76.2958908081054,60.58520822928063,-136.5334986285184,166716735
sw,-71.6461944580078,-73.8212585449218,69.78976440876923,-150.01730182168276,166733402
sw,-73.201416015625,-71.7855453491211,77.95085525695504,-157.56250779288823,166750069
sw,-74.9607238769531,-70.1064758300781,84.93768911192873,-158.74735285325508,166766736
sw,-76.7497024536132,-68.4893417358398,90.58242805728382,-153.85840748978316,166783403
sw,-78.5408706665039,-66.7228469848632,94.65709648926575,-143.85331653952514,166800070
sw,-80.2659530639648,-65.1790313720703,96.91108120474489,-130.19725781638883,166816737
sw,-81.9181365966796,-64.0121765136718,97.14353412895807,-114.58536464316491,166833404
sw,-83.4944686889648,-62.9285354614257,95.28097673608319,-98.60991197167782,166850071
sw,-84.9163589477539,-61.8719062805175,91.4339051346249,-83.46498011673314,166866738
sw,-85.9809799194336,-60.8667182922363,85.91067549289637,-69.77475531168221,166883405
sw,-86.594985961914,-60.1443519592285,79.17477302371552,-57.58787610875988,166900072
sw,-86.8384552001953,-59.5592498779296,71.74863039455646,-46.526181739136554,166916739
sw,-86.7634811401367,-58.9848518371582,64.09190533506109,-36.03351247408164,166933406
sw,-86.4275741577148,-58.5542488098144,56.50129145555721,-25.644933273397005,166950073
sw,-85.9282608032226,-58.229808807373,49.07684909649981,-15.192029635331018,166966740
sw,-85.4014282226562,-58.3859519958496,41.77307220690755,-4.881733806276508,166983407
sw,-84.8968887329101,-58.9081001281738,34.514824567505435,4.768317719580982,167000074
sw,-84.4176330566406,-59.7483253479003,27.32877230972833,13.103539801209156,167016741
sw,-84.0023345947265,-60.7033348083496,20.432527397828512,19.54511585377164,167033408
sw,-83.71484375,-61.6357078552246,14.236973627013104,23.763067077197476,167050075
sw,-83.5265274047851,-62.4042701721191,9.245647240327672,25.75112555619735,167066742
sw,-83.5155715942382,-62.9132537841796,5.870258782917651,25.786836926974033,167083409
sw,-83.6088333129882,-63.455020904541,4.2143533683801175,24.308479257485192,167100076
sw,-83.6664581298828,-64.1334457397461,3.8973696761568024,21.771894004804444,167116743
sw,-83.6544876098632,-64.7811431884765,3.989644955812561,18.548529518638805,167133410
sw,-83.5621795654296,-65.2470321655273,3.102343944370295,14.895319380308996,167150077
sw,-83.4021911621093,-65.5298080444336,-0.3676884866266607,10.99058531013187,167166744
sw,-83.1729507446289,-65.6434555053711,-7.884925766582776,7.009052388770005,167183411
sw,-82.8036651611328,-65.6061935424804,-20.39626152009994,3.204968015609828,167200078
sw,-82.3430404663086,-65.8496322631836,-38.02333664880704,-0.02808050816257234,167216745
sw,-81.7251968383789,-66.4036636352539,-59.91263495252969,-2.1559565369376976,167233412
sw,-80.5143585205078,-66.3039093017578,-84.29466470012098,-2.5905056149363497,167250079
sw,-78.6292190551757,-66.3621139526367,-108.75333900732979,-0.8565669183066107,167266746
sw,-76.4205322265625,-66.8486099243164,-130.65705564836335,3.2252927114913397,167283413
sw,-74.5771179199218,-68.0543823242187,-147.66482093457708,9.436539012840107,167300080
sw,-73.3835067749023,-69.6560592651367,-158.19587819941253,17.201686351711707,167316747
sw,-72.1372451782226,-70.9034271240234,-161.74268316378604,25.754973015344653,167333414
sw,-70.6520080566406,-71.964599609375,-158.92820323394986,34.348896657919745,167350081
sw,-69.237190246582,-73.2867050170898,-151.27289575912306,42.413629898024006,167366748
sw,-68.0245590209961,-74.6903457641601,-140.73441251536184,49.61987063953481,167383415
sw,-66.7647018432617,-76.097412109375,-129.17160234837942,55.849851283292196,167400082
sw,-65.2777557373046,-77.4628677368164,-117.91143160645018,61.1118107703926,167416749
sw,-63.7407684326171,-78.8897018432617,-107.54243737428935,65.44109928629959,167433416
sw,-62.3780975341796,-80.3866500854492,-97.954558065103,68.82549782293597,167450083
sw,-61.1860923767089,-81.8586883544921,-88.55501387037152,71.1774133617764,167466750
sw,-60.0789604187011,-83.3629531860351,-78.55463089524491,72.35467505804071,167483417
sw,-59.0929107666015,-84.7072067260742,-67.23520993241708,72.21274146307802,167500084
sw,-58.4035491943359,-85.9960098266601,-54.14788369760018,70.66271754981828,167516751
sw,-58.0886497497558,-87.3107376098632,-39.230092344444316,67.71386431650546,167533418
sw,-57.7564353942871,-88.5554428100586,-22.85058531740202,63.49090447338976,167550085
sw,-57.5798530578613,-90.0,-5.791078433943327,58.22776621096502,167566752
sw,-58.0181884765625,-90.0,10.841971705790149,52.24618836835836,167583419
sw,-58.8406524658203,-89.0410079956054,25.785521494482737,45.92855271256268,167600086
sw,-59.8455047607421,-88.0999908447265,37.850773547068606,39.68918078455219,167616753
sw,-60.904727935791,-87.3996276855468,46.15804466850697,33.94034820790599,167633420
sw,-61.8808403015136,-86.8354110717773,50.301032508236005,29.045723246198268,167650087
sw,-62.6972770690918,-86.3930511474609,50.39390860865914,25.259471189210764,167666754
sw,-63.5445137023925,-85.9832153320312,47.00622687346171,22.65998690151119,167683421
sw,-64.4865036010742,-85.5908737182617,41.02952159761259,21.09432166872077,167700088
sw,-65.1761856079101,-85.2483673095703,33.526517336749315,20.148025412491506,167716755
sw,-65.6031188964843,-85.0131225585937,25.597604704512456,19.148724916439118,167733422
sw,-65.8808670043945,-84.8808670043945,18.279679479422832,17.207583331488937,167750089
sw,-66.1875762939453,-84.8650817871093,12.4781593703234,13.303745803987791,167766756
sw,-66.8853912353515,-84.8525085449218,8.919541912352756,6.417879209235589,167783423
sw,-67.2905807495117,-84.7594375610351,8.101799181651614,-4.286295553310303,167800090
sw,-67.1524505615234,-84.5401992797851,10.229893900657093,-19.251923640929665,167816757
sw,-67.2996749877929,-83.9013671875,15.159202586329435,-38.33295486966324,167833424
sw,-68.1763610839843,-82.3419647216796,22.400701289979192,-60.67093205968554,167850091
sw,-69.4822540283203,-79.9248733520507,31.226563591518754,-84.70257311403286,167866758
sw,-70.6492614746093,-77.1383743286132,40.85310655887178,-108.33162745543933,167883425
sw,-71.6873474121093,-74.7181320190429,50.62185740555731,-129.25070667610723,167900092
sw,-72.9335021972656,-72.9367904663086,60.09867693206519,-145.34324854922346,167916759
sw,-74.4234390258789,-71.3975524902343,69.06129433322708,-155.06200723536836,167933426
sw,-76.01220703125,-69.8429489135742,77.40254240197599,-157.68729485655,167950093
sw,-77.6122894287109,-68.3641586303711,85.00524956613663,-153.40556503472675,167966760
sw,-79.3080215454101,-66.8421783447265,91.64331578638159,-143.19619682923422,167983427
sw,-81.088623046875,-65.3844451904296,96.9458340666024,-128.5631252139255,168000094
sw,-82.8319625854492,-64.2091293334961,100.43682490876566,-111.19248800608605,168016761
sw,-84.5048141479492,-63.2593612670898,101.63719513988025,-92.63975245710543,168033428
sw,-86.0384445190429,-62.4350280761718,100.19432684149804,-74.13266889214157,168050095
sw,-87.0902709960937,-61.5814361572265,95.99519981914561,-56.52412931429559,168066762
sw,-87.3618850708007,-60.8636245727539,89.22469943560606,-40.367087382760154,168083429
sw,-86.9185333251953,-60.3543739318847,80.35001008029748,-26.041195521190037,168100096
sw,-86.1681518554687,-59.9894638061523,70.03717879428243,-13.853347562600788,168116763
sw,-85.4331893920898,-59.9774360656738,59.026460813154614,-4.060270130655999,168133430
sw,-84.7939910888671,-60.4988250732421,48.00186273026494,3.1906988259770963,168150097
sw,-84.2676315307617,-60.9636039733886,37.487166800750884,7.954645284215899,168166764
sw,-83.8261032104492,-61.4037170410156,27.78922463824582,10.540784078189791,168183431
sw,-83.4794769287109,-62.1488494873046,18.993557188044594,11.469926804078408,168200098
sw,-83.2714538574218,-62.9733009338378,11.002003887568357,11.34502263629497,168216765
sw,-83.1811447143554,-63.6169166564941,3.5924183343367972,10.693590443146606,168233432
sw,-83.2047729492187,-64.2444076538086,-3.5208416089995667,9.849807500188332,168250099
sw,-83.3321762084961,-64.8883438110351,-10.640725375638072,8.918821641644369,168266766
sw,-83.5461502075195,-65.5335235595703,-18.061021698389396,7.831888663672315,168283433
sw,-83.9137573242187,-66.2158660888671,-26.055571408184026,6.470649813420566,168300100
sw,-84.3885345458984,-66.9275970458984,-34.87206887512506,4.814847742841114,168316767
sw,-84.7502136230468,-67.5066375732421,-44.716447486415326,3.055330957136112,168333434
sw,-84.8424224853515,-67.8894577026367,-55.71727412076015,1.6209202677307954,168350101
sw,-84.4241333007812,-68.2425689697265,-67.86971894065812,1.0962011376270446,168366768
sw,-83.0759582519531,-68.308479309082,-80.97116897951004,2.0507037336153404,168383435
sw,-80.8387985229492,-68.2897491455078,-94.56919291328687,4.843020767644193,168400102
sw,-78.1568298339843,-69.0276260375976,-107.94576412902215,9.485958102384187,168416769
sw,-75.5285568237304,-70.4440155029296,-120.16149139801506,15.641023684885093,168433436
sw,-73.7270812988281,-72.0820159912109,-130.17683581451215,22.749263599767822,168450103
sw,-72.5168151855468,-73.3413772583007,-137.04527377397872,30.231461870428824,168466770
sw,-71.2650375366211,-74.3436965942382,-140.13697013794447,37.65448420324326,168483437
sw,-69.6498336791992,-75.5357513427734,-139.31981895430448,44.787476780052785,168500104
sw,-68.001708984375,-76.8088912963867,-135.0221790353953,51.5389161721148,168516771
sw,-66.4317092895507,-78.0875930786132,-128.1380144492765,57.82754127629627,168533438
sw,-64.9508209228515,-79.5422973632812,-119.79620551425874,63.46635635239143,168550105
sw,-63.5538673400878,-81.1631774902343,-111.06999240169587,68.12424093830352,168566772
sw,-62.2165336608886,-82.8771286010742,-102.72131621189318,71.38599067446061,168583439
sw,-61.0215988159179,-84.5603408813476,-95.05263623810838,72.88069815530103,168600106
sw,-59.9098625183105,-86.0446853637695,-87.89360106693567,72.41599471297927,168616773
sw,-58.8116722106933,-87.3007888793945,-80.70614488782898,70.05755713150768,168633440
sw,-57.7440185546875,-88.3442459106445,-72.76447242166972,66.12421775037969,168650107
sw,-56.8682670593261,-88.8400573730468,-63.35907862463546,61.107865452842084,168666774
sw,-56.2542419433593,-88.4589614868164,-51.98186246886647,55.55365567094725,168683441
sw,-55.8975715637207,-87.7725296020507,-38.4644079850091,49.94258792038878,168700108
sw,-55.7545700073242,-87.110122680664,-23.054535005738714,44.61006785898418,168716775
sw,-55.7830963134765,-86.4700851440429,-6.421978583350048,39.71832419973543,168733442
sw,-56.0849609375,-85.7959747314453,10.414012868809317,35.282506863814575,168750109
sw,-56.7923927307128,-85.3274765014648,26.233969528017948,31.23391052549248,168766776
sw,-57.8908042907714,-84.9404983520507,39.82174210576191,27.493864922648612,168783443
sw,-59.0567741394043,-84.5225982666015,50.17367707810038,24.031009863228615,168800110
sw,-60.0799217224121,-84.0966491699218,56.65617607187565,20.880405408704277,168816777
sw,-61.0910987854003,-83.7671585083007,59.07770847302342,18.111725855473363,168833444
sw,-62.1026611328125,-83.6230850219726,57.68355329379306,15.746734956295752,168850111
sw,-63.0569610595703,-83.6216964721679,53.10975557698812,13.64553786688752,168866778
sw,-64.3519897460937,-83.6548614501953,46.32565049782629,11.401903729862925,168883445
sw,-65.4843215942382,-83.8096389770507,38.561311154733716,8.298571219793553,168900112
sw,-66.1934738159179,-83.9750061035156,31.188057356574166,3.3644478133267537,168916779
sw,-66.8104553222656,-84.058853149414,25.525206222464583,-4.453445727977768,168933446
sw,-66.9628219604492,-84.0829849243164,22.590569220709796,-16.031127786228215,168950113
sw,-66.8835067749023,-84.0265731811523,22.871023276699773,-31.787319697728215,168966780
sw,-67.3490753173828,-83.5027313232421,26.21814150997715,-51.46482496799469,168983447
sw,-68.3342132568359,-82.0464630126953,31.937707130427963,-74.04536034449725,169000114
sw,-69.5822448730468,-79.8612747192382,39.0501487133257,-97.83352705109999,169016781
sw,-70.7480392456054,-77.3775100708007,46.6097285534792,-120.69932313238918,169033448
sw,-71.8250961303711,-75.0605316162109,53.946825821545225,-140.42644025978944,169050115
sw,-73.0132827758789,-73.0721206665039,60.75178195022015,-155.08700624610162,169066782
sw,-74.3182601928711,-71.3074569702148,67.00466095890364,-163.36001937616012,169083449
sw,-75.6849136352539,-69.6470947265625,72.81623215701143,-164.72823182249846,169100116
sw,-77.116226196289,-68.0412826538086,78.25885884540179,-159.51555090751046,169116783
sw,-78.6808853149414,-66.4900970458984,83.24535581373358,-148.7576919926887,169133450
sw,-80.2973098754882,-65.1210784912109,87.48274468715707,-133.93575753146,169150117
sw,-81.8882141113281,-64.0074920654296,90.50079860887207,-116.64302077152036,169166784
sw,-83.4351730346679,-62.9919929504394,91.73755504763592,-98.28100132334583,169183451
sw,-84.8941192626953,-62.1009407043457,90.65597971595288,-79.87111563401089,169200118
sw,-86.1588592529296,-61.2096443176269,86.86534899496219,-62.021271922178144,169216785
sw,-87.0978240966796,-60.4853553771972,80.22481425925562,-45.02529599752944,169233452
sw,-87.6034698486328,-59.981948852539,70.91314229145706,-29.027775034382348,169250119
sw,-87.6105880737304,-59.7128677368164,59.45566617893378,-14.176585673982384,169266786
sw,-87.3202972412109,-59.7575302124023,46.70422018322095,-0.7080593160250803,169283453
sw,-86.9081344604492,-59.9476470947265,33.76747066513909,11.051636748821334,169300120
sw,-86.5969467163086,-60.5519218444824,21.890408765261043,20.750149775000473,169316787
sw,-86.4648208618164,-61.5060729980468,12.287034969694753,28.099035383847692,169333454
sw,-86.4282302856445,-62.4712753295898,5.941479475337378,32.95003083853874,169350121
sw,-86.4698028564453,-63.4245719909668,3.4076336181758937,35.33103834861998,169366788
sw,-86.5648117065429,-64.354995727539,4.649691912564293,35.437906241580215,169383455
sw,-86.6040802001953,-65.0867843627929,8.969032667922487,33.598009900238544,169400122
sw,-86.3997802734375,-66.0559463500976,15.051706818495939,30.227248122008827,169416789
sw,-85.9204711914062,-67.0502777099609,21.144166359694804,25.791172932022086,169433456
sw,-85.2653427124023,-67.5945816040039,25.328701716786572,20.765476928477725,169450123
sw,-84.6370315551757,-67.7862777709961,25.839250642967624,15.588700741878867,169466790
sw,-84.1106491088867,-67.7234802246093,21.348745229331783,10.616747574586643,169483457
sw,-83.7166290283203,-67.656509399414,11.174966865031617,6.1083060513477685,169500124
sw,-83.3733901977539,-68.1011123657226,-4.618951162105127,2.265429908801287,169516791
sw,-83.0334854125976,-68.9820022583007,-25.22830375022391,-0.6859541738932325,169533458
sw,-82.4607620239257,-69.3062133789062,-49.20264895405417,-2.4377574037408944,169550125
sw,-81.3801498413086,-69.3309783935546,-74.6211212023645,-2.6299360803440672,169566792
sw,-79.8486175537109,-69.5590286254882,-99.33552573566469,-0.9756781603085138,169583459
sw,-78.0542831420898,-70.3795928955078,-121.26295449238182,2.5913476378043705,169600126
sw,-76.2009887695312,-71.6435928344726,-138.69228238640278,7.847115601263277,169616793
sw,-74.6902389526367,-73.2028121948242,-150.54640584543785,14.33298231830793,169633460
sw,-73.4384689331054,-74.4571228027343,-156.5307160648123,21.50150588260304,169650127
sw,-72.1682968139648,-75.4627304077148,-157.1159393049014,28.866093662668998,169666794
sw,-70.6691055297851,-76.5615539550781,-153.35217195943943,36.079988046200825,169683461
sw,-69.0851898193359,-77.7397155761718,-146.56863602574688,42.92369822151243,169700128
sw,-67.3728790283203,-78.9179992675781,-138.04862057886575,49.23215438788271,169716795
sw,-65.579345703125,-80.0747375488281,-128.76499035739954,54.815282718171225,169733462
sw,-63.9562110900878,-81.3602752685546,-119.2285033604917,59.418454992968215,169750129
sw,-62.458869934082,-82.7926025390625,-109.46295139279343,62.74549976716568,169766796
sw,-61.0382575988769,-84.2216873168945,-99.09482746803019,64.5371669910996,169783463
sw,-59.7409400939941,-85.5284118652343,-87.53101948706501,64.67107219084822,169800130
sw,-58.6428451538085,-86.6703338623046,-74.1880417618821,63.23667525571781,169816797
sw,-57.8236236572265,-87.732551574707,-58.72808473914238,60.54824940138229,169833464
sw,-57.3514595031738,-88.6658782958984,-41.25380459468651,57.08521449731961,169850131
sw,-56.953254699707,-89.3271102905273,-22.41552822514698,53.378380053826106,169866798
sw,-56.8303833007812,-89.1495819091796,-3.3899988174724904,49.87970074479912,169883465
sw,-57.3931159973144,-88.4863891601562,14.293608436766712,46.85695771861582,169900132
sw,-58.4641532897949,-87.7759552001953,29.06322712375927,44.344670889351285,169916799
sw,-59.6377754211425,-87.0053939819336,39.67052912423014,42.16304512822814,169933466
sw,-60.6322326660156,-86.1998062133789,45.493187826291255,39.99360345345849,169950133
sw,-61.4404945373535,-85.3262634277343,46.66773719760528,37.479663561795896,169966800
sw,-62.1835784912109,-84.528938293457,44.02117592495072,34.309100083233936,169983467
sw,-62.8655662536621,-83.9586944580078,38.85093749027564,30.24293263037496,170000134
sw,-63.510684967041,-83.6654739379882,32.644280024134524,25.078535014624716,170016801
sw,-64.1042785644531,-83.6300048828125,26.819049133835836,18.572493713902908,170033468
sw,-64.592788696289,-83.6814880371093,22.530258259967475,10.376821749415488,170050135
sw,-64.7608413696289,-83.7269592285156,20.549936137542023,0.044685366500313156,170066802
sw,-64.913101196289,-83.7624435424804,21.211097974037926,-12.867038156971283,170083469
sw,-65.2683486938476,-83.8015060424804,24.41423246880578,-28.617436142771027,170100136
sw,-66.1642379760742,-83.7322463989257,29.708235479818068,-47.082464209061534,170116803
sw,-67.4674377441406,-83.0620574951171,36.44803758328104,-67.61084075834306,170133470
sw,-68.82958984375,-81.4101181030273,43.99051265256233,-88.99494182747951,170150137
sw,-70.0789260864257,-78.8959808349609,51.851331830647176,-109.58367986653336,170166804
sw,-71.1897964477539,-75.9236907958984,59.7528543564671,-127.52379951529143,170183471
sw,-72.447036743164,-73.2547149658203,67.55272058936175,-141.07812673250896,170200138
sw,-73.9985809326171,-71.3080978393554,75.10993749208252,-148.94609973326624,170216805
sw,-75.7352523803711,-69.6855239868164,82.16917526494804,-150.51270861726337,170233472
sw,-77.5210723876953,-67.964599609375,88.31619311673826,-145.97095589406803,170250139
sw,-79.2251968383789,-66.2528457641601,93.0109677893812,-136.28504101036287,170266806
sw,-80.8840942382812,-64.7562713623046,95.67517872132167,-122.98578337712749,170283473
sw,-82.4871215820312,-63.5759353637695,95.80438516436743,-107.829696612314,170300140
sw,-83.9563598632812,-62.6953468322753,93.07850356180923,-92.40614239135232,170316807
sw,-85.118293762207,-61.9393882751464,87.44616485046485,-77.81247608412778,170333474
sw,-85.915054321289,-61.1911125183105,79.16241854227452,-64.50377698312204,170350141
sw,-86.4152679443359,-60.5762977600097,68.7717298119088,-52.36115753060259,170366808
sw,-86.6022338867187,-60.1824150085449,57.0456385046117,-40.9409937817606,170383475
sw,-86.5122680664062,-59.7093429565429,44.895066099951904,-29.80277744642399,170400142
sw,-86.2974777221679,-59.2472114562988,33.27492103830634,-18.787604938125153,170416809
sw,-86.101577758789,-59.1944160461425,23.088954643085806,-8.140322645047824,170433476
sw,-85.9983139038086,-59.8842315673828,15.095629249574246,1.5661295188639393,170450143
sw,-85.9472579956054,-60.6252670288085,9.815799317774694,9.657052926499857,170466810
sw,-85.9302825927734,-61.505500793457,7.44834103357766,15.61981820169613,170483477
sw,-85.9936218261718,-62.5953712463378,7.806377568399051,19.28849301103488,170500144
sw,-86.0568237304687,-63.3468627929687,10.29162462337039,20.886689320775687,170516811
sw,-85.9923934936523,-63.9574089050293,13.92513010417568,20.93483235064731,170533478
sw,-85.7162780761718,-64.5835494995117,17.445564650481536,20.074985341623137,170550145
sw,-85.3200225830078,-65.2118759155273,19.469922226702977,18.882723721553166,170566812
sw,-84.9148864746093,-65.9200668334961,18.692228647470785,17.727653997541314,170583479
sw,-84.5469512939453,-66.4565505981445,14.084196800007877,16.72085805394559,170600146
sw,-84.0730895996093,-66.9496841430664,5.0626248874189095,15.757992286079448,170616813
sw,-83.6949768066406,-67.320816040039,-8.402692756197434,14.639242641650648,170633480
sw,-83.3489608764648,-67.8094406127929,-25.755888408516096,13.22703063302948,170650147
sw,-82.7275924682617,-68.6696624755859,-45.9007988919369,11.58986805750707,170666814
sw,-81.5015563964843,-69.314224243164,-67.31863983663587,10.076494796210739,170683481
sw,-79.5140075683593,-69.6829605102539,-88.24456263397478,9.277627744525896,170700148
sw,-77.1499404907226,-70.1191864013671,-106.89075265143838,9.874131555744771,170716815
sw,-74.9286956787109,-70.9467163085937,-121.7026159776469,12.42772733748451,170733482
sw,-73.5063781738281,-72.2400665283203,-131.61988001007694,17.204179033503866,170750149
sw,-72.4837112426757,-73.596694946289,-136.28732954488305,24.099098683539427,170766816
sw,-71.4266052246093,-74.7913131713867,-136.14096926013804,32.67613739689546,170783483
sw,-70.2545852661132,-75.9641189575195,-132.31039335222604,42.2718870202746,170800150
sw,-69.2130279541015,-77.2719802856445,-126.33436509740042,52.10691628480775,170816817
sw,-68.1715087890625,-78.766372680664,-119.76163271028004,61.36668323311577,170833484
sw,-66.9194107055664,-80.2396697998046,-113.76198456275162,69.25291534649608,170850151
sw,-65.4639358520507,-81.7511672973632,-108.87072469200314,75.03117938358155,170866818
sw,-64.0465850830078,-83.426155090332,-104.93339452292314,78.1036874754536,170883485
sw,-62.7501907348632,-85.1851272583007,-101.24147777322973,78.11712635963508,170900152
sw,-61.3929176330566,-86.8305969238281,-96.79399216667713,75.08063498412892,170916819
sw,-60.0324935913085,-88.2991256713867,-90.59893985883957,69.4380628419397,170933486
sw,-58.8074226379394,-89.6797943115234,-81.93432836411296,62.0352002123589,170950153
sw,-57.8859977722168,-90.0,-70.51221011229414,53.95707570221629,170966820
sw,-57.343276977539,-89.5011138916015,-56.52677079323224,46.26898763830347,170983487
sw,-56.8844909667968,-88.9253463745117,-40.60604813602854,39.74711341584051,171000154
sw,-56.5128440856933,-88.2690048217773,-23.70489124356863,34.70000104497473,171016821
sw,-56.4918403625488,-87.6003646850586,-6.9664483659678735,30.949272951580145,171033488
sw,-56.8176727294921,-86.9521331787109,8.439371738619904,27.972855736405112,171050155
sw,-57.4640960693359,-86.3361740112304,21.491919607191242,25.15084529541923,171066822
sw,-58.2600860595703,-85.735481262207,31.48065662454543,22.02000156941657,171083489
sw,-58.9973983764648,-85.2223815917968,38.105616667505,18.444967753013323,171100156
sw,-59.6188659667968,-84.9495697021484,41.48650079797734,14.645577668692859,171116823
sw,-60.3257904052734,-84.8464202880859,42.08861809577739,11.068963253604213,171133490
sw,-60.9538459777832,-84.825325012207,40.60909179670469,8.148964765002804,171150157
sw,-61.5485076904296,-84.8981552124023,37.87226221268366,6.036419354502704,171166824
sw,-62.5240516662597,-85.0202026367187,34.75670131321398,4.397333478711085,171183491
sw,-63.4146995544433,-85.1472396850586,32.137291375112405,2.357237867872317,171200158
sw,-63.9444351196289,-85.2720489501953,30.803807993291734,-1.3734406566735617,171216825
sw,-64.2548828125,-85.3324737548828,31.33588385849509,-8.212235091211623,171233492
sw,-64.7840957641601,-85.1613845825195,33.96730061771243,-19.32442653447113,171250159
sw,-65.6840591430664,-84.7005844116211,38.51614770187424,-35.25027117392404,171266826
sw,-66.8697433471679,-83.5805740356445,44.44450708206753,-55.6449314924261,171283493
sw,-68.2949295043945,-81.5466232299804,51.04243888697177,-79.21072903813815,171300160
sw,-69.6219635009765,-78.8171691894531,57.65714824956772,-103.85145189960448,171316827
sw,-70.8410568237304,-75.8125457763671,63.863651708212004,-127.01928808186543,171333494
sw,-72.121826171875,-73.1824798583984,69.51180835916767,-146.17431721130305,171350161
sw,-73.5884704589843,-71.1600189208984,74.65430975817819,-159.2496985988518,171366828
sw,-75.2018356323242,-69.3968887329101,79.41281353970066,-165.01958290756946,171383495
sw,-76.8760070800781,-67.6440200805664,83.84852766370796,-163.29328881258604,171400162
sw,-78.5161056518554,-65.7903594970703,87.87956018319981,-154.89347857564303,171416829
sw,-80.1424865722656,-64.1847763061523,91.25740010892423,-141.4156744117298,171433496
sw,-81.7566909790039,-62.903694152832,93.59566648500103,-124.82013859877223,171450163
sw,-83.3228607177734,-61.8706893920898,94.43603265239852,-106.96710458869713,171466830
sw,-84.8003158569336,-61.012393951416,93.33419785043876,-89.23866531797043,171483497
sw,-86.1216278076171,-60.153564453125,89.95079393551106,-72.36427433191258,171500164
sw,-87.1509094238281,-59.3927154541015,84.13626189002967,-56.48654704659973,171516831
sw,-87.6705627441406,-58.9161071777343,76.00057468067875,-41.40986933393336,171533498
sw,-87.4818420410156,-58.5240402221679,65.95511623278426,-26.91213862372857,171550165
sw,-86.9483489990234,-58.4382591247558,54.70860254607417,-12.992852215011881,171566832
sw,-86.4669799804687,-58.5735244750976,43.20062198162172,0.02787965571683515,171583499
sw,-86.1323852539062,-59.0925636291503,32.47098533422823,11.578177710419022,171600166
sw,-85.8955001831054,-60.0327720642089,23.485553647533706,21.02350904875787,171616833
sw,-85.6757736206054,-61.0900726318359,16.956431187996966,27.885442757048377,171633500
sw,-85.4937667846679,-62.2137413024902,13.196889735853462,31.996126041763805,171650167
sw,-85.3823852539062,-63.2985687255859,12.040964391711857,33.5314135928272,171666834
sw,-85.2602996826171,-64.1338348388671,12.843108896748905,32.923220491197604,171683501
sw,-85.0474624633789,-64.9109649658203,14.560279480091179,30.70196007071195,171700168
sw,-84.6778488159179,-65.7718963623046,15.905999195241924,27.34185070690827,171716835
sw,-84.2294998168945,-66.7070388793945,15.550909528651477,23.17002241462351,171733502
sw,-83.8500595092773,-67.2576217651367,12.331010181661345,18.36536489168299,171750169
sw,-83.5946731567382,-67.5490188598632,5.422527222842579,13.03520392165443,171766836
sw,-83.4397811889648,-67.6186828613281,-5.543847589234527,7.334316846317338,171783503
sw,-83.2341537475586,-67.7870407104492,-20.43359467277053,1.583726828515378,171800170
sw,-82.7365036010742,-68.4034423828125,-38.611039188617454,-3.6553551064295307,171816837
sw,-81.7459335327148,-68.6872787475586,-58.98128524417122,-7.599744944791346,171833504
sw,-80.0564804077148,-68.4977416992187,-80.07375963694251,-9.387288807206515,171850171
sw,-77.9619140625,-68.3747253417968,-100.18554270824144,-8.323451344604957,171866838
sw,-75.9391479492187,-68.7580413818359,-117.60201942032951,-4.136025393445193,171883505
sw,-74.4298324584961,-69.5632019042968,-130.88548233386194,2.891050558006905,171900172
sw,-73.5134124755859,-70.8822708129882,-139.1747189041742,11.983926762775132,171916839
sw,-72.6288757324218,-72.2164230346679,-142.39534553785725,22.117720261142498,171933506
sw,-71.5956726074218,-73.3657913208007,-141.27763372319,32.31146476101416,171950173
sw,-70.5254135131836,-74.5687942504882,-137.13645471672314,41.84714332961137,171966840
sw,-69.4778289794921,-75.9529495239257,-131.46743790235115,50.33762532886701,171983507
sw,-68.2026824951171,-77.3757247924804,-125.50038245425917,57.650666986108426,172000174
sw,-66.6195297241211,-78.813720703125,-119.87276819540884,63.75529344015586,172016841
sw,-64.9987030029296,-80.3047485351562,-114.53019073360367,68.57384963219215,172033508
sw,-63.4469184875488,-81.9758148193359,-108.86262692353718,71.90573405000949,172050175
sw,-61.8789253234863,-83.631233215332,-102.00028474655232,73.45213381957682,172066842
sw,-60.3209609985351,-85.2465133666992,-93.15320859093366,72.9275650551907,172083509
sw,-58.8946723937988,-86.7828979492187,-81.88469401710324,70.20726002221006,172100176
sw,-57.8257827758789,-88.1875,-68.24634703752417,65.44354150679584,172116843
sw,-57.2119979858398,-89.6654510498046,-52.75920756797755,59.09648016493155,172133510
sw,-56.9693717956543,-90.0,-36.28206525367744,51.859364553728085,172150177
sw,-56.7774200439453,-89.4841384887695,-19.83781240773973,44.502797307982675,172166844
sw,-56.5535926818847,-88.7937469482421,-4.454121421200151,37.6944152188297,172183511
sw,-56.7496528625488,-88.1169509887695,8.968608550780305,31.86034321698045,172200178
sw,-57.4039230346679,-87.4989242553711,19.778192512242363,27.135420142908384,172216845
sw,-58.3519325256347,-86.9833831787109,27.68157479033694,23.410942050087716,172233512
sw,-59.1695404052734,-86.53955078125,32.80651962912585,20.449726416797688,172250179
sw,-59.7919616699218,-86.1401443481445,35.6606705294631,18.015368413522612,172266846
sw,-60.4052848815918,-85.7197113037109,36.97391349778882,15.96106621087115,172283513
sw,-61.0134735107421,-85.3949584960937,37.47629994967413,14.239598808810848,172300180
sw,-61.6336326599121,-85.2722930908203,37.70501694001974,12.824374627095194,172316847
sw,-62.5269546508789,-85.3137512207031,37.92083074741219,11.566504550320651,172333514
sw,-63.5530052185058,-85.4556732177734,38.15802287965084,10.045616349849094,172350181
sw,-64.4761276245117,-85.6267776489257,38.36689862188246,7.488652373313871,172366848
sw,-65.4031372070312,-85.6653289794921,38.56915755533431,2.8185658079599225,172383515
sw,-66.5110168457031,-85.5217590332031,38.95015039910268,-5.147367597169554,172400182
sw,-67.0970382690429,-85.2338333129882,39.85070343621708,-17.386805607340822,172416849
sw,-67.3842697143554,-84.45751953125,41.67356158311709,-34.33327225347579,172433516
sw,-68.2154312133789,-82.8232879638671,44.76153192605414,-55.610437397062746,172450183
sw,-69.6643142700195,-80.4626541137695,49.31172293908208,-79.92638110467382,172466850
sw,-71.1786346435546,-77.7355041503906,55.353123062354356,-105.1760348710516,172483517
sw,-72.515754699707,-75.0505981445312,62.76084821667665,-128.74853216097122,172500184
sw,-73.904556274414,-72.786865234375,71.25918871675714,-147.98146548730946,172516851
sw,-75.5038375854492,-70.8246231079101,80.39519942674055,-160.66019625483727,172533518
sw,-77.2893829345703,-69.0695037841796,89.51105898180357,-165.44207968274216,172550185
sw,-79.2082901000976,-67.4353866577148,97.76171518541368,-162.09868022723458,172566852
sw,-81.1954727172851,-65.8479843139648,104.20361882732186,-151.5116487610701,172583519
sw,-83.1575698852539,-64.4657974243164,107.94309842102666,-135.42379623895252,172600186
sw,-85.0668792724609,-63.2580108642578,108.30542356957261,-116.01998407738094,172616853
sw,-86.7718353271484,-62.2930946350097,104.97857513218807,-95.46381066354205,172633520
sw,-87.9804534912109,-61.4886627197265,98.09478577059555,-75.51998251533817,172650187
sw,-88.0120010375976,-60.7088317871093,88.22854527932266,-57.34739212194802,172666854
sw,-87.2367172241211,-60.1779899597168,76.3067562370046,-41.47958871491666,172683521
sw,-86.4660873413086,-59.8749465942382,63.44575650114096,-27.95106513732938,172700188
sw,-85.8424453735351,-59.7215499877929,50.75090949802979,-16.499497926293817,172716855
sw,-85.3214874267578,-59.672508239746,39.130185879297315,-6.77397868239084,172733522
sw,-84.9026107788086,-59.6183395385742,29.172606942580188,1.5054530705658702,172750189
sw,-84.5529174804687,-60.0630722045898,21.12141641578342,8.46915961894583,172766856
sw,-84.2536315917968,-60.7879600524902,14.938551841763092,14.104390755427358,172783523
sw,-83.9717864990234,-61.6218109130859,10.426039467367335,18.32362778789404,172800190
sw,-83.7081069946289,-62.565559387207,7.352924652891469,21.055932469724706,172816857
sw,-83.5061416625976,-63.5174751281738,5.537946457808531,22.324449635922605,172833524
sw,-83.3839035034179,-64.1385498046875,4.857336647714129,22.287104486529806,172850191
sw,-83.3568420410156,-64.6911010742187,5.178073112705025,21.235033886615632,172866858
sw,-83.3605575561523,-65.4859848022461,6.249081560585815,19.55848646198475,172883525
sw,-83.3046417236328,-66.3326416015625,7.60319656512134,17.6954488403579,172900192
sw,-83.1328735351562,-67.020393371582,8.521338168379316,16.070524145992493,172916859
sw,-82.8511810302734,-67.3190307617187,8.086929249109206,15.02258777778576,172933526
sw,-82.5968399047851,-67.3548965454101,5.3238371780622975,14.728757471813019,172950193
sw,-82.4256591796875,-67.3254089355468,-0.6184342481852187,15.158152799454022,172966860
sw,-82.2875900268554,-67.9619522094726,-10.280698129530405,16.100772688144808,172983527
sw,-82.2111206054687,-69.3089752197265,-23.75328346360145,17.28424873834362,173000194
sw,-82.0371856689453,-70.0595779418945,-40.604409973943234,18.52675138908886,173016861
sw,-81.4209823608398,-70.4096145629882,-59.8879372705819,19.834389857467208,173033528
sw,-80.1440811157226,-71.2021331787109,-80.23138449868182,21.3810174978013,173050195
sw,-78.5100860595703,-72.4345550537109,-100.00164638471666,23.38709686799156,173066862
sw,-76.9694747924804,-73.7986221313476,-117.5406646804197,25.976254229126113,173083529
sw,-75.9464569091796,-75.0203628540039,-131.44632446765732,29.091836102453172,173100196
sw,-75.3131408691406,-76.3364562988281,-140.84371748848827,32.51286588489695,173116863
sw,-74.4383316040039,-77.7015304565429,-145.565290392856,35.952956377831896,173133530
sw,-73.3403015136718,-78.9748382568359,-146.1624906700778,39.18335832306446,173150197
sw,-72.15673828125,-80.1376113891601,-143.72089466481225,42.11010779601231,173166864
sw,-70.9550857543945,-81.1516494750976,-139.5284090308382,44.76253348855447,173183531
sw,-69.583625793457,-82.1453018188476,-134.70924546696602,47.20296045340643,173200198
sw,-68.048957824707,-83.1570205688476,-129.94663314537186,49.414056457776084,173216865
sw,-66.5265350341796,-84.1931610107421,-125.37062007462652,51.23270017461009,173233532
sw,-65.0655441284179,-85.3045654296875,-120.61604914359312,52.37182367275606,173250199
sw,-63.5707092285156,-86.4795227050781,-114.99979619614129,52.52258452873514,173266866
sw,-62.0966529846191,-87.5512771606445,-107.74402980077915,51.48660599355772,173283533
sw,-60.7507362365722,-88.4160079956054,-98.1787688853717,49.27351421803725,173300200
sw,-59.6394500732421,-88.9200820922851,-85.8811201908769,46.117627553825436,173316867
sw,-58.8501205444335,-88.9998626708984,-70.74066115703508,42.407069737338716,173333534
sw,-58.3111419677734,-88.7360763549804,-52.96836628257204,38.55744125538911,173350201
sw,-57.9204559326171,-88.3479080200195,-33.07653738541526,34.88295057472255,173366868
sw,-57.6674118041992,-87.9478683471679,-11.845503105300702,31.515103677163015,173383535
sw,-58.0125274658203,-87.5953979492187,9.726798001951762,28.398188341414574,173400202
sw,-58.7522773742675,-87.1525650024414,30.50249032917128,25.36180015236291,173416869
sw,-59.6495170593261,-86.6554336547851,49.305843734333564,22.242386167633036,173433536
sw,-60.587718963623,-86.1390304565429,65.03320694872426,19.004700341674955,173450203
sw,-61.7343444824218,-85.6037216186523,76.75970813196457,15.805881992631926,173466870
sw,-63.0398330688476,-85.2643432617187,83.84940260824793,12.955329584015287,173483537
sw,-64.5470123291015,-85.1493835449218,86.07852293754772,10.755914146596139,173500204
sw,-66.5385818481445,-85.2827529907226,83.75607890465412,9.261902674866821,173516871
sw,-68.2745208740234,-85.629150390625,77.79012715865436,8.04014296254777,173533538
sw,-69.3001098632812,-86.1305160522461,69.6360296173347,6.049214094521467,173550205
sw,-70.4852142333984,-86.4791946411132,61.094339825445026,1.7350094177574826,173566872
sw,-72.3063583374023,-86.4136276245117,53.98418127478631,-6.625139285558597,173583539
sw,-73.5283584594726,-85.8983078002929,49.76736059834416,-20.39644912161672,173600206
sw,-74.2942733764648,-84.7234878540039,49.22144640708435,-40.036990736593815,173616873
sw,-75.248062133789,-82.5238647460937,52.259616764300006,-64.72173796189307,173633540
sw,-76.4460372924804,-79.7090988159179,57.96588606801455,-92.29985334971119,173650207
sw,-77.7690048217773,-76.6604232788086,64.84893746089229,-119.63997819743892,173666874
sw,-79.3209686279296,-73.8042068481445,71.23963337529466,-143.28564438344748,173683541
sw,-81.1368789672851,-71.5028991699218,75.70932316973241,-160.23286408234458,173700208
sw,-82.8807601928711,-69.8649291992187,77.38775852537454,-168.5989396027999,173716875
sw,-84.3417205810546,-68.2737731933593,76.09969948236814,-167.99291176255286,173733542
sw,-85.5876770019531,-66.3460235595703,72.30035789934672,-159.5006199803071,173750209
sw,-86.5710372924804,-64.5048828125,66.8543572581312,-145.31273203257828,173766876
sw,-87.384765625,-63.0853004455566,60.74834983195262,-128.1143569269879,173783543
sw,-88.1248703002929,-61.9987068176269,54.83486464276191,-110.40825555729302,173800210
sw,-88.6971893310546,-61.2171821594238,49.67416879185089,-93.95719289495803,173816877
sw,-88.7365417480468,-60.542667388916,45.490898818956275,-79.49558379238763,173833544
sw,-88.310546875,-60.140941619873,42.218534514479,-66.77583806876596,173850211
sw,-87.7909622192382,-59.7334594726562,39.5860853674609,-54.90655227449792,173866878
sw,-87.2837982177734,-59.232322692871,37.21040746544218,-42.84939966248352,173883545
sw,-86.7961349487304,-58.8846817016601,34.680825625554945,-29.900445006093854,173900212
sw,-86.3203353881836,-58.6981811523437,31.640702802981757,-15.998698047805826,173916879
sw,-85.8522567749023,-58.8887863159179,27.871714032435918,-1.7714732296684177,173933546
sw,-85.3987426757812,-59.6870155334472,23.373049013470727,11.678349522962137,173950213
sw,-84.9573669433593,-60.7781791687011,18.410825308773116,23.14572049278935,173966880
sw,-84.5890502929687,-62.030029296875,13.504836283091727,31.706985036045555,173983547
sw,-84.3527069091796,-63.0439186096191,9.3281918509119,36.97252898165256,174000214
sw,-84.3001708984375,-63.9369010925293,6.521331772879626,39.133749043735,174016881
sw,-84.3598327636718,-64.6747131347656,5.457924536458494,38.820129568321185,174033548
sw,-84.4638519287109,-65.4400482177734,6.031525341096039,36.85480932767874,174050215
sw,-84.4777374267578,-66.3906631469726,7.54185355317067,34.020916595709366,174066882
sw,-84.286880493164,-67.4476013183593,8.738572901184885,30.920661509263613,174083549
sw,-83.9744491577148,-68.3022308349609,8.033180782045442,27.947135575686584,174100216
sw,-83.779182434082,-68.6168823242187,3.8347489626426197,25.334048042595203,174116883
sw,-83.6955947875976,-68.6990127563476,-5.074042848045606,23.232440233176224,174133550
sw,-83.5706329345703,-69.3874588012695,-19.21457302609731,21.782390288662974,174150217
sw,-83.4101638793945,-70.6306457519531,-38.2220782843657,21.165102662508023,174166884
sw,-83.035171508789,-71.459243774414,-60.83493513325574,21.61203559870298,174183551
sw,-81.96923828125,-72.2807235717773,-85.0715219697296,23.33919141137166,174200218
sw,-80.2958297729492,-73.3046264648437,-108.56147101648959,26.4088183458074,174216885
sw,-78.2843933105468,-74.793228149414,-128.9646670003945,30.586289723606257,174233552
sw,-76.4253921508789,-76.1312255859375,-144.39339730137164,35.29273546715195,174250219
sw,-75.045295715332,-77.5257110595703,-153.75016794267145,39.71384163304402,174266886
sw,-73.6806259155273,-79.2794723510742,-156.9048264971832,43.04015929696413,174283553
sw,-72.0568161010742,-80.9482192993164,-154.66399148865665,44.74199852294213,174300220
sw,-70.3937072753906,-82.2428588867187,-148.53352392213645,44.75856554950826,174316887
sw,-68.8837585449218,-83.1415100097656,-140.3290822911153,43.5141456081481,174333554
sw,-67.3766479492187,-83.9681167602539,-131.7329858171089,41.75071088421801,174350221
sw,-65.7965011596679,-84.6674118041992,-123.91169095733956,40.25008127599456,174366888
sw,-64.2259902954101,-85.3229598999023,-117.28799680186975,39.56453568810893,174383555
sw,-62.757095336914,-86.1650848388671,-111.51221932049269,39.860327862062924,174400222
sw,-61.3391304016113,-87.1238403320312,-105.61978580293308,40.91793003154913,174416889
sw,-59.9541244506835,-88.04345703125,-98.32076190109075,42.261636717431415,174433556
sw,-58.6911544799804,-88.7816390991211,-88.34648930400913,43.3445757858123,174450223
sw,-57.6725120544433,-89.2933502197265,-74.77673142662101,43.71101871062684,174466890
sw,-56.9942016601562,-89.3274002075195,-57.28403508928272,43.08897100076416,174483557
sw,-56.6355056762695,-88.8514175415039,-36.2553535380662,41.407738604612746,174500224
sw,-56.409610748291,-88.2704849243164,-12.774732286101422,38.7643034078065,174516891
sw,-56.5288658142089,-87.6934432983398,11.531738366554773,35.370666014893104,174533558
sw,-57.3422393798828,-87.1749954223632,34.770204312651806,31.50695740855331,174550225
sw,-58.6717643737793,-86.6464920043945,55.12419838666018,27.490745955140714,174566892
sw,-60.2224884033203,-86.0976104736328,71.18481655107126,23.657679782484482,174583559
sw,-61.5899009704589,-85.5703048706054,82.16684755272261,20.336846860434452,174600226
sw,-62.7849655151367,-85.1511993408203,87.95162727818473,17.801182472495512,174616893
sw,-64.004524230957,-84.8484725952148,88.97637522721124,16.18318874809984,174633560
sw,-65.683235168457,-84.6729202270507,86.05410813378232,15.367682982900542,174650227
sw,-67.2868423461914,-84.6038131713867,80.2129878353051,14.897025395724688,174666894
sw,-68.5338134765625,-84.5758819580078,72.59483923703978,13.937536960349181,174683561
sw,-69.408203125,-84.4984054565429,64.39533614743736,11.349260516309794,174700228
sw,-70.9247283935546,-84.3784484863281,56.80128990302568,5.873698935956882,174716895
sw,-72.456802368164,-84.2449035644531,50.887725194293225,-3.5859800587906343,174733562
sw,-73.3301010131836,-84.0607299804687,47.46699639028393,-17.655444971509755,174750229
sw,-74.4040374755859,-83.7727890014648,46.924171283497174,-36.23366155208921,174766896
sw,-75.5060348510742,-83.0653381347656,49.106735037760096,-58.36922949267847,174783563
sw,-76.4802780151367,-81.489273071289,53.33217336905973,-82.31782513863716,174800230
sw,-77.5209884643554,-79.1868133544921,58.531368542252125,-105.78675613561951,174816897
sw,-78.9468078613281,-76.5696029663086,63.4923660244227,-126.32508056938785,174833564
sw,-80.6614227294921,-74.1036758422851,67.13601284623388,-141.77583391436096,174850231
sw,-82.1654434204101,-72.01416015625,68.74462107302055,-150.68299761620196,174866898
sw,-83.5203781127929,-70.2733688354492,68.07702956258038,-152.55251941656087,174883565
