Label,Left_Hip_q,Right_Hip_q,Left_Hip_qd,Right_Hip_qd,SampleTimeFine
sw,-86.2365188598632,-66.8996887207031,55.253490447998,-98.6561660766601,4174461620
sw,-87.1724319458007,-65.8350296020507,51.09135063602733,-85.69225909353528,4174478287
sw,-87.8656768798828,-64.9332122802734,46.98019853291498,-79.74556572066398,4174494954
sw,-88.4340286254882,-64.2781066894531,42.99780652218827,-73.72976106048729,4174511621
sw,-88.7994308471679,-63.8040771484375,39.35053578612046,-67.53139890120289,4174528288
sw,-88.7482070922851,-63.4036560058593,36.27958601458288,-60.92289620538639,4174544955
sw,-88.4082412719726,-63.1469573974609,34.02583926413603,-53.611008355339415,4174561622
sw,-88.0161437988281,-62.7788772583007,32.761793777053235,-45.361706805258535,4174578289
sw,-87.6157455444336,-62.4349975585937,32.50578558399617,-36.150852510088384,4174594956
sw,-87.213508605957,-62.4554405212402,33.051265858133604,-26.26529967320687,4174611623
sw,-86.7654800415039,-62.7662620544433,33.94953151266149,-16.293247234667373,4174628290
sw,-86.2219772338867,-63.3260192871093,34.5718474435213,-6.993018648340934,4174644957
sw,-85.5974502563476,-63.9695587158203,34.2497488867599,0.9136748186876658,4174661624
sw,-84.9388732910156,-64.7046508789062,32.460755038602834,6.94726372217853,4174678291
sw,-84.3079452514648,-65.442153930664,29.003272395248054,11.00330520021383,4174694958
sw,-83.7628555297851,-66.0768356323242,24.09908641790017,13.371569388990416,4174711625
sw,-83.3876113891601,-66.6404571533203,18.378088467827332,14.640023374190614,4174728292
sw,-83.1754760742187,-67.217300415039,12.733589935432903,15.521324193458744,4174744959
sw,-83.128677368164,-67.9504852294921,8.077363067125656,16.662647590890995,4174761626
sw,-83.1621856689453,-68.7006530761718,5.058144661386648,18.495025431077288,4174778293
sw,-83.2122192382812,-69.290283203125,3.82391237548903,21.150675944861643,4174794960
sw,-83.2546005249023,-69.6025238037109,3.9007268322928574,24.449522106519503,4174811627
sw,-83.1927185058593,-69.7548904418945,4.23122501882854,27.949405462037756,4174828294
sw,-83.0158462524414,-69.9936981201171,3.3727457689067095,31.061992704875962,4174844961
sw,-82.9127197265625,-71.0144805908203,-0.1886666298667538,33.22961912017414,4174861628
sw,-82.8677139282226,-72.3523178100586,-7.6833514385807895,34.121740815013695,4174878295
sw,-82.7994155883789,-73.0660858154296,-19.747305337698876,33.76966753867266,4174894962
sw,-82.8252639770507,-73.7860717773437,-36.22930937526923,32.56439915226435,4174911629
sw,-82.9085693359375,-74.8726196289062,-56.16160180652059,31.109656386821314,4174928296
sw,-82.491340637207,-76.4903488159179,-77.90138229163063,30.00348645103411,4174944963
sw,-81.3513031005859,-77.9920349121093,-99.41062653552854,29.653526981561164,4174961630
sw,-79.6146011352539,-79.1662063598632,-118.61308983133883,30.196949743879024,4174978297
sw,-77.7204666137695,-80.3772506713867,-133.75684028411285,31.532738529061103,4174994964
sw,-76.2625274658203,-81.6766204833984,-143.7130556477369,33.42412330737931,4175011631
sw,-74.9559478759765,-82.8766632080078,-148.15055404424447,35.60947240899092,4175028298
sw,-73.7028121948242,-83.888557434082,-147.54429716338402,37.868987328103444,4175044965
sw,-72.3597106933593,-84.767333984375,-143.01162094587156,40.026785500828446,4175061632
sw,-71.1070785522461,-85.6956176757812,-136.01674689203364,41.910459928841206,4175078299
sw,-69.7881317138671,-86.7438201904296,-128.023397433801,43.31809563857463,4175094966
sw,-68.2898941040039,-87.8624649047851,-120.18718425496431,44.03543587032325,4175111633
sw,-66.7215499877929,-89.1168518066406,-113.15639726369712,43.9076479733454,4175128300
sw,-65.3135375976562,-90.0,-107.0047880865805,42.92811163315765,4175144967
sw,-64.0690307617187,-89.8953247070312,-101.27983459452352,41.28900319137607,4175161634
sw,-62.8683280944824,-88.8544845581054,-95.1339532091946,39.35492966915846,4175178301
sw,-61.7630729675293,-88.1955032348632,-87.51038836872503,37.55958148427868,4175194968
sw,-60.8117218017578,-87.5961303710937,-77.36324300169652,36.263335315994254,4175211635
sw,-60.0893020629882,-87.0145645141601,-63.89192762995416,35.628090775935135,4175228302
sw,-59.608543395996,-86.3853530883789,-46.764100018540354,35.5589415166754,4175244969
sw,-59.2766914367675,-85.6831665039062,-26.29006204370569,35.736754392903,4175261636
sw,-59.2133712768554,-84.8937377929687,-3.4992722969880172,35.732249183095306,4175278303
sw,-59.6590042114257,-84.0914077758789,19.93159281131232,35.1621379016305,4175294970
sw,-60.6728439331054,-83.3032684326171,41.92253926461058,33.83128531040227,4175311637
sw,-62.1073875427246,-82.5906982421875,60.371909553938266,31.80749758312953,4175328304
sw,-63.6467971801757,-82.0036315917968,73.5796085300643,29.396780771985682,4175344971
sw,-64.9378433227539,-81.5416259765625,80.59022097583386,27.02006695533524,4175361638
sw,-65.9652023315429,-81.2242813110351,81.36564652220083,25.027072612849906,4175378305
sw,-67.5472412109375,-81.0415878295898,76.76260345169206,23.50760283235068,4175394972
sw,-69.1622161865234,-80.8561248779296,68.34302893391833,22.165717008145723,4175411639
sw,-69.9022674560546,-80.5479507446289,58.06230699287006,20.30380530042508,4175428306
sw,-70.0115509033203,-80.1796188354492,47.88830423117402,16.926829986465357,4175444973
sw,-70.3671951293945,-79.99169921875,39.433450465528814,10.936921743274256,4175461640
sw,-71.051040649414,-80.1239700317382,33.70678751175099,1.3648160710804156,4175478307
sw,-72.1849288940429,-80.4799194335937,31.05952387255309,-12.412309936563698,4175494974
sw,-73.214729309082,-80.9104461669921,31.30734404756232,-30.496460346188847,4175511641
sw,-73.7247009277343,-81.0967559814453,33.932732551021154,-52.351606084151285,4175528308
sw,-74.4662322998046,-80.6238250732421,38.26044139400027,-76.75945612349037,4175544975
sw,-75.5685043334961,-79.3198623657226,43.55445161824301,-101.87672187455583,4175561642
sw,-76.706916809082,-77.6293869018554,49.053975103971126,-125.42357238582706,4175578309
sw,-77.8875732421875,-76.1913909912109,54.00269837611155,-145.00695262785553,4175594976
sw,-79.3746795654296,-75.1258926391601,57.71621283886962,-158.53459601329016,4175611643
sw,-80.9936141967773,-74.0612411499023,59.691557864174676,-164.62780393526853,4175628310
sw,-82.4994125366211,-72.784309387207,59.71817633214997,-162.9168175797384,4175644977
sw,-83.6946640014648,-71.2738800048828,57.930990973225526,-154.1192008847215,4175661644
sw,-84.7526016235351,-69.7056045532226,54.76701357787498,-139.86439978463707,4175678311
sw,-85.6938400268554,-68.3832092285156,50.83340226424822,-122.31612911605268,4175694978
sw,-86.4632720947265,-67.1922912597656,46.737941422319075,-103.71335959837093,4175711645
sw,-87.181167602539,-66.1377334594726,42.94839535737601,-85.96264874789861,4175728312
sw,-87.8721084594726,-65.3398666381836,39.728832043832774,-70.3708326502313,4175744979
sw,-88.4576950073242,-64.6969909667968,37.160899423735096,-57.54411649994851,4175761646
sw,-88.7636260986328,-64.1652755737304,35.218443208100446,-47.43470030431868,4175778313
sw,-88.7130584716796,-63.7167320251464,33.84490389043807,-39.49887880795246,4175794980
sw,-88.4546508789062,-63.128189086914,32.991790864208895,-32.9256802870786,4175811647
sw,-88.1308288574218,-62.7987060546875,32.604958987554525,-26.887918131544485,4175828314
sw,-87.8037643432617,-62.7660636901855,32.57670938876738,-20.761540969890326,4175844981
sw,-87.4058761596679,-62.8956184387207,32.700714504358004,-14.266592519772377,4175861648
sw,-86.9194259643554,-63.2564125061035,32.666015798835325,-7.504813170959697,4175878315
sw,-86.3422164916992,-63.8948822021484,32.10753828380144,-0.8937577170934329,4175894982
sw,-85.7229614257812,-64.6871490478515,30.702829065726227,4.981446956020613,4175911649
sw,-85.1414718627929,-65.5126953125,28.280851896742845,9.558762379911048,4175928316
sw,-84.6502380371093,-66.3081359863281,24.899465991275637,12.479857434362941,4175944983
sw,-84.2599716186523,-66.9470520019531,20.85734334824229,13.712017436079423,4175961650
sw,-83.9941329956054,-67.7146682739257,16.628690127156574,13.583378829676617,4175978317
sw,-83.8370971679687,-68.4720611572265,12.73517532040369,12.727157990305152,4175994984
sw,-83.699234008789,-69.0933303833007,9.588912555103377,11.945162890147968,4176011651
sw,-83.5395355224609,-69.5000457763671,7.347191015208377,12.011385943326605,4176028318
sw,-83.3856582641601,-69.6398162841796,5.813952291289729,13.455177112766867,4176044985
sw,-83.3399124145507,-69.6763381958007,4.4106332319651065,16.38892968957957,4176061652
sw,-83.3611450195312,-69.7507247924804,2.2272858056893514,20.45640903882188,4176078319
sw,-83.3513793945312,-70.5945510864257,-1.844212005467405,24.949782635045565,4176094986
sw,-83.2991409301757,-72.052749633789,-8.90450835069076,29.07145415157076,4176111653
sw,-83.1735534667968,-73.0296783447265,-19.796428890033713,32.234242002491214,4176128320
sw,-83.0825576782226,-73.5872344970703,-34.85768644958823,34.259274117205706,4176144987
sw,-82.7479171752929,-74.3770675659179,-53.7351150630872,35.380821190058796,4176161654
sw,-81.6151733398437,-75.7065811157226,-75.31343601396681,36.071820177484625,4176178321
sw,-79.7391967773437,-77.3288421630859,-97.79375675633284,36.79121411739109,4176194988
sw,-77.7370376586914,-78.6834487915039,-118.93380556145597,37.776011211725915,4176211655
sw,-76.3795852661132,-79.8757400512695,-136.43152960416606,38.96274272923995,4176228322
sw,-75.4229049682617,-81.277961730957,-148.3894640102664,40.05759241986184,4176244989
sw,-74.2897109985351,-82.7985153198242,-153.74734918422163,40.709921451223266,4176261656
sw,-72.830940246582,-84.2249755859375,-152.54526419122843,40.70077693283498,4176278323
sw,-71.362564086914,-85.3173828125,-145.9101160577604,40.05444504302336,4176294990
sw,-70.0799102783203,-86.1563110351562,-135.74639248750313,39.022718119804885,4176311657
sw,-68.8671951293945,-86.9557342529296,-124.2214531474279,37.95859186650112,4176328324
sw,-67.5970230102539,-87.7301406860351,-113.21152072996634,37.15125340034838,4176344991
sw,-66.2061920166015,-88.548957824707,-103.87798710460613,36.70724952988617,4176361658
sw,-64.9195098876953,-89.6103363037109,-96.47854827224398,36.5303837083137,4176378325
sw,-63.7935371398925,-90.0,-90.42668367137107,36.39818077338461,4176394992
sw,-62.6727981567382,-89.1762313842773,-84.54278277707401,36.087270138204914,4176411659
sw,-61.5304374694824,-88.3476791381836,-77.40933112988337,35.484530487392256,4176428326
sw,-60.5474090576171,-87.6224899291992,-67.7418837494555,34.63634380111983,4176444993
sw,-59.9322204589843,-86.975601196289,-54.70308821013493,33.720772874870704,4176461660
sw,-59.6605415344238,-86.4255447387695,-38.11166282713974,32.959912867145434,4176478327
sw,-59.5664138793945,-85.9203338623046,-18.52454697624728,32.511050415098026,4176494994
sw,-59.6954917907714,-85.4223480224609,2.8122189633007078,32.38129239364246,4176511661
sw,-60.228157043457,-84.8320693969726,24.14126602224364,32.40070002398974,4176528328
sw,-61.2626876831054,-84.1590728759765,43.48617318986599,32.26670352645946,4176544995
sw,-62.7438125610351,-83.5108261108398,59.01434048496614,31.64495414461492,4176561662
sw,-64.1982192993164,-82.8232116699218,69.38927997236485,30.289023721958202,4176578329
sw,-65.2677536010742,-82.1656417846679,74.01915778082963,28.131927670798586,4176594996
sw,-66.1220779418945,-81.6283874511718,73.1427554135259,25.30899648486601,4176611663
sw,-67.7246704101562,-81.224365234375,67.7533488058722,22.09180476986372,4176628330
sw,-69.2871551513671,-80.9987258911132,59.39844131423724,18.74209095313791,4176644997
sw,-69.8888244628906,-81.0009460449218,49.89340753120953,15.3264752563855,4176661664
sw,-70.0173797607421,-81.1944885253906,40.986895434843085,11.55804423765093,4176678331
sw,-70.4568710327148,-81.4159698486328,34.04544574928595,6.737852760648818,4176694998
sw,-71.2106399536132,-81.5485534667968,29.851105713789966,-0.15167202887246822,4176711665
sw,-72.311279296875,-81.6138153076171,28.574738512892583,-10.198153442616187,4176728332
sw,-73.133804321289,-81.73291015625,29.905648441408808,-24.212274058890312,4176744999
sw,-73.663703918457,-81.8093109130859,33.250010817966434,-42.38421806098895,4176761666
sw,-74.5295104980468,-81.4821701049804,37.90569565349429,-64.05515588019797,4176778333
sw,-75.7571563720703,-80.3807601928711,43.16945551471361,-87.6867139365781,4176795000
sw,-76.9551010131836,-78.7605514526367,48.38780907329151,-111.05627812330411,4176811667
sw,-78.0978698730468,-77.1961288452148,52.98827593847086,-131.642345326668,4176828334
sw,-79.431770324707,-75.803466796875,56.51800564018728,-147.10996380501012,4176845001
sw,-80.9487838745117,-74.465103149414,58.690374998143604,-155.77686206388714,4176861668
sw,-82.3667373657226,-73.1541442871093,59.41790229164871,-156.9443324191226,4176878335
sw,-83.5254592895507,-71.6548080444336,58.80542278628079,-151.0117639172051,4176895002
sw,-84.6369934082031,-69.8879089355468,57.094159919328526,-139.35032595606404,4176911669
sw,-85.728042602539,-68.3566360473632,54.5754175202495,-123.97447002765199,4176928336
sw,-86.6858901977539,-67.1300201416015,51.51237840809127,-107.10167523868178,4176945003
sw,-87.5367736816406,-66.0075607299804,48.10447321635597,-90.7152635301881,4176961670
sw,-88.2208404541015,-65.0298461914062,44.5033864641529,-76.23368913971596,4176978337
sw,-88.6810684204101,-64.2739486694336,40.86036287367572,-64.34786558439394,4176995004
sw,-88.7191619873046,-63.6500434875488,37.368428356419535,-55.03603412924695,4177011671
sw,-88.4547805786132,-63.1701202392578,34.26713869469402,-47.724707932286584,4177028338
sw,-88.1333465576171,-62.7475547790527,31.79760504310267,-41.54075779099602,4177045005
sw,-87.833999633789,-62.3143920898437,30.122184806883066,-35.58845676829116,4177061672
sw,-87.5288391113281,-62.1927108764648,29.24462696882367,-29.185044917462758,4177078339
sw,-87.1560668945312,-62.3195877075195,28.972098207547944,-22.00478399584387,4177095006
sw,-86.6639938354492,-62.6511459350585,28.946173611769883,-14.113417985187263,4177111673
sw,-86.0757446289062,-63.2157363891601,28.741051531897316,-5.907494075978891,4177128340
sw,-85.501594543457,-63.928611755371,27.99704026064413,2.0094166656874073,4177145007
sw,-84.9593200683593,-64.7167663574218,26.53988428918339,8.979939398307813,4177161674
sw,-84.4792709350586,-65.5060577392578,24.43955918462511,14.446657900319078,4177178341
sw,-84.0971755981445,-66.3573760986328,21.98354128548178,18.082113062111045,4177195008
sw,-83.8078002929687,-67.2692718505859,19.569553985509028,19.8744612958798,4177211675
sw,-83.6072082519531,-68.1558456420898,17.550144694377906,20.150818078568637,4177228342
sw,-83.4181365966796,-68.9810485839843,16.077321381428444,19.523049075581483,4177245009
sw,-83.1545639038086,-69.6253509521484,14.994935431089402,18.750834209880274,4177261676
sw,-82.8585357666015,-69.9634323120117,13.810114273198757,18.5414157769081,4177278343
sw,-82.5842895507812,-70.1003189086914,11.750266125340191,19.33975217303295,4177295010
sw,-82.418228149414,-70.1706848144531,7.89055697151839,21.187439872415027,4177311677
sw,-82.3975753784179,-70.7914657592773,1.326382659833225,23.719776341199363,4177328344
sw,-82.3760452270507,-71.7736892700195,-8.635390728512297,26.31685014516826,4177345011
sw,-82.3150482177734,-72.5218963623046,-22.292691218848418,28.346989531552634,4177361678
sw,-82.3204193115234,-73.0162811279296,-39.40355417766724,29.389097898198653,4177378345
sw,-82.1959152221679,-73.8266296386718,-59.11776591379042,29.335831441460904,4177395012
sw,-81.4211196899414,-74.9610061645507,-80.01796850523753,28.35322089262178,4177411679
sw,-79.9874191284179,-76.4512252807617,-100.28584476738033,26.7507998221143,4177428346
sw,-78.367431640625,-77.6611633300781,-117.98368550144167,24.850654467965825,4177445013
sw,-77.1307983398437,-78.6221542358398,-131.41225731837832,22.923752287381316,4177461680
sw,-76.1460800170898,-79.6784896850586,-139.47144451163535,21.20928454371198,4177478347
sw,-75.0833969116211,-80.7419281005859,-141.91965123594173,19.97874008901892,4177495014
sw,-73.8319473266601,-81.6509475708007,-139.42803939915115,19.57705918124684,4177511681
sw,-72.635513305664,-82.2777023315429,-133.37897279789325,20.383955844740107,4177528348
sw,-71.5317230224609,-82.6641769409179,-125.45357950390601,22.687533135370106,4177545015
sw,-70.3705062866211,-83.243782043457,-117.14488044764515,26.523910111201285,4177561682
sw,-69.0284805297851,-84.0633087158203,-109.36814289208819,31.57057990264956,4177578349
sw,-67.5533142089843,-85.022834777832,-102.29644134862042,37.16234493727646,4177595016
sw,-66.0947570800781,-86.1477127075195,-95.45104991306076,42.439050070595,4177611683
sw,-64.7447738647461,-87.3197860717773,-87.97780162962995,46.57268489889039,4177628350
sw,-63.4830093383789,-88.4655838012695,-78.98809663541452,48.99073086590615,4177645017
sw,-62.3698120117187,-90.0,-67.84808827889957,49.520479553545975,4177661684
sw,-61.5778160095214,-90.0,-54.34388066586012,48.41251395081652,4177678351
sw,-61.2302169799804,-88.8480072021484,-38.7090076843387,46.24225025263553,4177695018
sw,-61.2358016967773,-88.0505752563476,-21.55164936324027,43.723607170095995,4177711685
sw,-61.4539794921875,-87.3999252319336,-3.744712133480746,41.492869266835875,4177728352
sw,-61.7780227661132,-86.7867965698242,13.669564433701328,39.93000148231215,4177745019
sw,-62.2665748596191,-86.1605911254882,29.550349137066565,39.074690819460514,4177761686
sw,-63.0790939331054,-85.3790817260742,42.7364952179607,38.66393731559203,4177778353
sw,-64.2793655395507,-84.4949111938476,52.173889674300966,38.273935890905285,4177795020
sw,-65.6568298339843,-83.5921020507812,57.09945769893118,37.50704445635575,4177811687
sw,-66.7422637939453,-82.7964172363281,57.237516440981565,36.14410110721664,4177828354
sw,-67.4487380981445,-82.1661148071289,52.93626857106204,34.19569808177313,4177845021
sw,-68.6040420532226,-81.7334747314453,45.18792035899017,31.82978717264868,4177861688
sw,-69.9154968261718,-81.4509658813476,35.514269355580865,29.207653292410043,4177878355
sw,-70.3871994018554,-81.1406860351562,25.729689123525304,26.300088074623716,4177895022
sw,-70.2682266235351,-80.7591400146484,17.616051375721906,22.76241205475312,4177911689
sw,-70.4457092285156,-80.5520858764648,12.578043141954597,17.92064007223425,4177928356
sw,-70.7076187133789,-80.4391021728515,11.37926786836265,10.878593578219096,4177945023
sw,-71.0944366455078,-80.4195709228515,14.048308056436342,0.7183251262587335,4177961690
sw,-71.9359664916992,-80.6989822387695,19.978758912832955,-13.254681517136685,4177978357
sw,-72.8277130126953,-81.1814270019531,28.16584978278904,-31.274749640728267,4177995024
sw,-73.2159271240234,-81.483413696289,37.47263581732,-52.93588238972166,4178011691
sw,-73.8766784667968,-81.1540451049804,46.8275595128164,-77.1099372474335,4178028358
sw,-75.1283187866211,-80.009536743164,55.316282109386854,-101.99972888542067,4178045025
sw,-76.7433547973632,-78.3548507690429,62.201698467134996,-125.35061057523909,4178061692
sw,-78.2511901855468,-76.7857208251953,66.93559611509043,-144.80881484818156,4178078359
sw,-79.7872619628906,-75.4908370971679,69.19920988804924,-158.36024304939085,4178095026
sw,-81.4749984741211,-74.2503128051757,68.95961943961217,-164.73638492113,4178111693
sw,-83.1127166748046,-72.9762191772461,66.49607607232616,-163.6656155554583,4178128360
sw,-84.2200927734375,-71.4409484863281,62.35418536373629,-155.8898130657014,4178145027
sw,-85.0873336791992,-69.7379150390625,57.22116805494033,-142.94338339192578,4178161694
sw,-85.9010772705078,-68.1890411376953,51.76156081123848,-126.77101881955954,4178178361
sw,-86.5639038085937,-66.8337631225586,46.480739701352036,-109.30666301158072,4178195028
sw,-87.0992355346679,-65.671760559082,41.671733309415266,-92.13167249297295,4178211695
sw,-87.408218383789,-64.6749649047851,37.45416435145602,-76.2839961378492,4178228362
sw,-87.4559326171875,-63.8819122314453,33.86382907427014,-62.23003412447645,4178245029
sw,-87.3529968261718,-63.1937446594238,30.929254008545797,-49.964741793398794,4178261696
sw,-87.2541275024414,-62.507827758789,28.68821702624781,-39.18501981861721,4178278363
sw,-87.175552368164,-61.9485473632812,27.13939585557586,-29.480085983730177,4178295030
sw,-87.0731048583984,-61.6436614990234,26.166164473542924,-20.49054432163218,4178311697
sw,-86.9033889770507,-61.6861381530761,25.488240648520843,-12.003302728946668,4178328364
sw,-86.6294860839843,-61.9241981506347,24.68441727041888,-3.973069224789991,4178345031
sw,-86.2573852539062,-62.413272857666,23.294987601408707,3.513799145550187,4178361698
sw,-85.8523483276367,-63.1301612854003,20.973855286826712,10.302311385822671,4178378365
sw,-85.4606704711914,-63.8655700683593,17.63438605865219,16.227875728574066,4178395032
sw,-85.1365127563476,-64.6580123901367,13.528747301903257,21.151084092567377,4178411699
sw,-84.9245300292968,-65.4355697631836,9.218184899192936,24.963371058179373,4178428366
sw,-84.8621826171875,-66.2571258544921,5.425315572457833,27.57493425106171,4178445033
sw,-84.9453811645507,-67.1690597534179,2.799064011572708,28.907193947759634,4178461700
sw,-85.0751876831054,-68.1506423950195,1.65637409296758,28.909139295498232,4178478367
sw,-85.1528549194336,-68.9706878662109,1.7805299987684635,27.598722526690153,4178495034
sw,-85.1433639526367,-69.4813537597656,2.346576667627352,25.109551634262633,4178511701
sw,-85.1179733276367,-69.7033615112304,2.011958984399849,21.717791555074392,4178528368
sw,-85.0478134155273,-69.9042282104492,-0.8335542327310284,17.839004238831805,4178545035
sw,-84.8890609741211,-70.3903579711914,-7.706445548958565,14.001901361926224,4178561702
sw,-84.4811859130859,-71.1541366577148,-19.634767046434426,10.804467475285545,4178578369
sw,-83.8268890380859,-71.4728164672851,-36.82340434825191,8.842218465264262,4178595036
sw,-82.9810562133789,-71.5594711303711,-58.46847007860109,8.598301763454417,4178611703
sw,-81.5838546752929,-72.1546020507812,-82.78376584493452,10.31673173475713,4178628370
sw,-79.4978256225586,-73.2628707885742,-107.25655628800911,13.916318525003886,4178645037
sw,-77.2227706909179,-74.4541702270507,-129.09569329162872,19.00056128146491,4178661704
sw,-75.4866027832031,-75.7598266601562,-145.78429716607408,24.970915596967753,4178678371
sw,-73.9183120727539,-77.1859436035156,-155.61015934457424,31.194552979838335,4178695038
sw,-72.2746276855468,-78.5179290771484,-158.03181151890612,37.15266945228785,4178711705
sw,-70.5750579833984,-79.6837844848632,-153.76449131581666,42.51192207629724,4178728372
sw,-69.0725860595703,-80.8543014526367,-144.54525093473364,47.10466156257978,4178745039
sw,-67.7972030639648,-82.1050872802734,-132.64049524818785,50.84816695344135,4178761706
sw,-66.5327072143554,-83.3528823852539,-120.24929922603667,53.65657637380299,4178778373
sw,-65.1314163208007,-84.6307830810546,-108.98781884618532,55.39386167337072,4178795040
sw,-63.7092514038085,-85.8761215209961,-99.59702769572306,55.891077085907924,4178811707
sw,-62.4002418518066,-87.0064392089843,-91.92306498466503,55.02060938121278,4178828374
sw,-61.1968345642089,-88.0746154785156,-85.12672526983985,52.794302206419935,4178845041
sw,-60.0415153503418,-88.9047927856445,-78.02382547399633,49.4380317763335,4178861708
sw,-59.0254020690918,-89.2196578979492,-69.4478432574805,45.399202379683466,4178878375
sw,-58.2968940734863,-89.0033798217773,-58.547588849923976,41.26830828461731,4178895042
sw,-57.954605102539,-88.6339874267578,-44.97095354182545,37.63353459766955,4178911709
sw,-57.7233695983886,-88.1759719848632,-28.926020875643133,34.92049818295332,4178928376
sw,-57.6359596252441,-87.6100082397461,-11.136470378197316,33.27940812333425,4178945043
sw,-57.9502334594726,-86.9858474731445,7.287590506516535,32.56325908048913,4178961710
sw,-58.6824111938476,-86.2954559326171,25.045557935609057,32.403408325147645,4178978377
sw,-59.7703704833984,-85.5036010742187,40.88102581935447,32.351028421845704,4178995044
sw,-61.0010757446289,-84.7204360961914,53.803481661880035,32.029305726086925,4179011711
sw,-62.1591415405273,-84.0695495605468,63.233512414688015,31.239334240865492,4179028378
sw,-63.1936340332031,-83.5669708251953,69.03143418516643,29.9826926671106,4179045045
sw,-64.1258087158203,-83.1434478759765,71.42097767233666,28.39752916977694,4179061712
sw,-65.2543563842773,-82.687271118164,70.86547035992197,26.636911699038965,4179078379
sw,-66.6677474975586,-82.2562866210937,67.96029849312929,24.733766021527455,4179095046
sw,-67.9835510253906,-81.9133529663086,63.36896687871489,22.493396160122614,4179111713
sw,-68.883560180664,-81.7673263549804,57.78421726705336,19.44202706612175,4179128380
sw,-69.4828567504882,-81.705207824707,51.88257922926154,14.848378868812876,4179145047
sw,-70.2221145629882,-81.6539764404296,46.268366720097035,7.825844055602323,4179161714
sw,-71.2526016235351,-81.7311019897461,41.43415420921858,-2.4904628290228894,4179178381
sw,-72.4309692382812,-81.9575881958007,37.758807273002326,-16.716510996913204,4179195048
sw,-73.2003479003906,-82.2286758422851,35.52693291343356,-34.98552315394847,4179211715
sw,-73.6328887939453,-82.2695007324218,34.92958020104317,-56.76275490990111,4179228382
sw,-74.3210754394531,-81.5953369140625,36.024069775489515,-80.76624577404957,4179245049
sw,-75.3556594848632,-80.1269760131836,38.673111252832854,-105.04127591471638,4179261716
sw,-76.5364303588867,-78.2289962768554,42.509593663267125,-127.2094324304443,4179278383
sw,-77.6579513549804,-76.3987274169921,46.96344412725213,-144.86668266466998,4179295050
sw,-78.8872375488281,-74.8095626831054,51.353806953055674,-156.05003437781102,4179311717
sw,-80.2532501220703,-73.4007949829101,55.01890540530599,-159.65378521933698,4179328384
sw,-81.6127166748046,-71.8970718383789,57.44174219561759,-155.67583484413382,4179345051
sw,-82.840591430664,-70.3167572021484,58.33343401922913,-145.21621660970445,4179361718
sw,-83.9748458862304,-68.7963256835937,57.65405301051293,-130.22012456401842,4179378385
sw,-85.065803527832,-67.5339660644531,55.576423952583426,-113.03311896133656,4179395052
sw,-86.0365676879882,-66.3817977905273,52.418736544336305,-95.89162388462765,4179411719
sw,-86.8464431762695,-65.376106262207,48.57588599032576,-80.4868204435709,4179428386
sw,-87.5184020996093,-64.5213928222656,44.46720965385687,-67.7092455171103,4179445053
sw,-88.0507736206054,-63.8096084594726,40.49998830130098,-57.62020728498964,4179461720
sw,-88.3888092041015,-63.2008628845214,37.035476319685316,-49.63034856720481,4179478387
sw,-88.5017166137695,-62.594627380371,34.34442539803368,-42.81386838326401,4179495054
sw,-88.4526290893554,-61.9924774169921,32.55198582834413,-36.2561959869513,4179511721
sw,-88.3000411987304,-61.8024139404296,31.589608391328518,-29.32953153062665,4179528388
sw,-88.0220718383789,-61.9229469299316,31.182129697727,-21.822451138379016,4179545055
sw,-87.6062469482421,-62.1257629394531,30.89304505538396,-13.91060966720491,4179561722
sw,-87.1004486083984,-62.5163955688476,30.23054930825657,-6.015762172099943,4179578389
sw,-86.552017211914,-63.0010795593261,28.790445615615038,1.3726928127576599,4179595056
sw,-85.9892654418945,-63.6044158935546,26.3919145951983,7.850512110125181,4179611723
sw,-85.51123046875,-64.2152404785156,23.157586106068162,13.190056618670726,4179628390
sw,-85.1613082885742,-64.8891372680664,19.502803220632366,17.35946534969367,4179645057
sw,-84.895278930664,-65.6327209472656,16.026075054312184,20.478488471607914,4179661724
sw,-84.7009887695312,-66.4017791748046,13.3241230726657,22.736813764100198,4179678391
sw,-84.5785217285156,-67.3066787719726,11.779836254869949,24.310024711645884,4179695058
sw,-84.4637069702148,-68.2350387573242,11.382345334258536,25.304323681053557,4179711725
sw,-84.3274307250976,-69.0315246582031,11.633264861692764,25.745159261414674,4179728392
sw,-84.1584320068359,-69.7000579833984,11.573969038959676,25.605893249838985,4179745059
sw,-83.9810638427734,-70.2970886230468,9.939856288509288,24.861462726549107,4179761726
sw,-83.545181274414,-70.8322372436523,5.4147905814392425,23.55183225350075,4179778393
sw,-83.1704788208007,-71.7056121826171,-3.0702070569113973,21.84184919715143,4179795060
sw,-82.9867553710937,-72.6931457519531,-16.0657598213051,20.05695424467951,4179811727
sw,-82.8130722045898,-73.0126724243164,-33.4260328229451,18.663821461576802,4179828394
sw,-82.3842391967773,-73.2555999755859,-54.26242527848893,18.17462828236558,4179845061
sw,-81.36962890625,-73.8878707885742,-77.03444611251571,18.99381466508489,4179861728
sw,-79.7032165527343,-74.9725570678711,-99.75908314239669,21.270411862127858,4179878395
sw,-77.7121887207031,-76.2903518676757,-120.30761896753214,24.828415994660958,4179895062
sw,-76.0851974487304,-77.7191543579101,-136.74870436124775,29.213724689550677,4179911729
sw,-74.9158401489257,-79.1895523071289,-147.6812168027881,33.84201905241031,4179928396
sw,-73.6612243652343,-80.5336990356445,-152.4855053923009,38.185097222394774,4179945063
sw,-72.1601028442382,-81.6498184204101,-151.42246591731845,41.91396077943866,4179961730
sw,-70.6338348388671,-82.7826766967773,-145.53890949085869,44.93718752253784,4179978397
sw,-69.244758605957,-83.8969039916992,-136.39260788248805,47.32559438713644,4179995064
sw,-67.8740234375,-84.9386444091796,-125.67125176823343,49.17115523502753,4180011731
sw,-66.4444198608398,-85.9264755249023,-114.81653823581469,50.45934810526841,4180028398
sw,-65.0049057006836,-86.9586944580078,-104.75651895672912,51.024916308957465,4180045065
sw,-63.6601295471191,-88.0521774291992,-95.80134206432548,50.61682657910684,4180061732
sw,-62.4436874389648,-89.3297271728515,-87.69825646901586,49.040663942312385,4180078399
sw,-61.3221817016601,-90.0,-79.79976859063775,46.304993434872834,4180095066
sw,-60.280963897705,-89.5102157592773,-71.28402564063987,42.69440017111264,4180111733
sw,-59.4381523132324,-88.7757110595703,-61.37291183576598,38.727864559247884,4180128400
sw,-58.9285430908203,-88.2592010498046,-49.511280668669656,35.0170375788224,4180145067
sw,-58.6400756835937,-87.7422409057617,-35.49113262352805,32.0849231019112,4180161734
sw,-58.45556640625,-87.1682815551757,-19.517797405015994,30.21900955157762,4180178401
sw,-58.6063346862793,-86.5131683349609,-2.21593433593855,29.411430008381444,4180195068
sw,-59.143569946289,-85.8367004394531,15.431639384064711,29.398012617657624,4180211735
sw,-59.9677925109863,-85.1640625,32.21488352563497,29.769614183572855,4180228402
sw,-61.0220985412597,-84.4941253662109,46.88120543001921,30.107827991004992,4180245069
sw,-62.2221069335937,-83.862564086914,58.33752656427137,30.0968401835176,4180261736
sw,-63.3944358825683,-83.2954177856445,65.82789452846126,29.57898544571685,4180278403
sw,-64.4626998901367,-82.8062591552734,69.05730289114395,28.544507143691987,4180295070
sw,-65.8116226196289,-82.4031982421875,68.24988025318919,27.067147208048908,4180311737
sw,-67.5150985717773,-82.088752746582,64.13455852180736,25.21011591962126,4180328404
sw,-68.8609466552734,-81.7750091552734,57.84205375798195,22.92971333868172,4180345071
sw,-69.5022811889648,-81.4889907836914,50.69887700742348,19.998958580191324,4180361738
sw,-69.746711730957,-81.3206100463867,43.945197056869056,15.96681825770087,4180378405
sw,-70.1758880615234,-81.3717880249023,38.46830282295885,10.165849950191182,4180395072
sw,-71.0458908081054,-81.567626953125,34.669898468462094,1.783131058688298,4180411739
sw,-72.5071640014648,-81.8562088012695,32.5280867362168,-9.99112853085377,4180428406
sw,-73.5274581909179,-82.0436477661132,31.80398821533767,-25.737045502116857,4180445073
sw,-73.8965454101562,-81.9428558349609,32.26275108165172,-45.53251344805267,4180461740
sw,-74.3897628784179,-81.2442855834961,33.78800686708732,-68.70685785722148,4180478407
sw,-75.3011932373046,-79.8716201782226,36.35098878573452,-93.71975084843767,4180495074
sw,-76.2981796264648,-78.0814590454101,39.884398280281644,-118.25531352583175,4180511741
sw,-77.3207473754882,-76.3255004882812,44.15400703888419,-139.56667259717418,4180528408
sw,-78.5186691284179,-74.8148956298828,48.70861541773897,-155.01923408976785,4180545075
sw,-79.9505233764648,-73.4053039550781,52.939811808164905,-162.6947072490153,4180561742
sw,-81.4089965820312,-72.0718841552734,56.22416943920935,-161.87080994029375,4180578409
sw,-82.7171401977539,-70.6896820068359,58.08097849426754,-153.21132456853042,4180595076
sw,-83.8184509277343,-69.2947845458984,58.277278873117616,-138.5909045425697,4180611743
sw,-84.8486251831054,-68.0152740478515,56.84562202533192,-120.60666207184934,4180628410
sw,-85.7486724853515,-66.9074325561523,54.026495872847285,-101.93621567874503,4180645077
sw,-86.5223922729492,-65.8796005249023,50.18006277532062,-84.74122999254965,4180661744
sw,-87.1587600708007,-65.0960540771484,45.71412851716166,-70.27862284232415,4180678411
sw,-87.6248016357421,-64.4752120971679,41.04959825024512,-58.79825784821232,4180695078
sw,-87.8788299560546,-63.8404273986816,36.61091864744441,-49.715656464208564,4180711745
sw,-87.9337005615234,-63.1993942260742,32.81008714731752,-41.976655174114306,4180728412
sw,-87.8780975341796,-62.4096374511718,29.999250284159032,-34.48780764764797,4180745079
sw,-87.7842407226562,-61.977668762207,28.39217819558757,-26.478524975727833,4180761746
sw,-87.6635131835937,-62.0127716064453,27.982156776278867,-17.695869612409098,4180778413
sw,-87.4735336303711,-62.2934913635253,28.496992279216855,-8.403328619001352,4180795080
sw,-87.1617965698242,-62.8335952758789,29.424079321693743,0.7717541923293423,4180811747
sw,-86.7229690551757,-63.4499359130859,30.114210371818032,9.059403506007012,4180828414
sw,-86.2049102783203,-64.1823501586914,29.94309694806755,15.762270736963028,4180845081
sw,-85.6688537597656,-65.0879745483398,28.48611715834562,20.4214574279187,4180861748
sw,-85.14501953125,-65.9153137207031,25.652722116292516,22.91465258775564,4180878415
sw,-84.7228927612304,-66.6405944824218,21.735008812081258,23.4793789546439,4180895082
sw,-84.409423828125,-67.4362716674804,17.347657739605985,22.661617529743683,4180911749
sw,-84.2308883666992,-68.3007431030273,13.267056993378034,21.20147419561242,4180928416
sw,-84.125373840332,-68.9472274780273,10.206923565296488,19.877483712554294,4180945083
sw,-84.0406646728515,-69.3282318115234,8.587081597281742,19.335103026247197,4180961750
sw,-83.9286270141601,-69.5327758789062,8.355521310640086,19.929955991940822,4180978417
sw,-83.790412902832,-69.6084442138671,8.911517439203664,21.628533666583614,4180995084
sw,-83.6805953979492,-69.7750778198242,9.15504633991245,24.016697107974807,4181011751
sw,-83.5993270874023,-70.7818222045898,7.66226647696622,26.445186248119718,4181028418
sw,-83.4449844360351,-72.1389465332031,2.9624419385657794,28.281440235579105,4181045085
sw,-83.1947326660156,-72.9456329345703,-6.131529607699952,29.167502518749426,4181061752
sw,-82.9868392944336,-73.577278137207,-20.207189611155275,29.16100321513512,4181078419
sw,-82.7868957519531,-74.6023864746093,-39.028381998670625,28.69034203622126,4181095086
sw,-82.2639846801757,-76.0447006225586,-61.46710947171058,28.352345068648617,4181111753
sw,-81.0552139282226,-77.5833206176757,-85.62040607274261,28.654161012122184,4181128420
sw,-79.4189987182617,-78.7460403442382,-109.0978611108468,29.813338459693714,4181145087
sw,-77.573745727539,-79.8519668579101,-129.429162651344,31.690553766226333,4181161754
sw,-76.0711822509765,-81.1625823974609,-144.51524502483656,33.868164391956505,4181178421
sw,-74.7648849487304,-82.5903167724609,-153.02844733884714,35.82972818940433,4181195088
sw,-73.2613220214843,-83.9101181030273,-154.66291360726063,37.15842696168605,4181211755
sw,-71.6581726074218,-84.9892120361328,-150.16092790804112,37.670073082181034,4181228422
sw,-70.2368011474609,-85.9430541992187,-141.0982342613925,37.43329091859954,4181245089
sw,-68.9904022216796,-86.9246444702148,-129.48441185707543,36.68802997815015,4181261756
sw,-67.7386779785156,-87.8413391113281,-117.29233119601106,35.71951118409699,4181278423
sw,-66.4214859008789,-88.7518081665039,-106.04647522206541,34.75274603875519,4181295090
sw,-65.1340942382812,-90.0,-96.56687030856982,33.90606400199047,4181311757
sw,-64.0128860473632,-90.0,-88.90438949521783,33.20457992391811,4181328424
sw,-63.0037422180175,-89.8573455810546,-82.44772159097336,32.628562553704185,4181345091
sw,-62.0540924072265,-88.7734756469726,-76.15202505744723,32.164725318771865,4181361758
sw,-61.1857376098632,-88.0185089111328,-68.83072634556123,31.83577890423608,4181378425
sw,-60.4781036376953,-87.3347930908203,-59.452824237006055,31.697274493271117,4181395092
sw,-59.9731063842773,-86.7083053588867,-47.392906767947,31.805415621960055,4181411759
sw,-59.6931915283203,-86.1174850463867,-32.59120042297213,32.17154017173623,4181428426
sw,-59.6869735717773,-85.4981079101562,-15.597219600715514,32.72468787482872,4181445093
sw,-60.0019302368164,-84.81103515625,2.5087120502908205,33.300566664617335,4181461760
sw,-60.5943374633789,-84.0601348876953,20.299065938030086,33.66450415571562,4181478427
sw,-61.44189453125,-83.3499984741211,36.249834853812594,33.56265597845763,4181495094
sw,-62.4886627197265,-82.681396484375,49.007024336995876,32.78604491072985,4181511761
sw,-63.6474380493164,-82.0439682006836,57.61694092665089,31.229369592833397,4181528428
sw,-64.6566085815429,-81.453628540039,61.68117550944263,28.929438964555978,4181545095
sw,-65.5310287475586,-80.9095840454101,61.41871304324949,26.072293281836718,4181561762
sw,-66.835952758789,-80.44677734375,57.6364565155035,22.961219967844407,4181578429
sw,-68.3230514526367,-80.0652999877929,51.61256826477151,19.941570387497094,4181595096
sw,-69.2071914672851,-79.7555084228515,44.88782221212852,17.285885282066673,4181611763
sw,-69.3873596191406,-79.6125335693359,38.96806333714446,15.056107815480253,4181628430
sw,-69.4684829711914,-79.7395248413086,34.98928736817047,12.976762165980508,4181645097
sw,-69.8693466186523,-79.9249877929687,33.457764960429465,10.367133799850109,4181661764
sw,-70.6178665161132,-80.0734252929687,34.185334373527716,6.180566110511162,4181678431
sw,-72.0519485473632,-80.2295608520507,36.46253247625171,-0.8237537269005512,4181695098
sw,-73.3894424438476,-80.4902725219726,39.39251306103062,-11.793000481845748,4181711765
sw,-74.0122833251953,-80.8468933105468,42.22872819195401,-27.437556855219295,4181728432
sw,-74.7574386596679,-81.0650558471679,44.57276569285863,-47.72176577918335,4181745099
sw,-75.9026489257812,-80.870491027832,46.380942208618315,-71.68206016087098,4181761766
sw,-77.13623046875,-80.1381759643554,47.83107124728153,-97.44403945796688,4181778433
sw,-78.2600936889648,-79.1040954589843,49.15043774277024,-122.4636013159311,4181795100
sw,-79.4262771606445,-78.0533981323242,50.489499225521875,-143.9553004751129,4181811767
sw,-80.7565460205078,-76.8341751098632,51.8738794998539,-159.41375282351552,4181828434
sw,-82.1087265014648,-75.4263534545898,53.2178950495953,-167.10256534351356,4181845101
sw,-83.3058471679687,-73.9215240478515,54.35977246144771,-166.3899493090108,4181861768
sw,-84.3812026977539,-72.1145248413086,55.08722437172546,-157.84848226903154,4181878435
sw,-85.4901580810546,-70.2059860229492,55.15010428882478,-143.09799164468757,4181895102
sw,-86.5751495361328,-68.5172500610351,54.28116261266099,-124.43758231819015,4181911769
sw,-87.5769958496093,-67.1112670898437,52.247196008425846,-104.36502157881074,4181928436
sw,-88.431526184082,-65.8543090820312,48.93046064287807,-85.10425559376613,4181945103
sw,-88.9078292846679,-64.8056488037109,44.411545028168796,-68.24957754736657,4181961770
sw,-88.8485260009765,-63.9939765930175,39.0109418706101,-54.59393575844798,4181978437
sw,-88.5763244628906,-63.4059867858886,33.257532197711754,-44.155349303840566,4181995104
sw,-88.2973937988281,-62.8475341796875,27.782572262581336,-36.36593149114251,4182011771
sw,-88.0450592041015,-62.1869010925293,23.170797592611194,-30.350964670772278,4182028438
sw,-87.8007354736328,-62.0683403015136,19.818863619453644,-25.208024351009193,4182045105
sw,-87.5694122314453,-62.1625785827636,17.848358254295675,-20.210303336413865,4182061772
sw,-87.2738723754882,-62.2286033630371,17.100425589341494,-14.903773096247557,4182078439
sw,-86.9339523315429,-62.6285171508789,17.21142292103826,-9.116228337949504,4182095106
sw,-86.5452651977539,-63.1304550170898,17.743225134611166,-2.9148010048009154,4182111773
sw,-86.1254653930664,-63.9691429138183,18.324707559809926,3.4623190206876546,4182128440
sw,-85.6803512573242,-64.8628540039062,18.757050800957003,9.687448387378044,4182145107
sw,-85.2752838134765,-65.7059249877929,19.046131771630453,15.426915903647036,4182161774
sw,-84.9720382690429,-66.6250915527343,19.348094069582555,20.412899414205622,4182178441
sw,-84.7097625732421,-67.6339874267578,19.84324466792982,24.49256155722201,4182195108
sw,-84.4208679199218,-68.7506866455078,20.57923751356673,27.64690008174028,4182211775
sw,-84.0848770141601,-69.7917938232421,21.33696675292443,29.97250137674028,4182228442
sw,-83.7427368164062,-70.6702423095703,21.566905180540946,31.623769451179914,4182245109
sw,-83.4178390502929,-71.2372970581054,20.423693270150615,32.72931853170226,4182261776
sw,-83.1138229370117,-71.6417236328125,16.901239679293884,33.32061871345311,4182278443
sw,-82.7578735351562,-72.4182434082031,10.045790454367374,33.323439771520306,4182295110
sw,-82.2959442138671,-73.7537460327148,-0.7972528310791603,32.6386531143707,4182311777
sw,-81.899185180664,-74.7908020019531,-15.762338749535818,31.279155821446857,4182328444
sw,-81.5912780761718,-75.3241119384765,-34.32985555090536,29.475884703438023,4182345111
sw,-81.0078048706054,-76.1771240234375,-55.32271571140511,27.669665765401398,4182361778
sw,-79.8148193359375,-77.3642654418945,-77.04453106243031,26.373325876465028,4182378445
sw,-78.2284164428711,-78.8172378540039,-97.5382776814918,25.9707055024062,4182395112
sw,-76.7882003784179,-79.9648742675781,-114.92192480067841,26.558809168777,4182411779
sw,-75.9848403930664,-81.0700073242187,-127.7409476273033,27.91618091948475,4182428446
sw,-75.3883819580078,-82.440673828125,-135.2604874305841,29.61283394444377,4182445113
sw,-74.5690689086914,-83.7988204956054,-137.61045482904626,31.201805971617617,4182461780
sw,-73.5924758911132,-84.91015625,-135.71748702471797,32.39006717651618,4182478447
sw,-72.6100692749023,-85.6449508666992,-131.0210818831888,33.103232432700295,4182495114
sw,-71.5894088745117,-86.3097610473632,-125.05696114261164,33.42624095754748,4182511781
sw,-70.4577102661132,-87.0355606079101,-119.05078154127624,33.47678183550001,4182528448
sw,-69.125862121582,-87.7923812866211,-113.65955039564166,33.2996294431973,4182545115
sw,-67.7041549682617,-88.6378555297851,-108.92746552809825,32.84209068610262,4182561782
sw,-66.2950973510742,-89.3918762207031,-104.42981188443414,32.01166482676666,4182578449
sw,-64.9576568603515,-89.522346496582,-99.51426002614339,30.77034693612352,4182595116
sw,-63.6548042297363,-89.0110778808593,-93.53807863882778,29.209438041861276,4182611783
sw,-62.4178810119628,-88.4440536499023,-86.03197852813577,27.568437997717812,4182628450
sw,-61.3844528198242,-87.8814163208007,-76.76911176327859,26.19113526264541,4182645117
sw,-60.647346496582,-87.380874633789,-65.75782453546104,25.435142277669335,4182661784
sw,-60.1721649169921,-86.9271240234375,-53.197602062139794,25.56339353861147,4182678451
sw,-59.7768249511718,-86.5126037597656,-39.43657092536274,26.650088357111102,4182695118
sw,-59.4718017578125,-86.0528106689453,-24.949339899793618,28.531074128719798,4182711785
sw,-59.4836540222168,-85.4893341064453,-10.326919554809612,30.818535103609943,4182728452
sw,-59.7377853393554,-84.8120880126953,3.7470603749893128,32.98149167634878,4182745119
sw,-60.116039276123,-84.0453033447265,16.555898467108776,34.47143766562698,4182761786
sw,-60.7888755798339,-83.3195114135742,27.446139798768158,34.855604430684025,4182778453
sw,-61.6069755554199,-82.6746139526367,35.93852644648661,33.91730682510219,4182795120
sw,-62.4362678527832,-82.1319198608398,41.81996022143486,31.69539184060218,4182811787
sw,-63.3041458129882,-81.7049789428711,45.1884153743613,28.456704465185652,4182828454
sw,-64.1567611694336,-81.3675308227539,46.441135036207214,24.61635099709928,4182845121
sw,-65.0991744995117,-81.0657653808593,46.21472629647101,20.63162671968879,4182861788
sw,-66.2509841918945,-80.7611618041992,45.29053518697429,16.893447462308814,4182878455
sw,-67.305061340332,-80.4535064697265,44.46996706159173,13.627581379459846,4182895122
sw,-67.8756866455078,-80.2766799926757,44.420223262541356,10.806751065034746,4182911789
sw,-68.2900161743164,-80.3357620239257,45.510809138370426,8.075117302839354,4182928456
sw,-68.9939880371093,-80.6444244384765,47.69803070415854,4.702858979133847,4182945123
sw,-69.9305419921875,-81.0923614501953,50.52930292785094,-0.38943797061053387,4182961790
sw,-71.4419479370117,-81.6176986694336,53.29796710310005,-8.489565553769046,4182978457
sw,-73.2224807739257,-82.0404663085937,55.29775653540507,-20.81286925728819,4182995124
sw,-74.2852096557617,-82.1851043701171,56.06259213488815,-38.11419653660998,4183011791
sw,-75.0252227783203,-81.8402404785156,55.48371339308538,-60.29046126536587,4183028458
sw,-76.1451110839843,-80.7851409912109,53.77060263595818,-86.11560383452041,4183045125
sw,-77.3103256225586,-79.1544723510742,51.30892601697964,-113.24323093105205,4183061792
sw,-78.3025207519531,-77.4246368408203,48.50785846204588,-138.543944199277,4183078459
sw,-79.3207168579101,-75.9742889404296,45.707211831983535,-158.73097873612593,4183095126
sw,-80.5011901855468,-74.7174377441406,43.16183509173724,-171.11210039497402,4183111793
sw,-81.6662216186523,-73.4296646118164,41.073180406357324,-174.23895772146685,4183128460
sw,-82.5935821533203,-71.9374618530273,39.61776235041451,-168.24222151966003,4183145127
sw,-83.3325042724609,-70.3445434570312,38.936039120681976,-154.7422341603746,4183161794
sw,-84.0587463378906,-68.8237915039062,39.08231900132833,-136.3716980146046,4183178461
sw,-84.7784652709961,-67.4866104125976,39.97121561169528,-116.07654219888602,4183195128
sw,-85.5308609008789,-66.2915954589843,41.36516733922085,-96.42013140711914,4183211795
sw,-86.3221435546875,-65.3018188476562,42.92608753826527,-79.08897217183748,4183228462
sw,-87.1357727050781,-64.5014572143554,44.31802655856019,-64.70981626451999,4183245129
sw,-87.9172897338867,-63.8131484985351,45.3184842658376,-52.981461634755554,4183261796
sw,-88.5053787231445,-63.1244773864746,45.88778752942519,-43.03507308470133,4183278463
sw,-88.7170181274414,-62.2664031982421,46.16121339288565,-33.88293215531262,4183295130
sw,-88.5228958129882,-61.8140869140625,46.36027350358228,-24.80588177467254,4183311797
sw,-88.1104202270507,-61.8638916015625,46.65462973605341,-15.568488251428867,4183328464
sw,-87.5847625732421,-62.1269035339355,47.02977258222045,-6.427054349502249,4183345131
sw,-86.9592742919921,-62.5478057861328,47.21769081582846,2.0259799874908424,4183361798
sw,-86.2172088623046,-63.0745506286621,46.72717132211071,9.09629593893547,4183378465
sw,-85.4036865234375,-63.7364311218261,44.97484416666931,14.220414696733139,4183395132
sw,-84.5879287719726,-64.5202331542968,41.48041373878628,17.14268601489018,4183411799
sw,-83.8150863647461,-65.2315216064453,36.06277990039746,18.003504139935103,4183428466
sw,-83.1555938720703,-65.861587524414,28.967178086727376,17.32091204145001,4183445133
sw,-82.7033233642578,-66.433364868164,20.869868961740888,15.870586162816066,4183461800
sw,-82.4937591552734,-67.155647277832,12.742390112325277,14.500640240406023,4183478467
sw,-82.5123443603515,-67.8887634277343,5.602162246820812,13.939029509665566,4183495134
sw,-82.6496124267578,-68.5518264770507,0.21612732887111694,14.645663834506465,4183511801
sw,-82.8272628784179,-69.0309600830078,-3.155551687043687,16.735453624717366,4183528468
sw,-82.9493789672851,-69.3289108276367,-4.896391194965528,19.9763970031935,4183545135
sw,-83.0053482055664,-69.551643371582,-6.004950153112487,23.86205515571553,4183561802
sw,-83.0159606933593,-69.9745941162109,-7.900686472465381,27.757731167208608,4183578469
sw,-83.0802612304687,-71.1599578857421,-12.10750135901311,31.10020780786606,4183595136
sw,-83.1237411499023,-72.3292083740234,-19.88681258686713,33.58913765480805,4183611803
sw,-82.9894180297851,-72.8401947021484,-31.903210189670517,35.27943717563909,4183628470
sw,-82.5963668823242,-73.6521682739257,-48.002119277971765,36.51285972034896,4183645137
sw,-81.954116821289,-74.954849243164,-67.16085184298234,37.71168533942719,4183661804
sw,-80.7441787719726,-76.7106170654296,-87.63874909259611,39.138779553614626,4183678471
sw,-78.9961700439453,-78.3424224853515,-107.3019241242343,40.74643769932599,4183695138
sw,-77.2716369628906,-79.6726760864257,-124.04966755756806,42.18614214352011,4183711805
sw,-76.2143478393554,-81.1922607421875,-136.24091497151628,42.97130032574126,4183728472
sw,-75.1967468261718,-82.8172836303711,-143.0161401544301,42.7156796907126,4183745139
sw,-74.107795715332,-84.2622985839843,-144.4313240455752,41.33605904880936,4183761806
sw,-72.8706359863281,-85.3148345947265,-141.36691271698623,39.121829951936704,4183778473
sw,-71.62646484375,-86.0390853881836,-135.24000883896798,36.63613867335686,4183795140
sw,-70.4106369018554,-86.7437667846679,-127.61022410054268,34.49636407740261,4183811807
sw,-69.0933532714843,-87.4103393554687,-119.80026549192046,33.14058815856813,4183828474
sw,-67.6648025512695,-88.1592102050781,-112.63599637960559,32.686968803677,4183845141
sw,-66.2179336547851,-89.0869979858398,-106.3558309265513,32.938088110097816,4183861808
sw,-64.8768692016601,-90.0,-100.67504954133143,33.50863895545928,4183878475
sw,-63.6369743347168,-90.0,-94.94847617996606,34.00304482937044,4183895142
sw,-62.4300689697265,-88.9573287963867,-88.36740726400477,34.16084843332349,4183911809
sw,-61.3504600524902,-88.1937637329101,-80.14360903757091,33.91667922718441,4183928476
sw,-60.4873161315918,-87.539321899414,-69.65700091436287,33.36619506821449,4183945143
sw,-59.9325218200683,-87.0207366943359,-56.5628490063263,32.667355513942226,4183961810
sw,-59.5803642272949,-86.5426025390625,-40.86397174921845,31.92647202437086,4183978477
sw,-59.34814453125,-86.0215301513671,-22.95096732265114,31.119165190434323,4183995144
sw,-59.3063354492187,-85.4533004760742,-3.6008670107716405,30.080064071024236,4184011811
sw,-59.6160697937011,-84.830093383789,16.08613636874775,28.567247656575734,4184028478
sw,-60.4566497802734,-84.197151184082,34.824334223909446,26.37764865167129,4184045145
sw,-61.6098442077636,-83.622802734375,51.33585191427157,23.46863296158798,4184061812
sw,-62.8100242614746,-83.0861892700195,64.5465003996884,20.035340179821365,4184078479
sw,-63.7427825927734,-82.63427734375,73.72540890464649,16.503650976128323,4184095146
sw,-64.5784072875976,-82.3359985351562,78.54589094447624,13.421417765152949,4184111813
sw,-65.8716735839843,-82.2120819091796,79.09395356236972,11.26133133810953,4184128480
sw,-67.7174072265625,-82.3184509277343,75.8632682469988,10.182053370721633,4184145147
sw,-69.249526977539,-82.5657882690429,69.73626759295595,9.82133193431859,4184161814
sw,-69.9482040405273,-82.7169189453125,61.907273313965995,9.203298481069316,4184178481
sw,-70.4279251098632,-82.7753982543945,53.716468241536845,6.82161894914391,4184195148
sw,-71.314697265625,-82.9023971557617,46.43041708816094,0.9123098327169915,4184211815
sw,-72.5968017578125,-83.1539306640625,41.05402026979119,-10.127958270170057,4184228482
sw,-74.0173645019531,-83.3095016479492,38.23477931025915,-27.268735119664303,4184245149
sw,-74.8815460205078,-82.9084014892578,38.24907271967535,-50.43272294247777,4184261816
sw,-75.5242004394531,-81.6069869995117,41.01368043465155,-78.26032053795215,4184278483
sw,-76.5178604125976,-79.4882583618164,46.08257382610392,-108.14949962621581,4184295150
sw,-77.7415313720703,-77.0506439208984,52.644674864366095,-136.6176925030474,4184311817
sw,-78.9065856933593,-74.8333587646484,59.57896367020748,-159.9467838280392,4184328484
sw,-80.2613220214843,-73.0465850830078,65.61406707816928,-174.97190651752743,4184345151
sw,-82.0803146362304,-71.387222290039,69.58567820063207,-179.80126977951687,4184361818
sw,-83.863784790039,-69.5541915893554,70.720691950327,-174.24870235927398,4184378485
sw,-85.1671371459961,-67.6436996459961,68.8412669221953,-159.83796190549856,4184395152
sw,-86.2483520507812,-65.9316177368164,64.40048735563202,-139.3753042403272,4184411819
sw,-87.1671752929687,-64.6274871826171,58.328961040041655,-116.23003526860225,4184428486
sw,-87.7635803222656,-63.5933494567871,51.75187840586919,-93.55065829788282,4184445153
sw,-88.1374359130859,-62.7598915100097,45.684302719551006,-73.6417836355099,4184461820
sw,-88.2742233276367,-62.1949195861816,40.80738631335453,-57.645284542178324,4184478487
sw,-88.0787887573242,-61.7634696960449,37.38074202689382,-45.55582820008409,4184495154
sw,-87.5911636352539,-61.3555488586425,35.285442486122676,-36.50593603175158,4184511821
sw,-87.0076217651367,-60.8171195983886,34.14674409579369,-29.202297784397075,4184528488
sw,-86.5031280517578,-60.4036102294921,33.47223857176927,-22.38020312042909,4184545155
sw,-86.1092681884765,-60.2115669250488,32.75963821986941,-15.158303118708158,4184561822
sw,-85.7520904541015,-60.3869132995605,31.563515818118248,-7.217612649654471,4184578489
sw,-85.4139709472656,-61.1184120178222,29.539708343661076,1.2115329960667338,4184595156
sw,-84.9892959594726,-61.9815559387207,26.49285268479492,9.512924690824454,4184611823
sw,-84.4802932739257,-63.0509452819824,22.434749276371456,16.922879714016112,4184628490
sw,-83.986213684082,-64.1324462890625,17.632393190880915,22.76621713660747,4184645157
sw,-83.6335144042968,-65.0801010131836,12.605109666145198,26.632102957870465,4184661824
sw,-83.4982376098632,-65.9438705444336,8.035938953908488,28.458655658861765,4184678491
sw,-83.5116348266601,-66.8665466308593,4.594005164682244,28.52105677237045,4184695158
sw,-83.5915222167968,-67.8904418945312,2.7064083194637045,27.338899965332146,4184711825
sw,-83.6063156127929,-68.5925369262695,2.347791279865631,25.53015062857294,4184728492
sw,-83.5387725830078,-68.9460144042968,2.918566231309423,23.64368498579652,4184745159
sw,-83.4555740356445,-69.0461273193359,3.2602819012709046,22.010321321506357,4184761826
sw,-83.4298629760742,-69.0687866210937,1.822158783083691,20.664481918413987,4184778493
sw,-83.3427124023437,-69.6660461425781,-3.040599602912866,19.384030878470497,4184795160
sw,-83.0284957885742,-70.6804962158203,-12.685113234936257,17.852236578755903,4184811827
sw,-82.5527877807617,-71.1583938598632,-27.7912784628875,15.876963539746683,4184828494
sw,-82.0049057006836,-71.444465637207,-48.06125675499004,13.559622597714693,4184845161
sw,-81.0748214721679,-72.079116821289,-72.10616396362708,11.330442213270217,4184861828
sw,-79.6908798217773,-73.0367813110351,-97.5867204034311,9.841146243006584,4184878495
sw,-78.0035629272461,-74.0603408813476,-121.6125556833063,9.77512549323386,4184895162
sw,-76.6837463378906,-74.7981567382812,-141.32760754846487,11.658525159795365,4184911829
sw,-75.6555480957031,-75.5574951171875,-154.5385766667113,15.735004979616942,4184928496
sw,-74.3735885620117,-76.5074615478515,-160.20643003043494,21.92641416824375,4184945163
sw,-72.8986892700195,-77.677375793457,-158.64308638935051,29.863298706781933,4184961830
sw,-71.5092697143554,-78.885025024414,-151.34270032232283,38.94723742527456,4184978497
sw,-70.3129577636718,-80.0327682495117,-140.50164868850402,48.41000164815112,4184995164
sw,-69.1321716308593,-81.3229827880859,-128.39091418968115,57.36102120065679,4185011831
sw,-67.8025207519531,-82.8573837280273,-116.78864450820053,64.84681451838047,4185028498
sw,-66.3423080444336,-84.558853149414,-106.6390056626498,69.95695510023785,4185045165
sw,-64.9110717773437,-86.2834854125976,-98.00046294519156,71.98715133471232,4185061832
sw,-63.5777511596679,-87.9926071166992,-90.23773211705763,70.62527958713375,4185078499
sw,-62.2715797424316,-90.0,-82.34582991424728,66.09132417942165,4185095166
sw,-61.0647468566894,-90.0,-73.28619622406552,59.16015269571024,4185111833
sw,-60.1431770324707,-88.4884567260742,-62.24814484495927,51.0294776514679,4185128500
sw,-59.633056640625,-87.7210159301757,-48.80034088972663,43.049738106423504,4185145167
sw,-59.4623832702636,-87.3084869384765,-32.9458195779668,36.3864225943576,4185161834
sw,-59.4593467712402,-87.0093231201171,-15.121072518484656,31.718410055001105,4185178501
sw,-59.608543395996,-86.5491790771484,3.8274231028459753,29.074171913279883,4185195168
sw,-59.9325942993164,-85.8920593261718,22.689610756536865,27.867131973378804,4185211835
sw,-60.5495986938476,-85.1218338012695,39.993290482946946,27.123648626768144,4185228502
sw,-61.639850616455,-84.4783477783203,54.19264385714907,25.82894096551974,4185245169
sw,-62.9678421020507,-83.9132461547851,63.93806508672238,23.276858847954454,4185261836
sw,-64.1864318847656,-83.4129028320312,68.3706859895123,19.311955403743525,4185278503
sw,-65.0904312133789,-83.071792602539,67.35807135632756,14.389552540266827,4185295170
sw,-66.3612823486328,-82.9572830200195,61.600331617175485,9.434184423016456,4185311837
sw,-68.0042190551757,-82.9876556396484,52.5687339382377,5.533222796328819,4185328504
sw,-68.9191741943359,-83.0945358276367,42.266710703389215,3.548275968673208,4185345171
sw,-68.9842224121093,-83.2151641845703,32.834525260914184,3.751602464220851,4185361838
sw,-68.8701171875,-83.4190597534179,26.07784865848884,5.592481108036604,4185378505
sw,-69.1025466918945,-83.604751586914,23.066876325996457,7.671133428548498,4185395172
sw,-69.7713623046875,-83.5489196777343,23.9594539119747,7.951970341224788,4185411839
sw,-71.1291275024414,-83.3482284545898,28.11300638767067,4.190862899900893,4185428506
sw,-72.5204925537109,-82.9803771972656,34.4135661125284,-5.507295787290029,4185445173
sw,-73.2835083007812,-82.3022155761718,41.65683253601185,-22.12947930994277,4185461840
sw,-73.9451828002929,-81.1967010498046,48.82261739489693,-45.3399339436941,4185478507
sw,-74.7973937988281,-79.5791778564453,55.17402314052872,-73.33863193531906,4185495174
sw,-75.9862442016601,-77.5063018798828,60.21753268649717,-103.0681155802189,4185511841
sw,-77.3553009033203,-75.352798461914,63.61588477402391,-130.75944187390726,4185528508
sw,-78.6803665161132,-73.5225524902343,65.13673154254298,-152.70689959015763,4185545175
sw,-80.31103515625,-72.2864456176757,64.67194013269359,-166.075175916622,4185561842
sw,-82.0045166015625,-71.148811340332,62.30691433326484,-169.51107596451422,4185578509
sw,-83.3744506835937,-69.8443984985351,58.38059238583293,-163.3791926270674,4185595176
sw,-84.3899993896484,-68.5627212524414,53.4735758202785,-149.5573336743963,4185611843
sw,-85.2382736206054,-67.4374694824218,48.299348832559446,-130.8705876076373,4185628510
sw,-85.9401092529296,-66.5408096313476,43.531367710188796,-110.35647267004236,4185645177
sw,-86.57275390625,-65.6898803710937,39.640183745938245,-90.59153068027312,4185661844
sw,-87.2450866699218,-65.0075378417968,36.8131721781363,-73.25875594520463,4185678511
sw,-87.9220809936523,-64.5212860107421,34.986696133350925,-59.02632670305692,4185695178
sw,-88.478775024414,-64.0321044921875,33.96331713040418,-47.69859217867408,4185711845
sw,-88.7246704101562,-63.6004409790039,33.54759307127288,-38.534531011684734,4185728512
sw,-88.6489639282226,-63.1128540039062,33.63190089495755,-30.614394638449486,4185745179
sw,-88.3905181884765,-62.5367202758789,34.1954297839284,-23.15419913198672,4185761846
sw,-88.0238418579101,-62.3799133300781,35.22541985614159,-15.70273647156598,4185778513
sw,-87.6352081298828,-62.5961570739746,36.60664957713411,-8.19932031156499,4185795180
sw,-87.1640701293945,-62.9823150634765,38.03838830619376,-0.9145565998668734,4185811847
sw,-86.584243774414,-63.463508605957,39.02604204634257,5.6756470414398414,4185828514
sw,-85.9029922485351,-63.9401626586914,38.96528232774618,11.033745282157689,4185845181
sw,-85.149055480957,-64.517951965332,37.30054373477459,14.694248524866719,4185861848
sw,-84.4238815307617,-65.3019638061523,33.709056369504154,16.37759984308668,4185878515
sw,-83.790412902832,-66.0697555541992,28.246841267180706,16.075021591808543,4185895182
sw,-83.3634872436523,-66.6595230102539,21.400729403609198,14.087685499325602,4185911849
sw,-83.1568222045898,-67.1579055786132,14.018736534595499,11.005536179359227,4185928516
sw,-83.0920104980468,-67.8066482543945,7.1295989512052484,7.626105553988915,4185945183
sw,-83.0707244873046,-68.4244079589843,1.695912326083618,4.827678681039304,4185961850
sw,-83.1223449707031,-68.6196517944336,-1.637717415458026,3.4136223506345975,4185978517
sw,-83.2540740966796,-68.5094223022461,-2.7420466553165266,3.9458824203533625,4185995184
sw,-83.2946395874023,-68.3440475463867,-2.101479839566349,6.600652629685651,4186011851
sw,-83.220344543457,-68.3003540039062,-0.7895530686394985,11.099081609583962,4186028518
sw,-83.1946792602539,-68.4865951538086,-0.320658006350996,16.762452534216262,4186045185
sw,-83.2455291748046,-69.3123779296875,-2.39762067191764,22.700391749126254,4186061852
sw,-83.2149963378906,-70.7419662475586,-8.589805255348315,28.07874479581942,4186078519
sw,-82.9513244628906,-71.8787994384765,-19.988255321593346,32.36535266630122,4186095186
sw,-82.5440444946289,-72.5494613647461,-36.89809946247284,35.44933094378556,4186111853
sw,-81.8400268554687,-73.4901428222656,-58.640691102807075,37.58301565763694,4186128520
sw,-80.6867141723632,-74.6284408569336,-83.53501916669013,39.180668025304755,4186145187
sw,-78.9434204101562,-76.1295394897461,-109.0992413103909,40.5758219280212,4186161854
sw,-77.1529464721679,-77.4689407348632,-132.4622221613009,41.85271826952157,4186178521
sw,-76.0093917846679,-78.7039413452148,-150.9148492849545,42.82526963892897,4186195188
sw,-74.9297409057617,-80.1553802490234,-162.47695216823936,43.16640031485564,4186211855
sw,-73.5115966796875,-81.731460571289,-166.32689195360348,42.62357427662216,4186228522
sw,-71.9155883789062,-83.1554489135742,-162.95900707749772,41.21670385896004,4186245189
sw,-70.3425903320312,-84.1687088012695,-154.0072117896413,39.31793480347561,4186261856
sw,-68.9815521240234,-84.8582153320312,-141.78001079841746,37.56347707584756,4186278523
sw,-67.7680130004882,-85.5038604736328,-128.64907683144722,36.62774113320737,4186295190
sw,-66.4504470825195,-86.2099227905273,-116.47748765349458,36.958838568078505,4186311857
sw,-65.0953598022461,-87.0087966918945,-106.2461890281985,38.592785746922836,4186328524
sw,-63.8229064941406,-87.9370193481445,-97.95517336287188,41.123041676699664,4186345191
sw,-62.6753883361816,-88.8842544555664,-90.78211181683443,43.8293773599522,4186361858
sw,-61.569236755371,-89.7112884521484,-83.4158551114645,45.90570468522724,4186378525
sw,-60.5064048767089,-89.1954650878906,-74.45901449220099,46.697605648660364,4186395192
sw,-59.657112121582,-88.3314132690429,-62.802998464566954,45.870765402683816,4186411859
sw,-59.1304092407226,-87.5604019165039,-47.90551047501447,43.467620474003844,4186428526
sw,-58.9150276184082,-86.8994750976562,-29.93348025089855,39.85216541111998,4186445193
sw,-58.9135360717773,-86.3010635375976,-9.763821032675944,35.576681008765405,4186461860
sw,-59.1642189025878,-85.7544403076171,11.147206186924217,31.220791948870655,4186478527
sw,-59.7079582214355,-85.2421493530273,31.005664684313757,27.251557875755548,4186495194
sw,-60.6869277954101,-84.7492446899414,47.99989026432747,23.938381262868596,4186511861
sw,-61.9954833984375,-84.3083267211914,60.643190386793634,21.336474511356503,4186528528
sw,-63.2277297973632,-83.8739471435546,68.06083314722862,19.333812798641564,4186545195
sw,-64.155029296875,-83.4472198486328,70.14424503480483,17.741279760283867,4186561862
sw,-64.7025604248046,-83.0359878540039,67.53616338523831,16.394247751389273,4186578529
sw,-65.8380050659179,-82.6538009643554,61.472104117908074,15.227416397751952,4186595196
sw,-67.1913681030273,-82.2943649291992,53.541241841691935,14.287113154529361,4186611863
sw,-67.9684066772461,-81.9994812011718,45.41982340764016,13.66046972299375,4186628530
sw,-68.2080307006836,-81.8728103637695,38.6029669282777,13.329457177556982,4186645197
sw,-68.4536819458007,-82.0183486938476,34.16361823894767,12.993923768698892,4186661864
sw,-69.0112762451171,-82.2979583740234,32.59678223517389,11.938622624100185,4186678531
sw,-69.9316787719726,-82.4291000366211,33.809321691186874,9.027097962095487,4186695198
sw,-71.2895126342773,-82.4266891479492,37.26132232152703,2.8764303133710016,4186711865
sw,-72.3443374633789,-82.3528594970703,42.19060354363202,-7.7960592970198865,4186728532
sw,-73.0453643798828,-82.1813125610351,47.81858643020078,-23.73631503172183,4186745199
sw,-74.0514984130859,-81.6942825317382,53.46743710039822,-44.76096235830197,4186761866
sw,-75.5329666137695,-80.6422882080078,58.58481403112361,-69.55007937652344,4186778533
sw,-76.9573822021484,-79.101203918457,62.72265704751354,-95.72603544829562,4186795200
sw,-78.2939987182617,-77.4302139282226,65.52420671095315,-120.23931527804334,4186811867
sw,-79.7659454345703,-75.988655090332,66.74844741997529,-139.98469030782363,4186828534
sw,-81.3549194335937,-74.7911300659179,66.32485549139959,-152.487829739122,4186845201
sw,-82.8689270019531,-73.735107421875,64.40093104757541,-156.46704090008876,4186861868
sw,-84.0839767456054,-72.5017623901367,61.33632943477932,-152.10577771890735,4186878535
sw,-85.1516799926757,-70.9935455322265,57.6203977391146,-140.96017838950965,4186895202
sw,-86.1705474853515,-69.6283416748046,53.73470311834221,-125.53834420546646,4186911869
sw,-87.0411758422851,-68.4427871704101,50.019875652600895,-108.6816039811815,4186928536
sw,-87.8322830200195,-67.3671112060546,46.60992145515234,-92.92187692056963,4186945203
sw,-88.4617614746093,-66.5809097290039,43.46321422197511,-79.97668619951457,4186961870
sw,-88.6855239868164,-65.9061050415039,40.46866697202962,-70.48942832675861,4186978537
sw,-88.3872299194336,-65.239273071289,37.56764728081496,-64.05156583365103,4186995204
sw,-87.9273681640625,-64.4048614501953,34.82622387361675,-59.474700448396014,4187011871
sw,-87.5237731933593,-63.4308280944824,32.419002732324834,-55.22373727118332,4187028538
sw,-87.1834564208984,-62.5376548767089,30.530583480493966,-49.88642569541945,4187045205
sw,-86.896255493164,-62.027961730957,29.22232629816641,-42.552331494108124,4187061872
sw,-86.6052932739257,-61.9348449707031,28.332016124059713,-33.01174419656534,4187078539
sw,-86.2157669067382,-62.0729370117187,27.46366266190585,-21.748149772404116,4187095206
sw,-85.7453155517578,-62.5354652404785,26.08870022998839,-9.7581019954595,4187111873
sw,-85.2060089111328,-63.2449035644531,23.732951641090693,1.732028857418052,4187128540
sw,-84.6542663574218,-64.171516418457,20.184242395116573,11.573159955343769,4187145207
sw,-84.1831817626953,-65.1208953857421,15.638833172619272,18.951231442188238,4187161874
sw,-83.8926010131836,-66.0026245117187,10.718302617764277,23.53945378340777,4187178541
sw,-83.8055877685546,-66.655403137207,6.329305907069266,25.519249725275365,4187195208
sw,-83.884292602539,-67.3971557617187,3.3937485744153926,25.483536556332506,4187211875
sw,-84.0498809814453,-68.2675628662109,2.5265354284084944,24.26718019970651,4187228542
sw,-84.1494827270507,-69.0674362182617,3.7627826087774285,22.755221027829307,4187245209
sw,-84.0969467163086,-69.4515762329101,6.425695724309411,21.704396322308845,4187261876
sw,-83.8251190185546,-69.4854202270507,9.183779396386706,21.60219066947165,4187278543
sw,-83.5168991088867,-69.4700622558593,10.288510033893978,22.593980126816394,4187295210
sw,-83.2771377563476,-70.0140533447265,7.93375833570634,24.512842149235958,4187311877
sw,-83.0398178100586,-71.120376586914,0.6525188355797592,27.015899457603854,4187328544
sw,-82.7230682373046,-71.977310180664,-12.333741105202883,29.76871926759383,4187345211
sw,-82.4619140625,-72.6833190917968,-30.88254948676702,32.576803816396996,4187361878
sw,-82.1358032226562,-73.6945419311523,-53.86199018703596,35.39038120996177,4187378545
sw,-81.2764816284179,-75.2644271850586,-79.2662725953452,38.19413624230199,4187395212
sw,-79.9225921630859,-77.102668762207,-104.50440556529674,40.87039433956051,4187411879
sw,-78.3594436645507,-78.6335144042968,-126.82204590422879,43.13607006548098,4187428546
sw,-77.0670623779296,-80.1133575439453,-143.7909077513191,44.60181707448977,4187445213
sw,-75.9265518188476,-81.7477874755859,-153.77477013930135,44.92917234689607,4187461880
sw,-74.6411437988281,-83.3774719238281,-156.26232244497612,44.007959543704345,4187478547
sw,-73.1634674072265,-84.6530990600586,-151.96561277131397,42.06079884496926,4187495214
sw,-71.6882858276367,-85.5232467651367,-142.63449164743565,39.610417359151185,4187511881
sw,-70.4043426513671,-86.314224243164,-130.62135515427644,37.310794366786396,4187528548
sw,-69.208625793457,-87.0983581542968,-118.31246464749186,35.71376499090553,4187545215
sw,-67.9588317871093,-87.8669662475586,-107.58511614148871,35.0765829475756,4187561882
sw,-66.6200561523437,-88.7560501098632,-99.4337758464075,35.29309268114259,4187578549
sw,-65.3670043945312,-90.0,-93.84246313676594,35.96897979434736,4187595216
sw,-64.200454711914,-90.0,-89.9007533073165,36.59776254820869,4187611883
sw,-63.0072441101074,-89.1903686523437,-86.10286073188067,36.75912868283759,4187628550
sw,-61.8451499938964,-88.3974533081054,-80.74489167910099,36.26361119420729,4187645217
sw,-60.8316040039062,-87.7235946655273,-72.33423397287383,35.19735230474551,4187661884
sw,-60.0891761779785,-87.1238403320312,-59.93572258706044,33.860596790874894,4187678551
sw,-59.6805610656738,-86.5765228271484,-43.39826418773323,32.62908765944674,4187695218
sw,-59.5491485595703,-86.0270462036132,-23.43045167210661,31.78992198475386,4187711885
sw,-59.7020759582519,-85.5040817260742,-1.5179057876771698,31.40882069404901,4187728552
sw,-60.1766052246093,-84.9574890136718,20.30553704899934,31.274874196848774,4187745219
sw,-61.0463600158691,-84.3366317749023,39.80245809721946,30.945864689417753,4187761886
sw,-62.2464294433593,-83.6369018554687,54.93897190945259,29.887580474594763,4187778553
sw,-63.5862693786621,-82.9393920898437,64.27637199560576,27.669891134363407,4187795220
sw,-64.7319793701171,-82.2871322631836,67.25887976118815,24.158334498023972,4187811887
sw,-65.4910202026367,-81.7481918334961,64.3287094408442,19.63128623503372,4187828554
sw,-66.6310119628906,-81.3883285522461,56.845717285431036,14.765319197322874,4187845221
sw,-67.9376068115234,-81.218994140625,46.834422055791,10.464841040595726,4187861888
sw,-68.539436340332,-81.1968154907226,36.60442045899736,7.559600555089525,4187878555
sw,-68.3729705810546,-81.3320007324218,28.30404067425209,6.443051233056161,4187895222
sw,-68.4127578735351,-81.7402954101562,23.496495029618927,6.7612871014121385,4187911889
sw,-68.7762680053711,-82.1034545898437,22.877377632034953,7.272216679443076,4187928556
sw,-69.456672668457,-82.218635559082,26.23168774899681,5.96688230365515,4187945223
sw,-70.7752838134765,-82.2763595581054,32.640544662831715,0.47758098823041384,4187961890
sw,-72.1098709106445,-82.1395034790039,40.8400676781976,-11.294148557786134,4187978557
sw,-72.9956665039062,-81.6391448974609,49.576067073666444,-30.482650037700918,4187995224
sw,-73.8191986083984,-80.5326995849609,57.82311700528936,-56.699646736148644,4188011891
sw,-75.1703720092773,-78.7225646972656,64.82713438092854,-87.81003437073063,4188028558
sw,-76.683235168457,-76.3940277099609,70.02922574653968,-120.16995178199039,4188045225
sw,-78.0734405517578,-74.1629486083984,72.97819553741716,-149.32631321849047,4188061892
sw,-79.6612930297851,-72.5317687988281,73.32062571918699,-171.0207092800045,4188078559
sw,-81.5257873535156,-71.3100204467773,70.89090585524374,-182.21447201106452,4188095226
sw,-83.2195663452148,-69.9914169311523,65.84773497677385,-181.8167550482741,4188111893
sw,-84.4344711303711,-68.4989547729492,58.760362475632654,-170.88253204229756,4188128560
sw,-85.400405883789,-67.1825714111328,50.56436068663929,-152.22652935144342,4188145227
sw,-86.2003784179687,-65.9829330444336,42.37472225288673,-129.5992412351576,4188161894
sw,-86.7916717529296,-65.0219573974609,35.22170060213145,-106.70745288027031,4188178561
sw,-87.3268737792968,-64.1803359985351,29.81578192416162,-86.38162288787913,4188195228
sw,-87.8797531127929,-63.7682037353515,26.431844221846738,-70.10304448732558,4188211895
sw,-88.4068908691406,-63.3823814392089,24.94277659204987,-57.96094429375564,4188228562
sw,-88.7587280273437,-63.0062408447265,24.964659541694438,-48.977050844247294,4188245229
sw,-88.7769927978515,-62.5967025756835,26.033204980194636,-41.6479013091983,4188261896
sw,-88.5737152099609,-61.9352264404296,27.73135698994671,-34.51995150951,4188278563
sw,-88.3302383422851,-61.5841827392578,29.725488101484064,-26.628418845595235,4188295230
sw,-88.0684204101562,-61.6086196899414,31.720511495323827,-17.695832816600717,4188311897
sw,-87.7587738037109,-62.0790710449218,33.38580943325392,-8.082797467970849,4188328564
sw,-87.3740081787109,-62.7738037109375,34.315955650345565,1.430174898381671,4188345231
sw,-86.849365234375,-63.4343376159668,34.07003736259654,9.916960478739568,4188361898
sw,-86.1739807128906,-64.1255264282226,32.291647867674634,16.548732904022636,4188378565
sw,-85.440185546875,-65.088882446289,28.866144978128357,20.768239822042485,4188395232
sw,-84.8039398193359,-65.9909286499023,24.04194480941605,22.392211491156505,4188411899
sw,-84.3415451049804,-66.7098541259765,18.443625569071365,21.64473525135533,4188428566
sw,-84.1690063476562,-67.5829772949218,12.94004747553922,19.12074576852609,4188445233
sw,-84.2042770385742,-68.5690689086914,8.388076085936474,15.681788210388632,4188461900
sw,-84.3235626220703,-69.2046661376953,5.327128370193459,12.293240818283152,4188478567
sw,-84.3239440917968,-69.1614532470703,3.726412838460983,9.820380207196578,4188495234
sw,-84.3166275024414,-68.8540725708007,2.8733113166135746,8.82039868419016,4188511901
sw,-84.2603149414062,-68.5057601928711,1.446027751057054,9.39813091168472,4188528568
sw,-84.2673263549804,-68.6801300048828,-2.241264328121142,11.203352241595512,4188545235
sw,-84.27978515625,-69.9543533325195,-9.875993213521646,13.602882220692836,4188561902
sw,-84.346809387207,-71.3889007568359,-22.74576570299862,15.970410857363458,4188578569
sw,-84.3791122436523,-71.9642639160156,-41.380404856741016,17.95998171889716,4188595236
sw,-83.9305343627929,-72.5128479003906,-65.31020560431698,19.628437394346967,4188611903
sw,-82.3849563598632,-73.3099060058593,-92.99507562138047,21.355550196563012,4188628570
sw,-79.8840942382812,-74.5814895629882,-121.95725837976313,23.619106709277123,4188645237
sw,-77.3150482177734,-75.8221282958984,-149.1235478706988,26.74478958984826,4188661904
sw,-75.5682983398437,-76.8933029174804,-171.3436121793421,30.743069948023308,4188678571
sw,-73.655288696289,-78.2878036499023,-185.99584104865136,35.29141132367136,4188695238
sw,-71.253921508789,-79.9380798339843,-191.53727701471666,39.85402111769252,4188711905
sw,-68.6794891357421,-81.495735168457,-187.83440944749682,43.8763544364877,4188728572
sw,-66.4690170288086,-82.9057159423828,-176.1564355612253,46.964909489661004,4188745239
sw,-64.6899261474609,-84.1170349121093,-158.81854968929974,48.97665333075317,4188761906
sw,-63.1502418518066,-85.2737960815429,-138.58552910444595,49.991298031754184,4188778573
sw,-61.7301559448242,-86.3609466552734,-118.02374789324466,50.19780037895937,4188795240
sw,-60.4169921875,-87.3625564575195,-98.98653470559145,49.76327205954513,4188811907
sw,-59.3600196838378,-88.3869934082031,-82.3474817614086,48.751382914259615,4188828574
sw,-58.5117034912109,-89.4553604125976,-68.00567873427434,47.12347566334849,4188845241
sw,-57.8143196105957,-90.0,-55.1162332410149,44.81037583002663,4188861908
sw,-57.26806640625,-89.0250244140625,-42.46176210370501,41.80987501613042,4188878575
sw,-56.9214706420898,-88.1266479492187,-28.869417782454498,38.256747547612235,4188895242
sw,-56.9147186279296,-87.4156341552734,-13.583981751734068,34.427753429444934,4188911909
sw,-57.058609008789,-86.9032669067382,3.476209833563739,30.674578865189385,4188928576
sw,-57.3915252685546,-86.558837890625,21.63214016340732,27.31163676879201,4188945243
sw,-58.2590904235839,-86.2234268188476,39.55015067457176,24.509459096476487,4188961910
sw,-59.6818122863769,-85.7862930297851,55.52590363753083,22.24535177065504,4188978577
sw,-61.2913055419921,-85.2591400146484,67.8794244771969,20.337775234639523,4188995244
sw,-62.7487831115722,-84.7296524047851,75.3530580444534,18.551098083607517,4189011911
sw,-63.9894866943359,-84.2816696166992,77.4040824561113,16.723649906846727,4189028578
sw,-65.1713562011718,-83.967658996582,74.32893915436964,14.860898908963255,4189045245
sw,-66.8003234863281,-83.7528610229492,67.21225220136432,13.149677697274704,4189061912
sw,-68.2791671752929,-83.5646514892578,57.72343727720055,11.878643342800183,4189078579
sw,-68.9712142944336,-83.4110870361328,47.78938594143562,11.281444855390893,4189095246
sw,-68.9982376098632,-83.3402099609375,39.19128003139128,11.344495056782316,4189111913
sw,-69.1790924072265,-83.5035171508789,33.18310510282244,11.63866162466162,4189128580
sw,-69.7564926147461,-83.6406021118164,30.26535068681615,11.241140940945147,4189145247
sw,-70.7896423339843,-83.654426574707,30.20924751516082,8.803319400792102,4189161914
sw,-72.1273422241211,-83.5825958251953,32.31451568626667,2.786557891938349,4189178581
sw,-72.9855804443359,-83.3681869506836,35.76910208254797,-8.164024463360054,4189195248
sw,-73.4720611572265,-82.918586730957,39.9410588380723,-24.789595760921234,4189211915
sw,-74.3215942382812,-81.8641891479492,44.48939915989322,-46.846444512112996,4189228582
sw,-75.612922668457,-80.1137771606445,49.286083610215776,-72.91293874344605,4189245249
sw,-76.8687744140625,-77.968635559082,54.22960173264081,-100.46646344205324,4189261916
sw,-78.0276870727539,-75.888931274414,59.065302400364665,-126.2621122929507,4189278583
sw,-79.5219573974609,-73.9846572875976,63.308612439909666,-146.95818732259312,4189295250
sw,-81.1578903198242,-72.2824020385742,66.31048103478103,-159.84184640608635,4189311917
sw,-82.7456970214843,-70.8266067504882,67.43399283431418,-163.44936783877168,4189328584
sw,-84.0896759033203,-69.4345626831054,66.26016766562356,-157.88719048043123,4189345251
sw,-85.3779754638671,-68.0025558471679,62.734335856792086,-144.7517559142729,4189361918
sw,-86.4849319458007,-66.7853546142578,57.19974823564505,-126.68266613204436,4189378585
sw,-87.3061599731445,-65.7784347534179,50.317764650820536,-106.70160189095299,4189395252
sw,-87.9296264648437,-64.9255828857421,42.9165681352104,-87.53936361167959,4189411919
sw,-88.3805694580078,-64.2357559204101,35.825858613139395,-71.12638052292807,4189428586
sw,-88.584732055664,-63.6937294006347,29.742571734910392,-58.34529904432664,4189445253
sw,-88.5391464233398,-63.2038383483886,25.146178803982174,-49.05840772441103,4189461920
sw,-88.3526611328125,-62.6908798217773,22.25946263294013,-42.357414387944786,4189478587
sw,-88.1382751464843,-62.2598037719726,21.041841253792303,-36.94624578709964,4189495254
sw,-87.9339904785156,-61.8629913330078,21.206332667526553,-31.55329385099045,4189511921
sw,-87.7143249511718,-61.7233123779296,22.260604831029713,-25.273561315715856,4189528588
sw,-87.4394454956054,-61.8364562988281,23.578480967150664,-17.76504052412125,4189545255
sw,-87.0485305786132,-62.3214683532714,24.504920537376645,-9.26673312168772,4189561922
sw,-86.5864334106445,-63.0465393066406,24.48481913462264,-0.45681900449625146,4189578589
sw,-86.1041412353515,-63.935791015625,23.189843915735683,7.789382014346462,4189595256
sw,-85.6387481689453,-64.8094329833984,20.60676760121288,14.663412755279428,4189611923
sw,-85.2592239379882,-65.6134490966796,17.052613786659023,19.63673364769848,4189628590
sw,-84.9987640380859,-66.3692321777343,13.098390041615911,22.574183474535626,4189645257
sw,-84.9011154174804,-67.0210876464843,9.410163599319933,23.734658916394103,4189661924
sw,-84.91650390625,-67.9263610839843,6.544878159903668,23.679524133177043,4189678591
sw,-84.9316024780273,-68.8207168579101,4.757479807525732,23.125770204989077,4189695258
sw,-84.8824386596679,-69.4335479736328,3.8762933455358213,22.776664682512216,4189711925
sw,-84.7479782104492,-69.6129913330078,3.283303469171233,23.154351590750835,4189728592
sw,-84.6233825683593,-69.6097564697265,2.0037979162261697,24.46629151494835,4189745259
sw,-84.6205825805664,-69.7775573730468,-1.1190587059446542,26.554281697390525,4189761926
sw,-84.6614913940429,-70.8704605102539,-7.203273498200065,28.96842614805813,4189778593
sw,-84.6073379516601,-72.1248321533203,-17.098755287562696,31.15782758013745,4189795260
sw,-84.4297256469726,-72.9651870727539,-31.18185956894974,32.70020329190701,4189811927
sw,-83.9844131469726,-73.8502578735351,-49.202317941671126,33.46050863903822,4189828594
sw,-82.7419128417968,-75.1517562866211,-70.21042117133611,33.605701726967034,4189845261
sw,-80.7327423095703,-76.7742767333984,-92.59154070876042,33.4827363196116,4189861928
sw,-78.4006881713867,-78.3463592529296,-114.2309521991611,33.4338476983042,4189878595
sw,-76.5514144897461,-79.5217590332031,-132.81733667912883,33.64235490700312,4189895262
sw,-75.0061111450195,-80.7275695800781,-146.2591568699856,34.07567607496997,4189911929
sw,-73.4574432373046,-82.1271514892578,-153.1369290111447,34.54103220355402,4189928596
sw,-71.6428680419921,-83.490966796875,-153.06883446468044,34.81597939769776,4189945263
sw,-69.8544006347656,-84.6187591552734,-146.85821749932327,34.78148528107553,4189961930
sw,-68.3339157104492,-85.436408996582,-136.3382903502938,34.48702121670556,4189978597
sw,-67.1394653320312,-86.1945114135742,-123.92466952385502,34.117182466250895,4189995264
sw,-66.0688858032226,-86.9826049804687,-111.99399935369969,33.885704238769875,4190011931
sw,-64.9991989135742,-87.7405090332031,-102.2758511165144,33.92050561000685,4190028598
sw,-63.8625564575195,-88.5057678222656,-95.44074514678194,34.20074308836434,4190045265
sw,-62.7561492919921,-89.1318283081054,-90.99530711433754,34.570912274815775,4190061932
sw,-61.651008605957,-89.351692199707,-87.4945182931618,34.814753867945,4190078599
sw,-60.4853820800781,-88.9870223999023,-82.99206579325865,34.747083972715906,4190095266
sw,-59.3744239807128,-88.4044342041015,-75.59637605464899,34.281210631018965,4190111933
sw,-58.505516052246,-87.798599243164,-63.9877163631981,33.445552944063884,4190128600
sw,-57.9753646850585,-87.2837295532226,-47.7767166082865,32.34523480749445,4190145267
sw,-57.8077087402343,-86.8354110717773,-27.63496349129806,31.086486151786687,4190161934
sw,-57.9374771118164,-86.3918533325195,-5.185066674515088,29.69853296654751,4190178601
sw,-58.3616600036621,-85.9116973876953,17.315977910724243,28.092314080647785,4190195268
sw,-59.2203979492187,-85.3977661132812,37.43376941302059,26.082752127712293,4190211935
sw,-60.5171165466308,-84.8285446166992,53.061396419838815,23.474242906742113,4190228602
sw,-61.9927711486816,-84.2291564941406,62.85828100754946,20.178436740661635,4190245269
sw,-63.2578125,-83.6884460449218,66.50815012748465,16.312945728257297,4190261936
sw,-63.9189338684082,-83.3541793823242,64.72386391525255,12.229941444155742,4190278603
sw,-64.6073837280273,-83.2845458984375,59.010577894325,8.447463440129663,4190295270
sw,-65.7641830444336,-83.3629760742187,51.280341932847996,5.494770694042434,4190311937
sw,-66.671760559082,-83.3661727905273,43.43863692717058,3.7175243375558873,4190328604
sw,-67.1559829711914,-83.2809371948242,37.031475149827706,3.101645141097612,4190345271
sw,-67.3486404418945,-83.2873840332031,32.9988558338548,3.164072872022999,4190361938
sw,-67.6320419311523,-83.4857330322265,31.56687254986505,2.9385409988717783,4190378605
sw,-68.2086868286132,-83.6843490600586,32.310729595065524,1.0700701948481224,4190395272
sw,-69.2759933471679,-83.8574600219726,34.39150116048307,-3.9765340760862564,4190411939
sw,-70.5970382690429,-83.939582824707,36.902307344734986,-13.60350952136639,4190428606
sw,-71.6276779174804,-83.7130432128906,39.19726471165643,-28.700640538665283,4190445273
sw,-72.3061447143554,-82.868293762207,41.07299253401551,-49.27565491149982,4190461940
sw,-73.1069869995117,-81.3089599609375,42.741066800929225,-74.20176297281917,4190478607
sw,-74.1863479614257,-79.1359024047851,44.62835205202035,-101.19455677134994,4190495274
sw,-75.2097396850586,-76.598159790039,47.11041950161819,-127.09226309251106,4190511941
sw,-76.2582168579101,-74.2563552856445,50.29386781626688,-148.42814005548888,4190528608
sw,-77.5205154418945,-72.5898132324218,53.92873275402628,-162.17451420560116,4190545275
sw,-79.0188598632812,-71.3644866943359,57.47475695369857,-166.45214235629263,4190561942
sw,-80.5338592529296,-69.93359375,60.283286828208375,-160.98333366210545,4190578609
sw,-81.9309921264648,-68.4340057373046,61.811991835633975,-147.13858066030585,4190595276
sw,-83.2366790771484,-67.1692886352539,61.78366451745534,-127.55868700305876,4190611943
sw,-84.439826965332,-66.1845397949218,60.234893277142675,-105.47467308116043,4190628610
sw,-85.4452133178711,-65.4319686889648,57.45475082452877,-83.94058434622399,4190645277
sw,-86.2768478393554,-64.8751449584961,53.86027401655191,-65.2051051616346,4190661944
sw,-86.9980163574218,-64.5363388061523,49.87421585171521,-50.37939601077461,4190678611
sw,-87.5970306396484,-64.2849426269531,45.854807159302304,-39.44813791169687,4190695278
sw,-87.9562759399414,-63.979694366455,42.08760933526468,-31.564837541418008,4190711945
sw,-87.9916305541992,-63.4185066223144,38.81009258339192,-25.50139309781119,4190728612
sw,-87.852424621582,-62.9182815551757,36.223889967346075,-20.09684747662499,4190745279
sw,-87.6862411499023,-62.9587860107421,34.46552119993523,-14.573534400705974,4190761946
sw,-87.4934539794921,-63.2554473876953,33.541636250222936,-8.654424306889167,4190778613
sw,-87.2090835571289,-63.7113494873046,33.266369357164216,-2.4977821129689386,4190795280
sw,-86.8440856933593,-64.307876586914,33.24712875725489,3.4759841644040312,4190811947
sw,-86.3717269897461,-64.8607177734375,32.947093908996656,8.779714168226631,4190828614
sw,-85.811653137207,-65.4499282836914,31.818751184433932,13.01792955303978,4190845281
sw,-85.2254180908203,-66.1249465942382,29.46972295015114,15.98329890835315,4190861948
sw,-84.6854476928711,-66.7464294433593,25.803670745122457,17.68984582018733,4190878615
sw,-84.2522659301757,-67.3057479858398,21.08187968887739,18.35472892697108,4190895282
sw,-83.9626541137695,-67.8857040405273,15.874114175829543,18.347465091660816,4190911949
sw,-83.8136367797851,-68.628433227539,10.902406495064149,18.124755780423747,4190928616
sw,-83.77490234375,-69.3036727905273,6.8166228686269115,18.158351262375692,4190945283
sw,-83.7894668579101,-69.7645645141601,3.9644487243371476,18.851630602173554,4190961950
sw,-83.8287353515625,-70.0615310668945,2.2236557158936305,20.44407748006409,4190978617
sw,-83.8370590209961,-70.1853332519531,0.9501048950930149,22.925515350978095,4190995284
sw,-83.7975234985351,-70.3818893432617,-0.9344971907296555,26.005217356951654,4191011951
sw,-83.7510070800781,-71.1907958984375,-4.72729966353875,29.177388074164703,4191028618
sw,-83.6722869873046,-72.4765853881836,-11.64724948096746,31.88291247539729,4191045285
sw,-83.4789657592773,-73.6455078125,-22.52471394786451,33.70850462877077,4191061952
sw,-83.2920608520507,-74.4937896728515,-37.5523281016742,34.5313448107853,4191078619
sw,-82.9198379516601,-75.4954223632812,-56.158413911801325,34.539743553903094,4191095286
sw,-81.7864456176757,-76.7904968261718,-77.034027070453,34.12523453716908,4191111953
sw,-79.8528747558593,-78.2510223388671,-98.30819540258761,33.70411980683111,4191128620
sw,-77.627456665039,-79.4673767089843,-117.83848083571706,33.55157623985015,4191145287
sw,-75.8229598999023,-80.5646057128906,-133.57079026198068,33.71576715543839,4191161954
sw,-74.3974304199218,-81.8069610595703,-143.91315036268074,34.039422218263745,4191178621
sw,-73.08642578125,-83.0881195068359,-148.05372561525712,34.269623732135415,4191195288
sw,-71.5793914794921,-84.297622680664,-146.1425314467839,34.19910723882132,4191211955
sw,-70.0914459228515,-85.2558364868164,-139.26919899685143,33.77051603409796,4191228622
sw,-68.7940521240234,-86.0614471435546,-129.21629818425612,33.09704917394518,4191245289
sw,-67.6828536987304,-86.859634399414,-118.03835585862579,32.39850013500697,4191261956
sw,-66.6012191772461,-87.6537322998046,-107.58127859278319,31.894545644135427,4191278623
sw,-65.4006881713867,-88.4907836914062,-99.08118832046897,31.71260555163881,4191295290
sw,-64.2010116577148,-89.4781112670898,-92.95027402274492,31.849996569728493,4191311957
sw,-63.1679382324218,-90.0,-88.78815116130758,32.19519668497609,4191328624
sw,-62.1516761779785,-90.0,-85.5875024443613,32.58422397423008,4191345291
sw,-61.0455474853515,-89.1724472045898,-82.05810111058301,32.859284209758776,4191361958
sw,-59.866771697998,-88.3964767456054,-76.9755997738795,32.905779068502106,4191378625
sw,-58.8627624511718,-87.7276382446289,-69.46440043746415,32.65961291359674,4191395292
sw,-58.3669242858886,-87.1230163574218,-59.14912195578708,32.090899300695426,4191411959
sw,-58.2492332458496,-86.5630493164062,-46.15845430390161,31.179397491388535,4191428626
sw,-58.2240562438964,-85.9997787475586,-31.021429753412676,29.899658377919806,4191445293
sw,-58.1790885925293,-85.4146499633789,-14.525667438308268,28.228379645190408,4191461960
sw,-58.2953376770019,-84.8333206176757,2.409316791681895,26.174106093230826,4191478627
sw,-58.8288040161132,-84.2995834350586,18.833271405665922,23.815586341068276,4191495294
sw,-59.726936340332,-83.7909164428711,33.85709289289431,21.32666658089489,4191511961
sw,-60.848777770996,-83.3448028564453,46.7416666588435,18.96686470878128,4191528628
sw,-61.9607734680175,-83.0193328857421,56.96378494033541,17.027831137972548,4191545295
sw,-62.8729972839355,-82.8037414550781,64.23389384462739,15.743209177293503,4191561962
sw,-63.87398147583,-82.6371841430664,68.46771575857198,15.186275186815703,4191578629
sw,-65.2427749633789,-82.4430618286132,69.74713536186684,15.187882992842596,4191595296
sw,-66.7925643920898,-82.2156295776367,68.30754469677728,15.301547267540313,4191611963
sw,-68.2511444091796,-82.0039978027343,64.55263001614384,14.825870022409086,4191628630
sw,-69.1032180786132,-81.817626953125,59.05975571287718,12.87661508679052,4191645297
sw,-69.5361022949218,-81.7755737304687,52.54181314061075,8.4912449275787,4191661964
sw,-70.2472839355468,-82.0194091796875,45.772676012956694,0.7516613564172717,4191678631
sw,-71.431884765625,-82.531135559082,39.51469857898521,-11.077207358913762,4191695298
sw,-72.4625701904296,-83.0169448852539,34.46990659112301,-27.385373391358073,4191711965
sw,-72.9038391113281,-83.056640625,31.233839276725245,-48.03151352941416,4191728632
sw,-73.22412109375,-82.2944183349609,30.218302344924137,-72.16257530792335,4191745299
sw,-73.9549789428711,-80.7122802734375,31.54492924175627,-98.11138036090792,4191761966
sw,-74.8263931274414,-78.4695129394531,34.95705410830916,-123.46510021639774,4191778633
sw,-75.7853622436523,-76.1517639160156,39.80957712850493,-145.36718165755815,4191795300
sw,-76.8964538574218,-74.4284210205078,45.16952513021997,-161.0334654580363,4191811967
sw,-78.2118759155273,-73.103530883789,50.014219710704005,-168.36500311506063,4191828634
sw,-79.5947647094726,-71.5900115966796,53.470959127781235,-166.47441748631022,4191845301
sw,-80.9460067749023,-70.0083312988281,55.02003893150252,-155.94436184211855,4191861968
sw,-82.1280288696289,-68.5804061889648,54.59386071041111,-138.71267541389358,4191878635
sw,-83.1567077636718,-67.3846740722656,52.54497008494407,-117.60517095802872,4191895302
sw,-84.0304489135742,-66.3946380615234,49.5053084136778,-95.66176546601551,4191911969
sw,-84.796630859375,-65.5470428466796,46.19497026111096,-75.46726471296776,4191928636
sw,-85.4923706054687,-64.8742752075195,43.24752043206936,-58.6777205187585,4191945303
sw,-86.1386260986328,-64.3138198852539,41.09988674812335,-45.84766666859783,4191961970
sw,-86.7545471191406,-63.962043762207,39.95967947497017,-36.559415392950534,4191978637
sw,-87.2815704345703,-63.5112915039062,39.82983712399322,-29.77099409060064,4191995304
sw,-87.7032241821289,-63.0150108337402,40.555252654053426,-24.25079627555434,4192011971
sw,-88.0145645141601,-62.9846572875976,41.8626823537318,-18.960472318380994,4192028638
sw,-88.2003936767578,-63.2782745361328,43.38534993105676,-13.285482768107697,4192045305
sw,-88.1063842773437,-63.7438278198242,44.682909631563895,-7.083011453758804,4192061972
sw,-87.7128753662109,-64.2700653076171,45.27495457462857,-0.5855168713114022,4192078639
sw,-87.118667602539,-64.8218536376953,44.69980075057648,5.768839870937828,4192095306
sw,-86.4446640014648,-65.5881881713867,42.59523749005869,11.513822411548626,4192111973
sw,-85.7837448120117,-66.3850326538086,38.78292700590147,16.29760218900013,4192128640
sw,-85.2251663208007,-67.1343536376953,33.33027480985548,19.965293261852896,4192145307
sw,-84.7498016357421,-67.8494873046875,26.5654859251075,22.57209882856584,4192161974
sw,-84.3637924194336,-68.4557113647461,19.03116745385833,24.335656714049605,4192178641
sw,-84.1139755249023,-69.1761856079101,11.375372016078376,25.55212689346148,4192195308
sw,-84.0230255126953,-69.9127807617187,4.19395389129986,26.50455293569888,4192211975
sw,-84.0920028686523,-70.6130599975586,-2.1461957591795464,27.383773551636107,4192228642
sw,-84.2951126098632,-71.1394882202148,-7.65910821093928,28.233762584905634,4192245309
sw,-84.6116943359375,-71.3936004638671,-12.815489989874406,28.935781655519072,4192261976
sw,-84.9700927734375,-71.8567886352539,-18.49755533801285,29.25283374039902,4192278643
sw,-85.0826339721679,-73.0015258789062,-25.814017237131953,28.944645327512905,4192295310
sw,-84.8579483032226,-74.3522796630859,-35.79947162821991,27.921035849147955,4192311977
sw,-84.4386672973632,-75.150520324707,-49.070352374961246,26.35448185465404,4192328644
sw,-83.6779251098632,-75.661994934082,-65.54002481494534,24.67224121749517,4192345311
sw,-82.1757431030273,-76.5185012817382,-84.28928374491345,23.412668459875004,4192361978
sw,-79.9567260742187,-77.7326431274414,-103.64617502601459,23.01351645492594,4192378645
sw,-77.4680633544921,-78.9805908203125,-121.47072511228532,23.637682078999593,4192395312
sw,-75.5387496948242,-80.055923461914,-135.58662494673035,25.115170779339127,4192411979
sw,-73.90966796875,-81.2543487548828,-144.2621896731978,27.01910067079034,4192428646
sw,-72.2716293334961,-82.5433883666992,-146.62062760455115,28.83513040905531,4192445313
sw,-70.5508041381836,-83.7630081176757,-142.86254962006234,30.148274114599097,4192461980
sw,-68.9913101196289,-84.7939910888671,-134.22142431909458,30.768538889680453,4192478647
sw,-67.6956481933593,-85.6253051757812,-122.64617003564574,30.74876409735924,4192495314
sw,-66.6558456420898,-86.4108428955078,-110.29558131176297,30.300766864090058,4192511981
sw,-65.6120452880859,-87.1377487182617,-98.9985553410801,29.662560463965633,4192528648
sw,-64.4471282958984,-87.8591766357421,-89.84436464182579,28.985804462611778,4192545315
sw,-63.3170890808105,-88.6657257080078,-83.01094473045698,28.292775657549033,4192561982
sw,-62.3216171264648,-89.6779632568359,-77.84833318487789,27.51075172123967,4192578649
sw,-61.3583297729492,-90.0,-73.1559826616904,26.55341265266443,4192595316
sw,-60.402847290039,-90.0,-67.55417899744003,25.402821813893805,4192611983
sw,-59.5616340637207,-89.2435989379882,-59.84938804401912,24.15489423933071,4192628650
sw,-58.9832191467285,-88.5818405151367,-49.31630772248374,23.01404586757977,4192645317
sw,-58.7119941711425,-87.9798736572265,-35.853226336544694,22.243475798146182,4192661984
sw,-58.6668586730957,-87.4820785522461,-20.001561900062192,22.088811370745063,4192678651
sw,-58.8462791442871,-87.0706939697265,-2.8449293550634027,22.69645313412953,4192695318
sw,-59.2643241882324,-86.6837692260742,14.185806191096047,24.048239671731725,4192711985
sw,-59.9942588806152,-86.2640380859375,29.56977010349354,25.93227656971874,4192728652
sw,-61.0659294128418,-85.8178405761718,41.97403677040048,27.964040662411932,4192745319
sw,-62.2998428344726,-85.349494934082,50.49612623983596,29.660704475226662,4192761986
sw,-63.4815826416015,-84.8301696777343,54.809769406059,30.556641822473196,4192778653
sw,-64.1730194091796,-84.2576141357421,55.17517289883531,30.333005191705222,4192795320
sw,-64.626838684082,-83.5412368774414,52.32642181358945,28.922747739306033,4192811987
sw,-65.6408081054687,-82.7976989746093,47.29935076123046,26.54840992095138,4192828654
sw,-66.8965148925781,-82.2761306762695,41.26958601463838,23.65923786226674,4192845321
sw,-67.7092819213867,-82.0169677734375,35.4228356865036,20.76182421546618,4192861988
sw,-67.949348449707,-81.9291000366211,30.82684868354545,18.180653780988916,4192878655
sw,-68.0177993774414,-81.9542160034179,28.276826168752653,15.824528475607764,4192895322
sw,-68.2994079589843,-81.9591903686523,28.14246553811095,13.049893459532592,4192911989
sw,-68.7368621826171,-81.9737777709961,30.292396859377497,8.691769536402802,4192928656
sw,-69.5391159057617,-82.1881256103515,34.15755003475744,1.2850268451839666,4192945323
sw,-70.7698669433593,-82.4885940551757,38.927154119682776,-10.558004512590987,4192961990
sw,-71.9639053344726,-82.638442993164,43.80067441146206,-27.69641129546975,4192978657
sw,-72.8961563110351,-82.469856262207,48.192453623799736,-50.051527955664824,4192995324
sw,-73.7859573364257,-81.6872863769531,51.81582222243646,-76.36626953315874,4193011991
sw,-74.9786605834961,-80.1572952270507,54.636794427878826,-104.239375951019,4193028658
sw,-76.2483673095703,-78.1051940917968,56.74497489126232,-130.48044897282693,4193045325
sw,-77.4238510131836,-76.0003814697265,58.214764920500656,-151.73656598357627,4193061992
sw,-78.6378479003906,-74.2161560058593,59.021746012798936,-165.2404966689856,4193078659
sw,-80.1359405517578,-72.713638305664,59.04734448215808,-169.46688830431307,4193095326
sw,-81.6909484863281,-71.0664596557617,58.16062251621129,-164.49082746723636,4193111993
sw,-83.0172576904296,-69.4162673950195,56.326430659252665,-151.92911543292527,4193128660
sw,-84.1230392456054,-68.1253051757812,53.6769685098362,-134.48033337109035,4193145327
sw,-85.1023941040039,-67.0648117065429,50.5087391318461,-115.21358560151637,4193161994
sw,-85.9078750610351,-66.0496368408203,47.211871775474734,-96.83301720031459,4193178661
sw,-86.5407409667968,-65.0872116088867,44.1731923477194,-81.13364740044396,4193195328
sw,-87.0999145507812,-64.3092269897461,41.69951625317672,-68.77479184966258,4193211995
sw,-87.596450805664,-63.6322441101074,39.98658714577028,-59.37983905622104,4193228662
sw,-87.9168167114257,-63.1233863830566,39.128238292326856,-51.87820121105171,4193245329
sw,-87.9463348388671,-62.6590843200683,39.13742069498053,-44.95995178412071,4193261996
sw,-87.7544937133789,-62.044189453125,39.94772213428035,-37.509636219894944,4193278663
sw,-87.4146499633789,-61.7686805725097,41.38246298559661,-28.91039816201586,4193295330
sw,-87.0301513671875,-61.8811264038085,43.10768114152086,-19.15725202408543,4193311997
sw,-86.5640792846679,-62.2600288391113,44.60763513476943,-8.78083577071407,4193328664
sw,-85.9676513671875,-62.8069763183593,45.22286341149903,1.3616988135958012,4193345331
sw,-85.2332611083984,-63.4740829467773,44.268643682859,10.347460677226847,4193361998
sw,-84.4455413818359,-64.3274993896484,41.214984264124645,17.42733959002543,4193378665
sw,-83.6791687011718,-65.177978515625,35.874426381872695,22.193740729566738,4193395332
sw,-83.0416488647461,-66.0228729248046,28.527403041687826,24.647867389862185,4193411999
sw,-82.6248016357421,-66.6261291503906,19.925606456702234,25.161232713008808,4193428666
sw,-82.4427032470703,-67.4120254516601,11.149166774974875,24.354643427891748,4193445333
sw,-82.4490585327148,-68.3305892944336,3.3409387016243843,22.940538385181252,4193462000
sw,-82.5918273925781,-69.1186752319336,-2.6159969134216254,21.57429192130652,4193478667
sw,-82.8413009643554,-69.52197265625,-6.387677404088685,20.738891067570474,4193495334
sw,-83.1182098388671,-69.6411514282226,-8.357626060082067,20.669875524213264,4193512001
sw,-83.26953125,-69.5620040893554,-9.613847368071275,21.331275947706793,4193528668
sw,-83.278564453125,-69.7966613769531,-11.740571328799016,22.463765540509126,4193545335
sw,-83.2254943847656,-70.8434295654296,-16.45501131007383,23.711676129814553,4193562002
sw,-83.0674896240234,-71.8336181640625,-25.175008506665055,24.789006912843842,4193578669
sw,-82.7933654785156,-72.3171844482421,-38.62533482923876,25.60307494374374,4193595336
sw,-82.3210067749023,-73.0809555053711,-56.58216283212012,26.266000563574483,4193612003
sw,-81.2647323608398,-74.138069152832,-77.82124607383304,26.991905623454976,4193628670
sw,-79.5531005859375,-75.5691223144531,-100.28771844181675,27.94941131740845,4193645337
sw,-77.5059585571289,-76.9153213500976,-121.4581925402929,29.16014377332322,4193662004
sw,-75.6490020751953,-78.0259246826171,-138.82740234071164,30.497244172476144,4193678671
sw,-74.2976760864257,-79.1778030395507,-150.42151254053292,31.7769752129639,4193695338
sw,-73.0215072631836,-80.3602600097656,-155.2194247956657,32.88838705592727,4193712005
sw,-71.6055603027343,-81.5356826782226,-153.36568045552752,33.88897906816965,4193728672
sw,-70.1621704101562,-82.5508651733398,-146.10075869416133,35.010163762029386,4193745339
sw,-68.8812179565429,-83.3109130859375,-135.41477242225997,36.5583313794143,4193762006
sw,-67.7042388916015,-84.0473098754882,-123.5211244257027,38.75055752699971,4193778673
sw,-66.5197219848632,-84.9903106689453,-112.30793546179642,41.56354621457621,4193795340
sw,-65.2879562377929,-86.0643310546875,-102.92704381326713,44.67483254054248,4193812007
sw,-64.0237655639648,-87.2696380615234,-95.62188968174978,47.53141300345547,4193828674
sw,-62.8622207641601,-88.4668579101562,-89.80731987228202,49.517713607694134,4193845341
sw,-61.7385673522949,-89.7451248168945,-84.3383904237713,50.15003320438655,4193862008
sw,-60.6183052062988,-90.0,-77.86773454610055,49.2205635179687,4193878675
sw,-59.6240348815918,-88.9233474731445,-69.19298176918,46.844911184128556,4193895342
sw,-58.9277305603027,-88.0379638671875,-57.52398771731092,43.40965591220039,4193912009
sw,-58.5799522399902,-87.2845153808593,-42.63917351854338,39.44979883367709,4193928676
sw,-58.4943084716796,-86.5915374755859,-24.93562891785979,35.50116294717418,4193945343
sw,-58.5894317626953,-85.9568328857421,-5.393852596592028,31.971267106463582,4193962010
sw,-58.8818168640136,-85.3737411499023,14.529505624820391,29.059685547728883,4193978677
sw,-59.4606094360351,-84.810920715332,33.084357361277966,26.74213504019665,4193995344
sw,-60.4857788085937,-84.2702255249023,48.48997493610894,24.816734976408405,4194012011
sw,-61.8553810119628,-83.7841720581054,59.25471748664313,22.9982739398723,4194028678
sw,-63.2083740234375,-83.353645324707,64.48687895683246,21.037068771414713,4194045345
sw,-64.1285705566406,-82.9962692260742,64.10788788092815,18.833142198463413,4194062012
sw,-64.787612915039,-82.6567153930664,58.901189497372144,16.51406034405427,4194078679
sw,-66.0107498168945,-82.2035903930664,50.38471857546763,14.445831271361655,4194095346
sw,-67.1444015502929,-81.7502899169921,40.53985184925564,13.152441186738388,4194112013
sw,-67.6907577514648,-81.4570693969726,31.44266705638396,13.136166295216468,4194128680
sw,-67.5078125,-81.4573287963867,24.85033207999173,14.622954301253584,4194145347
sw,-67.4660568237304,-81.6194381713867,21.828037847362086,17.30028894386906,4194162014
sw,-67.8271560668945,-81.7480316162109,22.536720867498882,20.14893974838213,4194178681
sw,-68.5613632202148,-81.6978302001953,26.279192422391393,21.46862987614216,4194195348
sw,-69.8712081909179,-81.5209655761718,31.80483622046432,19.14852708487361,4194212015
sw,-71.3368072509765,-81.2636489868164,37.75530395428253,11.15083925780981,4194228682
sw,-72.2127990722656,-81.027847290039,43.071713616974,-3.9063510798921355,4194245349
sw,-72.8807678222656,-80.6954879760742,47.214904254263026,-26.229497248563106,4194262016
sw,-73.9500961303711,-79.968032836914,50.1519162996217,-54.55491847019027,4194278683
sw,-75.1238861083984,-78.7027282714843,52.17058543799396,-86.19289709352421,4194295350
sw,-76.323127746582,-77.156997680664,53.64122130302358,-117.44195987554835,4194312017
sw,-77.5450973510742,-75.7232208251953,54.83443773528937,-144.30449311644477,4194328684
sw,-78.9665756225586,-74.4756317138671,55.850726415135306,-163.33909426491078,4194345351
sw,-80.4585800170898,-73.3677673339843,56.653742729462955,-172.42350112719834,4194362018
sw,-81.9257431030273,-72.3120574951171,57.15392772316808,-171.2054506070683,4194378685
sw,-83.176513671875,-71.1101684570312,57.28013192143354,-161.10236503277443,4194395352
sw,-84.3119735717773,-69.7882461547851,57.00305724562675,-144.85341254881703,4194412019
sw,-85.3785247802734,-68.5755844116211,56.314308590501994,-125.77253653465077,4194428686
sw,-86.3453750610351,-67.4567947387695,55.19286343537612,-106.9372780475456,4194445353
sw,-87.2054367065429,-66.4757537841796,53.593453358461154,-90.5458206709961,4194462020
sw,-87.9149398803711,-65.6356887817382,51.47205443479333,-77.59539154320875,4194478687
sw,-88.2837677001953,-64.8824615478515,48.8361469018025,-67.91882770846428,4194495354
sw,-88.1539001464843,-64.1201934814453,45.787417715538226,-60.509007670743735,4194512021
sw,-87.7576370239257,-63.2707214355468,42.52336105867357,-53.99457260559841,4194528688
sw,-87.3465728759765,-62.3259887695312,39.283544916232415,-47.11325337048423,4194545355
sw,-87.0162658691406,-61.6862182617187,36.256982212410264,-39.054664699430525,4194562022
sw,-86.6962509155273,-61.5390281677246,33.492933427937444,-29.602184708063962,4194578689
sw,-86.3156051635742,-61.816478729248,30.86369941702882,-19.077473987320463,4194595356
sw,-85.8525314331054,-62.3309745788574,28.109106870356605,-8.15416901020049,4194612023
sw,-85.3193893432617,-63.0368423461914,24.95581992294158,2.3678535639167535,4194628690
sw,-84.7986984252929,-64.0459518432617,21.26698221345365,11.753819241248502,4194645357
sw,-84.3435516357421,-64.9471206665039,17.156689456565708,19.455110028147892,4194662024
sw,-84.0425720214843,-65.8553619384765,13.009822630676839,25.158040748549915,4194678691
sw,-83.8700485229492,-66.673599243164,9.37955213967969,28.780111339829546,4194695358
sw,-83.8596572875976,-67.7930908203125,6.780450734263522,30.44241751907477,4194712025
sw,-83.9290466308593,-68.8614044189453,5.437581543543566,30.438734307209028,4194728692
sw,-83.9768295288086,-69.5453872680664,5.075682031195554,29.199599448149062,4194745359
sw,-83.962043762207,-69.7342529296875,4.828922858751105,27.23532177881676,4194762026
sw,-83.9249114990234,-69.6714248657226,3.321537451733243,25.056524337600145,4194778693
sw,-83.8658218383789,-69.8391799926757,-1.0772440038671183,23.10327677022104,4194795360
sw,-83.6228332519531,-70.7717514038086,-9.87019413918283,21.72362262386933,4194812027
sw,-83.2473602294921,-71.7115478515625,-24.007530422082937,21.205960906011686,4194828694
sw,-82.8379592895507,-72.2579803466796,-43.52854860115563,21.815962373692052,4194845361
sw,-82.0529479980468,-73.1884307861328,-67.37192467273549,23.77378973042375,4194862028
sw,-80.644660949707,-74.3034439086914,-93.4247291195443,27.154216056992436,4194878695
sw,-78.6938323974609,-75.854377746582,-118.82966971343083,31.763223900970942,4194895362
sw,-76.8948364257812,-77.3376541137695,-140.51175617653809,37.079577686880185,4194912029
sw,-75.6157455444336,-78.7610321044921,-155.82364545402956,42.322652158170094,4194928696
sw,-74.1431808471679,-80.3552093505859,-163.15241719100342,46.64239312529959,4194945363
sw,-72.307632446289,-82.1226196289062,-162.30673096848827,49.36634358188207,4194962030
sw,-70.4771270751953,-83.8072357177734,-154.54405066024407,50.208868313762345,4194978697
sw,-69.0567474365234,-85.1253280639648,-142.20676167158226,49.35590187545789,4194995364
sw,-67.9443283081054,-86.1490325927734,-128.07468092373307,47.38361535277575,4195012031
sw,-66.852798461914,-87.1351547241211,-114.64531311396247,45.039118892987716,4195028698
sw,-65.5806808471679,-88.0659942626953,-103.56886747505229,42.973682063125565,4195045365
sw,-64.1877365112304,-88.9605255126953,-95.38557657196858,41.53754545442973,4195062032
sw,-62.942138671875,-90.0,-89.58599751686155,40.7099338884388,4195078699
sw,-61.791446685791,-89.8658294677734,-84.90951852308922,40.17270709488317,4195095366
sw,-60.5939559936523,-88.6827011108398,-79.75287255367407,39.47809348711057,4195112033
sw,-59.4654998779296,-87.8248977661132,-72.57336743353595,38.23416617647895,4195128700
sw,-58.6752548217773,-87.0773162841796,-62.21197112533522,36.239412738056814,4195145367
sw,-58.296703338623,-86.4714736938476,-48.1058688341443,33.52880052615281,4195162034
sw,-58.1251907348632,-85.984878540039,-30.39414378113594,30.332120224392522,4195178701
sw,-58.1123847961425,-85.5695571899414,-9.931477745364141,26.97672111821117,4195195368
sw,-58.3600807189941,-85.1872100830078,11.789113519674462,23.78134530554053,4195212035
sw,-58.9751930236816,-84.7527923583984,32.82262693774598,20.98235219374071,4195228702
sw,-60.1746292114257,-84.2672576904296,51.078831371239175,18.712400258467394,4195245369
sw,-61.7507705688476,-83.8267974853515,64.71597864748786,17.024971147517007,4195262036
sw,-63.305061340332,-83.4155197143554,72.52984409448217,15.937936520245998,4195278703
sw,-64.4312438964843,-83.0186309814453,74.22059168367986,15.463355092608468,4195295370
sw,-65.3667068481445,-82.7416915893554,70.45361920568314,15.599134961914597,4195312037
sw,-66.9060592651367,-82.5529479980468,62.70365251754905,16.275990799066555,4195328704
sw,-67.9209823608398,-82.3368911743164,52.93434554438358,17.273333754211027,4195345371
sw,-68.2210693359375,-82.0173187255859,43.19354543366351,18.133352273972925,4195362038
sw,-68.3206100463867,-81.8654479980468,35.21615362112108,18.108893175380498,4195378705
sw,-68.8383865356445,-81.9127960205078,30.13627424063806,16.178349802050025,4195395372
sw,-69.851089477539,-81.9512405395507,28.39056885040015,11.152361283081644,4195412039
sw,-71.1901779174804,-81.9513854980468,29.82110909781695,1.8811163086336231,4195428706
sw,-72.0110702514648,-81.8988189697265,33.89380366200216,-12.456724735128056,4195445373
sw,-72.4157791137695,-81.6561203002929,39.90698571384548,-32.03887590208387,4195462040
sw,-73.2372360229492,-80.8631134033203,47.10417952886305,-56.14488427967846,4195478707
sw,-74.5730514526367,-79.3472442626953,54.688930675859304,-83.05919849793125,4195495374
sw,-75.9392471313476,-77.3116760253906,61.8050963511029,-110.2064879192855,4195512041
sw,-77.2919311523437,-75.2290878295898,67.55839100411,-134.5371690140219,4195528708
sw,-78.9968109130859,-73.4844284057617,71.12062306632015,-153.10163058223517,4195545375
sw,-80.823860168457,-72.1382064819336,71.9019149077229,-163.67540904718575,4195562042
sw,-82.4430084228515,-70.8127975463867,69.72555441963512,-165.25767358913004,4195578709
sw,-83.7077026367187,-69.460220336914,64.92094950292756,-158.2871934457739,4195595376
sw,-84.8601989746093,-68.1730041503906,58.27615334779698,-144.50448061773034,4195612043
sw,-85.765754699707,-67.0856399536132,50.85159129814195,-126.50480359984924,4195628710
sw,-86.4624404907226,-66.2027740478515,43.71932443174425,-107.12349593600138,4195645377
sw,-87.0840225219726,-65.4192504882812,37.72386871258711,-88.83204207047098,4195662044
sw,-87.6453247070312,-64.9244766235351,33.345507422630924,-73.29500090367188,4195678711
sw,-88.1330337524414,-64.5569992065429,30.69605949049603,-61.17109853097951,4195695378
sw,-88.4414138793945,-64.2849197387695,29.619016088776753,-52.17152104243238,4195712045
sw,-88.4662246704101,-63.8553161621093,29.828639982981265,-45.33166441745784,4195728712
sw,-88.2919998168945,-63.1869087219238,31.019386030053443,-39.40878113309596,4195745379
sw,-88.0393600463867,-62.5845718383789,32.90465357773441,-33.28945226481406,4195762046
sw,-87.7458877563476,-62.4354171752929,35.186650972698565,-26.292835037485656,4195778713
sw,-87.3632202148437,-62.6798667907714,37.49591172715769,-18.299002153442927,4195795380
sw,-86.8726959228515,-63.1055450439453,39.35329749799841,-9.700149078901145,4195812047
sw,-86.2605819702148,-63.6498794555664,40.19489253110016,-1.2283558957098575,4195828714
sw,-85.5167694091796,-64.2102127075195,39.46897247176647,6.268935683398259,4195845381
sw,-84.7501449584961,-64.9024276733398,36.778837991796124,12.048237546162738,4195862048
sw,-84.0880508422851,-65.6408996582031,32.02087973462784,15.646306941853217,4195878715
sw,-83.5984420776367,-66.2834930419921,25.464181468327023,16.9878217724342,4195895382
sw,-83.3187713623046,-66.8476257324218,17.737307244110568,16.409409967758148,4195912049
sw,-83.207275390625,-67.5887985229492,9.719962847065295,14.600945178062135,4195928716
sw,-83.1786651611328,-68.4093856811523,2.3666214565752637,12.479642739618262,4195945383
sw,-83.1826705932617,-69.018310546875,-3.4958741782879246,11.015837356070667,4195962050
sw,-83.2361526489257,-69.1283416748046,-7.3558821676821236,11.027903537970527,4195978717
sw,-83.4172821044921,-68.9930114746093,-9.158017018021123,12.975690019486512,4195995384
sw,-83.7007904052734,-68.8719329833984,-9.373218663535253,16.80897282573521,4196012051
sw,-83.9346313476562,-68.9854049682617,-8.976347538038619,21.943565665972535,4196028718
sw,-84.0621490478515,-69.7981033325195,-9.316090832919672,27.41186996090263,4196045385
sw,-84.1883010864257,-71.3895797729492,-11.880045532710572,32.16388176414205,4196062052
sw,-84.2353057861328,-72.8318481445312,-17.98678707664849,35.413917822338384,4196078719
sw,-83.8818283081054,-73.7081222534179,-28.46596973624443,36.890209372291,4196095386
sw,-83.4369964599609,-74.5938186645507,-43.404355763507795,36.88132972212951,4196112053
sw,-82.5133438110351,-75.8439254760742,-62.0303293999906,36.06763118535057,4196128720
sw,-80.7735900878906,-77.2953948974609,-82.77937435125666,35.22090195951393,4196145387
sw,-78.6761169433593,-78.5498504638671,-103.53875251068257,34.90160427667793,4196162054
sw,-76.8387908935546,-79.5780258178711,-122.02867861149113,35.26975439176471,4196178721
sw,-75.7175140380859,-80.8067016601562,-136.2467988453888,36.07198710037913,4196195388
sw,-74.5531158447265,-82.2243118286132,-144.87932729967585,36.797859592687935,4196212055
sw,-73.1832962036132,-83.6270446777343,-147.57110092983945,36.9340708367744,4196228722
sw,-71.6928558349609,-84.7743835449218,-144.9664383892705,36.207737226747184,4196245389
sw,-70.3195266723632,-85.5688934326171,-138.49299417491753,34.71707853704356,4196262056
sw,-69.1639328002929,-86.3494491577148,-129.94568308309815,32.89986088135383,4196278723
sw,-68.0194854736328,-87.0743713378906,-121.0003788840627,31.362136062920992,4196295390
sw,-66.6772232055664,-87.7196426391601,-112.8103312630267,30.64560931249763,4196312057
sw,-65.2357406616211,-88.4089813232421,-105.79807539920311,31.02677366800367,4196328724
sw,-63.9160079956054,-89.1155242919921,-99.6740615325702,32.416223524592695,4196345391
sw,-62.6768951416015,-90.0,-93.6348582216226,34.38256417424312,4196362058
sw,-61.444725036621,-90.0,-86.65229251224899,36.283509014085986,4196378725
sw,-60.3336906433105,-88.8960647583007,-77.76377672598258,37.45832702206892,4196395392
sw,-59.5092582702636,-88.0303955078125,-66.29836112352088,37.422469687333404,4196412059
sw,-59.099380493164,-87.2936935424804,-52.00855166826229,36.00664525848978,4196428726
sw,-58.9496574401855,-86.6796951293945,-35.11285149314361,33.39990562396561,4196445393
sw,-58.8651237487793,-86.191162109375,-16.27310875646853,30.08689717292425,4196462060
sw,-58.9634590148925,-85.7789611816406,3.475840783156335,26.702911067590463,4196478727
sw,-59.5065078735351,-85.3883285522461,22.84705017767541,23.853605985934127,4196495394
sw,-60.6448898315429,-84.9882354736328,40.47996682895589,21.95184908870726,4196512061
sw,-62.0206184387207,-84.616714477539,55.15612765784866,21.113369940627514,4196528728
sw,-63.3264122009277,-84.2541732788086,65.99451675799293,21.132839659028754,4196545395
sw,-64.2864456176757,-83.8135681152343,72.56463354346246,21.539692442197914,4196562062
sw,-65.1010589599609,-83.2660293579101,74.89839639016351,21.7122952476045,4196578729
sw,-66.6485061645507,-82.7263565063476,73.4362640726861,21.012501795358734,4196595396
sw,-68.4172744750976,-82.2859115600586,68.95468956576505,18.89583485708126,4196612063
sw,-69.4340744018554,-82.0465316772461,62.483409583442544,14.962652435510119,4196628730
sw,-69.8145980834961,-82.0465850830078,55.18636195390952,8.943221338501882,4196645397
sw,-70.3469161987304,-82.2810821533203,48.19899281906992,0.6436660281832701,4196662064
sw,-71.1895980834961,-82.6539077758789,42.46426211680376,-10.0973392189823,4196678731
sw,-72.1646347045898,-83.1163864135742,38.62492632739659,-23.393071731598074,4196695398
sw,-72.8772583007812,-83.6757278442382,36.99244023451072,-39.214291408795276,4196712065
sw,-73.4464263916015,-84.1333847045898,37.56873473684385,-57.23807610609899,4196728732
sw,-74.41796875,-84.1769180297851,40.089054283947256,-76.70055149919254,4196745399
sw,-75.6886672973632,-83.3292922973632,44.07483300814741,-96.33060063696578,4196762066
sw,-77.0362167358398,-81.4558792114257,48.90157339969949,-114.4262267339649,4196778733
sw,-78.3687057495117,-78.9428329467773,53.88239009360969,-129.0901093399601,4196795400
sw,-79.8065948486328,-76.3100128173828,58.355396817559324,-138.58207319635275,4196812067
sw,-81.2223281860351,-74.1551284790039,61.75841148070621,-141.69859169082227,4196828734
sw,-82.4423828125,-72.4822387695312,63.67966080000674,-138.07457064882837,4196845401
sw,-83.6842880249023,-70.6854400634765,63.8822998495114,-128.32472995891015,4196862068
sw,-84.9264221191406,-68.8830413818359,62.30904452114132,-113.984649543073,4196878735
sw,-86.0478973388671,-67.3234405517578,59.076980200689796,-97.25424478841508,4196895402
sw,-87.023696899414,-66.0633468627929,54.46819148958066,-80.58357607711001,4196912069
sw,-87.8249816894531,-65.1407089233398,48.91233805316255,-66.17793325617802,4196928736
sw,-88.4181137084961,-64.5774993896484,42.95153465818945,-55.531848150320016,4196945403
sw,-88.7083511352539,-64.2082901000976,37.18107684506103,-49.11305819558823,4196962070
sw,-88.6895599365234,-63.9849395751953,32.16858833838432,-46.29377245625868,4196978737
sw,-88.509048461914,-63.7148323059082,28.362969193981826,-45.567299633260895,4196995404
sw,-88.2418670654296,-63.2448425292968,26.010335579104485,-45.00484200576402,4197012071
sw,-87.9236907958984,-62.670181274414,25.097037186759806,-42.82432061918446,4197028738
sw,-87.5704574584961,-62.279483795166,25.338670815799034,-37.89574952758949,4197045405
sw,-87.1515350341796,-62.2688941955566,26.226314870619433,-30.025818819980397,4197062072
sw,-86.6624679565429,-62.447151184082,27.127098279139435,-19.947001542523743,4197078739
sw,-86.1568222045898,-62.7902565002441,27.420142573872774,-9.04420319785003,4197095406
sw,-85.6458053588867,-63.2932929992675,26.6371375254904,1.0675358587536619,4197112073
sw,-85.1693725585937,-63.9356803894043,24.573669772621486,8.975955751806408,4197128740
sw,-84.7584381103515,-64.7232284545898,21.343516266787173,13.800654553414557,4197145407
sw,-84.4194564819336,-65.4934310913086,17.36102088507589,15.352361426531129,4197162074
