Label,Left_Hip_q,Right_Hip_q,Left_Hip_qd,Right_Hip_qd,SampleTimeFine
iw,-82.255142211914,-48.9695320129394,45.9241142272949,-40.4603614807128,1288983318
iw,-83.1129379272461,-48.7322349548339,48.7686042785644,-23.3334236145019,1288999985
iw,-83.9930877685546,-48.8636207580566,52.5810813903808,1.83501780033111,1289016652
iw,-84.8509826660156,-49.4454154968261,52.9090042114257,31.8153533935546,1289033319
iw,-85.6461639404296,-50.3332366943359,50.7608184814453,51.2968826293945,1289049986
iw,-86.3587951660156,-51.2947235107421,49.2733764648437,55.3495330810546,1289066653
iw,-86.963394165039,-52.2441329956054,48.5329818725585,52.4314002990722,1289083320
iw,-87.4095077514648,-53.2450485229492,44.21675491333,52.2654876708984,1289099987
iw,-87.676284790039,-54.2140960693359,36.9393234252929,48.7797546386718,1289116654
iw,-87.7861022949218,-55.0958061218261,30.1328525543212,43.775577545166,1289133321
iw,-87.8143005371093,-55.9969444274902,20.1298751831054,45.8431320190429,1289149988
iw,-87.8353576660156,-57.0027198791503,10.1052093505859,52.8125038146972,1289166655
iw,-87.8569869995117,-57.8225708007812,-2.17453122138977,45.5640029907226,1289183322
iw,-87.8042984008789,-58.5101737976074,-10.5797910690307,43.1550521850585,1289199989
iw,-87.5911636352539,-59.1512069702148,-21.995994567871,37.4585037231445,1289216656
iw,-87.0648193359375,-59.78950881958,-39.2142829895019,29.6559810638427,1289233323
iw,-86.0540008544921,-60.5420875549316,-67.785888671875,32.9161643981933,1289249990
iw,-84.5323410034179,-61.5920181274414,-90.9293060302734,52.6840629577636,1289266657
iw,-82.5486297607421,-63.0148620605468,-109.916854858398,79.6500244140625,1289283324
iw,-80.3616180419921,-64.5010604858398,-106.420097351074,90.3423156738281,1289299991
iw,-78.2418441772461,-65.7868423461914,-93.6171798706054,81.8782653808593,1289316658
iw,-76.1183853149414,-66.9361877441406,-100.064224243164,71.0638656616211,1289333325
iw,-73.9979858398437,-67.9383850097656,-111.932868957519,56.4343605041503,1289349992
iw,-71.9680862426757,-68.7981338500976,-120.544776916503,43.6116104125976,1289366659
iw,-69.8700485229492,-69.706069946289,-137.673767089843,46.4859619140625,1289383326
iw,-67.7219924926757,-70.7460174560546,-144.3134765625,56.3778991699218,1289399993
iw,-65.5146865844726,-71.8623580932617,-145.714950561523,62.3362121582031,1289416660
iw,-63.3587684631347,-72.9852142333984,-140.137741088867,62.2186851501464,1289433327
iw,-61.4375267028808,-74.1279907226562,-121.144332885742,63.8067321777343,1289449994
iw,-59.88032913208,-75.2564697265625,-91.596565246582,64.9309158325195,1289466661
iw,-58.530704498291,-76.3057098388671,-73.0819702148437,62.693618774414,1289483328
iw,-57.2510032653808,-77.2380065917968,-67.3731613159179,56.7968025207519,1289499995
iw,-55.9917564392089,-78.0679016113281,-69.4310607910156,50.6318893432617,1289516662
iw,-54.8882064819335,-78.821533203125,-63.6521110534668,45.3345756530761,1289533329
iw,-53.9754257202148,-79.5233078002929,-59.8712730407714,41.4686622619628,1289549996
iw,-53.3428268432617,-80.2104797363281,-51.2852058410644,40.3123779296875,1289566663
iw,-53.0694503784179,-80.9154663085937,-31.8955459594726,41.5179710388183,1289583330
iw,-53.1878395080566,-81.6576919555664,-13.6914615631103,43.6617279052734,1289599997
iw,-53.8743171691894,-82.4282455444336,21.0598964691162,45.2015304565429,1289616664
iw,-54.7918586730957,-83.1748733520507,36.3021430969238,44.1235847473144,1289633331
iw,-55.60103225708,-83.8608474731445,33.1243515014648,40.9533996582031,1289649998
iw,-56.0726242065429,-84.543212890625,13.3770990371704,41.9510498046875,1289666665
iw,-56.4198989868164,-85.2538528442382,2.07778525352478,45.1130104064941,1289683332
iw,-56.828498840332,-86.0012969970703,2.06400227546691,50.4609031677246,1289699999
iw,-57.3466300964355,-86.6659927368164,7.57456445693969,50.7830123901367,1289716666
iw,-58.0661582946777,-87.0861663818359,20.5254154205322,43.3648529052734,1289733333
iw,-58.946979522705,-87.2127990722656,25.136079788208,31.3578968048095,1289750000
iw,-59.8292083740234,-87.1260147094726,26.115867614746,16.1308841705322,1289766667
iw,-60.7417259216308,-86.964370727539,45.6738357543945,6.62673234939575,1289783334
iw,-61.3290138244628,-86.7855758666992,36.4898300170898,-0.549906075000762,1289800001
iw,-61.7611541748046,-86.5556564331054,32.1091804504394,-15.0316791534423,1289816668
iw,-62.1719360351562,-86.1607971191406,18.7501373291015,-42.3057327270507,1289833335
iw,-62.9559860229492,-85.400405883789,28.0148429870605,-80.0123748779296,1289850002
iw,-64.0365753173828,-83.9467010498046,43.4035987854003,-122.106407165527,1289866669
iw,-65.3061599731445,-81.790054321289,63.4631881713867,-149.999374389648,1289883336
iw,-66.414306640625,-79.1534271240234,61.7136344909668,-164.973648071289,1289900003
iw,-67.4274597167968,-76.3173217773437,54.5316047668457,-167.531417846679,1289916670
iw,-68.4345245361328,-73.6494827270507,46.0626602172851,-152.069213867187,1289933337
iw,-69.4296417236328,-71.2196426391601,42.5124244689941,-137.938095092773,1289950004
iw,-70.3322067260742,-68.9785842895507,37.3266639709472,-132.38931274414,1289966671
iw,-71.1951904296875,-66.8155364990234,35.3243293762207,-135.468200683593,1289983338
iw,-72.1344375610351,-64.5615463256836,39.0203742980957,-145.82453918457,1290000005
iw,-73.1234970092773,-62.2615585327148,40.3774871826171,-149.70701599121,1290016672
iw,-74.0798950195312,-60.0980834960937,39.9415245056152,-140.004699707031,1290033339
iw,-74.9692230224609,-58.1207656860351,40.9007110595703,-125.39712524414,1290050006
iw,-75.8099288940429,-56.2640342712402,43.1601333618164,-113.946563720703,1290066673
iw,-76.6434860229492,-54.5022277832031,46.2452430725097,-105.426139831542,1290083340
iw,-77.5326232910156,-53.0629196166992,51.0603675842285,-84.71484375,1290100007
iw,-78.4593124389648,-51.9392967224121,53.3860664367675,-65.8353958129882,1290116674
iw,-79.3379440307617,-51.0850486755371,49.1312675476074,-51.1941757202148,1290133341
iw,-80.158332824707,-50.3879127502441,43.3780708312988,-45.408275604248,1290150008
iw,-80.9545669555664,-49.7840423583984,40.2672958374023,-44.5710716247558,1290166675
iw,-81.7309799194336,-49.2635459899902,38.9958610534668,-40.0043220520019,1290183342
iw,-82.5125350952148,-48.8509941101074,40.858226776123,-30.7170486450195,1290200009
iw,-83.3445358276367,-49.0044593811035,45.1986923217773,5.28726625442504,1290216676
iw,-84.2153091430664,-49.7181930541992,48.4349136352539,39.5933074951171,1290233343
iw,-85.0977172851562,-50.6852951049804,50.1983909606933,55.8012008666992,1290250010
iw,-85.9489974975586,-51.5214118957519,49.6340065002441,48.6907005310058,1290266677
iw,-86.7623901367187,-52.1909675598144,48.7241058349609,35.2830047607421,1290283344
iw,-87.4939193725586,-52.9167671203613,45.4981880187988,34.9183197021484,1290300011
iw,-88.0968017578125,-53.6319694519043,41.1928405761718,33.2446365356445,1290316678
iw,-88.5174789428711,-54.304573059082,36.2657623291015,31.0014972686767,1290333345
iw,-88.7113876342773,-55.062156677246,31.6806163787841,36.0152587890625,1290350012
iw,-88.6766281127929,-55.9169464111328,25.8592567443847,42.072208404541,1290366679
iw,-88.5308609008789,-56.8206634521484,17.9995250701904,48.0375251770019,1290383346
iw,-88.4275360107421,-57.5355796813964,6.12003517150878,39.4792900085449,1290400013
iw,-88.3789978027343,-58.2273216247558,-2.57462882995605,41.1469993591308,1290416680
iw,-88.375747680664,-58.8492126464843,-15.8147449493408,38.1074867248535,1290433347
iw,-88.2572937011718,-59.3219985961914,-33.8931083679199,23.9961853027343,1290450014
iw,-87.6461563110351,-59.97066116333,-59.8766136169433,27.6776866912841,1290466681
iw,-86.2919769287109,-61.1215667724609,-88.6162643432617,58.7258834838867,1290483348
iw,-84.3681030273437,-62.5573348999023,-108.62564086914,80.1944732666015,1290500015
iw,-82.2564849853515,-63.9619216918945,-105.666435241699,82.5598373413086,1290516682
iw,-80.0404739379882,-65.1463623046875,-102.686462402343,71.7355270385742,1290533349
iw,-77.6379852294921,-66.215103149414,-109.222343444824,61.9498291015625,1290550016
iw,-75.1569900512695,-67.2106170654296,-115.789329528808,52.6604995727539,1290566683
iw,-72.7750091552734,-68.1074676513671,-121.659194946289,44.5321922302246,1290583350
iw,-70.4994735717773,-69.0602111816406,-131.251281738281,49.1502380371093,1290600017
iw,-68.206298828125,-70.0971450805664,-143.798843383789,55.7140617370605,1290616684
iw,-65.8034515380859,-71.125991821289,-155.024948120117,55.0718231201171,1290633351
iw,-63.342601776123,-72.1398162841796,-159.078430175781,53.1395606994628,1290650018
iw,-60.997142791748,-73.1993179321289,-149.433929443359,56.1039924621582,1290666685
iw,-58.9947357177734,-74.2750015258789,-121.829978942871,58.7376861572265,1290683352
iw,-57.354923248291,-75.3272171020507,-92.3894348144531,59.5338401794433,1290700019
iw,-55.9942359924316,-76.313720703125,-70.1784286499023,57.7391548156738,1290716686
iw,-54.8027076721191,-77.1957015991211,-56.1030120849609,52.9927787780761,1290733353
iw,-53.8491897583007,-78.0011596679687,-42.9888305664062,49.4257049560546,1290750020
iw,-53.0943603515625,-78.7355499267578,-40.47607421875,45.0977935791015,1290766687
iw,-52.5352592468261,-79.4878845214843,-43.8454666137695,45.7080726623535,1290783354
iw,-52.1599426269531,-80.286880493164,-44.863426208496,47.6096420288085,1290800021
iw,-52.4930801391601,-81.1310729980468,-12.5594034194946,49.5197448730468,1290816688
iw,-53.8530158996582,-81.9876098632812,54.775779724121,49.218994140625,1290833355
iw,-55.5327377319335,-82.8588333129882,82.2267227172851,49.809226989746,1290850022
iw,-56.5123672485351,-83.7554016113281,45.6641845703125,51.4710006713867,1290866689
iw,-56.6114387512207,-84.7490234375,-12.6516056060791,57.763874053955,1290883356
iw,-56.9770011901855,-85.8338851928711,8.78504657745361,65.3456268310546,1290900023
iw,-57.7519760131835,-86.8325729370117,36.5242271423339,66.9330139160156,1290916690
iw,-58.4290580749511,-87.4121475219726,17.4363956451416,52.8872375488281,1290933357
iw,-59.4492645263671,-87.4953994750976,31.8618965148925,30.496597290039,1290950024
iw,-60.5953216552734,-87.3319320678711,50.3984718322753,11.6550540924072,1290966691
iw,-61.3157157897949,-87.1260147094726,40.4344177246093,-2.70508790016174,1290983358
iw,-61.8037109375,-86.8643798828125,46.8340530395507,-17.7321090698242,1291000025
iw,-62.0578918457031,-86.4427947998046,19.8504180908203,-34.7147598266601,1291016692
iw,-62.3948860168457,-85.7469711303711,1.88100171089172,-56.4148788452148,1291033359
iw,-63.1883468627929,-84.5815277099609,18.2211475372314,-90.7607879638671,1291050026
iw,-64.2538681030273,-82.7894515991211,35.8573532104492,-127.637290954589,1291066693
iw,-65.3199768066406,-80.2955093383789,45.4258117675781,-162.656524658203,1291083360
iw,-66.3374786376953,-77.2373123168945,51.6799354553222,-187.690338134765,1291100027
iw,-67.3411865234375,-74.0142364501953,53.4577331542968,-190.027038574218,1291116694
iw,-68.2658386230468,-70.9655075073242,42.2668876647949,-175.466964721679,1291133361
iw,-69.1182556152343,-68.2970123291015,33.336441040039,-153.678253173828,1291150028
iw,-69.8215255737304,-66.1016235351562,19.02024269104,-131.824813842773,1291166695
iw,-70.5460128784179,-64.1592712402343,15.1806678771972,-124.066825866699,1291183362
iw,-71.5201721191406,-62.0973815917968,34.1711921691894,-134.611129760742,1291200029
iw,-72.5559387207031,-59.863410949707,48.2711715698242,-145.433349609375,1291216696
iw,-73.4427947998046,-57.6462440490722,47.734130859375,-144.023254394531,1291233363
iw,-74.3005676269531,-55.5853195190429,47.5316505432128,-133.212280273437,1291250030
iw,-75.2245864868164,-53.6503219604492,49.2781028747558,-122.619735717773,1291266697
iw,-76.1496505737304,-51.9665756225585,48.0222091674804,-103.786598205566,1291283364
iw,-77.0948638916015,-50.5508079528808,49.1707458496093,-85.1271514892578,1291300031
iw,-78.0203781127929,-49.4902610778808,48.1277084350585,-63.8601188659668,1291316698
iw,-78.8781356811523,-48.6799201965332,43.8771476745605,-52.0770225524902,1291333365
iw,-79.6728439331054,-47.9778518676757,39.6736717224121,-49.0724563598632,1291350032
iw,-80.4256820678711,-47.363109588623,36.320499420166,-45.2489585876464,1291366699
iw,-81.1785583496093,-46.8608283996582,36.1139335632324,-38.2838706970214,1291383366
iw,-81.963150024414,-46.5970077514648,38.6540641784668,-21.3485717773437,1291400033
iw,-82.7714309692382,-46.6811714172363,42.8835067749023,0.480501264333725,1291416700
iw,-83.613410949707,-47.2423591613769,49.2473793029785,30.4631805419921,1291433367
iw,-84.4750442504882,-48.1580200195312,54.0779647827148,53.174144744873,1291450034
iw,-85.3124923706054,-49.1101341247558,54.2886619567871,57.5190467834472,1291466701
iw,-86.0673751831054,-49.9852752685546,49.9030952453613,52.8208694458007,1291483368
iw,-86.7348175048828,-50.8885116577148,43.6903266906738,52.011962890625,1291500035
iw,-87.3494567871093,-51.8000679016113,38.0218353271484,50.4442520141601,1291516702
iw,-87.9010009765625,-52.7719001770019,33.6701698303222,52.8720779418945,1291533369
iw,-88.3471984863281,-53.8155441284179,30.3338565826416,56.1878242492675,1291550036
iw,-88.6420288085937,-55.020523071289,29.0949630737304,65.7727584838867,1291566703
iw,-88.6982421875,-56.2300949096679,25.7823619842529,69.8138885498046,1291583370
iw,-88.5407562255859,-56.9592132568359,14.1383295059204,48.0344009399414,1291600037
iw,-88.3296508789062,-57.6048049926757,-11.9450044631958,46.1420783996582,1291616704
iw,-87.8943939208984,-58.1787948608398,-49.1222648620605,35.1572380065918,1291633371
iw,-86.8608856201171,-58.7682991027832,-80.3765792846679,23.1983070373535,1291650038
iw,-85.3086929321289,-59.6689414978027,-98.0470504760742,36.7053413391113,1291666705
iw,-83.4932022094726,-61.1103172302246,-105.637664794921,75.2918472290039,1291683372
iw,-81.5878677368164,-62.6063079833984,-97.2205352783203,89.0309524536132,1291700039
iw,-79.5582046508789,-63.9698028564453,-89.2640380859375,87.3146743774414,1291716706
iw,-77.2685470581054,-65.2415542602539,-96.6573181152343,80.3663330078125,1291733373
iw,-74.7782745361328,-66.337158203125,-111.931503295898,63.870792388916,1291750040
iw,-72.3320159912109,-67.2503509521484,-119.648376464843,47.0670852661132,1291766707
iw,-69.9704971313476,-68.1518936157226,-128.546188354492,44.3015632629394,1291783374
iw,-67.5845794677734,-69.1980743408203,-141.443069458007,54.3878479003906,1291800041
iw,-65.2610549926757,-70.3550415039062,-141.537384033203,63.6093826293945,1291816708
iw,-63.0070533752441,-71.4492874145507,-137.394668579101,61.7823181152343,1291833375
iw,-60.8842582702636,-72.5099868774414,-127.991500854492,61.0315589904785,1291850042
iw,-58.9816741943359,-73.6044082641601,-115.225509643554,64.0348587036132,1291866709
iw,-57.3185997009277,-74.6980895996093,-101.508560180664,64.1437225341796,1291883376
iw,-55.8825035095214,-75.7140426635742,-86.677749633789,58.9031753540039,1291900043
iw,-54.5416526794433,-76.7046203613281,-80.0101852416992,57.5346031188964,1291916710
iw,-53.2958450317382,-77.6398468017578,-73.1727752685546,53.1259422302246,1291933377
iw,-52.1962280273437,-78.5308761596679,-64.6082687377929,49.3788261413574,1291950044
iw,-51.3888397216796,-79.3663711547851,-49.2805099487304,45.498176574707,1291966711
iw,-51.1261100769043,-80.1641693115234,-14.5230531692504,43.5208854675293,1291983378
iw,-51.19771194458,-80.9010620117187,1.88665068149566,41.0761680603027,1292000045
iw,-51.635570526123,-81.6139144897461,12.9097995758056,41.2620582580566,1292016712
iw,-52.6091842651367,-82.3154296875,38.9935836791992,41.5208663940429,1292033379
iw,-53.835765838623,-82.988655090332,48.4036483764648,39.4283905029296,1292050046
iw,-54.9031906127929,-83.6916809082031,43.8931274414062,39.8197937011718,1292066713
iw,-55.4390296936035,-84.4635238647461,13.0516681671142,43.454303741455,1292083380
iw,-55.8259696960449,-85.2746200561523,2.03239130973815,47.4060363769531,1292100047
iw,-56.3343887329101,-86.0267486572265,5.73621129989624,46.0183677673339,1292116714
iw,-57.1233673095703,-86.6056976318359,24.0933227539062,38.3986015319824,1292133381
iw,-58.1321029663085,-86.9026947021484,36.2868270874023,24.2879199981689,1292150048
iw,-58.8593864440918,-86.8963775634765,18.2220802307128,5.73126459121704,1292166715
iw,-59.6347312927246,-86.7285919189453,38.8320884704589,-5.12518262863159,1292183382
iw,-60.2335929870605,-86.3924026489257,36.3414993286132,-17.0505847930908,1292200049
iw,-60.6009445190429,-85.8626098632812,27.0123252868652,-30.1037578582763,1292216716
iw,-60.8178749084472,-85.059700012207,9.08840656280517,-49.055793762207,1292233383
iw,-61.4774208068847,-83.874526977539,22.6189804077148,-77.1535568237304,1292250050
iw,-62.5536384582519,-82.1846542358398,35.6406669616699,-111.502395629882,1292266717
iw,-63.7027702331543,-79.7719192504882,44.754280090332,-153.491302490234,1292283384
iw,-64.6205215454101,-76.7579345703125,43.9279556274414,-183.531188964843,1292300051
iw,-65.573501586914,-73.4953460693359,51.2983436584472,-192.149856567382,1292316718
iw,-66.593276977539,-70.3405227661132,50.188003540039,-181.429626464843,1292333385
iw,-67.6295928955078,-67.5911331176757,50.8571815490722,-157.274703979492,1292350052
iw,-68.5755157470703,-65.2490463256836,47.22310256958,-137.745635986328,1292366719
iw,-69.4314651489257,-63.1863822937011,39.572280883789,-127.856346130371,1292383386
iw,-70.3320388793945,-61.1941032409668,35.7579879760742,-128.21206665039,1292400053
iw,-71.3454895019531,-59.1839256286621,38.8211936950683,-130.439407348632,1292416720
iw,-72.3994979858398,-57.1953506469726,43.2834777832031,-127.740768432617,1292433387
iw,-73.3646697998046,-55.2434959411621,43.5397911071777,-123.455085754394,1292450054
iw,-74.2373962402343,-53.3526878356933,44.4657897949218,-117.564331054687,1292466721
iw,-75.1059341430664,-51.6987152099609,49.8501434326171,-101.126091003417,1292483388
iw,-76.0144271850586,-50.3152961730957,55.1849937438964,-83.5035552978515,1292500055
iw,-76.9069061279296,-49.2324905395507,53.653221130371,-65.8386993408203,1292516722
iw,-77.7711486816406,-48.4571685791015,50.169620513916,-50.9379005432128,1292533389
iw,-78.6001358032226,-47.9067916870117,45.852725982666,-43.3808212280273,1292550056
iw,-79.3924713134765,-47.4770355224609,41.4247894287109,-41.0196495056152,1292566723
iw,-80.1628265380859,-47.1470336914062,38.7108993530273,-31.6754493713378,1292583390
iw,-80.9372253417968,-47.1435813903808,39.2693519592285,-6.39087772369384,1292600057
iw,-81.7610092163086,-47.7153511047363,44.0506744384765,32.787799835205,1292616724
iw,-82.6270599365234,-48.5963897705078,48.7903442382812,52.5949783325195,1292633391
iw,-83.531005859375,-49.5654869079589,52.3856773376464,57.959545135498,1292650058
iw,-84.4148941040039,-50.5001373291015,51.9229927062988,55.0062980651855,1292666725
iw,-85.2346115112304,-51.5343589782714,49.0668601989746,57.8546676635742,1292683392
iw,-85.9571228027343,-52.6737823486328,43.4904861450195,61.8274269104003,1292700059
iw,-86.5398330688476,-53.7549133300781,34.1862144470214,57.3353958129882,1292716726
iw,-86.9659805297851,-54.8096694946289,23.6885147094726,54.7558364868164,1292733393
iw,-87.2946243286132,-55.9873466491699,18.1089439392089,62.8868446350097,1292750060
iw,-87.5364532470703,-57.0960159301757,15.7473306655883,62.6805725097656,1292766727
iw,-87.5760955810546,-57.6649322509765,8.19403076171875,33.4234580993652,1292783394
iw,-87.4099578857421,-58.1956558227539,-2.24132108688354,33.2032508850097,1292800061
iw,-87.0292205810546,-58.740623474121,-17.0973396301269,31.8933906555175,1292816728
iw,-86.3170394897461,-59.2495689392089,-44.534797668457,24.0445098876953,1292833395
iw,-85.0857009887695,-60.0386009216308,-76.6904983520507,38.7056655883789,1292850062
iw,-83.4046859741211,-61.2827796936035,-96.9361114501953,66.8812026977539,1292866729
iw,-81.4185409545898,-62.7420501708984,-104.040687561035,83.9888076782226,1292883396
iw,-79.3269577026367,-64.1123046875,-96.2595062255859,83.9013519287109,1292900063
iw,-77.120132446289,-65.31298828125,-93.6621475219726,73.7251052856445,1292916730
iw,-74.801513671875,-66.407112121582,-100.654006958007,62.6662063598632,1292933397
iw,-72.5309829711914,-67.3635940551757,-106.909431457519,49.6719589233398,1292950064
iw,-70.4726257324218,-68.250732421875,-109.241676330566,43.9109535217285,1292966731
iw,-68.4966964721679,-69.2087707519531,-117.539855957031,49.1159973144531,1292983398
iw,-66.5534591674804,-70.2523651123046,-121.44408416748,55.9150581359863,1293000065
iw,-64.521369934082,-71.3272323608398,-128.540771484375,58.4165534973144,1293016732
iw,-62.423095703125,-72.4418716430664,-133.074096679687,60.4107360839843,1293033399
iw,-60.4419288635253,-73.6175308227539,-124.226005554199,65.0931396484375,1293050066
iw,-58.7198753356933,-74.8060989379882,-104.702186584472,68.3987274169921,1293066733
iw,-57.2514419555664,-75.9597015380859,-85.8897933959961,68.2518081665039,1293083400
iw,-55.9540252685546,-77.0295944213867,-74.4201049804687,64.0466537475586,1293100067
iw,-54.7915840148925,-78.0268783569336,-68.7661819458007,59.8938827514648,1293116734
iw,-53.8146133422851,-78.9703292846679,-60.4117736816406,56.2418327331543,1293133401
iw,-53.0414543151855,-79.8454895019531,-52.4288864135742,51.6780853271484,1293150068
iw,-52.5079231262207,-80.6113815307617,-44.2658348083496,44.5503692626953,1293166735
iw,-52.2542343139648,-81.3188171386718,-30.2465496063232,40.9357795715332,1293183402
iw,-52.3234977722168,-81.9609069824218,-18.3769226074218,36.247329711914,1293200069
iw,-53.096881866455,-82.6258926391601,23.8432312011718,37.4221115112304,1293216736
iw,-54.2100296020507,-83.339859008789,45.538646697998,41.2155265808105,1293233403
iw,-55.2716178894043,-84.1081085205078,44.4246788024902,46.2328987121582,1293250070
iw,-55.8569908142089,-84.9112319946289,15.2014570236206,50.134708404541,1293266737
iw,-56.1891479492187,-85.7154998779296,-4.5381155014038,52.8866958618164,1293283404
iw,-56.8110656738281,-86.4224243164062,14.6454916000366,51.4741020202636,1293300071
iw,-57.7844047546386,-86.9223480224609,39.1469955444335,45.1952285766601,1293316738
iw,-58.8304138183593,-87.1569747924804,36.2980995178222,34.8644638061523,1293333405
iw,-59.7670097351074,-87.1778411865234,24.5936794281005,25.8915176391601,1293350072
iw,-60.4168891906738,-87.0653533935546,22.7049808502197,17.4113311767578,1293366739
iw,-60.9469337463378,-86.8539047241211,32.3887557983398,4.61679506301879,1293383406
iw,-61.3598442077636,-86.5723495483398,24.8639888763427,-14.0711250305175,1293400073
iw,-61.8761863708496,-86.2113189697265,21.1454315185546,-37.4872436523437,1293416740
iw,-62.7219848632812,-85.6615371704101,30.0939121246337,-63.9316635131835,1293433407
iw,-63.8208847045898,-84.6413803100586,43.9167976379394,-97.9694366455078,1293450074
iw,-65.0729064941406,-82.9586181640625,66.5181427001953,-127.684844970703,1293466741
iw,-66.1736145019531,-80.712661743164,67.6506652832031,-146.688034057617,1293483408
iw,-67.035888671875,-78.0553283691406,47.9818077087402,-160.76675415039,1293500075
iw,-67.9005126953125,-75.3020401000976,35.7244720458984,-159.900634765625,1293516742
iw,-68.8028488159179,-72.7714157104492,30.943696975708,-143.898468017578,1293533409
iw,-69.716079711914,-70.53662109375,36.8847122192382,-128.966369628906,1293550076
iw,-70.6393508911132,-68.4921722412109,44.9587097167968,-123.444725036621,1293566743
iw,-71.603286743164,-66.4482116699218,50.2414016723632,-128.934127807617,1293583410
iw,-72.5379409790039,-64.3370742797851,45.5431060791015,-135.270965576171,1293600077
iw,-73.3952484130859,-62.2765731811523,37.3318557739257,-132.258483886718,1293616744
iw,-74.2532501220703,-60.3625755310058,38.9043273925781,-121.895561218261,1293633411
iw,-75.1276931762695,-58.6062545776367,44.0176582336425,-109.492401123046,1293650078
iw,-76.0161209106445,-56.978042602539,49.0078659057617,-98.2498779296875,1293666745
iw,-76.9282836914062,-55.4772109985351,53.3049011230468,-88.8147277832031,1293683412
iw,-77.8619918823242,-54.2222824096679,55.690631866455,-74.3347015380859,1293700079
iw,-78.7657089233398,-53.1837005615234,53.011863708496,-64.4935913085937,1293716746
iw,-79.6172714233398,-52.3600311279296,48.320457458496,-56.7478866577148,1293733413
iw,-80.4534454345703,-51.6605834960937,45.70458984375,-54.0336074829101,1293750080
iw,-81.3076705932617,-51.0045318603515,44.8477516174316,-52.5327377319335,1293766747
iw,-82.1608123779296,-50.4636840820312,43.5755538940429,-40.4250335693359,1293783414
iw,-82.9866943359375,-50.324363708496,43.4209671020507,-12.7231845855712,1293800081
iw,-83.8271179199218,-50.6959533691406,47.7601661682128,20.5325374603271,1293816748
iw,-84.6630401611328,-51.255271911621,49.9684600830078,32.904972076416,1293833415
iw,-85.4671936035156,-51.7837333679199,48.4027366638183,30.1234664916992,1293850082
iw,-86.2032623291015,-52.3314170837402,43.1273345947265,26.848834991455,1293866749
iw,-86.8718185424804,-53.0172691345214,38.876594543457,30.8660926818847,1293883416
iw,-87.4490203857421,-53.7914962768554,36.843162536621,35.6644020080566,1293900083
iw,-87.8830795288086,-54.4959678649902,35.3221702575683,33.8729782104492,1293916750
iw,-88.1282119750976,-55.0579147338867,31.647008895874,26.4796657562255,1293933417
iw,-88.1918182373046,-55.5789070129394,26.9889659881591,23.5371017456054,1293950084
iw,-88.1525268554687,-56.3279876708984,22.767385482788,38.461009979248,1293966751
iw,-88.1144638061523,-56.9654579162597,10.7104606628417,33.421401977539,1293983418
iw,-88.1315612792968,-57.696002960205,-6.40362644195556,42.66259765625,1294000085
iw,-88.0470581054687,-58.4868431091308,-26.3489875793457,47.8959808349609,1294016752
iw,-87.5631332397461,-59.0667991638183,-45.9797439575195,32.5360260009765,1294033419
iw,-86.482421875,-59.6571540832519,-71.9805679321289,30.437795639038,1294050086
iw,-84.924690246582,-60.6301956176757,-90.7742538452148,49.1234970092773,1294066753
iw,-82.967041015625,-61.8900527954101,-109.920684814453,65.6476287841796,1294083420
iw,-80.8216400146484,-63.114501953125,-110.027153015136,68.0810852050781,1294100087
iw,-78.592300415039,-64.3323974609375,-103.936027526855,71.3806991577148,1294116754
iw,-76.2920684814453,-65.5810012817382,-102.652770996093,72.6525344848632,1294133421
iw,-73.9304809570312,-66.7290878295898,-111.243255615234,63.4718894958496,1294150088
iw,-71.646987915039,-67.7512893676757,-119.376884460449,54.2786140441894,1294166755
iw,-69.4522018432617,-68.757568359375,-129.901641845703,54.5080986022949,1294183422
iw,-67.2154388427734,-69.8091964721679,-142.450958251953,57.9240493774414,1294200089
iw,-64.9232864379882,-70.898811340332,-147.612518310546,58.8760337829589,1294216756
iw,-62.6275978088378,-72.0027999877929,-148.514602661132,58.2310943603515,1294233423
iw,-60.502456665039,-73.102066040039,-135.418258666992,58.335880279541,1294250090
iw,-58.701904296875,-74.1812133789062,-108.990425109863,58.9690475463867,1294266757
iw,-57.1541442871093,-75.2254638671875,-88.0818786621093,59.0301971435546,1294283424
iw,-55.7759628295898,-76.2945327758789,-73.7625961303711,62.2709121704101,1294300091
iw,-54.4736061096191,-77.3699722290039,-69.0930633544921,64.2413711547851,1294316758
iw,-53.2947845458984,-78.4026412963867,-65.2164764404296,62.1011199951171,1294333425
iw,-52.3248634338378,-79.3892669677734,-58.8941001892089,58.9729804992675,1294350092
iw,-51.6055183410644,-80.3374710083007,-51.7741775512695,56.2805290222168,1294366759
iw,-51.3147087097168,-81.2338180541992,-28.1568088531494,52.9023056030273,1294383426
iw,-51.3059577941894,-82.1120071411132,-15.5609159469604,52.1467132568359,1294400093
iw,-51.7649993896484,-82.958869934082,4.55799579620361,49.7830619812011,1294416760
iw,-52.8960914611816,-83.7817993164062,45.225959777832,47.2490844726562,1294433427
iw,-54.2164039611816,-84.5838775634765,59.7317886352539,45.8435859680175,1294450094
iw,-55.1032676696777,-85.3825531005859,36.1766738891601,46.0211715698242,1294466761
iw,-55.4081954956054,-86.2348556518554,-6.81028032302856,50.9268188476562,1294483428
iw,-55.8626823425293,-87.0767822265625,-3.30825614929199,53.3954467773437,1294500095
iw,-56.7074089050293,-87.8250732421875,22.9802474975585,53.1615333557128,1294516762
iw,-57.6503753662109,-88.2665252685546,31.7740783691406,45.5460319519043,1294533429
iw,-58.5813255310058,-88.2964706420898,25.8265018463134,31.4716300964355,1294550096
iw,-59.2713508605957,-88.1078262329101,17.2837829589843,11.0087966918945,1294566763
iw,-60.0883712768554,-87.8676071166992,48.065631866455,-6.49381160736084,1294583430
iw,-60.584056854248,-87.5760269165039,30.1439990997314,-24.8972434997558,1294600097
iw,-61.0777587890625,-87.2109069824218,32.3875274658203,-37.3355598449707,1294616764
iw,-61.4574546813964,-86.7059783935546,13.5806150436401,-50.521369934082,1294633431
iw,-62.2635765075683,-85.9181289672851,29.7835216522216,-69.4552612304687,1294650098
iw,-63.3532409667968,-84.6210556030273,38.8912010192871,-97.0027389526367,1294666765
iw,-64.5399551391601,-82.7551116943359,53.190071105957,-123.451042175292,1294683432
iw,-65.5187454223632,-80.2654037475586,48.4891700744628,-154.244354248046,1294700099
iw,-66.5126419067382,-77.3981323242187,50.2334671020507,-171.79670715332,1294716766
iw,-67.5311737060546,-74.5825119018554,46.4046401977539,-164.936309814453,1294733433
iw,-68.5733795166015,-72.0507888793945,45.8185882568359,-146.576049804687,1294750100
iw,-69.4137954711914,-69.7476119995117,34.3147583007812,-135.753677368164,1294766767
iw,-70.1922912597656,-67.5441055297851,29.1840591430664,-134.114562988281,1294783434
iw,-71.1572570800781,-65.3037490844726,37.738052368164,-139.745956420898,1294800101
iw,-72.2869491577148,-63.0060577392578,49.6132431030273,-144.909210205078,1294816768
iw,-73.3637084960937,-60.6981506347656,51.7129974365234,-145.98452758789,1294833435
iw,-74.3085556030273,-58.4617881774902,48.8639106750488,-140.893325805664,1294850102
iw,-75.2172775268554,-56.420597076416,49.2294578552246,-127.322486877441,1294866769
iw,-76.1706161499023,-54.5808410644531,52.5489540100097,-112.897468566894,1294883436
iw,-77.14990234375,-53.0174026489257,53.9705963134765,-93.4586105346679,1294900103
iw,-78.1106185913086,-51.700210571289,52.3554344177246,-77.0386505126953,1294916770
iw,-78.9909286499023,-50.6372528076171,46.5565490722656,-62.8272438049316,1294933437
iw,-79.8272399902343,-49.8365097045898,42.4887809753418,-50.373550415039,1294950104
iw,-80.6681137084961,-49.212661743164,41.2811241149902,-43.3262825012207,1294966771
iw,-81.5662994384765,-48.6701583862304,45.4872665405273,-41.3051643371582,1294983438
iw,-82.5049362182617,-48.2288742065429,49.4632225036621,-33.5750122070312,1295000105
iw,-83.4749069213867,-48.1014060974121,53.3146591186523,-11.9792833328247,1295016772
iw,-84.4452209472656,-48.6566581726074,56.0100212097168,29.5531253814697,1295033439
iw,-85.4015960693359,-49.6594619750976,58.4908638000488,57.8198928833007,1295050106
iw,-86.2967834472656,-50.6185569763183,58.4003028869628,58.1228561401367,1295066773
iw,-87.0990982055664,-51.4784469604492,56.90185546875,50.3024787902832,1295083440
iw,-87.7676086425781,-52.4888954162597,54.3841018676757,55.7513198852539,1295100107
iw,-88.1907348632812,-53.464744567871,49.1573371887207,52.4257621765136,1295116774
iw,-88.3013076782226,-54.3577232360839,40.4290084838867,47.1918220520019,1295133441
iw,-88.2216110229492,-55.3580780029296,27.0421390533447,52.4622573852539,1295150108
iw,-88.1848983764648,-56.5043601989746,8.19063091278076,60.4422492980957,1295166775
iw,-88.3390502929687,-57.4465103149414,-20.1330871582031,51.7346611022949,1295183442
iw,-88.3539657592773,-58.3113937377929,-45.6143379211425,55.6589126586914,1295200109
iw,-87.6733322143554,-59.0015029907226,-69.8395080566406,42.2352561950683,1295216776
iw,-86.3318405151367,-59.6774177551269,-80.1173629760742,32.3729934692382,1295233443
iw,-84.6172256469726,-60.4776306152343,-85.6148910522461,34.477252960205,1295250110
iw,-82.722900390625,-61.6539611816406,-89.9428482055664,56.1713142395019,1295266777
iw,-80.6555557250976,-62.976463317871,-96.6588821411132,69.5435409545898,1295283444
iw,-78.5092849731445,-64.3800964355468,-96.1752777099609,81.7105102539062,1295300111
iw,-76.2392349243164,-65.7293548583984,-102.752571105957,81.3921966552734,1295316778
iw,-73.9039230346679,-66.9347076416015,-113.929008483886,71.4982223510742,1295333445
iw,-71.5767440795898,-68.0273056030273,-129.249771118164,62.1829185485839,1295350112
iw,-69.2554931640625,-68.9984893798828,-144.916290283203,52.511962890625,1295366779
iw,-66.9115142822265,-69.9729766845703,-155.354278564453,50.8111534118652,1295383446
iw,-64.492935180664,-71.0340423583984,-159.328750610351,54.3257179260253,1295400113
iw,-62.0985984802246,-72.1320571899414,-153.877838134765,55.9139823913574,1295416780
iw,-59.8857688903808,-73.222297668457,-132.599227905273,56.3715476989746,1295433447
iw,-58.1123580932617,-74.3244094848632,-96.2626266479492,59.8492317199707,1295450114
iw,-56.6787414550781,-75.4040985107421,-70.0602340698242,61.9067802429199,1295466781
iw,-55.3481140136718,-76.4424285888671,-64.0057678222656,61.8622894287109,1295483448
iw,-53.9898300170898,-77.3932342529296,-73.5823898315429,57.8818321228027,1295500115
iw,-52.7369842529296,-78.242073059082,-75.4742431640625,50.9287796020507,1295516782
iw,-51.7000656127929,-79.0117416381836,-70.6605758666992,44.7177619934082,1295533449
iw,-51.044807434082,-79.7192153930664,-50.1641387939453,39.8512382507324,1295550116
iw,-50.775577545166,-80.4196701049804,-26.1246738433837,39.1482315063476,1295566783
iw,-50.851318359375,-81.1095428466796,-11.1374921798706,38.334129333496,1295583450
iw,-51.5071144104003,-81.827163696289,23.3537139892578,39.8279457092285,1295600117
iw,-52.4592399597168,-82.560432434082,39.4247283935546,40.8092994689941,1295616784
iw,-53.4498252868652,-83.3178634643554,44.785041809082,41.8664436340332,1295633451
iw,-54.0543174743652,-84.1305847167968,20.9093875885009,44.8037719726562,1295650118
iw,-54.4193649291992,-84.9943389892578,1.72905325889587,47.8139877319335,1295666785
iw,-54.8485679626464,-85.8822021484375,0.231587305665016,50.7210807800293,1295683452
iw,-55.5232009887695,-86.6897354125976,12.4794673919677,48.2954330444335,1295700119
iw,-56.4324150085449,-87.2880554199218,28.950304031372,39.4533882141113,1295716786
iw,-57.5685157775878,-87.5816802978515,44.4564247131347,25.4182224273681,1295733453
iw,-58.3412361145019,-87.6392669677734,19.4353981018066,12.9153661727905,1295750120
iw,-59.0166206359863,-87.5784454345703,30.0747890472412,6.0487675666809,1295766787
iw,-59.4790153503418,-87.3933868408203,25.7650451660156,-1.10105431079864,1295783454
iw,-59.7991676330566,-87.096206665039,23.8782291412353,-8.8806505203247,1295800121
iw,-60.0654678344726,-86.6721038818359,18.7728309631347,-21.8355998992919,1295816788
iw,-60.8460731506347,-86.1405487060546,41.5861091613769,-37.6672782897949,1295833455
iw,-61.9874763488769,-85.3501739501953,50.1426010131835,-62.5843124389648,1295850122
iw,-63.1873016357421,-84.064094543457,55.7759857177734,-94.1029281616211,1295866789
iw,-64.2253952026367,-82.1128005981445,57.998176574707,-128.742858886718,1295883456
iw,-65.2100448608398,-79.5690841674804,54.3229713439941,-156.513610839843,1295900123
iw,-66.2509536743164,-76.819107055664,47.795970916748,-161.671005249023,1295916790
iw,-67.3372650146484,-74.1301727294921,43.2098121643066,-152.854721069335,1295933457
iw,-68.3276138305664,-71.6623306274414,37.3846206665039,-137.56346130371,1295950124
iw,-69.2112197875976,-69.4119720458984,33.2841720581054,-125.108100891113,1295966791
iw,-70.1961059570312,-67.2716369628906,42.8127632141113,-121.704902648925,1295983458
iw,-71.2531433105468,-65.0948181152343,49.2490310668945,-128.563903808593,1296000125
iw,-72.283447265625,-62.9713325500488,48.807388305664,-129.615905761718,1296016792
iw,-73.2308883666992,-60.9960632324218,44.8874893188476,-123.052268981933,1296033459
iw,-74.0441055297851,-59.1046867370605,38.3308486938476,-118.854080200195,1296050126
iw,-74.8457717895507,-57.2948303222656,40.3338661193847,-113.520393371582,1296066793
iw,-75.6540298461914,-55.566909790039,43.4880180358886,-107.489486694335,1296083460
iw,-76.4661712646484,-53.9999504089355,45.6721000671386,-96.087158203125,1296100127
iw,-77.2632904052734,-52.6290855407714,44.7828330993652,-83.3776321411132,1296116794
iw,-78.0393829345703,-51.5404624938964,42.2611351013183,-66.8153762817382,1296133461
iw,-78.8169784545898,-50.7459907531738,40.5911140441894,-51.698989868164,1296150128
iw,-79.611831665039,-50.1970252990722,39.8128471374511,-41.690673828125,1296166795
iw,-80.4858093261718,-49.7882461547851,43.6449890136718,-35.9180450439453,1296183462
iw,-81.4530258178711,-49.4538650512695,49.7175178527832,-28.3444480895996,1296200129
iw,-82.4277572631836,-49.4342803955078,51.5288124084472,-6.74340486526489,1296216796
iw,-83.3808517456054,-49.8695755004882,52.4668846130371,23.0301723480224,1296233463
iw,-84.3144912719726,-50.5094833374023,54.4733619689941,37.0986709594726,1296250130
iw,-85.2146377563476,-51.1518592834472,55.0298385620117,36.8400115966796,1296266797
iw,-86.0434417724609,-51.8255043029785,52.7555427551269,34.7088203430175,1296283464
iw,-86.7819900512695,-52.6199417114257,49.9035110473632,38.5798835754394,1296300131
iw,-87.4293823242187,-53.4161148071289,48.3943786621093,37.6805343627929,1296316798
iw,-87.9103393554687,-54.1702003479003,45.1746215820312,35.6447105407714,1296333465
iw,-88.1475524902343,-55.079044342041,40.3432426452636,45.4402427673339,1296350132
iw,-88.1424865722656,-56.0293312072753,34.9756774902343,48.9012298583984,1296366799
iw,-87.9573287963867,-57.0383872985839,30.5980224609375,54.993797302246,1296383466
iw,-87.7322082519531,-57.9147262573242,19.8046779632568,48.868896484375,1296400133
iw,-87.5887374877929,-58.7814292907714,6.84648418426513,50.9507102966308,1296416800
iw,-87.6160812377929,-59.5365676879882,-11.9256811141967,47.0702323913574,1296433467
iw,-87.7330703735351,-59.8979187011718,-35.9098777770996,22.0676479339599,1296450134
iw,-87.5809555053711,-60.2735939025878,-66.8812713623046,15.7651662826538,1296466801
iw,-86.6533889770507,-61.0994453430175,-92.0790863037109,35.6738014221191,1296483468
iw,-84.9969635009765,-62.4464111328125,-109.582908630371,66.8017196655273,1296500135
iw,-83.0045089721679,-63.8787727355957,-107.49429321289,79.4172286987304,1296516802
iw,-81.0128784179687,-65.1791000366211,-93.4244766235351,80.2187118530273,1296533469
iw,-78.835090637207,-66.3470993041992,-99.8246459960937,73.0452117919921,1296550136
iw,-76.5087356567382,-67.3898086547851,-110.438766479492,60.2663192749023,1296566803
iw,-74.2152252197265,-68.2990798950195,-118.10521697998,47.2789916992187,1296583470
iw,-72.0046997070312,-69.135269165039,-128.98306274414,41.131420135498,1296600137
iw,-69.7439651489257,-70.0093078613281,-143.978393554687,43.0996665954589,1296616804
iw,-67.3969955444336,-70.9751052856445,-151.666046142578,48.5504913330078,1296633471
iw,-64.9558410644531,-71.9764175415039,-154.497604370117,51.5621681213378,1296650138
iw,-62.6129455566406,-73.0213088989257,-144.988586425781,56.0819053649902,1296666805
iw,-60.5328254699707,-74.1135635375976,-124.166450500488,60.7701873779296,1296683472
iw,-58.7502479553222,-75.2253036499023,-100.301445007324,62.8076210021972,1296700139
iw,-57.1266136169433,-76.3499298095703,-86.520767211914,63.9716567993164,1296716806
iw,-55.6598243713378,-77.4113693237304,-75.834228515625,60.7828178405761,1296733473
iw,-54.397647857666,-78.3927917480468,-64.0804977416992,56.2262802124023,1296750140
iw,-53.3138008117675,-79.2976837158203,-56.3907279968261,51.6635093688964,1296766807
iw,-52.3957290649414,-80.1436996459961,-52.5917282104492,48.3413314819335,1296783474
iw,-51.7736740112304,-80.9717407226562,-38.5872230529785,47.1983985900878,1296800141
iw,-51.3199958801269,-81.8397598266601,-36.3441123962402,49.6773262023925,1296816808
iw,-51.3442001342773,-82.718994140625,-18.5537643432617,50.5824584960937,1296833475
iw,-52.2140083312988,-83.5695343017578,31.5516605377197,49.1908378601074,1296850142
iw,-53.3891792297363,-84.4050827026367,50.5688819885253,48.7236557006835,1296866809
iw,-54.1807746887207,-85.3020553588867,30.409122467041,52.0162963867187,1296883476
iw,-54.558853149414,-86.3494491577148,3.4330825805664,59.582908630371,1296900143
iw,-55.0264015197753,-87.4961013793945,9.73803997039795,64.5126647949218,1296916810
iw,-55.7533302307128,-88.5004119873046,24.4057273864746,57.4929046630859,1296933477
iw,-56.6710166931152,-89.0450973510742,34.8650703430175,34.7959480285644,1296950144
iw,-57.754653930664,-89.0784683227539,35.1019744873046,7.65584659576416,1296966811
iw,-58.7279472351074,-88.793098449707,32.8429260253906,-17.0180072784423,1296983478
iw,-59.12398147583,-88.2909698486328,19.4080352783203,-33.2522315979003,1297000145
iw,-59.6064872741699,-87.5522308349609,45.0419197082519,-43.8356170654296,1297016812
iw,-60.0160255432128,-86.6199111938476,18.5260028839111,-51.6483917236328,1297033479
iw,-60.5540313720703,-85.5022048950195,2.45083284378051,-63.2531585693359,1297050146
iw,-61.5119667053222,-84.0455703735351,17.4837779998779,-88.7143173217773,1297066813
iw,-62.8058586120605,-82.0276260375976,49.3726081848144,-125.388916015625,1297083480
iw,-64.0161743164062,-79.3395462036132,61.2446479797363,-163.580963134765,1297100147
iw,-65.0701751708984,-76.2177581787109,60.4032440185546,-185.050979614257,1297116814
iw,-66.0356521606445,-73.1029357910156,50.7144355773925,-179.522720336914,1297133481
iw,-66.9477844238281,-70.185546875,37.850486755371,-164.796813964843,1297150148
iw,-67.752700805664,-67.5393142700195,26.9081649780273,-151.530502319335,1297166815
iw,-68.4950103759765,-65.2856521606445,22.6690788269042,-135.472427368164,1297183482
iw,-69.3837356567382,-63.1223564147949,33.6578102111816,-136.377059936523,1297200149
iw,-70.4715423583984,-60.85986328125,50.6188278198242,-144.666763305664,1297216816
iw,-71.5158462524414,-58.5834083557128,54.6246948242187,-145.602737426757,1297233483
iw,-72.3999328613281,-56.4528579711914,48.4520072937011,-136.092620849609,1297250150
iw,-73.2784347534179,-54.556224822998,47.4165077209472,-120.0777053833,1297266817
iw,-74.2656707763671,-52.9822616577148,53.2933540344238,-96.0066299438476,1297283484
iw,-75.2981567382812,-51.6743354797363,56.710277557373,-75.2052688598632,1297300151
iw,-76.2370223999023,-50.6314353942871,50.892967224121,-57.2331809997558,1297316818
iw,-77.1136856079101,-49.7979316711425,46.7980346679687,-47.2918090820312,1297333485
iw,-77.939956665039,-49.0785026550293,43.4726638793945,-47.5650672912597,1297350152
iw,-78.7593460083007,-48.4374809265136,43.1408882141113,-49.3435974121093,1297366819
iw,-79.6153030395507,-47.8565330505371,44.9258117675781,-48.8722457885742,1297383486
iw,-80.5184631347656,-47.4223556518554,47.1214523315429,-37.8364715576171,1297400153
iw,-81.4436111450195,-47.6138153076171,48.9645118713378,4.15358400344848,1297416820
iw,-82.3818130493164,-48.6018676757812,52.4142570495605,58.2462882995605,1297433487
iw,-83.3778610229492,-49.8014984130859,60.0883522033691,75.3968200683593,1297450154
iw,-84.3945388793945,-50.7623710632324,65.4692230224609,61.5327987670898,1297466821
iw,-85.3345260620117,-51.5464477539062,62.5314331054687,45.9372940063476,1297483488
iw,-86.16064453125,-52.3390235900878,55.7860984802246,42.7315673828125,1297500155
iw,-86.8758239746093,-53.1187286376953,50.2148666381835,40.4544372558593,1297516822
iw,-87.4617156982421,-53.8834686279296,44.5248794555664,39.5928726196289,1297533489
iw,-87.9116516113281,-54.8639602661132,36.7785758972168,53.3040237426757,1297550156
iw,-88.2569503784179,-56.0364837646484,30.1559963226318,65.2568283081054,1297566823
iw,-88.4952011108398,-56.9537010192871,13.0870714187622,52.3047714233398,1297583490
iw,-88.5675582885742,-57.7979888916015,-14.43097782135,55.178295135498,1297600157
iw,-88.1274795532226,-58.5599098205566,-50.2749977111816,49.0783157348632,1297616824
iw,-86.9229888916015,-59.351318359375,-81.6818542480468,44.8355598449707,1297633491
iw,-85.3013916015625,-60.1128158569335,-93.3734970092773,35.3301544189453,1297650158
iw,-83.5524749755859,-61.16255569458,-90.42041015625,47.9831466674804,1297666825
iw,-81.7321243286132,-62.4505462646484,-85.7818908691406,64.1939315795898,1297683492
iw,-79.7906494140625,-63.8275718688964,-83.2253112792968,76.2022857666015,1297700159
iw,-77.6919326782226,-65.1712188720703,-86.0873336791992,79.8840866088867,1297716826
iw,-75.479751586914,-66.4032211303711,-95.9482955932617,74.0520095825195,1297733493
iw,-73.2350692749023,-67.4846496582031,-112.1255569458,63.2072525024414,1297750160
iw,-71.0168304443359,-68.4004516601562,-127.604927062988,50.9590721130371,1297766827
iw,-68.8348999023437,-69.2820892333984,-137.0634765625,47.0630149841308,1297783494
iw,-66.7551574707031,-70.2789611816406,-135.810028076171,52.8135910034179,1297800161
iw,-64.6700592041015,-71.3342742919921,-135.50715637207,56.7249450683593,1297816828
iw,-62.5877952575683,-72.3776168823242,-129.872116088867,57.0549392700195,1297833495
iw,-60.7749900817871,-73.4158325195312,-105.675819396972,58.6547966003418,1297850162
iw,-59.2491455078125,-74.416519165039,-83.3392486572265,58.0806999206543,1297866829
iw,-58.0039825439453,-75.3697891235351,-62.7365798950195,56.05952835083,1297883496
iw,-56.8625564575195,-76.2839279174804,-58.2282180786132,53.6772270202636,1297900163
iw,-55.7285499572753,-77.1752624511718,-66.2366714477539,52.1890602111816,1297916830
iw,-54.6446075439453,-78.0434875488281,-71.8894348144531,50.2000999450683,1297933497
iw,-53.71728515625,-78.8350372314453,-68.3094787597656,45.06880569458,1297950164
iw,-53.0803298950195,-79.550910949707,-52.3940887451171,39.4620666503906,1297966831
iw,-52.8217811584472,-80.2369689941406,-26.4944400787353,37.2067375183105,1297983498
iw,-52.7734565734863,-80.9547348022461,-15.0124797821044,39.42431640625,1298000165
iw,-53.073444366455,-81.7365646362304,3.97930574417114,44.2923240661621,1298016832
iw,-53.7815361022949,-82.5347671508789,30.9362487792968,46.0993385314941,1298033499
iw,-54.5029678344726,-83.351318359375,31.6756687164306,47.8323097229003,1298050166
iw,-55.0058555603027,-84.1685714721679,14.220495223999,48.0482673645019,1298066833
iw,-55.4179878234863,-84.9603652954101,1.19783163070678,47.1191329956054,1298083500
iw,-55.9751014709472,-85.6877059936523,6.7344331741333,43.7656288146972,1298100167
iw,-56.8238258361816,-86.2866973876953,26.2579326629638,36.2554016113281,1298116834
iw,-57.8680534362793,-86.7100219726562,42.8719902038574,25.7105617523193,1298133501
iw,-58.816795349121,-86.9262924194336,34.7305107116699,14.7494201660156,1298150168
iw,-59.2807693481445,-86.9215240478515,6.07484769821167,3.40414690971374,1298166835
iw,-59.7215003967285,-86.7064590454101,19.523681640625,-5.88337802886962,1298183502
iw,-59.9025421142578,-86.3036651611328,8.52171325683593,-13.1551418304443,1298200169
iw,-60.322395324707,-85.7702484130859,22.6135120391845,-20.5946445465087,1298216836
iw,-61.1364364624023,-85.1838760375976,33.5109825134277,-29.0161571502685,1298233503
iw,-62.2754745483398,-84.4862976074218,40.6330986022949,-45.4686660766601,1298250170
iw,-63.4673461914062,-83.4911575317382,52.5230293273925,-73.6895523071289,1298266837
iw,-64.5258560180664,-82.0729370117187,64.7804489135742,-101.507385253906,1298283504
iw,-65.4938049316406,-80.1491470336914,61.1397895812988,-126.05451965332,1298300171
iw,-66.5200729370117,-77.6782150268554,48.410099029541,-151.32160949707,1298316838
iw,-67.6168594360351,-74.9197692871093,40.385570526123,-162.383743286132,1298333505
iw,-68.6489028930664,-72.2162628173828,36.3627815246582,-155.196411132812,1298350172
iw,-69.5912857055664,-69.6866226196289,37.9586601257324,-145.282501220703,1298366839
iw,-70.5845108032226,-67.4439010620117,46.9425163269043,-132.01936340332,1298383506
iw,-71.6428146362304,-65.3933410644531,53.5924377441406,-126.249038696289,1298400173
iw,-72.6781158447265,-63.4651489257812,52.5700988769531,-122.823608398437,1298416840
iw,-73.6422500610351,-61.7244262695312,47.1739387512207,-112.185157775878,1298433507
iw,-74.5424728393554,-60.2199974060058,42.4846496582031,-96.0923919677734,1298450174
iw,-75.4799652099609,-58.7603721618652,46.2792739868164,-91.2060317993164,1298466841
iw,-76.4280853271484,-57.2389183044433,51.1089553833007,-93.194580078125,1298483508
iw,-77.3356781005859,-55.7929954528808,52.4008331298828,-87.2136840820312,1298500175
iw,-78.1864852905273,-54.4808044433593,49.4623146057128,-79.4046554565429,1298516842
iw,-78.9683990478515,-53.3576622009277,43.5445556640625,-70.2824783325195,1298533509
iw,-79.7109375,-52.4455070495605,39.8918685913085,-61.2148933410644,1298550176
iw,-80.4679794311523,-51.700885772705,39.5661277770996,-54.4255142211914,1298566843
iw,-81.2124938964843,-51.1105117797851,37.9724082946777,-46.1897048950195,1298583510
iw,-81.9211273193359,-50.5862922668457,36.7740287780761,-37.3666496276855,1298600177
iw,-82.5669479370117,-50.3270072937011,35.7718811035156,-17.1532287597656,1298616844
iw,-83.2161254882812,-50.4730033874511,39.3921508789062,9.10511684417724,1298633511
iw,-83.8856735229492,-50.7866287231445,42.0568885803222,19.1430339813232,1298650178
iw,-84.5832290649414,-51.0935440063476,43.2294273376464,16.9587936401367,1298666845
iw,-85.2599716186523,-51.3991355895996,41.6410827636718,13.7553615570068,1298683512
iw,-85.91845703125,-51.7767219543457,42.7541847229003,15.4708585739135,1298700179
iw,-86.5698318481445,-52.2626800537109,47.3757247924804,21.4065341949462,1298716846
iw,-87.1222763061523,-52.8081436157226,46.0013236999511,26.181318283081,1298733513
iw,-87.5058975219726,-53.4318466186523,39.5388488769531,31.5820331573486,1298750180
iw,-87.7167282104492,-54.1227416992187,36.3648529052734,34.6741371154785,1298766847
iw,-87.7394714355468,-54.8399200439453,36.6816329956054,35.0859336853027,1298783514
iw,-87.5980834960937,-55.8511962890625,35.4656295776367,50.8643264770507,1298800181
iw,-87.381851196289,-56.9853439331054,27.7744102478027,58.6646308898925,1298816848
iw,-87.2050247192382,-57.9780006408691,14.1533260345458,55.3912277221679,1298833515
iw,-87.1808242797851,-58.7454261779785,-6.26433134078979,47.7303123474121,1298850182
iw,-87.3232192993164,-59.2108917236328,-31.9047393798828,29.1812076568603,1298866849
iw,-87.4025650024414,-59.7718467712402,-64.0644989013671,26.9360332489013,1298883516
iw,-86.7982101440429,-60.7855339050293,-93.5396423339843,49.2677383422851,1298900183
iw,-85.306770324707,-62.1247024536132,-112.506057739257,68.3913803100586,1298916850
iw,-83.3488159179687,-63.5654029846191,-108.157905578613,78.6014862060546,1298933517
iw,-81.2779388427734,-64.8996887207031,-94.9644622802734,78.4608154296875,1298950184
iw,-78.9869232177734,-66.0716094970703,-103.27896118164,71.4151306152343,1298966851
iw,-76.5690765380859,-67.1897354125976,-115.814598083496,65.7491455078125,1298983518
iw,-74.2075271606445,-68.2160186767578,-124.935348510742,56.4853897094726,1299000185
iw,-71.9141616821289,-69.1691589355468,-137.096038818359,50.3865165710449,1299016852
iw,-69.6492919921875,-70.1346359252929,-145.413452148437,50.49165725708,1299033519
iw,-67.2445526123046,-71.1245498657226,-153.867279052734,52.051170349121,1299050186
iw,-64.8706130981445,-72.1222457885742,-147.337860107421,53.0131149291992,1299066853
iw,-62.6408805847168,-73.1635971069336,-137.585556030273,56.5852546691894,1299083520
iw,-60.5501251220703,-74.2378387451171,-124.492027282714,60.4189529418945,1299100187
iw,-58.7938537597656,-75.2984771728515,-98.1484222412109,61.1221542358398,1299116854
iw,-57.2640304565429,-76.3580017089843,-79.9167327880859,61.5543136596679,1299133521
iw,-55.9348564147949,-77.3821945190429,-64.6404953002929,59.6958885192871,1299150188
iw,-54.8025588989257,-78.3680572509765,-56.8126258850097,57.8717918395996,1299166855
iw,-53.8555183410644,-79.2960968017578,-54.9156990051269,54.5964393615722,1299183522
iw,-53.1252746582031,-80.235595703125,-53.7914543151855,55.6553878784179,1299200189
iw,-52.5911331176757,-81.2158432006836,-48.9839096069335,57.8722610473632,1299216856
iw,-52.6835632324218,-82.1922912597656,-17.1173076629638,57.033447265625,1299233523
iw,-53.6267318725585,-83.0935668945312,37.632453918457,51.3179969787597,1299250190
iw,-54.7569580078125,-83.9365692138671,50.334487915039,47.3158111572265,1299266857
iw,-55.4933624267578,-84.7377624511718,28.474811553955,44.9307479858398,1299283524
iw,-55.7310523986816,-85.5698699951171,-8.24811935424804,47.3450393676757,1299300191
iw,-56.284080505371,-86.4276885986328,11.6358137130737,50.2141723632812,1299316858
iw,-57.282787322998,-87.2316970825195,41.7611236572265,49.1360282897949,1299333525
iw,-58.2508659362793,-87.8739471435546,31.7482795715332,44.9445991516113,1299350192
iw,-59.4022979736328,-88.1759719848632,40.9267272949218,33.7628440856933,1299366859
iw,-60.0066947937011,-88.120491027832,18.0882873535156,11.8882217407226,1299383526
iw,-60.1163139343261,-87.7809753417968,10.5324201583862,-15.1379604339599,1299400193
iw,-60.5873374938964,-87.019546508789,39.3331832885742,-48.4062690734863,1299416860
iw,-61.2921180725097,-85.8664398193359,30.8835678100585,-76.0128784179687,1299433527
iw,-62.1097030639648,-84.4395141601562,15.9970388412475,-96.4328155517578,1299450194
iw,-63.2480697631835,-82.61376953125,39.0029067993164,-121.614250183105,1299466861
iw,-64.4159469604492,-80.3324432373046,57.0493202209472,-144.888122558593,1299483528
iw,-65.3857650756836,-77.6414718627929,57.8781776428222,-163.231872558593,1299500195
iw,-66.3694152832031,-74.799560546875,59.2615165710449,-164.931564331054,1299516862
iw,-67.3273239135742,-72.1222457885742,48.7644996643066,-149.603622436523,1299533529
iw,-68.2040100097656,-69.713638305664,35.6068649291992,-133.65786743164,1299550196
iw,-69.0059814453125,-67.6175460815429,28.3735485076904,-122.777023315429,1299566863
iw,-69.8033294677734,-65.6897506713867,26.7069969177246,-122.550659179687,1299583530
iw,-70.7255325317382,-63.7354927062988,32.8251800537109,-129.518127441406,1299600197
iw,-71.7313919067382,-61.6774024963378,38.1623611450195,-136.495819091796,1299616864
iw,-72.7145843505859,-59.5936317443847,40.7793655395507,-136.563674926757,1299633531
iw,-73.6352844238281,-57.5053100585937,44.4003219604492,-134.379440307617,1299650198
iw,-74.5454406738281,-55.4848289489746,49.9105339050293,-126.437446594238,1299666865
iw,-75.4672546386718,-53.7445220947265,54.5920104980468,-105.25454711914,1299683532
iw,-76.4252243041992,-52.3404350280761,58.3591041564941,-83.0305404663086,1299700199
iw,-77.3317184448242,-51.2837409973144,52.6073532104492,-63.5442848205566,1299716866
iw,-78.1822891235351,-50.5279197692871,45.706787109375,-49.3308448791503,1299733533
iw,-79.0446166992187,-49.9214668273925,45.0164451599121,-43.8194541931152,1299750200
iw,-79.9509887695312,-49.4199333190918,48.4292182922363,-39.0824661254882,1299766867
iw,-80.8742446899414,-48.9941444396972,50.7414283752441,-31.8009853363037,1299783534
iw,-81.7859725952148,-48.8517417907714,51.6173973083496,-12.5484495162963,1299800201
iw,-82.6926345825195,-49.4282913208007,52.7580909729003,31.5544834136962,1299816868
iw,-83.610610961914,-50.3612518310546,54.3445243835449,52.4620513916015,1299833535
iw,-84.5087051391601,-51.3552284240722,54.0679244995117,57.0931396484375,1299850202
iw,-85.3409957885742,-52.3078384399414,50.7845039367675,52.9694786071777,1299866869
iw,-86.1014785766601,-53.1860618591308,48.231388092041,45.90576171875,1299883536
iw,-86.7850265502929,-54.0523147583007,46.5848350524902,45.6375427246093,1299900203
iw,-87.3552932739257,-55.0628967285156,40.5322494506835,57.811222076416,1299916870
iw,-87.7852096557617,-56.1752815246582,28.8323402404785,61.8891716003418,1299933537
iw,-88.003059387207,-57.378002166748,8.2859239578247,63.5172424316406,1299950204
iw,-87.7109909057617,-58.5033988952636,-25.3712177276611,67.5584564208984,1299966871
iw,-86.7947845458984,-59.1320152282714,-51.2507629394531,46.3629188537597,1299983538
iw,-85.4852981567382,-59.8376541137695,-68.26171875,45.8997802734375,1300000205
iw,-83.7794723510742,-60.5717582702636,-90.8438491821289,29.3537120819091,1300016872
iw,-81.8986740112304,-61.3839683532714,-95.0369796752929,25.1187839508056,1300033539
iw,-79.9863815307617,-62.5044059753418,-92.778564453125,50.6025238037109,1300050206
iw,-77.9730377197265,-63.9575500488281,-92.6725845336914,82.9564971923828,1300066873
iw,-76.036148071289,-65.437255859375,-80.5188903808593,92.4804992675781,1300083540
iw,-74.1610260009765,-66.7353591918945,-78.1353683471679,82.8347244262695,1300100207
iw,-72.3139724731445,-67.8856735229492,-90.212532043457,71.6106948852539,1300116874
iw,-70.371597290039,-68.8450241088867,-116.322319030761,57.3435859680175,1300133541
iw,-68.3191757202148,-69.7145462036132,-137.362731933593,48.8263282775878,1300150208
iw,-66.3498382568359,-70.729751586914,-134.087646484375,54.6460990905761,1300166875
iw,-64.5087585449218,-71.8329162597656,-120.158218383789,58.6494026184082,1300183542
iw,-62.8302955627441,-72.9277648925781,-101.200645446777,58.4261207580566,1300200209
iw,-61.355728149414,-74.0289001464843,-81.2486495971679,60.0267486572265,1300216876
iw,-60.103775024414,-75.1281204223632,-61.41015625,62.5042076110839,1300233543
iw,-58.8923912048339,-76.1715469360351,-57.5772399902343,61.6411819458007,1300250210
iw,-57.6262779235839,-77.1868209838867,-66.4634246826171,60.7573890686035,1300266877
iw,-56.3161315917968,-78.2397232055664,-80.7745132446289,62.582721710205,1300283544
iw,-55.120677947998,-79.3184585571289,-83.4793472290039,62.7997512817382,1300300211
iw,-54.1837539672851,-80.3593673706054,-71.5191040039062,60.098819732666,1300316878
iw,-53.5646591186523,-81.2769317626953,-50.3751220703125,53.1705055236816,1300333545
iw,-53.2049980163574,-82.0427322387695,-31.691743850708,43.830223083496,1300350212
iw,-53.0885887145996,-82.7134780883789,-13.3880767822265,37.3079452514648,1300366879
iw,-53.0884590148925,-83.327033996582,-6.99941492080688,34.109088897705,1300383546
iw,-53.187744140625,-83.9358978271484,-4.26683521270751,34.130615234375,1300400213
iw,-53.4248504638671,-84.6226196289062,2.35103750228881,40.3543853759765,1300416880
iw,-53.7234535217285,-85.3449478149414,3.92877054214477,44.6921653747558,1300433547
iw,-54.1842308044433,-86.0545959472656,12.5274333953857,45.7069931030273,1300450214
iw,-54.792366027832,-86.7252349853515,19.9540615081787,46.1127586364746,1300466881
iw,-55.2024917602539,-87.3127822875976,-0.0194786395877599,46.4035758972168,1300483548
iw,-55.5612144470214,-87.7315216064453,-7.27901315689086,44.9603996276855,1300500215
iw,-56.133201599121,-87.9141845703125,8.65972137451171,42.3316841125488,1300516882
iw,-57.1130256652832,-87.8660507202148,38.9875335693359,37.650634765625,1300533549
iw,-57.7636947631835,-87.6952209472656,15.8168992996215,27.9230728149414,1300550216
iw,-58.2166938781738,-87.5792541503906,19.1516857147216,14.9085836410522,1300566883
iw,-58.6577186584472,-87.5353469848632,23.0795078277587,2.52055239677429,1300583550
iw,-59.0833168029785,-87.5430603027343,20.3702907562255,-13.5816869735717,1300600217
iw,-59.7489852905273,-87.5875091552734,32.3784217834472,-39.5414428710937,1300616884
iw,-60.7972030639648,-87.3805770874023,42.1478042602539,-70.8160934448242,1300633551
iw,-62.0765762329101,-86.3751831054687,51.034870147705,-107.873397827148,1300650218
iw,-63.240177154541,-84.4886474609375,52.6089439392089,-136.573379516601,1300666885
iw,-64.2749252319336,-81.9891052246093,58.1741142272949,-157.560684204101,1300683552
iw,-65.3035736083984,-79.0130538940429,56.3339614868164,-177.5185546875,1300700219
iw,-66.4303894042968,-75.9017105102539,55.4172668457031,-180.23501586914,1300716886
iw,-67.5963363647461,-73.0275039672851,56.4299697875976,-165.482803344726,1300733553
iw,-68.6721725463867,-70.4588012695312,53.5611572265625,-152.282958984375,1300750220
iw,-69.7144088745117,-68.2433853149414,52.8107566833496,-138.842987060546,1300766887
iw,-70.798843383789,-66.1596984863281,52.8270874023437,-137.11555480957,1300783554
iw,-71.8956451416015,-64.0327072143554,48.7642402648925,-140.671615600585,1300800221
iw,-72.9375610351562,-61.9563407897949,43.1681671142578,-135.071990966796,1300816888
iw,-73.9023895263671,-60.0044212341308,41.2822570800781,-124.30753326416,1300833555
iw,-74.8570785522461,-58.1549644470214,44.9371871948242,-113.875999450683,1300850222
iw,-75.8759307861328,-56.382640838623,52.5431289672851,-104.698944091796,1300866889
iw,-76.9379348754882,-54.7995452880859,58.3979949951171,-90.9988708496093,1300883556
iw,-77.9759902954101,-53.48628616333,58.1165008544921,-75.8447189331054,1300900223
iw,-78.9478454589843,-52.4457473754882,54.012596130371,-63.957176208496,1300916890
iw,-79.8327407836914,-51.5833435058593,48.3970069885253,-59.4854927062988,1300933557
iw,-80.6448516845703,-50.7256317138671,44.8874740600585,-64.4886474609375,1300950224
iw,-81.4381713867187,-49.8046340942382,44.5356788635253,-66.2488327026367,1300966891
iw,-82.174087524414,-49.2929153442382,41.1555480957031,-36.4526023864746,1300983558
iw,-82.9000473022461,-49.5445137023925,41.4392395019531,13.1144580841064,1301000225
iw,-83.6622238159179,-50.255744934082,45.5417709350585,43.2502708435058,1301016892
iw,-84.4500274658203,-50.9780197143554,49.3989601135253,46.1257972717285,1301033559
iw,-85.1969909667968,-51.6646919250488,48.6766967773437,42.9068717956543,1301050226
iw,-85.8852462768554,-52.5263786315918,46.3497238159179,48.8466987609863,1301066893
iw,-86.4923400878906,-53.4191207885742,43.4461784362793,46.4558219909668,1301083560
iw,-86.9704971313476,-54.2325630187988,40.0080947875976,38.8427047729492,1301100227
iw,-87.3076858520507,-55.0301437377929,37.0881004333496,38.440631866455,1301116894
iw,-87.5117111206054,-55.7803955078125,29.4646472930908,38.1820678710937,1301133561
iw,-87.6493988037109,-56.7093811035156,22.1981925964355,53.0479660034179,1301150228
iw,-87.7504959106445,-57.2180709838867,4.63328170776367,31.5117263793945,1301166895
iw,-87.7611389160156,-57.7627410888671,-7.94355010986328,37.0086479187011,1301183562
iw,-87.5884857177734,-58.4813575744628,-24.7880992889404,41.8044090270996,1301200229
iw,-87.0786590576171,-59.1628723144531,-47.5476417541503,36.3672180175781,1301216896
iw,-86.005859375,-59.913230895996,-81.9865417480468,40.023567199707,1301233563
iw,-84.3423080444336,-61.0937881469726,-105.545188903808,64.2582397460937,1301250230
iw,-82.2817916870117,-62.5544853210449,-111.294242858886,81.9758224487304,1301266897
iw,-80.0433349609375,-63.9106330871582,-105.873039245605,79.4886322021484,1301283564
iw,-77.5513916015625,-65.1261749267578,-112.272537231445,72.1080856323242,1301300231
iw,-74.9470977783203,-66.3052673339843,-118.832885742187,66.8611373901367,1301316898
iw,-72.5750274658203,-67.4037094116211,-113.552711486816,59.1359977722168,1301333565
iw,-70.4215698242187,-68.4288787841796,-117.389999389648,54.6306571960449,1301350232
iw,-68.2550888061523,-69.5149536132812,-132.699768066406,59.4606094360351,1301366899
iw,-65.9704284667968,-70.6594696044921,-145.252014160156,63.3212280273437,1301383566
iw,-63.5913925170898,-71.8267211914062,-150.191513061523,63.5945930480957,1301400233
iw,-61.3213691711425,-72.982192993164,-141.330123901367,61.8338661193847,1301416900
iw,-59.3460121154785,-74.1349105834961,-119.28335571289,62.2128067016601,1301433567
iw,-57.7072982788085,-75.2902374267578,-94.1906967163086,64.3109436035156,1301450234
iw,-56.1967811584472,-76.3863677978515,-85.4896240234375,62.7529563903808,1301466901
iw,-54.7886657714843,-77.3659133911132,-77.9114608764648,56.6952781677246,1301483568
iw,-53.5367965698242,-78.2420959472656,-68.58251953125,50.6327972412109,1301500235
iw,-52.4599990844726,-79.0021591186523,-61.2024154663085,42.9693946838378,1301516902
iw,-51.5719757080078,-79.7122344970703,-56.8774032592773,39.5869178771972,1301533569
iw,-51.0299491882324,-80.4516906738281,-40.8964118957519,41.2254066467285,1301550236
iw,-50.8444328308105,-81.233528137207,-20.3394718170166,43.8388214111328,1301566903
iw,-50.9560585021972,-82.0714035034179,-11.6938066482543,47.1830139160156,1301583570
iw,-51.6981315612793,-82.9198913574218,23.3280563354492,47.8541755676269,1301600237
iw,-52.713451385498,-83.7914199829101,38.0971527099609,50.0140037536621,1301616904
iw,-53.5983047485351,-84.6975860595703,36.3978767395019,52.6639404296875,1301633571
iw,-54.0038185119628,-85.6489562988281,5.15523624420166,55.1100807189941,1301650238
iw,-54.3899040222168,-86.6430511474609,-0.500528991222381,57.4792594909668,1301666905
iw,-55.0446510314941,-87.6589965820312,15.7438478469848,59.2843017578125,1301683572
iw,-55.8989753723144,-88.5211715698242,26.6392803192138,51.520694732666,1301700239
iw,-56.8381958007812,-89.0300521850586,26.6826457977294,37.0060348510742,1301716906
iw,-57.8207626342773,-89.0252227783203,22.750093460083,15.1335849761962,1301733573
iw,-58.7293472290039,-88.7623596191406,30.0711135864257,1.65160810947418,1301750240
iw,-59.393871307373,-88.4262924194336,34.4142723083496,-3.76753163337707,1301766907
iw,-59.893009185791,-88.0687255859375,38.395164489746,-10.2507333755493,1301783574
iw,-60.1290054321289,-87.6810836791992,23.2508602142334,-19.8960132598876,1301800241
iw,-60.3869934082031,-87.1904907226562,8.09757137298584,-38.1066970825195,1301816908
iw,-61.2937965393066,-86.406867980957,32.7999191284179,-67.5977706909179,1301833575
iw,-62.5019569396972,-85.0103759765625,45.2651481628418,-105.415786743164,1301850242
iw,-63.5844230651855,-82.9604034423828,44.6389198303222,-136.415176391601,1301866909
iw,-64.4411849975586,-80.3927307128906,39.3976936340332,-159.461700439453,1301883576
iw,-65.3570709228515,-77.6811218261718,40.5493965148925,-161.510467529296,1301900243
iw,-66.3698959350586,-75.1474609375,41.2784461975097,-146.692672729492,1301916910
iw,-67.3139114379882,-72.7552337646484,35.2199821472168,-137.656646728515,1301933577
iw,-68.1788635253906,-70.4209518432617,31.6756076812744,-138.162231445312,1301950244
iw,-69.0822677612304,-68.1347732543945,35.2832908630371,-141.203811645507,1301966911
iw,-70.1008529663086,-65.7876281738281,43.0910949707031,-148.351470947265,1301983578
iw,-71.1245727539062,-63.3586463928222,45.8971557617187,-154.350540161132,1302000245
iw,-72.1176605224609,-60.9917602539062,48.0495223999023,-151.064254760742,1302016912
iw,-73.0831069946289,-58.7593879699707,49.6256294250488,-141.942306518554,1302033579
iw,-74.0581130981445,-56.8166732788085,51.3708877563476,-121.039016723632,1302050246
iw,-75.0478897094726,-55.190013885498,51.9212608337402,-97.2691955566406,1302066913
iw,-76.0437088012695,-53.8335075378418,52.8578643798828,-77.4262390136718,1302083580
iw,-77.0119247436523,-52.6098480224609,51.3190650939941,-70.0443725585937,1302100247
iw,-77.9074249267578,-51.5183639526367,46.3101081848144,-66.2654418945312,1302116914
iw,-78.7701644897461,-50.5669975280761,43.2283668518066,-62.7027626037597,1302133581
iw,-79.6345825195312,-49.7963333129882,42.4731063842773,-54.7364349365234,1302150248
iw,-80.5349807739257,-49.2295532226562,44.6653518676757,-41.1382484436035,1302166915
iw,-81.476318359375,-48.9084777832031,48.2316551208496,-21.393663406372,1302183582
iw,-82.4416809082031,-49.0223922729492,52.114086151123,7.30564546585083,1302200249
iw,-83.4295578002929,-49.6090660095214,56.0309295654296,36.6571464538574,1302216916
iw,-84.3994750976562,-50.2685775756835,57.1663665771484,41.3782844543457,1302233583
iw,-85.3604583740234,-50.8998832702636,58.3608055114746,39.9619636535644,1302250250
iw,-86.3136367797851,-51.6051597595214,58.0049514770507,42.2979087829589,1302266917
iw,-87.2219467163086,-52.4660720825195,53.9458198547363,49.0480194091796,1302283584
iw,-88.0499725341796,-53.3087043762207,48.6169319152832,47.6086502075195,1302300251
iw,-88.7176284790039,-54.0566596984863,42.2549781799316,42.5884208679199,1302316918
iw,-89.0945358276367,-54.9000930786132,34.0704917907714,46.9513359069824,1302333585
iw,-89.1128692626953,-55.809959411621,24.7262706756591,49.7007904052734,1302350252
iw,-89.0681228637695,-56.5030632019043,5.29523229598999,39.4429206848144,1302366919
iw,-89.1045303344726,-57.1235008239746,-15.1736116409301,38.9339370727539,1302383586
iw,-88.8356781005859,-57.5403289794921,-44.5542068481445,20.8391361236572,1302400253
iw,-87.6779632568359,-57.9480972290039,-76.314468383789,12.1450405120849,1302416920
iw,-86.0693588256836,-58.7194862365722,-87.5985488891601,31.329870223999,1302433587
iw,-84.2232818603515,-59.975112915039,-96.1720733642578,64.3573150634765,1302450254
iw,-82.2533645629882,-61.3148078918457,-99.2328262329101,76.8226242065429,1302466921
iw,-80.1189346313476,-62.6070098876953,-100.797447204589,79.4709091186523,1302483588
iw,-77.8335723876953,-63.8673858642578,-102.370208740234,76.7743759155273,1302500255
iw,-75.3454513549804,-65.0473556518554,-112.016456604003,66.292236328125,1302516922
iw,-72.8140716552734,-66.1442260742187,-120.988662719726,57.6450500488281,1302533589
iw,-70.4112930297851,-67.1892852783203,-126.117439270019,54.5787086486816,1302550256
iw,-68.0992050170898,-68.2881317138671,-131.459197998046,58.7097778320312,1302566923
iw,-65.8933715820312,-69.4427490234375,-129.19351196289,62.4183120727539,1302583590
iw,-63.6072387695312,-70.6178359985351,-134.445037841796,64.1212615966796,1302600257
iw,-61.2961883544921,-71.8221206665039,-133.905242919921,66.1362915039062,1302616924
iw,-59.2553558349609,-73.0667114257812,-113.424568176269,68.9391937255859,1302633591
iw,-57.5000762939453,-74.3022232055664,-94.6996994018554,69.4875869750976,1302650258
iw,-55.999340057373,-75.4861145019531,-79.2381210327148,67.0717620849609,1302666925
iw,-54.5603942871093,-76.5988388061523,-78.7306900024414,63.9843444824218,1302683592
iw,-53.1315422058105,-77.5828399658203,-83.3560562133789,56.8803253173828,1302700259
iw,-51.8358345031738,-78.5155258178711,-79.9518585205078,54.0539932250976,1302716926
iw,-50.8206672668457,-79.4381942749023,-65.9261856079101,53.35786819458,1302733593
iw,-50.2540588378906,-80.3905944824218,-37.4116783142089,55.0758438110351,1302750260
iw,-50.0811958312988,-81.3705139160156,-10.657353401184,57.2999534606933,1302766927
iw,-50.1251487731933,-82.3603057861328,-4.69185018539428,58.6271667480468,1302783594
iw,-50.6589126586914,-83.3313217163086,20.4248962402343,57.9443321228027,1302800261
iw,-51.4398040771484,-84.2839279174804,26.8718814849853,56.7822608947753,1302816928
iw,-52.3049049377441,-85.2151260375976,27.3795776367187,55.1907997131347,1302833595
iw,-53.0195426940918,-86.1270294189453,16.886474609375,53.1238555908203,1302850262
iw,-53.6453132629394,-87.033706665039,11.4715929031372,51.9725608825683,1302866929
iw,-54.3137512207031,-87.9552230834961,13.8118247985839,53.7290229797363,1302883596
iw,-55.1587905883789,-88.7300491333007,25.5697937011718,51.678970336914,1302900263
iw,-56.1546440124511,-89.0029907226562,32.2976493835449,37.8665924072265,1302916930
iw,-57.1480369567871,-88.8503952026367,25.7070884704589,19.4093685150146,1302933597
iw,-57.9366416931152,-88.5676956176757,23.4460067749023,7.46373891830444,1302950264
iw,-58.4029388427734,-88.2332077026367,22.1952476501464,-2.82213854789733,1302966931
iw,-58.769187927246,-87.8848342895507,29.1356945037841,-13.1365795135498,1302983598
iw,-59.1170501708984,-87.5380477905273,16.2512474060058,-25.2861938476562,1303000265
iw,-59.8704414367675,-87.1746444702148,27.0941371917724,-39.2552223205566,1303016932
iw,-61.1022720336914,-86.549575805664,47.0843811035156,-67.8267059326171,1303033599
iw,-62.5153770446777,-85.3099822998046,67.6637725830078,-102.833549499511,1303050266
iw,-63.729621887207,-83.4101257324218,76.5922088623046,-132.145843505859,1303066933
iw,-64.8093109130859,-80.8829269409179,71.2192611694336,-160.488540649414,1303083600
iw,-65.8906936645507,-78.0679397583007,56.1982383728027,-170.325546264648,1303100267
iw,-66.9767837524414,-75.324348449707,39.324363708496,-161.022964477539,1303116934
iw,-68.0160751342773,-72.7625045776367,30.410249710083,-148.923156738281,1303133601
iw,-68.9971542358398,-70.4446792602539,30.5625667572021,-136.168884277343,1303150268
iw,-70.0592422485351,-68.2154083251953,42.9217414855957,-134.494720458984,1303166935
iw,-71.23388671875,-65.9020080566406,54.9801559448242,-142.828079223632,1303183602
iw,-72.3523406982421,-63.5392990112304,52.1318931579589,-147.713470458984,1303200269
iw,-73.3780136108398,-61.2380638122558,48.1811027526855,-144.493743896484,1303216936
iw,-74.3496322631836,-59.0439071655273,47.2659187316894,-136.932083129882,1303233603
iw,-75.3295440673828,-56.991111755371,49.568546295166,-125.982131958007,1303250270
iw,-76.3312530517578,-55.0905418395996,53.1984214782714,-114.180114746093,1303266937
iw,-77.3393783569336,-53.5114974975585,54.6253280639648,-92.2850875854492,1303283604
iw,-78.2682266235351,-52.2308120727539,49.2661590576171,-73.6596145629882,1303300271
iw,-79.1014251708984,-51.2196655273437,44.3174171447753,-59.2770881652832,1303316938
iw,-79.8973846435546,-50.4010887145996,43.7089118957519,-51.4363632202148,1303333605
iw,-80.6968002319336,-49.6659240722656,44.2270202636718,-50.6660346984863,1303350272
iw,-81.4851684570312,-48.9627799987793,42.247989654541,-49.4747314453125,1303366939
iw,-82.2997894287109,-48.4161949157714,42.6346588134765,-38.5896568298339,1303383606
iw,-83.192626953125,-48.5645141601562,47.2925758361816,4.66398000717163,1303400273
iw,-84.1120147705078,-49.2232666015625,49.6614303588867,36.266975402832,1303416940
iw,-85.031623840332,-50.0357818603515,51.9004211425781,46.9056739807128,1303433607
iw,-85.9504928588867,-50.6742439270019,55.5922012329101,36.3227233886718,1303450274
iw,-86.7936859130859,-51.2565460205078,55.4938430786132,28.9117126464843,1303466941
iw,-87.4846420288086,-52.0122261047363,50.0563774108886,36.322467803955,1303483608
iw,-87.936164855957,-52.806957244873,38.7909507751464,39.1987190246582,1303500275
iw,-88.1723327636718,-53.7289657592773,23.8916721343994,48.1802368164062,1303516942
iw,-88.3186798095703,-54.8970642089843,8.96998691558837,61.2592239379882,1303533609
iw,-88.3825149536132,-56.0943756103515,-4.58697319030761,61.3148078918457,1303550276
iw,-88.2354202270507,-57.2503395080566,-15.2873430252075,65.9568939208984,1303566943
iw,-87.7961120605468,-58.0956230163574,-21.4619731903076,52.6801109313964,1303583610
iw,-87.0370712280273,-58.7747955322265,-33.2043952941894,43.45161819458,1303600277
iw,-85.8144149780273,-59.4248733520507,-65.7485198974609,33.25537109375,1303616944
iw,-84.0600051879882,-60.3391761779785,-101.550346374511,40.6496315002441,1303633611
iw,-81.9333038330078,-61.6178436279296,-119.851516723632,62.3014945983886,1303650278
iw,-79.7638626098632,-63.1018447875976,-112.358863830566,80.6759567260742,1303666945
iw,-77.6029815673828,-64.6208343505859,-102.653282165527,90.6683273315429,1303683612
iw,-75.3979034423828,-65.9601135253906,-101.829238891601,82.9094848632812,1303700279
iw,-73.1714324951171,-67.1806488037109,-111.522171020507,72.4012298583984,1303716946
iw,-71.0461196899414,-68.2322921752929,-123.335243225097,58.219425201416,1303733613
iw,-68.9218444824218,-69.1161193847656,-139.75112915039,46.0653343200683,1303750280
iw,-66.7501983642578,-70.0950393676757,-148.35920715332,50.1711730957031,1303766947
iw,-64.4925994873046,-71.2417678833007,-149.409683227539,58.5101623535156,1303783614
iw,-62.2135925292968,-72.4078674316406,-143.322570800781,59.1839179992675,1303800281
iw,-60.1630516052246,-73.5201721191406,-122.231590270996,57.9072189331054,1303816948
iw,-58.4979057312011,-74.6139373779296,-91.0979232788086,60.4440383911132,1303833615
iw,-57.1114845275878,-75.6576690673828,-67.1907424926757,60.7375450134277,1303850282
iw,-55.7525825500488,-76.6448287963867,-66.2539520263671,59.2549858093261,1303866949
iw,-54.4354019165039,-77.5653839111328,-68.8516006469726,55.6717300415039,1303883616
iw,-53.2985496520996,-78.512710571289,-64.3186721801757,56.4706420898437,1303900283
iw,-52.3928298950195,-79.4793167114257,-57.2679710388183,56.1121597290039,1303916950
iw,-51.7073745727539,-80.4188766479492,-53.1643524169921,53.1911468505859,1303933617
iw,-51.3675956726074,-81.2632904052734,-33.1081809997558,47.1003189086914,1303950284
iw,-51.2886619567871,-81.9790954589843,-18.901906967163,39.6364059448242,1303966951
iw,-51.6869316101074,-82.6520156860351,6.66059017181396,37.9215621948242,1303983618
iw,-52.5743865966796,-83.3065490722656,36.064167022705,37.5762214660644,1304000285
iw,-53.557014465332,-84.0186386108398,44.5989341735839,41.5854225158691,1304016952
iw,-54.1595039367675,-84.8617248535156,21.4004898071289,49.6075248718261,1304033619
iw,-54.4431953430175,-85.8362808227539,-4.49797964096069,58.6163902282714,1304050286
iw,-54.9197845458984,-86.8679962158203,5.42465543746948,65.5926818847656,1304066953
iw,-55.6627502441406,-87.7253189086914,21.3041095733642,63.571044921875,1304083620
iw,-56.5851135253906,-88.0858306884765,30.6425819396972,47.1506080627441,1304100287
iw,-57.3313026428222,-87.9916305541992,21.3286666870117,23.8547458648681,1304116954
iw,-57.8580284118652,-87.7334213256836,26.6358470916748,4.67898225784301,1304133621
iw,-58.1761932373046,-87.4239807128906,25.703592300415,-12.7286548614501,1304150288
iw,-58.5645065307617,-87.0397872924804,29.6069583892822,-29.7654857635498,1304166955
iw,-59.026195526123,-86.5060424804687,17.0402030944824,-46.7256164550781,1304183622
iw,-59.9370346069335,-85.6358337402343,29.884479522705,-74.1053085327148,1304200289
iw,-61.1738929748535,-84.1406784057617,49.2681541442871,-112.630104064941,1304216956
iw,-62.362449645996,-82.0269088745117,62.604148864746,-141.053253173828,1304233623
iw,-63.4169006347656,-79.4200973510742,68.8234252929687,-161.022842407226,1304250290
iw,-64.4091796875,-76.5848388671875,59.2068176269531,-166.24282836914,1304266957
iw,-65.4230804443359,-73.8412704467773,47.9451217651367,-155.167617797851,1304283624
iw,-66.4522705078125,-71.4002456665039,43.3379211425781,-136.99658203125,1304300291
iw,-67.3931655883789,-69.2928848266601,39.0320472717285,-122.41307067871,1304316958
iw,-68.293830871582,-67.2965469360351,38.323989868164,-121.887489318847,1304333625
iw,-69.271255493164,-65.2344284057617,42.336742401123,-129.597534179687,1304350292
iw,-70.3271560668945,-63.1846542358398,46.6095695495605,-129.69107055664,1304366959
iw,-71.3814392089843,-61.2273330688476,47.6216354370117,-122.471656799316,1304383626
iw,-72.4152526855468,-59.3760032653808,50.4819259643554,-113.607040405273,1304400293
iw,-73.3814315795898,-57.6740493774414,49.4155540466308,-102.568656921386,1304416960
iw,-74.2879638671875,-56.1448631286621,48.2929649353027,-90.8944320678711,1304433627
iw,-75.1677322387695,-54.8315773010253,48.1376876831054,-77.3912506103515,1304450294
iw,-76.0039520263671,-53.6892929077148,46.1439971923828,-69.252685546875,1304466961
iw,-76.8506546020507,-52.7099342346191,47.3975486755371,-65.4018249511718,1304483628
iw,-77.7267150878906,-51.8004302978515,48.4785957336425,-67.4039993286132,1304500295
iw,-78.6145782470703,-50.9856414794921,46.7779121398925,-65.458625793457,1304516962
iw,-79.4809417724609,-50.2258529663085,43.4724693298339,-58.7425842285156,1304533629
iw,-80.3330383300781,-49.7917366027832,43.7666969299316,-33.7566528320312,1304550296
iw,-81.1941833496093,-49.942771911621,47.3304901123046,6.22624158859252,1304566963
iw,-82.071174621582,-50.3766746520996,50.659194946289,26.4102115631103,1304583630
iw,-82.9541091918945,-50.8229446411132,52.5629348754882,27.7362995147705,1304600297
iw,-83.7927856445312,-51.1615753173828,51.2849349975585,17.4742126464843,1304616964
iw,-84.5589294433593,-51.5721092224121,48.3423423767089,16.551643371582,1304633631
iw,-85.2377395629882,-52.0903930664062,43.2128410339355,20.71435546875,1304650298
iw,-85.8551864624023,-52.6303787231445,37.8976211547851,21.0541534423828,1304666965
iw,-86.4148864746093,-53.2854690551757,32.4517364501953,27.3295364379882,1304683632
iw,-86.9110488891601,-54.1068420410156,30.8949260711669,37.794578552246,1304700299
iw,-87.3445053100586,-55.0584487915039,34.3173103332519,46.4984092712402,1304716966
iw,-87.6007766723632,-56.2317466735839,35.5472221374511,60.9605331420898,1304733633
iw,-87.5903549194336,-57.4615287780761,26.098388671875,65.9178695678711,1304750300
iw,-87.4051284790039,-58.3337364196777,10.8656797409057,49.1068382263183,1304766967
iw,-87.1447372436523,-58.959716796875,-10.5372056961059,39.288101196289,1304783634
iw,-86.7842941284179,-59.4799575805664,-37.7624320983886,29.4706439971923,1304800301
iw,-86.1304702758789,-60.1550064086914,-70.1516723632812,33.3565864562988,1304816968
iw,-85.0078964233398,-61.2687377929687,-94.6981964111328,56.2756576538085,1304833635
iw,-83.3305282592773,-62.7577171325683,-112.462409973144,78.5731811523437,1304850302
iw,-81.3282165527343,-64.2431106567382,-108.661102294921,82.4071197509765,1304866969
iw,-79.2310104370117,-65.5963592529296,-96.1872634887695,80.0745544433593,1304883636
iw,-76.9627075195312,-66.8356399536132,-99.2027359008789,73.5308380126953,1304900303
iw,-74.4916839599609,-67.9617004394531,-115.511589050292,63.2442932128906,1304916970
iw,-72.0611190795898,-68.9271392822265,-125.031410217285,51.3659019470214,1304933637
iw,-69.7726440429687,-69.8289794921875,-132.593444824218,48.4667243957519,1304950304
iw,-67.5473327636718,-70.7751998901367,-141.684371948242,51.1602096557617,1304966971
iw,-65.3034744262695,-71.7858963012695,-148.197143554687,53.4148063659668,1304983638
iw,-63.0318946838378,-72.7952041625976,-148.847564697265,52.5887603759765,1305000305
iw,-60.8462142944335,-73.8050994873046,-139.48484802246,53.778823852539,1305016972
iw,-58.918830871582,-74.8289566040039,-117.648796081542,57.013874053955,1305033639
iw,-57.313621520996,-75.8480148315429,-91.9638977050781,58.8967208862304,1305050306
iw,-55.9246864318847,-76.8147811889648,-72.9305343627929,57.3122901916503,1305066973
iw,-54.6554069519043,-77.7553253173828,-63.3064002990722,56.8419723510742,1305083640
iw,-53.5472145080566,-78.6406097412109,-55.4085273742675,53.559886932373,1305100307
iw,-52.6318931579589,-79.4700622558593,-49.9626655578613,49.3648834228515,1305116974
iw,-51.9048194885253,-80.2757492065429,-51.5398139953613,46.7174072265625,1305133641
iw,-51.4265365600585,-81.0969314575195,-46.086196899414,46.6942634582519,1305150308
iw,-51.2054328918457,-81.9127960205078,-37.8536148071289,45.9512290954589,1305166975
iw,-51.7417030334472,-82.6900253295898,5.30156803131103,43.5690689086914,1305183642
iw,-52.9610366821289,-83.4630432128906,52.8435249328613,43.535774230957,1305200309
iw,-54.1098251342773,-84.2791595458984,53.6084403991699,46.3076705932617,1305216976
iw,-54.6909675598144,-85.1415100097656,20.8072528839111,49.3797187805175,1305233643
iw,-54.9243049621582,-86.0320739746093,-8.77686977386474,52.2178230285644,1305250310
iw,-55.4437255859375,-86.9336929321289,5.84354543685913,56.1545982360839,1305266977
iw,-56.2917022705078,-87.7141571044921,29.9092998504638,54.3751792907714,1305283644
iw,-57.0531997680664,-88.1338653564453,23.8167171478271,40.0948104858398,1305300311
iw,-57.8823089599609,-88.1723327636718,25.1993598937988,17.9435844421386,1305316978
iw,-58.5877380371093,-88.0118026733398,30.09055519104,-1.40469396114349,1305333645
iw,-59.0727844238281,-87.7140655517578,34.3055381774902,-19.1791820526123,1305350312
iw,-59.6358299255371,-87.2711486816406,48.8378143310546,-32.8338356018066,1305366979
iw,-60.2608757019043,-86.6492385864257,40.1362075805664,-45.0656814575195,1305383646
iw,-60.9402465820312,-85.6919784545898,25.077838897705,-68.4697341918945,1305400313
iw,-61.9903526306152,-84.1263427734375,38.4395942687988,-107.081367492675,1305416980
iw,-63.263801574707,-81.8927688598632,55.5802536010742,-143.518402099609,1305433647
iw,-64.4177856445312,-79.1076736450195,58.1139259338378,-169.897171020507,1305450314
iw,-65.5670013427734,-76.1191177368164,60.3671951293945,-174.406051635742,1305466981
iw,-66.7563323974609,-73.2956390380859,60.2758598327636,-158.336074829101,1305483648
iw,-67.8551330566406,-70.7548294067382,52.9021568298339,-139.628768920898,1305500315
iw,-68.8556747436523,-68.5324554443359,48.3532371520996,-124.493446350097,1305516982
iw,-69.7737274169921,-66.4740600585937,43.7640037536621,-122.827484130859,1305533649
iw,-70.7587127685546,-64.4476623535156,44.2220077514648,-126.832130432128,1305550316
iw,-71.9009094238281,-62.4078292846679,51.9481697082519,-128.917602539062,1305566983
iw,-73.070556640625,-60.4391708374023,57.0227088928222,-122.951095581054,1305583650
iw,-74.1421813964843,-58.573143005371,56.3608856201171,-114.730934143066,1305600317
iw,-75.0927963256836,-56.8403549194335,52.8595466613769,-105.442001342773,1305616984
iw,-75.9555053710937,-55.2853202819824,50.0212669372558,-93.4778366088867,1305633651
iw,-76.8523635864257,-53.9742698669433,53.7301216125488,-78.1497726440429,1305650318
iw,-77.7299575805664,-52.854621887207,51.7418518066406,-68.8880538940429,1305666985
iw,-78.5609970092773,-51.9539718627929,48.0729293823242,-61.2542572021484,1305683652
iw,-79.4023132324218,-51.1493377685546,47.1262474060058,-61.4683494567871,1305700319
iw,-80.2583999633789,-50.4768447875976,44.772590637207,-55.6540489196777,1305716986
iw,-81.0715942382812,-49.8540458679199,40.4045600891113,-47.6580505371093,1305733653
iw,-81.7989807128906,-49.5129089355468,37.1450767517089,-25.1509323120117,1305750320
iw,-82.5053253173828,-49.5618858337402,39.8678398132324,2.27788543701171,1305766987
iw,-83.222541809082,-49.9443778991699,43.7151947021484,23.8116779327392,1305783654
iw,-83.9452438354492,-50.4496459960937,45.2736473083496,31.3687171936035,1305800321
iw,-84.6728897094726,-50.866714477539,45.8306999206543,23.9849433898925,1305816988
iw,-85.4071350097656,-51.2242012023925,45.7586364746093,16.087833404541,1305833655
iw,-86.1231307983398,-51.7684440612793,43.2220344543457,22.7540130615234,1305850322
iw,-86.8122406005859,-52.6303329467773,41.3155822753906,40.9527435302734,1305866989
iw,-87.4034652709961,-53.5518989562988,38.1210021972656,46.7398262023925,1305883656
iw,-87.7786026000976,-54.2991218566894,32.3950080871582,38.3097114562988,1305900323
iw,-87.8959732055664,-55.150894165039,28.4543380737304,45.2015876770019,1305916990
iw,-87.8300323486328,-56.274242401123,22.7345256805419,60.5203742980957,1305933657
iw,-87.7107391357421,-57.2647056579589,6.1893835067749,53.6078453063964,1305950324
iw,-87.6080474853515,-58.1887168884277,-11.3226499557495,55.6155242919921,1305966991
iw,-87.4441146850586,-58.8983078002929,-34.7064743041992,41.8256950378418,1305983658
iw,-86.9450759887695,-59.5104293823242,-59.2627525329589,32.8835411071777,1306000325
iw,-85.8669662475586,-60.2559700012207,-84.3553924560546,35.6861915588378,1306016992
iw,-84.2098236083984,-61.4436721801757,-107.37491607666,59.7365493774414,1306033659
iw,-82.166015625,-62.9123878479003,-114.805877685546,79.7232360839843,1306050326
iw,-80.0456848144531,-64.3714752197265,-103.957901000976,84.5456771850586,1306066993
iw,-77.8109130859375,-65.6797103881836,-101.485450744628,78.6476135253906,1306083660
iw,-75.4034347534179,-66.8838348388671,-111.436203002929,71.4792404174804,1306100327
iw,-72.9548950195312,-67.9762420654296,-122.759773254394,61.3479194641113,1306116994
iw,-70.6375122070312,-68.8822555541992,-128.595825195312,47.8704109191894,1306133661
iw,-68.3691253662109,-69.7513961791992,-139.334976196289,45.1256713867187,1306150328
iw,-66.1368789672851,-70.7208175659179,-143.85285949707,50.5130157470703,1306166995
iw,-63.8199958801269,-71.7867813110351,-149.369537353515,55.0416183471679,1306183662
iw,-61.5124320983886,-72.8866958618164,-146.222061157226,56.2983360290527,1306200329
iw,-59.4343109130859,-74.0338516235351,-127.039253234863,61.1038856506347,1306216996
iw,-57.732925415039,-75.1815185546875,-96.7695922851562,64.514892578125,1306233663
iw,-56.249900817871,-76.3052902221679,-77.6917572021484,66.0596771240234,1306250330
iw,-54.8954925537109,-77.3787231445312,-69.651985168457,64.7126541137695,1306266997
iw,-53.6730690002441,-78.3765563964843,-66.6257858276367,60.3039741516113,1306283664
iw,-52.6989517211914,-79.327392578125,-57.3151588439941,56.840763092041,1306300331
iw,-51.953311920166,-80.2213134765625,-50.3798332214355,53.1814537048339,1306316998
iw,-51.5269699096679,-81.0499191284179,-36.3448867797851,49.185447692871,1306333665
iw,-51.3799934387207,-81.8142013549804,-22.0455379486084,44.8817596435546,1306350332
iw,-51.6390113830566,-82.5211563110351,-4.23084831237793,40.9868850708007,1306366999
iw,-52.6439895629882,-83.1736679077148,42.5903282165527,37.0863456726074,1306383666
iw,-53.8348083496093,-83.8424072265625,53.7204322814941,38.3535957336425,1306400333
iw,-54.7578926086425,-84.5770034790039,41.3213081359863,42.5346183776855,1306417000
iw,-55.0694541931152,-85.4030456542968,-1.74360573291778,48.3345222473144,1306433667
iw,-55.4700622558593,-86.2994842529296,1.1835491657257,54.0747528076171,1306450334
iw,-56.1847801208496,-87.1002502441406,22.0406799316406,51.8882484436035,1306467001
iw,-57.0783958435058,-87.6095199584961,34.6069755554199,40.1494140625,1306483668
iw,-58.0051574707031,-87.7549362182617,33.6585807800293,20.8996849060058,1306500335
iw,-58.7131385803222,-87.6670379638671,30.3276596069335,1.57631587982177,1306517002
iw,-59.0937118530273,-87.3942108154296,23.6704845428466,-16.5425758361816,1306533669
iw,-59.421157836914,-86.8646240234375,32.273811340332,-35.389892578125,1306550336
iw,-59.8960266113281,-86.1204071044921,34.5253105163574,-48.91402053833,1306567003
iw,-60.5050964355468,-85.2625274658203,22.2714767456054,-58.0013313293457,1306583670
iw,-61.5001182556152,-84.0950164794921,32.7956466674804,-80.7801361083984,1306600337
iw,-62.6865692138671,-82.4129486083984,49.322151184082,-112.194549560546,1306617004
iw,-63.744327545166,-80.1527633666992,58.6210746765136,-143.510650634765,1306633671
iw,-64.7866134643554,-77.4271926879882,63.4645080566406,-165.997100830078,1306650338
iw,-65.8854675292968,-74.6053466796875,59.2842140197753,-165.430068969726,1306667005
iw,-66.9702453613281,-71.9942245483398,50.0389060974121,-148.579971313476,1306683672
iw,-67.9145584106445,-69.6568222045898,36.704734802246,-132.29768371582,1306700339
iw,-68.7530364990234,-67.530647277832,29.0218353271484,-125.074142456054,1306717006
iw,-69.5991134643554,-65.536262512207,27.8149261474609,-123.310081481933,1306733673
iw,-70.6643829345703,-63.5117835998535,44.0417556762695,-127.970344543457,1306750340
iw,-71.8265533447265,-61.4155578613281,55.3786315917968,-132.526123046875,1306767007
iw,-72.8643264770507,-59.3729705810546,52.6894264221191,-128.54719543457,1306783674
iw,-73.785888671875,-57.5062713623046,49.4572219848632,-116.694641113281,1306800341
iw,-74.7179718017578,-55.851707458496,52.4997100830078,-102.273162841796,1306817008
iw,-75.6891632080078,-54.4249877929687,56.0452728271484,-86.2062911987304,1306833675
iw,-76.6621551513671,-53.23237991333,55.4408073425293,-69.7857894897461,1306850342
iw,-77.5773544311523,-52.2331466674804,49.7924003601074,-58.080768585205,1306867009
iw,-78.4297485351562,-51.4324264526367,45.4820938110351,-49.4016075134277,1306883676
iw,-79.2920455932617,-50.7380180358886,46.3470268249511,-47.9170761108398,1306900343
iw,-80.1659851074218,-50.141056060791,46.2312088012695,-45.8337898254394,1306917010
iw,-80.9818878173828,-49.6965293884277,41.0507431030273,-35.495677947998,1306933677
iw,-81.7582397460937,-49.4347267150878,38.4430198669433,-19.903371810913,1306950344
iw,-82.5697784423828,-49.6567726135253,42.0789413452148,12.7302818298339,1306967011
iw,-83.4206771850586,-50.323070526123,47.6839141845703,41.0555725097656,1306983678
iw,-84.2938766479492,-51.1194686889648,53.9634628295898,48.371654510498,1307000345
iw,-85.1454620361328,-51.8605194091796,58.50537109375,43.8208847045898,1307017012
iw,-85.9321060180664,-52.5896034240722,61.5416870117187,39.3828697204589,1307033679
iw,-86.5649337768554,-53.3880424499511,57.3433380126953,39.3440780639648,1307050346
iw,-86.9898147583007,-54.1783218383789,44.4136123657226,35.282958984375,1307067013
iw,-87.2107696533203,-55.0155067443847,37.3606567382812,37.4134902954101,1307083680
iw,-87.239761352539,-55.8634185791015,31.4499549865722,39.326904296875,1307100347
iw,-87.2352981567382,-56.7538185119628,19.357135772705,44.5881919860839,1307117014
iw,-87.351448059082,-57.7743988037109,2.54270911216735,55.4259300231933,1307133681
iw,-87.5268630981445,-58.5706024169921,-15.6027784347534,45.3097419738769,1307150348
iw,-87.5352630615234,-59.3906326293945,-26.4901332855224,49.5609664916992,1307167015
iw,-87.2428894042968,-60.2569198608398,-37.667194366455,53.3044166564941,1307183682
iw,-86.5654983520507,-60.9580459594726,-55.7676277160644,42.3495216369628,1307200349
iw,-85.4304809570312,-61.7227478027343,-78.8289184570312,41.5298690795898,1307217016
iw,-83.8872756958007,-62.9229202270507,-97.044937133789,62.411823272705,1307233683
iw,-81.9854583740234,-64.3325653076171,-105.715507507324,76.17333984375,1307250350
iw,-79.9997787475586,-65.7144699096679,-95.052131652832,80.4461441040039,1307267017
iw,-77.8005294799804,-67.0488510131836,-99.3653564453125,81.2804183959961,1307283684
iw,-75.3508224487304,-68.275634765625,-114.217643737792,72.9237365722656,1307300351
iw,-72.8615036010742,-69.3671188354492,-125.113410949707,60.8131370544433,1307317018
iw,-70.5511932373046,-70.3327865600586,-129.167861938476,51.520580291748,1307333685
iw,-68.3199844360351,-71.257080078125,-138.486785888671,48.2105560302734,1307350352
iw,-66.0112609863281,-72.2577896118164,-148.892272949218,52.156494140625,1307367019
iw,-63.5250701904296,-73.3377456665039,-158.868957519531,56.5723228454589,1307383686
iw,-61.1118469238281,-74.4666061401367,-150.779754638671,60.4838523864746,1307400353
iw,-59.0598526000976,-75.601333618164,-123.011421203613,63.1078186035156,1307417020
iw,-57.4576568603515,-76.6846694946289,-88.366340637207,62.8931198120117,1307433687
iw,-56.0883903503418,-77.7091217041015,-68.8503799438476,61.7329368591308,1307450354
iw,-54.7571678161621,-78.6219100952148,-65.9944381713867,55.751350402832,1307467021
iw,-53.5545578002929,-79.437255859375,-61.3164253234863,49.5825157165527,1307483688
iw,-52.5424346923828,-80.1850204467773,-56.0571556091308,44.9576988220214,1307500355
iw,-51.6937828063964,-80.9002075195312,-56.4422645568847,42.5679321289062,1307517022
iw,-51.1133575439453,-81.631721496582,-45.6962623596191,42.7801132202148,1307533689
iw,-50.923110961914,-82.3427047729492,-28.6234455108642,40.8033370971679,1307550356
iw,-51.5593223571777,-83.0190505981445,17.1541290283203,38.0000610351562,1307567023
iw,-52.7713966369628,-83.6869583129882,48.9044609069824,37.7382087707519,1307583690
iw,-54.066837310791,-84.3728332519531,59.0300254821777,39.2243423461914,1307600357
iw,-54.7258262634277,-85.1043548583984,20.0032157897949,42.0005378723144,1307617024
iw,-55.1470146179199,-85.8888626098632,0.453828305006027,46.0947494506835,1307633691
iw,-55.8635749816894,-86.6410675048828,20.8756561279296,47.3194122314453,1307650358
iw,-56.9136428833007,-87.2067031860351,46.7807006835937,42.5276107788085,1307667025
iw,-57.8928489685058,-87.4441909790039,35.5729713439941,31.5298500061035,1307683692
iw,-58.7504043579101,-87.3693161010742,25.2826251983642,14.6138563156127,1307700359
iw,-59.117317199707,-87.1363830566406,17.1044559478759,-1.63026642799377,1307717026
iw,-59.2783851623535,-86.7466506958007,27.1228561401367,-20.1885910034179,1307733693
iw,-59.6230392456054,-86.1019821166992,29.9204769134521,-44.4172668457031,1307750360
iw,-60.2431449890136,-85.1540222167968,21.5885467529296,-70.4480361938476,1307767027
iw,-61.3497352600097,-83.7985687255859,33.8282051086425,-99.0833053588867,1307783694
iw,-62.7017250061035,-81.8479690551757,52.03071975708,-132.683654785156,1307800361
iw,-63.9040565490722,-79.2885131835937,61.3411788940429,-162.592727661132,1307817028
iw,-64.8668823242187,-76.3316574096679,56.8769607543945,-177.885665893554,1307833695
iw,-65.8609771728515,-73.3922958374023,51.3217620849609,-168.39094543457,1307850362
iw,-66.9325332641601,-70.8008193969726,45.1382255554199,-142.638687133789,1307867029
iw,-67.941421508789,-68.5480422973632,37.6870155334472,-125.176345825195,1307883696
iw,-68.8692932128906,-66.624153137207,34.8063468933105,-115.26081085205,1307900363
iw,-69.7993774414062,-64.8283462524414,35.4598693847656,-117.148399353027,1307917030
iw,-70.8154373168945,-62.9771194458007,40.61767578125,-123.821235656738,1307933697
iw,-71.8648071289062,-61.0071754455566,42.6853408813476,-129.93032836914,1307950364
iw,-72.8712158203125,-59.0019836425781,41.9509239196777,-130.217788696289,1307967031
iw,-73.8053894042968,-57.0790634155273,42.615478515625,-123.600784301757,1307983698
iw,-74.6432723999023,-55.2750282287597,43.2981414794921,-113.825782775878,1308000365
iw,-75.4596405029296,-53.7409858703613,48.6179847717285,-94.3607330322265,1308017032
iw,-76.3233337402343,-52.5062751770019,55.5420112609863,-74.7622375488281,1308033699
iw,-77.1649932861328,-51.6143188476562,53.5985031127929,-54.2817153930664,1308050366
iw,-77.9655990600586,-51.0724411010742,48.5646362304687,-34.9701499938964,1308067033
iw,-78.7568054199218,-50.7064704895019,45.421875,-27.4011764526367,1308083700
iw,-79.5685119628906,-50.4343070983886,43.8501396179199,-24.9421730041503,1308100367
iw,-80.4137420654296,-50.068733215332,43.3051414489746,-29.9251289367675,1308117034
iw,-81.2639694213867,-49.9475212097168,42.3558959960937,-14.0036306381225,1308133701
iw,-82.1045989990234,-50.4535408020019,44.0728187561035,25.694803237915,1308150368
iw,-82.974853515625,-51.4713096618652,50.3207092285156,59.4680252075195,1308167035
iw,-83.8817291259765,-52.4546394348144,56.9721374511718,60.1826820373535,1308183702
iw,-84.7460708618164,-53.3327293395996,57.1959838867187,51.5439834594726,1308200369
iw,-85.5070419311523,-54.3022537231445,50.3758201599121,53.8532791137695,1308217036
iw,-86.1832504272461,-55.2653045654296,42.7532005310058,52.3855438232421,1308233703
iw,-86.8042678833007,-56.1344451904296,37.6637382507324,46.8979530334472,1308250370
iw,-87.3428115844726,-57.1100921630859,32.7545700073242,53.7673606872558,1308267037
iw,-87.7248001098632,-57.9550437927246,21.1644077301025,44.7293014526367,1308283704
iw,-87.8374328613281,-58.7503509521484,-3.90301728248596,45.6091232299804,1308300371
iw,-87.5200653076171,-59.3729209899902,-32.3685455322265,46.0083236694335,1308317038
iw,-86.7336120605468,-59.6991119384765,-53.1101608276367,28.0554866790771,1308333705
iw,-85.5090026855468,-59.947525024414,-74.0520477294921,8.14382648468017,1308350372
iw,-83.8477630615234,-60.4567184448242,-95.5452651977539,13.1842365264892,1308367039
iw,-81.8569793701171,-61.5034217834472,-106.967025756835,47.8703384399414,1308383706
iw,-79.6832122802734,-62.772834777832,-103.814682006835,70.0500946044921,1308400373
iw,-77.4660568237304,-64.0832977294921,-91.651382446289,80.334602355957,1308417040
iw,-75.1515884399414,-65.2706146240234,-91.0536117553711,74.7960586547851,1308433707
iw,-72.7352828979492,-66.359390258789,-104.043174743652,63.7224769592285,1308450374
iw,-70.4307250976562,-67.3389434814453,-114.741813659667,49.9771194458007,1308467041
iw,-68.2123641967773,-68.1821594238281,-128.089004516601,38.3528823852539,1308483708
iw,-66.0676727294921,-69.1440811157226,-135.28840637207,46.0124931335449,1308500375
iw,-63.88130569458,-70.3016967773437,-142.03955078125,59.9090728759765,1308517042
iw,-61.5950241088867,-71.4760208129882,-146.59634399414,62.9221611022949,1308533709
iw,-59.4434852600097,-72.6494750976562,-133.532928466796,63.7639846801757,1308550376
iw,-57.6452674865722,-73.8649063110351,-105.881767272949,67.4903564453125,1308567043
iw,-56.1570930480957,-75.0788192749023,-81.1458129882812,69.1105422973632,1308583710
iw,-54.9068946838378,-76.266372680664,-62.3120155334472,69.1526565551757,1308600377
iw,-53.8274116516113,-77.3327484130859,-50.8585128784179,62.4594383239746,1308617044
iw,-52.8773460388183,-78.3306427001953,-45.3972549438476,58.6531181335449,1308633711
iw,-51.9748649597168,-79.2895050048828,-50.926414489746,56.2458114624023,1308650378
iw,-51.2919921875,-80.2061996459961,-45.8376960754394,53.3443946838378,1308667045
iw,-50.8652458190918,-81.0508880615234,-32.9578056335449,48.8626480102539,1308683712
iw,-50.806785583496,-81.8411331176757,-20.5406551361084,45.5002479553222,1308700379
iw,-51.4744033813476,-82.6103439331054,21.6185398101806,43.2299079895019,1308717046
iw,-52.4311828613281,-83.4135818481445,38.7031478881835,43.719425201416,1308733713
iw,-53.2297134399414,-84.2793273925781,35.3749046325683,46.6640396118164,1308750380
iw,-53.5626258850097,-85.2125091552734,7.40160179138183,50.5758819580078,1308767047
iw,-53.9333305358886,-86.1771545410156,6.50061750411987,52.7886085510253,1308783714
iw,-54.4813537597656,-87.1419982910156,11.1651439666748,53.6971549987793,1308800381
iw,-55.1902313232421,-88.0321884155273,16.5228233337402,50.7866706848144,1308817048
iw,-56.0499649047851,-88.7072982788086,28.1562728881835,42.1629104614257,1308833715
iw,-56.9536437988281,-88.9797134399414,30.2325973510742,28.6195430755615,1308850382
iw,-57.5712432861328,-88.8556823730468,14.3382949829101,12.6731567382812,1308867049
iw,-58.0390396118164,-88.5737152099609,16.5033740997314,1.41245996952056,1308883716
iw,-58.4235954284668,-88.2721786499023,21.3315544128417,-6.68306159973144,1308900383
iw,-58.6470298767089,-87.9560852050781,14.7876262664794,-15.9114551544189,1308917050
iw,-59.1503067016601,-87.5242538452148,28.2806911468505,-29.2547225952148,1308933717
iw,-60.2743644714355,-86.8522186279296,52.2950744628906,-50.6951828002929,1308950384
iw,-61.5202941894531,-85.7688598632812,54.9751777648925,-80.8980102539062,1308967051
iw,-62.5853652954101,-84.2331314086914,58.0734519958496,-106.019096374511,1308983718
iw,-63.589241027832,-82.2173233032226,64.5699996948242,-129.273559570312,1309000385
iw,-64.6066131591796,-79.6454086303711,53.0528564453125,-155.74266052246,1309017052
iw,-65.7483673095703,-76.7711791992187,47.2049827575683,-167.063690185546,1309033719
iw,-66.9162673950195,-73.9968338012695,43.2465019226074,-158.165573120117,1309050386
iw,-67.8898239135742,-71.4072265625,31.4036769866943,-148.582901000976,1309067053
iw,-68.8109817504882,-68.992202758789,33.4943618774414,-143.208755493164,1309083720
iw,-69.8258514404296,-66.7191085815429,42.7346153259277,-141.328002929687,1309100387
iw,-70.8669891357421,-64.5197296142578,43.6756515502929,-141.079528808593,1309117054
iw,-71.8050003051757,-62.4130821228027,36.5284729003906,-136.73420715332,1309133721
iw,-72.6837463378906,-60.4244918823242,34.7329635620117,-129.556076049804,1309150388
iw,-73.5803527832031,-58.4950523376464,38.4141426086425,-125.150268554687,1309167055
iw,-74.5533752441406,-56.574592590332,47.8299560546875,-122.32494354248,1309183722
iw,-75.5845947265625,-54.8323249816894,56.8085174560546,-107.732681274414,1309200389
iw,-76.5865859985351,-53.3247032165527,57.8705215454101,-90.5859756469726,1309217056
iw,-77.4943542480468,-52.1110038757324,52.1499061584472,-71.3683242797851,1309233723
iw,-78.3802032470703,-51.2519760131835,49.3960647583007,-50.537971496582,1309250390
iw,-79.2800827026367,-50.6857604980468,48.9298019409179,-36.2723960876464,1309267057
iw,-80.2061996459961,-50.3289031982421,50.1552581787109,-28.7919960021972,1309283724
iw,-81.2022171020507,-49.9823875427246,54.7749137878418,-30.7067928314209,1309300391
iw,-82.2574462890625,-49.7177047729492,59.2906608581543,-23.7322025299072,1309317058
iw,-83.3456878662109,-50.0129013061523,63.7437858581543,11.8003501892089,1309333725
iw,-84.4165802001953,-50.784008026123,65.9175872802734,41.5629577636718,1309350392
iw,-85.4146499633789,-51.6652870178222,64.9960556030273,51.5149002075195,1309367059
iw,-86.3147506713867,-52.5363883972168,63.8220520019531,51.6115684509277,1309383726
iw,-87.0449523925781,-53.5374412536621,59.7585296630859,56.7994422912597,1309400393
iw,-87.5161209106445,-54.4279289245605,51.8852729797363,49.1484718322753,1309417060
iw,-87.7006683349609,-55.1462440490722,42.0814018249511,39.2255325317382,1309433727
iw,-87.6776275634765,-55.8750495910644,29.0096549987792,38.7716255187988,1309450394
iw,-87.6272735595703,-56.6944732666015,14.1180171966552,43.0295715332031,1309467061
iw,-87.6397628784179,-57.5667686462402,-4.63790321350097,48.6815490722656,1309483728
iw,-87.5862121582031,-58.3419342041015,-26.0721282958984,52.5212860107421,1309500395
iw,-87.2156143188476,-59.0637550354003,-44.1586189270019,48.7865676879882,1309517062
iw,-86.3260879516601,-59.7037506103515,-72.832275390625,31.3180198669433,1309533729
iw,-84.7673721313476,-60.3824310302734,-98.937141418457,25.6086635589599,1309550396
iw,-82.7646713256836,-61.4631919860839,-115.773254394531,49.2177696228027,1309567063
iw,-80.6547546386718,-62.8068351745605,-113.62589263916,70.6813659667968,1309583730
iw,-78.5205154418945,-64.2018203735351,-106.285110473632,81.9204788208007,1309600397
iw,-76.2620849609375,-65.4957580566406,-109.980712890625,79.1184768676757,1309617064
iw,-74.0272750854492,-66.7237930297851,-115.24609375,72.0425186157226,1309633731
iw,-71.7958908081054,-67.8505020141601,-132.688735961914,61.1686973571777,1309650398
iw,-69.5754623413086,-68.8620223999023,-146.293350219726,51.4898567199707,1309667065
iw,-67.2956314086914,-69.9028778076171,-155.912414550781,52.7092971801757,1309683732
iw,-64.7584686279296,-71.0068969726562,-170.236099243164,56.9673461914062,1309700399
iw,-62.1593399047851,-72.125747680664,-165.658508300781,59.014549255371,1309717066
iw,-60.0106010437011,-73.2349548339843,-124.303909301757,59.7126350402832,1309733733
iw,-58.323127746582,-74.3582458496093,-85.132942199707,62.9199066162109,1309750400
iw,-56.9542922973632,-75.4739456176757,-59.5471115112304,65.5655746459961,1309767067
iw,-55.7053451538085,-76.5528259277343,-54.7249107360839,65.7868957519531,1309783734
iw,-54.4944343566894,-77.5261688232421,-63.6644134521484,60.5764007568359,1309800401
iw,-53.3255729675293,-78.4356460571289,-76.5458908081054,56.6497726440429,1309817068
iw,-52.3041801452636,-79.3178405761718,-76.8468933105468,53.8160324096679,1309833735
iw,-51.5727424621582,-80.1730499267578,-62.9522705078125,51.3897666931152,1309850402
iw,-51.6872329711914,-81.0009078979492,-13.1736888885498,49.3711853027343,1309867069
iw,-52.5459098815918,-81.7791137695312,33.7576065063476,46.2447357177734,1309883736
iw,-53.5953140258789,-82.5063781738281,48.1481475830078,41.9720077514648,1309900403
iw,-54.2790412902832,-83.1918792724609,32.8638267517089,38.6199188232421,1309917070
iw,-54.3928108215332,-83.9010238647461,-5.54544067382812,39.7959060668945,1309933737
iw,-54.6372375488281,-84.666633605957,-2.57379817962646,43.9364967346191,1309950404
iw,-55.2376823425293,-85.4200439453125,14.3166875839233,44.9540748596191,1309967071
iw,-56.2831230163574,-86.0639877319336,42.0764923095703,40.6605529785156,1309983738
iw,-57.3568840026855,-86.5697784423828,37.6978912353515,33.6813125610351,1310000405
iw,-58.475040435791,-86.9646224975586,36.2531471252441,25.1304817199707,1310017072
iw,-59.6221084594726,-87.2486419677734,53.9255332946777,15.5034713745117,1310033739
iw,-60.1061706542968,-87.3140182495117,27.1403541564941,3.02682638168334,1310050406
iw,-60.4879989624023,-87.0610885620117,36.4312438964843,-13.024676322937,1310067073
iw,-60.7937316894531,-86.5363235473632,24.5799198150634,-29.0084590911865,1310083740
iw,-61.1783599853515,-85.8050231933593,8.36327838897705,-45.0909194946289,1310100407
iw,-62.1013717651367,-84.7540206909179,24.4089679718017,-69.7434005737304,1310117074
iw,-63.2902565002441,-83.2182846069336,41.1278648376464,-101.910537719726,1310133741
iw,-64.4517745971679,-81.1998443603515,59.5737152099609,-129.574798583984,1310150408
iw,-65.4069213867187,-78.7045135498046,60.241455078125,-154.205947875976,1310167075
iw,-66.3666229248046,-75.9019317626953,57.5955581665039,-167.042892456054,1310183742
iw,-67.3992614746093,-73.0747604370117,51.748794555664,-163.015258789062,1310200409
iw,-68.357307434082,-70.4321899414062,40.2949447631835,-149.211624145507,1310217076
iw,-69.1463546752929,-68.0450897216796,27.487735748291,-136.444091796875,1310233743
iw,-69.9238052368164,-65.9423904418945,23.5346183776855,-125.615364074707,1310250410
iw,-70.827522277832,-63.9607810974121,28.5984115600585,-123.051750183105,1310267077
iw,-71.7855072021484,-61.9156036376953,34.247817993164,-128.549652099609,1310283744
iw,-72.7037277221679,-59.8987922668457,38.0862236022949,-127.457122802734,1310300411
iw,-73.5902709960937,-58.04683303833,41.4450912475585,-118.490463256835,1310317078
iw,-74.5109329223632,-56.2811393737793,47.0743064880371,-114.1509475708,1310333745
iw,-75.5073776245117,-54.694351196289,54.6580276489257,-102.739074707031,1310350412
iw,-76.5034713745117,-53.2630043029785,56.0913276672363,-91.6143341064453,1310367079
iw,-77.425666809082,-52.0263786315918,50.775218963623,-78.0381393432617,1310383746
iw,-78.2155151367187,-51.0236930847168,39.5535011291503,-63.2700996398925,1310400413
iw,-78.9657211303711,-50.2768058776855,35.86958694458,-48.824234008789,1310417080
iw,-79.7557373046875,-49.7902679443359,38.9150238037109,-34.8483161926269,1310433747
iw,-80.5922241210937,-49.5277137756347,42.6705436706543,-22.9059410095214,1310450414
iw,-81.4547958374023,-49.4439125061035,46.8572692871093,-10.7352743148803,1310467081
iw,-82.3284683227539,-49.6528587341308,50.5537567138671,9.41086292266845,1310483748
iw,-83.2499160766601,-50.314208984375,55.33784866333,38.536563873291,1310500415
iw,-84.1897201538086,-51.2523040771484,56.2667655944824,55.9529685974121,1310517082
iw,-85.1049880981445,-52.2339897155761,54.4363441467285,60.4916267395019,1310533749
iw,-86.0173950195312,-53.1668624877929,56.3176879882812,56.2988624572753,1310550416
iw,-86.8878173828125,-54.1804580688476,57.2549324035644,57.1349754333496,1310567083
iw,-87.6000366210937,-55.21773147583,52.2964630126953,58.9014091491699,1310583750
iw,-88.0793991088867,-56.0241508483886,42.0470123291015,47.2850875854492,1310600417
iw,-88.3404693603515,-56.8818588256835,33.0290908813476,50.945198059082,1310617084
iw,-88.4221954345703,-57.5859069824218,23.2686595916748,40.0136947631835,1310633751
iw,-88.500015258789,-57.9450798034668,-0.608634710311889,21.3050651550292,1310650418
iw,-88.4971466064453,-58.5057144165039,-22.0600452423095,34.6460304260253,1310667085
iw,-88.1666641235351,-59.0273971557617,-41.4022789001464,24.8567104339599,1310683752
iw,-87.2984008789062,-59.469871520996,-73.0336608886718,14.9729652404785,1310700419
iw,-85.9389495849609,-60.3148002624511,-89.1433563232421,40.3705558776855,1310717086
iw,-84.3752822875976,-61.669075012207,-88.8974914550781,75.1028671264648,1310733753
iw,-82.5899505615234,-62.9732322692871,-90.496467590332,77.0679168701171,1310750420
iw,-80.6795120239257,-64.2124633789062,-84.4016799926757,75.1447372436523,1310767087
iw,-78.6642913818359,-65.4262771606445,-85.0899200439453,70.4253005981445,1310783754
iw,-76.4284591674804,-66.5571365356445,-104.612579345703,60.7056922912597,1310800421
iw,-74.1372909545898,-67.6286315917968,-121.789733886718,54.8038864135742,1310817088
iw,-71.9249801635742,-68.7150039672851,-132.891738891601,57.4246520996093,1310833755
iw,-69.7806167602539,-69.8272399902343,-137.363479614257,60.9007949829101,1310850422
iw,-67.6391830444336,-70.9264068603515,-135.890914916992,59.0906867980957,1310867089
iw,-65.294189453125,-72.0171127319336,-143.691268920898,57.1365509033203,1310883756
iw,-62.9073829650878,-73.1453170776367,-141.318389892578,60.3175048828125,1310900423
iw,-60.8194694519043,-74.3242492675781,-116.977195739746,65.2195281982421,1310917090
iw,-59.064655303955,-75.4893264770507,-93.4084320068359,65.8730545043945,1310933757
iw,-57.5722045898437,-76.5858459472656,-75.4890518188476,62.8696861267089,1310950424
iw,-56.2022514343261,-77.5999145507812,-68.9021072387695,59.1322898864746,1310967091
iw,-54.9769134521484,-78.5098800659179,-62.459903717041,53.4854011535644,1310983758
iw,-53.920482635498,-79.3673324584961,-57.0176124572753,50.4827613830566,1311000425
iw,-53.0091667175293,-80.1980972290039,-56.7291946411132,49.1125221252441,1311017092
iw,-52.3217048645019,-81.0541152954101,-48.4524345397949,50.5910453796386,1311033759
iw,-51.976806640625,-81.9588012695312,-33.7614974975585,53.6199760437011,1311050426
iw,-52.407371520996,-82.8791961669921,9.70502758026123,54.4957275390625,1311067093
iw,-53.4341316223144,-83.7681045532226,45.9719352722168,53.0143203735351,1311083760
iw,-54.5166053771972,-84.5861587524414,49.8800239562988,50.1853675842285,1311100427
iw,-55.1791038513183,-85.3586883544921,24.6600704193115,49.1809158325195,1311117094
iw,-55.738224029541,-86.1105346679687,15.4771862030029,49.9580345153808,1311133761
iw,-56.6514739990234,-86.7845382690429,40.5778312683105,48.0512466430664,1311150428
iw,-57.5388603210449,-87.2800521850586,32.9817314147949,41.9079666137695,1311167095
iw,-58.4830856323242,-87.5918197631836,32.5283126831054,36.2801361083984,1311183762
iw,-59.45894241333,-87.74658203125,38.4258918762207,29.5272560119628,1311200429
iw,-59.7898788452148,-87.7851257324218,11.9840087890625,16.3889179229736,1311217096
iw,-60.093276977539,-87.6747665405273,37.3849601745605,-10.1419925689697,1311233763
iw,-60.4851150512695,-87.2986145019531,28.6342277526855,-38.8552856445312,1311250430
iw,-61.1240272521972,-86.6012573242187,8.6244421005249,-62.8482398986816,1311267097
iw,-62.2936820983886,-85.5012893676757,29.0525455474853,-90.2796325683593,1311283764
iw,-63.6924705505371,-83.8770904541015,62.270751953125,-118.019989013671,1311300431
iw,-64.8430709838867,-81.724624633789,69.5157318115234,-140.674133300781,1311317098
iw,-65.8624801635742,-79.1019821166992,67.5285415649414,-159.885421752929,1311333765
iw,-66.9370498657226,-76.3200149536132,60.3910255432128,-161.351943969726,1311350432
iw,-68.0044784545898,-73.744873046875,46.5791397094726,-144.064666748046,1311367099
iw,-68.9490966796875,-71.450439453125,31.3771171569824,-128.127868652343,1311383766
iw,-69.7977142333984,-69.430419921875,24.258186340332,-118.494300842285,1311400433
iw,-70.6891708374023,-67.4716873168945,27.141222000122,-122.149871826171,1311417100
iw,-71.7736892700195,-65.3363494873046,42.6323509216308,-136.380783081054,1311433767
iw,-72.939697265625,-63.0775337219238,53.3324394226074,-145.063568115234,1311450434
iw,-74.0197067260742,-60.8649024963378,54.767032623291,-141.655563354492,1311467101
iw,-75.0006790161132,-58.7660255432128,54.1973686218261,-132.190704345703,1311483768
iw,-75.9367294311523,-56.7486114501953,53.5580673217773,-123.956253051757,1311500435
iw,-76.8585052490234,-55.0260124206543,53.2503395080566,-102.888114929199,1311517102
iw,-77.7647018432617,-53.6725578308105,52.2701721191406,-79.1061325073242,1311533769
iw,-78.6346893310546,-52.6619720458984,48.8838729858398,-59.4650535583496,1311550436
iw,-79.4832077026367,-51.9450225830078,46.1142349243164,-44.5921669006347,1311567103
iw,-80.3561859130859,-51.3409881591796,46.8671493530273,-41.1640319824218,1311583770
iw,-81.2031707763671,-50.8632926940918,44.8738670349121,-33.5470161437988,1311600437
iw,-82.0316619873046,-50.3220329284668,44.1853218078613,-35.4964408874511,1311617104
iw,-82.8849029541015,-50.1325950622558,47.0660514831543,-14.1392183303833,1311633771
iw,-83.7351531982421,-50.5999336242675,49.5938453674316,23.7429065704345,1311650438
iw,-84.5502548217773,-51.4821014404296,51.5533218383789,49.3630409240722,1311667105
iw,-85.3294906616211,-52.4178810119628,53.1145286560058,55.9651756286621,1311683772
iw,-86.0796890258789,-53.2756118774414,53.4338569641113,51.3833312988281,1311700439
iw,-86.7226028442382,-54.1814994812011,49.7786102294921,52.3314132690429,1311717106
iw,-87.161376953125,-55.065258026123,48.088092803955,49.2559471130371,1311733773
iw,-87.3265075683593,-55.784553527832,46.5200576782226,38.3457145690918,1311750440
iw,-87.2721481323242,-56.6427764892578,40.5044212341308,46.3980827331543,1311767107
iw,-87.1471328735351,-57.6207046508789,31.7176189422607,51.264778137207,1311783774
iw,-87.0838165283203,-58.5804710388183,17.8750038146972,51.5072174072265,1311800441
iw,-87.1465225219726,-59.6443557739257,-1.93479621410369,63.7611274719238,1311817108
iw,-87.264907836914,-60.6302452087402,-20.6380596160888,63.7021713256835,1311833775
iw,-87.3394241333007,-61.2715187072753,-42.3398666381835,38.7731170654296,1311850442
iw,-87.0506439208984,-61.816177368164,-69.9783325195312,24.5327682495117,1311867109
iw,-86.0659790039062,-62.737548828125,-88.0895156860351,43.3243904113769,1311883776
iw,-84.5087738037109,-64.0279235839843,-101.696685791015,67.2208404541015,1311900443
iw,-82.6237411499023,-65.417854309082,-102.332664489746,79.1706237792968,1311917110
iw,-80.7152252197265,-66.7516326904296,-88.7305831909179,80.4923095703125,1311933777
iw,-78.6465377807617,-67.9668197631836,-95.2573089599609,72.6499252319336,1311950444
iw,-76.4179229736328,-69.1473236083984,-109.736351013183,66.8102264404296,1311967111
iw,-74.1274719238281,-70.2592239379882,-123.961120605468,59.4840621948242,1311983778
iw,-71.8412017822265,-71.2695999145507,-136.798919677734,51.6524276733398,1312000445
iw,-69.5203704833984,-72.2842864990234,-148.03872680664,51.2017021179199,1312017112
iw,-67.0858078002929,-73.3384933471679,-155.660186767578,53.5156707763671,1312033779
iw,-64.6103515625,-74.4126281738281,-151.842025756835,54.7722587585449,1312050446
iw,-62.3680076599121,-75.5498275756836,-130.516510009765,59.9828720092773,1312067113
iw,-60.4279403686523,-76.7097473144531,-106.724212646484,63.8176879882812,1312083780
iw,-58.724437713623,-77.8354949951171,-88.9738616943359,64.07958984375,1312100447
iw,-57.0908622741699,-78.8855361938476,-84.4640960693359,60.9074058532714,1312117114
iw,-55.564468383789,-79.8243026733398,-79.5057067871093,54.9471435546875,1312133781
iw,-54.2560539245605,-80.6666870117187,-70.5008239746093,49.5616989135742,1312150448
iw,-53.2007179260253,-81.4319610595703,-60.8198318481445,44.8561973571777,1312167115
iw,-52.3601989746093,-82.1607818603515,-54.5679244995117,42.6669273376464,1312183782
iw,-51.8108940124511,-82.8388061523437,-38.9820289611816,40.0542259216308,1312200449
iw,-51.547508239746,-83.4677505493164,-24.7593822479248,37.2552452087402,1312217116
iw,-51.7203254699707,-84.1321182250976,-4.68171310424804,39.2444534301757,1312233783
iw,-52.4415626525878,-84.9026107788086,24.7282333374023,45.6611442565918,1312250450
iw,-53.4397506713867,-85.7589645385742,41.2783393859863,52.094383239746,1312267117
iw,-54.3375396728515,-86.6379165649414,38.8157691955566,56.1725425720214,1312283784
iw,-54.8642501831054,-87.4614028930664,12.6317873001098,57.7608222961425,1312300451
iw,-55.4639434814453,-88.0836791992187,14.5727024078369,56.1007347106933,1312317118
iw,-56.1939048767089,-88.3095016479492,22.4751358032226,49.2065887451171,1312333785
iw,-56.9939956665039,-88.1564483642578,24.8984870910644,38.1791305541992,1312350452
iw,-57.8669395446777,-87.8888168334961,24.3220138549804,24.5539684295654,1312367119
iw,-58.4911918640136,-87.6623458862304,19.8618698120117,15.4270973205566,1312383786
iw,-58.8121032714843,-87.5103759765625,23.1362380981445,6.86961841583251,1312400453
iw,-59.0993461608886,-87.4716796875,27.1608829498291,-10.9179706573486,1312417120
iw,-59.4537849426269,-87.5185623168945,14.9407978057861,-34.9144325256347,1312433787
iw,-60.1853523254394,-87.4771041870117,15.1175775527954,-62.8768043518066,1312450454
iw,-61.2889137268066,-86.8377685546875,31.2252044677734,-98.794204711914,1312467121
iw,-62.5570945739746,-85.217544555664,60.940013885498,-130.846298217773,1312483788
iw,-63.5354919433593,-82.8408126831054,62.0920944213867,-154.836654663085,1312500455
iw,-64.3632507324218,-79.9807968139648,50.4430198669433,-172.167724609375,1312517122
iw,-65.3282012939453,-77.0815811157226,46.0649909973144,-166.721649169921,1312533789
iw,-66.3869323730468,-74.4227752685546,43.692512512207,-149.704208374023,1312550456
iw,-67.363037109375,-72.0417785644531,37.3949394226074,-136.915817260742,1312567123
iw,-68.2807540893554,-69.8004531860351,35.0278968811035,-136.301788330078,1312583790
iw,-69.207046508789,-67.5182952880859,36.2115287780761,-145.007369995117,1312600457
iw,-70.2114639282226,-65.1409378051757,40.2049560546875,-152.777481079101,1312617124
iw,-71.2923507690429,-62.7382926940918,46.4782028198242,-154.190475463867,1312633791
iw,-72.3393936157226,-60.420181274414,49.2132759094238,-147.47525024414,1312650458
iw,-73.3300552368164,-58.2393722534179,51.5067443847656,-135.408081054687,1312667125
iw,-74.297248840332,-56.2064971923828,54.3819580078125,-122.43130493164,1312683792
