Label,Left_Hip_q,Right_Hip_q,Left_Hip_qd,Right_Hip_qd,SampleTimeFine
sts,-85.4899826049804,-83.6462478637695,-11.6465597152709,0.193420737981796,1252756145
sts,-85.4797897338867,-83.6139526367187,-14.4966859817504,-2.04543137550354,1252772812
sts,-85.445556640625,-83.5273132324218,-14.3526954650878,-5.60069894790649,1252789479
sts,-85.3871383666992,-83.3580780029296,-14.7543439865112,-10.8922967910766,1252806146
sts,-85.2798843383789,-83.138931274414,-16.5934104919433,-13.3820066452026,1252822813
sts,-85.0853805541992,-82.9013519287109,-17.5834217071533,-13.5872726440429,1252839480
sts,-84.8228607177734,-82.6542816162109,-18.6130123138427,-14.1559715270996,1252856147
sts,-84.4580078125,-82.3803482055664,-23.6792793273925,-16.6871547698974,1252872814
sts,-83.9982223510742,-82.0831222534179,-28.8996238708496,-18.3913784027099,1252889481
sts,-83.4393844604492,-81.7716369628906,-32.4361686706543,-19.1501178741455,1252906148
sts,-82.8043975830078,-81.4545211791992,-34.3211135864257,-19.2906665802001,1252922815
sts,-82.0968704223632,-81.1442413330078,-37.2298049926757,-17.9891967773437,1252939482
sts,-81.3272628784179,-80.8176116943359,-37.4505920410156,-17.7806396484375,1252956149
sts,-80.5242919921875,-80.4481582641601,-35.6877746582031,-19.4369430541992,1252972816
sts,-79.6878662109375,-80.0608520507812,-35.6483726501464,-20.0725994110107,1252989483
sts,-78.8495635986328,-79.5427474975586,-31.4402694702148,-28.7750339508056,1253006150
sts,-78.0783081054687,-78.9621353149414,-21.9747123718261,-31.6619434356689,1253022817
sts,-77.3947219848632,-78.4026947021484,-18.3659477233886,-29.3775825500488,1253039484
sts,-76.7831115722656,-78.0206451416015,-23.5688419342041,-17.5616989135742,1253056151
sts,-76.2470016479492,-77.7538452148437,-27.5332508087158,-10.2638635635375,1253072818
sts,-75.7641372680664,-77.5676651000976,-30.2018222808837,-6.65578746795654,1253089485
sts,-75.3119354248046,-77.3758544921875,-32.849811553955,-11.623643875122,1253106152
sts,-74.9286651611328,-77.0686340332031,-29.9637737274169,-23.9546947479248,1253122819
sts,-74.5772705078125,-76.6467208862304,-28.0177497863769,-32.8879203796386,1253139486
sts,-74.2431488037109,-76.1093826293945,-24.6365890502929,-38.7386741638183,1253156153
sts,-73.917236328125,-75.4546127319336,-21.6130924224853,-42.4793357849121,1253172820
sts,-73.6126480102539,-74.8394165039062,-16.4584312438964,-36.3009414672851,1253189487
sts,-73.2488021850586,-74.3693618774414,-18.8266010284423,-25.7677822113037,1253206154
sts,-72.781021118164,-73.9387741088867,-27.4048824310302,-24.3261814117431,1253222821
sts,-72.1817779541015,-73.3419952392578,-37.6418647766113,-35.8278350830078,1253239488
sts,-71.4218673706054,-72.5297241210937,-45.9974861145019,-49.1686935424804,1253256155
sts,-70.5137405395507,-71.5660934448242,-53.3376312255859,-57.0418663024902,1253272822
sts,-69.5243759155273,-70.4558029174804,-55.5348777770996,-63.5948753356933,1253289489
sts,-68.534927368164,-69.2707061767578,-54.7995796203613,-64.7041091918945,1253306156
sts,-67.4777069091796,-68.0803070068359,-62.9841995239257,-61.7908020019531,1253322823
sts,-66.3030700683593,-66.802505493164,-74.105972290039,-65.6360855102539,1253339490
sts,-64.9680786132812,-65.2982101440429,-86.1932067871093,-78.741943359375,1253356157
sts,-63.535171508789,-63.4926948547363,-90.0836410522461,-96.2927474975586,1253372824
sts,-62.0450096130371,-61.7041625976562,-87.4029846191406,-92.6413497924804,1253389491
sts,-60.5156898498535,-59.9479637145996,-83.2648010253906,-87.6548080444336,1253406158
sts,-58.9027938842773,-58.1503181457519,-84.1674270629882,-90.9566421508789,1253422825
sts,-57.288948059082,-56.2593688964843,-84.4356307983398,-100.174057006835,1253439492
sts,-55.731330871582,-54.342113494873,-83.0069732666015,-104.845565795898,1253456159
sts,-54.1029891967773,-52.405948638916,-90.2302322387695,-104.156089782714,1253472826
sts,-52.3659629821777,-50.3901329040527,-99.2386398315429,-106.599670410156,1253489493
sts,-50.5196876525878,-48.3703536987304,-104.572456359863,-107.191612243652,1253506160
sts,-48.6910057067871,-46.4033432006835,-100.280807495117,-106.790130615234,1253522827
sts,-46.896385192871,-44.4581336975097,-96.2034759521484,-107.934585571289,1253539494
sts,-45.103229522705,-42.6162605285644,-94.9528503417968,-101.124435424804,1253556161
sts,-43.3542900085449,-40.7155227661132,-92.0028762817382,-105.356658935546,1253572828
sts,-41.6964874267578,-38.8527107238769,-87.7271041870117,-104.082527160644,1253589495
sts,-39.98384475708,-37.0861740112304,-90.4488372802734,-98.7450256347656,1253606162
sts,-38.1743850708007,-35.3487205505371,-91.5750885009765,-97.8294219970703,1253622829
sts,-36.3756408691406,-33.6256484985351,-86.0905075073242,-96.9018249511718,1253639496
sts,-34.5419464111328,-31.8726539611816,-88.4588088989257,-96.3339309692382,1253656163
sts,-32.6233863830566,-30.071792602539,-96.9532928466796,-98.0207214355468,1253672830
sts,-30.7893047332763,-28.270709991455,-89.7267913818359,-99.3179626464843,1253689497
sts,-28.9591960906982,-26.489366531372,-84.1659240722656,-99.0043563842773,1253706164
sts,-27.0492439270019,-24.6668758392334,-84.1725921630859,-101.305946350097,1253722831
sts,-25.0216178894042,-22.7229595184326,-88.1849746704101,-107.051261901855,1253739498
sts,-22.9850254058837,-20.6623287200927,-87.3093185424804,-112.011154174804,1253756165
sts,-20.8844165802001,-18.5989189147949,-90.9918975830078,-110.113677978515,1253772832
sts,-18.7806701660156,-16.5650386810302,-89.292251586914,-106.549156188964,1253789499
sts,-16.6711864471435,-14.4929342269897,-83.4831466674804,-106.313873291015,1253806166
sts,-14.4532556533813,-12.3125391006469,-79.800308227539,-107.568038940429,1253822833
sts,-11.9661931991577,-9.99522590637207,-89.3397979736328,-106.022232055664,1253839500
sts,-9.25520133972168,-7.39990711212158,-103.054977416992,-116.075950622558,1253856167
sts,-6.42573738098144,-4.55548524856567,-113.621871948242,-129.55223083496,1253872834
sts,-3.51373577117919,-1.557710647583,-117.327583312988,-141.344757080078,1253889501
sts,-0.55765277147293,1.48283314704895,-116.619277954101,-141.049560546875,1253906168
sts,2.38382649421691,4.46873331069946,-117.034675598144,-131.085098266601,1253922835
sts,5.33382940292358,7.56788110733032,-122.207138061523,-138.994644165039,1253939502
sts,8.16701030731201,10.7790918350219,-121.536781311035,-152.995407104492,1253956169
sts,10.8278131484985,13.8214263916015,-115.351379394531,-150.841079711914,1253972836
sts,13.1308536529541,16.3726158142089,-100.28791809082,-123.682525634765,1253989503
sts,14.7665462493896,18.6924324035644,-71.9541854858398,-118.034683227539,1254006170
sts,15.415057182312,20.2562026977539,-29.1800842285156,-81.8142547607421,1254022837
sts,15.0168590545654,20.9018859863281,15.8139476776123,-38.4184761047363,1254039504
sts,13.6490211486816,20.3902912139892,57.0104141235351,21.6391258239746,1254056171
sts,11.3856716156005,18.6333446502685,95.3568267822265,88.9390869140625,1254072838
sts,8.36645030975341,15.8775520324707,128.770126342773,141.09114074707,1254089505
sts,4.81455898284912,12.3448638916015,152.027374267578,179.285202026367,1254106172
sts,0.99253249168396,8.40732860565185,159.651321411132,194.887664794921,1254122839
sts,-2.76191401481628,4.30026388168335,146.261123657226,196.27732849121,1254139506
sts,-6.33764028549194,0.14886499941349,134.012985229492,191.354110717773,1254156173
sts,-9.73843193054199,-3.90616512298584,129.686431884765,185.148056030273,1254172840
sts,-13.0254430770874,-7.76608228683471,130.078674316406,177.09228515625,1254189507
sts,-16.2750911712646,-11.3910303115844,137.140869140625,169.037658691406,1254206174
sts,-19.4500770568847,-14.7315626144409,139.005599975585,157.0927734375,1254222841
sts,-22.4899864196777,-17.7756538391113,138.318603515625,142.336563110351,1254239508
sts,-25.4060974121093,-20.6393184661865,139.984832763671,138.148071289062,1254256175
sts,-28.2173328399658,-23.3951454162597,138.866516113281,138.401565551757,1254272842
sts,-30.853416442871,-26.0134544372558,130.965377807617,134.102615356445,1254289509
sts,-33.3799743652343,-28.5008068084716,125.636901855468,130.212097167968,1254306176
sts,-35.9888076782226,-30.9353847503662,132.735427856445,128.425674438476,1254322843
sts,-38.7288589477539,-33.4208641052246,141.453140258789,130.603317260742,1254339510
sts,-41.5115737915039,-36.0337562561035,144.720550537109,137.415328979492,1254356177
sts,-44.2885284423828,-38.8043479919433,146.87466430664,146.485977172851,1254372844
sts,-47.1869010925293,-41.679328918457,155.515884399414,151.693283081054,1254389511
sts,-50.1094398498535,-44.6136131286621,153.490676879882,155.07373046875,1254406178
sts,-53.0254859924316,-47.5604400634765,146.079681396484,155.801467895507,1254422845
sts,-56.0811958312988,-50.5316047668457,150.832473754882,157.380599975585,1254439512
sts,-59.2149276733398,-53.5852279663085,154.32046508789,162.812881469726,1254456179
sts,-62.2734565734863,-56.7362632751464,155.608428955078,165.790817260742,1254472846
sts,-65.1061401367187,-60.0140533447265,149.492599487304,167.983337402343,1254489513
sts,-67.8211822509765,-63.2616577148437,150.632690429687,163.151733398437,1254506180
sts,-70.3386688232421,-66.3613510131836,141.522171020507,157.391357421875,1254522847
sts,-72.7331237792968,-69.5662078857421,128.072448730468,172.742904663085,1254539514
sts,-75.1455001831054,-72.7388839721679,118.465217590332,177.133880615234,1254556181
sts,-77.6713333129882,-75.7513275146484,118.063171386718,174.107299804687,1254572848
sts,-80.2115020751953,-77.9851913452148,124.11009979248,122.908897399902,1254589515
sts,-82.5061416625976,-79.9738540649414,126.809364318847,101.91162109375,1254606182
sts,-84.145263671875,-82.0293197631836,114.979621887207,111.122894287109,1254622849
sts,-84.9622650146484,-83.8094482421875,84.8719711303711,103.261894226074,1254639516
sts,-85.1094360351562,-85.172492980957,67.4121780395507,77.9396820068359,1254656183
sts,-85.040542602539,-86.2899703979492,19.5448665618896,80.2095489501953,1254672850
sts,-85.0352478027343,-86.7898406982421,-14.9799709320068,63.6312446594238,1254689517
sts,-85.1352615356445,-86.5616226196289,-24.1028480529785,37.2210388183593,1254706184
sts,-85.3938522338867,-86.0802841186523,-12.8574256896972,-4.17996072769165,1254722851
sts,-85.7628479003906,-85.9316787719726,-4.87545490264892,-8.56247425079345,1254739518
sts,-86.0659790039062,-86.3059463500976,17.1803131103515,14.8491230010986,1254756185
sts,-86.0669708251953,-86.7928314208984,31.7668418884277,20.9619140625,1254772852
sts,-85.8100204467773,-87.0210647583007,24.3231239318847,14.0576591491699,1254789519
sts,-85.5313034057617,-87.0265197753906,8.12761497497558,2.01279997825622,1254806186
sts,-85.3200225830078,-86.9820861816406,3.68671894073486,2.64767217636108,1254822853
sts,-85.2972259521484,-86.8474426269531,-1.6202495098114,19.3154258728027,1254839520
sts,-85.4613723754882,-86.7674789428711,-6.62516641616821,13.6449470520019,1254856187
sts,-85.7174682617187,-86.8275756835937,-10.9909238815307,10.6623888015747,1254872854
sts,-85.8151702880859,-86.9458465576171,2.079345703125,7.62797594070434,1254889521
sts,-85.7267150878906,-87.0543670654296,7.74768781661987,-2.08590006828308,1254906188
sts,-85.523811340332,-87.107551574707,9.57090187072753,-13.1863994598388,1254922855
sts,-85.3234558105468,-87.0883865356445,3.03428220748901,-17.5720443725585,1254939522
sts,-85.1862258911132,-87.0046081542968,0.0395140089094638,-8.97532176971435,1254956189
sts,-85.1635360717773,-86.8969497680664,-3.65862035751342,3.78299474716186,1254972856
sts,-85.2414855957031,-86.815185546875,-8.12385177612304,6.65279293060302,1254989523
sts,-85.3464660644531,-86.7977142333984,-7.23506593704223,1.01526844501495,1255006190
sts,-85.416145324707,-86.8094787597656,-5.60106515884399,-8.55638217926025,1255022857
sts,-85.3797988891601,-86.8076934814453,-1.28068661689758,-15.3464155197143,1255039524
sts,-85.2720108032226,-86.7662658691406,-2.44933152198791,-16.9937133789062,1255056191
sts,-85.1688842773437,-86.670166015625,-10.9907550811767,-17.6479969024658,1255072858
sts,-85.1175384521484,-86.5327682495117,-21.0313034057617,-19.0009670257568,1255089525
sts,-85.0690612792968,-86.3664932250976,-28.4798507690429,-21.8125209808349,1255106192
sts,-84.9621505737304,-86.1611022949218,-34.3059997558593,-26.9395599365234,1255122859
sts,-84.7738876342773,-85.8772583007812,-38.2229080200195,-33.0204696655273,1255139526
sts,-84.4955139160156,-85.4517517089843,-42.8717346191406,-42.3561630249023,1255156193
sts,-84.1263046264648,-84.8163223266601,-38.4215126037597,-54.1853408813476,1255172860
sts,-83.6044158935546,-84.0408630371093,-35.8854598999023,-58.2769699096679,1255189527
sts,-82.843032836914,-83.2152252197265,-49.2426147460937,-56.7614555358886,1255206194
sts,-81.8284149169921,-82.3160171508789,-62.7727317810058,-56.6085586547851,1255222861
sts,-80.614273071289,-81.3927536010742,-67.9605560302734,-53.7051620483398,1255239528
sts,-79.282485961914,-80.3896331787109,-71.3275909423828,-55.517105102539,1255256195
sts,-77.8639831542968,-79.2342224121093,-81.9412155151367,-64.3662109375,1255272862
sts,-76.4138412475586,-77.9630584716796,-87.3770980834961,-73.4237442016601,1255289529
sts,-74.852668762207,-76.5763092041015,-93.9154052734375,-81.8530807495117,1255306196
sts,-73.1543731689453,-74.8701171875,-95.7461776733398,-101.478775024414,1255322863
sts,-71.2928009033203,-72.856575012207,-98.917007446289,-115.605171203613,1255339530
sts,-69.2659301757812,-70.6714324951171,-101.220291137695,-121.008155822753,1255356197
sts,-67.0664520263671,-68.2282257080078,-107.158142089843,-133.330093383789,1255372864
sts,-64.7064132690429,-65.5920944213867,-118.37400817871,-141.519317626953,1255389531
sts,-62.4233589172363,-62.6859893798828,-116.991645812988,-156.095901489257,1255406198
sts,-60.171516418457,-59.7580223083496,-115.984580993652,-159.168243408203,1255422865
sts,-57.9196624755859,-57.0771179199218,-109.425743103027,-150.28352355957,1255439532
sts,-55.4700508117675,-54.4134559631347,-120.238639831542,-156.51838684082,1255456199
sts,-52.8801498413085,-51.6645164489746,-131.4853515625,-163.072982788085,1255472866
sts,-50.2018203735351,-49.0425605773925,-141.852340698242,-148.895156860351,1255489533
sts,-47.5516357421875,-46.4907836914062,-146.589706420898,-136.941345214843,1255506200
sts,-45.0431785583496,-43.8828697204589,-141.878280639648,-139.83283996582,1255522867
sts,-42.7169456481933,-41.315818786621,-127.39045715332,-143.024002075195,1255539534
sts,-40.40083694458,-38.8065605163574,-123.62052154541,-144.828887939453,1255556201
sts,-38.1441688537597,-36.440860748291,-120.49225616455,-136.698913574218,1255572868
sts,-35.8104362487793,-34.0922927856445,-121.599578857421,-133.087478637695,1255589535
sts,-33.2419471740722,-31.4584045410156,-130.237152099609,-148.656158447265,1255606202
sts,-30.5699062347412,-28.806354522705,-136.152893066406,-147.465896606445,1255622869
sts,-27.9950466156005,-26.3231906890869,-132.70881652832,-134.967681884765,1255639536
sts,-25.5342044830322,-23.838020324707,-127.419342041015,-132.94221496582,1255656203
sts,-23.1231136322021,-21.2493991851806,-116.116676330566,-135.84080505371,1255672870
sts,-20.4928817749023,-18.7153701782226,-117.419326782226,-130.163177490234,1255689537
sts,-17.680679321289,-16.1944160461425,-118.294776916503,-128.033996582031,1255706204
sts,-14.8692808151245,-13.4887771606445,-113.09984588623,-136.221740722656,1255722871
sts,-11.9783887863159,-10.6015853881835,-116.429260253906,-137.264511108398,1255739538
sts,-8.943284034729,-7.4931788444519,-120.55271911621,-142.180877685546,1255756205
sts,-5.73981952667236,-4.18942213058471,-126.054901123046,-148.828140258789,1255772872
sts,-2.48868227005004,-0.883754849433898,-125.7564163208,-143.544158935546,1255789539
sts,0.764834880828857,2.53084278106689,-122.657890319824,-146.248626708984,1255806206
sts,3.88824868202209,6.0845923423767,-119.092079162597,-154.695938110351,1255822873
sts,6.82548904418945,9.5904893875122,-110.441085815429,-160.71141052246,1255839540
sts,9.5790729522705,12.8169908523559,-106.831909179687,-152.019241333007,1255856207
sts,11.8475151062011,15.6561613082885,-89.9849395751953,-133.937271118164,1255872874
sts,13.053424835205,17.893159866333,-43.9114227294921,-110.01163482666,1255889541
sts,13.2319583892822,19.2872085571289,-12.1105241775512,-79.18896484375,1255906208
sts,12.3573970794677,19.4992713928222,32.9068946838378,-20.9501476287841,1255922875
sts,10.5827894210815,18.4600067138671,69.393928527832,49.3117866516113,1255939542
sts,8.00673866271972,16.2949695587158,102.157470703125,109.819526672363,1255956209
sts,4.86411380767822,13.2196140289306,128.527267456054,155.42153930664,1255972876
sts,1.45975220203399,9.48566627502441,139.482238769531,187.580871582031,1255989543
sts,-2.12705278396606,5.4820818901062,146.473983764648,197.595672607421,1256006210
sts,-5.678307056427,1.35210585594177,140.97817993164,201.707275390625,1256022877
sts,-9.0273962020874,-2.83835697174072,132.944229125976,204.306335449218,1256039544
sts,-12.168963432312,-6.81386041641235,127.519813537597,191.361236572265,1256056211
sts,-15.1052999496459,-10.3697853088378,123.480125427246,169.462203979492,1256072878
sts,-17.8691825866699,-13.5447225570678,118.948181152343,151.794982910156,1256089545
sts,-20.5690460205078,-16.5328121185302,120.999069213867,143.590866088867,1256106212
sts,-23.2695045471191,-19.3616466522216,126.880065917968,133.042572021484,1256122879
sts,-25.8965377807617,-22.1425685882568,125.394554138183,131.330078125,1256139546
sts,-28.4460067749023,-24.9094295501709,122.547828674316,136.16421508789,1256156213
sts,-30.9658164978027,-27.6613082885742,122.993843078613,141.458877563476,1256172880
sts,-33.4808273315429,-30.3296089172363,126.545036315917,138.785751342773,1256189547
sts,-36.0037460327148,-32.9321861267089,130.768203735351,134.8935546875,1256206214
sts,-38.4736289978027,-35.5061798095703,129.170166015625,132.063171386718,1256222881
sts,-40.9635276794433,-38.0996170043945,132.646743774414,133.790939331054,1256239548
sts,-43.5437355041503,-40.6806335449218,140.960479736328,134.599090576171,1256256215
sts,-46.2033920288085,-43.3252487182617,144.915725708007,140.382873535156,1256272882
sts,-48.9501647949218,-45.9959487915039,146.09814453125,142.268585205078,1256289549
sts,-51.6917457580566,-48.6451377868652,137.670455932617,138.114486694335,1256306216
sts,-54.5373382568359,-51.2108612060546,141.79914855957,128.845184326171,1256322883
sts,-57.3330993652343,-53.8139495849609,136.700485229492,130.060333251953,1256339550
sts,-60.0528144836425,-56.6317634582519,133.881851196289,146.183334350585,1256356217
sts,-62.7529525756835,-59.5196952819824,135.949981689453,152.069549560546,1256372884
sts,-65.4395523071289,-62.3230514526367,136.136978149414,148.321960449218,1256389551
sts,-68.0627822875976,-64.9666595458984,130.031387329101,141.01106262207,1256406218
sts,-70.6065597534179,-67.5155868530273,124.887374877929,139.343322753906,1256422885
sts,-73.1023254394531,-69.9757766723632,126.87580871582,139.045639038085,1256439552
sts,-75.4995956420898,-72.4296112060546,126.496253967285,141.051498413085,1256456219
sts,-77.6380767822265,-74.986457824707,107.865043640136,149.492111206054,1256472886
sts,-79.6126861572265,-77.0915756225586,84.078125,118.957008361816,1256489553
sts,-81.5475997924804,-79.0247421264648,75.4583053588867,108.907890319824,1256506220
sts,-83.4052810668945,-81.1325531005859,84.6392211914062,126.43928527832,1256522887
sts,-84.889175415039,-83.0160980224609,98.5118103027343,118.05793762207,1256539554
sts,-85.5873184204101,-84.5891189575195,107.445091247558,111.783576965332,1256556221
sts,-85.5069961547851,-85.6465682983398,66.5139923095703,112.218399047851,1256572888
sts,-85.3439865112304,-85.8366546630859,25.7418460845947,119.837524414062,1256589555
sts,-85.2299728393554,-85.074348449707,3.60139775276184,112.495170593261,1256606222
sts,-85.2259979248046,-84.3681030273437,-4.45457410812377,47.8166770935058,1256622889
sts,-85.4229049682617,-84.3601760864257,-8.84285640716552,-29.7423057556152,1256639556
sts,-85.6674499511718,-84.88818359375,-6.0531325340271,-70.6238861083984,1256656223
sts,-85.7437515258789,-85.4484405517578,10.7838764190673,-51.756778717041,1256672890
sts,-85.6036376953125,-85.8484802246093,22.8809700012207,-22.8529663085937,1256689557
sts,-85.4282150268554,-85.9625015258789,17.9746685028076,3.74465370178222,1256706224
sts,-85.3185195922851,-85.8115692138671,8.02221298217773,30.1690864562988,1256722891
sts,-85.2369613647461,-85.5686264038086,-0.383985757827758,34.9079933166503,1256739558
sts,-85.1280975341796,-85.3023529052734,-0.199420496821403,36.7493057250976,1256756225
sts,-85.0353698730468,-85.032730102539,1.7151745557785,32.5631599426269,1256772892
sts,-85.0454025268554,-85.0141830444336,-0.99094271659851,14.3559637069702,1256789559
sts,-85.1172180175781,-85.2010269165039,-0.773055434226989,-2.43130421638488,1256806226
sts,-85.2438735961914,-85.4905929565429,-3.6541793346405,-21.7148494720459,1256822893
sts,-85.3555221557617,-85.6115341186523,-5.75375699996948,-13.8622169494628,1256839560
sts,-85.4059448242187,-85.5322647094726,-6.72031259536743,4.04375028610229,1256856227
sts,-85.3582305908203,-85.3989562988281,-2.32335400581359,6.999764919281,1256872894
sts,-85.250259399414,-85.2988967895507,1.30222022533416,-1.72630965709686,1256889561
sts,-85.1834640502929,-85.198745727539,-2.13695764541625,0.878599405288696,1256906228
sts,-85.2065811157226,-85.1712799072265,-5.46581697463989,3.88589882850646,1256922895
sts,-85.2859878540039,-85.2591400146484,-7.83085489273071,-1.84002351760864,1256939562
sts,-85.3591079711914,-85.4090957641601,-7.03546524047851,-11.5824089050292,1256956229
sts,-85.396743774414,-85.4861602783203,-5.16231775283813,-7.45596027374267,1256972896
sts,-85.3652725219726,-85.4901580810546,-1.38927125930786,2.59270310401916,1256989563
sts,-85.2990570068359,-85.4912872314453,2.6949553489685,5.15684175491333,1257006230
sts,-85.2467193603515,-85.5484313964843,1.57817149162292,-6.59000921249389,1257022897
sts,-85.2347793579101,-85.6261978149414,-3.35995292663574,-15.2079010009765,1257039564
sts,-85.266372680664,-85.7146759033203,-11.7514715194702,-19.6060619354248,1257056231
sts,-85.3160934448242,-85.8054885864257,-23.2343959808349,-24.1640567779541,1257072898
sts,-85.3546447753906,-85.884292602539,-35.1150131225585,-24.7186737060546,1257089565
sts,-85.3242111206054,-85.9424285888671,-45.2739830017089,-31.4504470825195,1257106232
sts,-85.1280670166015,-85.9352874755859,-55.0234336853027,-34.0428237915039,1257122899
sts,-84.697883605957,-85.8270263671875,-57.8365745544433,-39.4639472961425,1257139566
sts,-84.0299530029296,-85.5496673583984,-60.7335319519043,-49.549015045166,1257156233
sts,-83.1215438842773,-85.0362777709961,-67.2092666625976,-62.900047302246,1257172900
sts,-81.9646911621093,-84.146728515625,-69.3155670166015,-82.2080841064453,1257189567
sts,-80.7534255981445,-82.8908538818359,-62.2594375610351,-93.6572036743164,1257206234
sts,-79.5707778930664,-81.3506393432617,-60.9290771484375,-100.302070617675,1257222901
sts,-78.2115707397461,-79.6450653076171,-80.1161727905273,-101.030807495117,1257239568
sts,-76.6628112792968,-77.7469711303711,-94.9269638061523,-107.467239379882,1257256235
sts,-75.0599517822265,-75.6198577880859,-92.447021484375,-117.151718139648,1257272902
sts,-73.416259765625,-73.4185791015625,-91.4647750854492,-116.094352722167,1257289569
sts,-71.6117630004882,-71.1525573730468,-93.0419845581054,-115.326705932617,1257306236
sts,-69.7025604248046,-68.9010772705078,-85.5276641845703,-117.272888183593,1257322903
sts,-67.6834564208984,-66.891372680664,-78.9928131103515,-106.684226989746,1257339570
sts,-65.5167160034179,-64.8492584228515,-80.6637954711914,-111.308982849121,1257356237
sts,-63.17573928833,-62.6770477294921,-98.8467407226562,-119.804321289062,1257372904
sts,-60.8387298583984,-60.3630599975585,-122.431869506835,-125.386825561523,1257389571
sts,-58.6336555480957,-57.8664436340332,-132.692169189453,-133.686264038085,1257406238
sts,-56.5281219482421,-55.3616142272949,-131.73143005371,-133.999481201171,1257422905
sts,-54.4806861877441,-52.892349243164,-122.768249511718,-137.006759643554,1257439572
sts,-52.4171066284179,-50.5585479736328,-119.797637939453,-133.941787719726,1257456239
sts,-50.2699470520019,-48.3356170654296,-120.366905212402,-125.70930480957,1257472906
sts,-48.1237030029296,-46.1708755493164,-114.429855346679,-116.737495422363,1257489573
sts,-46.0201301574707,-43.8198547363281,-108.016357421875,-127.422592163085,1257506240
sts,-43.9390220642089,-41.3410606384277,-105.90843963623,-137.791900634765,1257522907
sts,-41.9130554199218,-38.798828125,-101.495468139648,-145.866806030273,1257539574
sts,-39.9099578857421,-36.367073059082,-99.9082336425781,-143.2890625,1257556241
sts,-37.6299400329589,-34.0929870605468,-119.400260925292,-133.270950317382,1257572908
sts,-35.0555038452148,-31.8863735198974,-135.265213012695,-125.08203125,1257589575
sts,-32.5387916564941,-29.6348495483398,-125.083549499511,-125.011779785156,1257606242
sts,-30.0642833709716,-27.452335357666,-118.482353210449,-119.45181274414,1257622909
sts,-27.5888767242431,-25.319444656372,-118.5571975708,-115.509727478027,1257639576
sts,-25.2252540588378,-23.1223201751709,-108.647438049316,-117.651634216308,1257656243
sts,-22.8441658020019,-20.7218055725097,-103.840225219726,-126.532577514648,1257672910
sts,-20.2550258636474,-18.1744499206542,-113.680038452148,-132.404434204101,1257689577
sts,-17.4971828460693,-15.5230464935302,-123.509521484375,-140.125885009765,1257706244
sts,-14.6847705841064,-12.8920526504516,-122.191375732421,-137.430953979492,1257722911
sts,-11.8298320770263,-10.2647762298583,-117.30687713623,-130.663833618164,1257739578
sts,-8.93883609771728,-7.61363077163696,-109.109329223632,-123.435592651367,1257756245
sts,-5.90342903137207,-4.76519203186035,-108.20263671875,-128.041381835937,1257772912
sts,-2.76292586326599,-1.66580867767333,-110.666793823242,-138.637344360351,1257789579
sts,0.515430212020874,1.71448647975921,-119.558189392089,-151.675033569335,1257806246
sts,3.87540960311889,5.2167854309082,-125.723007202148,-154.848266601562,1257822913
sts,6.92639732360839,8.84160995483398,-110.788208007812,-165.530776977539,1257839580
sts,9.68991088867187,12.0454978942871,-103.868469238281,-147.388763427734,1257856247
sts,12.0480117797851,15.1312360763549,-86.6088714599609,-155.987823486328,1257872914
sts,13.7497825622558,17.5601253509521,-62.5573463439941,-122.222343444824,1257889581
sts,14.4231023788452,19.4124774932861,-27.8810100555419,-101.085273742675,1257906248
sts,14.0427122116088,20.2733402252197,5.91623353958129,-57.399169921875,1257922915
sts,12.6890201568603,19.8174076080322,45.2165908813476,10.5141162872314,1257939582
sts,10.4930753707885,18.1152667999267,81.9146270751953,79.1735534667968,1257956249
sts,7.55436515808105,15.4768447875976,117.806724548339,129.284942626953,1257972916
sts,4.17658138275146,12.1177015304565,139.269500732421,165.415817260742,1257989583
sts,0.68067854642868,8.23425006866455,142.534744262695,191.180755615234,1258006250
sts,-2.74759697914123,4.23302936553955,137.464874267578,193.993988037109,1258022917
sts,-6.05241727828979,0.197728395462036,133.588302612304,194.62141418457,1258039584
sts,-9.26906776428222,-3.77037835121154,133.262161254882,190.121536254882,1258056251
sts,-12.3954534530639,-7.41783237457275,129.865570068359,171.011276245117,1258072918
sts,-15.4480438232421,-10.684302330017,130.334030151367,151.477478027343,1258089585
sts,-18.404067993164,-13.7099123001098,129.260009765625,141.45083618164,1258106252
sts,-21.2238883972167,-16.6510696411132,127.202194213867,138.959335327148,1258122919
sts,-23.9179077148437,-19.4992790222167,127.218322753906,133.939056396484,1258139586
sts,-26.4779968261718,-22.224100112915,124.000389099121,129.815017700195,1258156253
sts,-28.9951019287109,-24.8209514617919,123.604080200195,127.753509521484,1258172920
sts,-31.5700531005859,-27.3713493347167,127.083183288574,127.264457702636,1258189587
sts,-34.2107238769531,-29.9576568603515,131.162933349609,127.411842346191,1258206254
sts,-36.8418884277343,-32.6700248718261,133.405776977539,134.922485351562,1258222921
sts,-39.4345359802246,-35.3609542846679,134.758422851562,134.167617797851,1258239588
sts,-41.999282836914,-38.0595207214355,134.799652099609,136.564636230468,1258256255
sts,-44.6242332458496,-40.7713203430175,137.59683227539,141.103149414062,1258272922
sts,-47.3094367980957,-43.5133171081543,137.167053222656,147.146713256835,1258289589
sts,-50.0664558410644,-46.2630577087402,134.793823242187,149.149810791015,1258306256
sts,-52.9136314392089,-48.9110298156738,136.164016723632,140.296340942382,1258322923
sts,-55.9431381225585,-51.5967597961425,149.371856689453,142.047378540039,1258339590
sts,-59.0345344543457,-54.3505134582519,153.839874267578,146.891021728515,1258356257
sts,-62.1398658752441,-57.2040557861328,154.346572875976,152.717071533203,1258372924
sts,-65.1956024169921,-60.1806411743164,148.447341918945,159.690719604492,1258389591
sts,-68.2173156738281,-63.1557273864746,143.698333740234,160.739196777343,1258406258
sts,-71.1473007202148,-66.2123489379882,139.334365844726,169.133728027343,1258422925
sts,-73.8631820678711,-69.1452026367187,131.688552856445,163.072784423828,1258439592
sts,-76.421272277832,-71.8850708007812,135.921737670898,153.628494262695,1258456259
sts,-78.8276138305664,-74.4338073730468,138.236862182617,146.061813354492,1258472926
sts,-80.9868392944336,-77.0260772705078,122.263801574707,154.532791137695,1258489593
sts,-82.8703002929687,-79.531494140625,96.0294723510742,155.640792846679,1258506260
sts,-84.2973175048828,-81.8611984252929,74.1940689086914,149.12905883789,1258522927
sts,-85.0838623046875,-83.8453063964843,65.5357131958007,132.642013549804,1258539594
sts,-85.0595016479492,-85.1713638305664,68.3424911499023,98.5710906982421,1258556261
sts,-84.4469604492187,-85.8996505737304,55.6618347167968,74.7296905517578,1258572928
sts,-83.9728927612304,-86.0232009887695,27.6823463439941,84.4251708984375,1258589595
sts,-83.7619705200195,-85.5741958618164,-0.0104372426867485,52.995620727539,1258606262
sts,-83.7899780273437,-85.070571899414,-0.278422892093658,-2.47686767578125,1258622929
sts,-84.1700897216796,-84.5578842163086,-12.0350465774536,-4.28843688964843,1258639596
sts,-84.6195526123046,-84.5189514160156,-9.20030689239502,-8.23012828826904,1258656263
sts,-84.8726806640625,-85.1515197753906,5.8408818244934,-25.7616176605224,1258672930
sts,-84.9922637939453,-85.9063339233398,8.58153247833252,-28.9610481262207,1258689597
sts,-84.9527893066406,-86.2102890014648,12.210542678833,-7.40143299102783,1258706264
sts,-84.9024963378906,-85.953254699707,5.47844886779785,13.9665565490722,1258722931
sts,-84.8787231445312,-85.3885803222656,-0.920841336250305,31.7432975769042,1258739598
sts,-84.7699203491211,-84.9797973632812,2.6986494064331,24.7623252868652,1258756265
sts,-84.595100402832,-84.8775405883789,9.03920555114746,18.1999740600585,1258772932
sts,-84.400634765625,-85.0048370361328,11.5532684326171,6.61871719360351,1258789599
sts,-84.2773056030273,-85.1692504882812,6.6504807472229,1.55370867252349,1258806266
sts,-84.1955947875976,-85.2300186157226,4.62627172470092,1.3610428571701,1258822933
sts,-84.0871887207031,-85.2330169677734,8.93207931518554,-4.63451766967773,1258839600
sts,-84.0789718627929,-85.2458114624023,4.47861337661743,-9.18840885162353,1258856267
sts,-84.2713851928711,-85.2936401367187,-9.11388969421386,-8.33711719512939,1258872934
sts,-84.4804763793945,-85.3028106689453,-12.0498218536376,-2.62672400474548,1258889601
sts,-84.6206512451171,-85.27197265625,-10.4517679214477,-4.21052360534668,1258906268
sts,-84.6065368652343,-85.2484970092773,-1.74150454998016,-8.40309429168701,1258922935
sts,-84.5726318359375,-85.2613677978515,-1.56532359123229,-7.98470878601074,1258939602
sts,-84.5562286376953,-85.2606658935546,-3.8332495689392,-5.69534301757812,1258956269
sts,-84.4956893920898,-85.2331771850586,-0.195335268974304,-3.33296370506286,1258972936
sts,-84.3974075317382,-85.1664886474609,3.76061677932739,0.00664011156186461,1258989603
sts,-84.3662948608398,-85.1128845214843,-1.55015742778778,-10.3410949707031,1259006270
sts,-84.4333419799804,-85.1187438964843,-10.8697900772094,-15.9378643035888,1259022937
sts,-84.597785949707,-85.1547164916992,-22.046157836914,-18.0501251220703,1259039604
sts,-84.8017883300781,-85.1714859008789,-31.3077430725097,-20.7707138061523,1259056271
sts,-84.9114685058593,-85.127815246582,-33.3075370788574,-26.2585277557373,1259072938
sts,-84.8947067260742,-84.9995498657226,-32.3944549560546,-27.395408630371,1259089605
sts,-84.7995223999023,-84.8539581298828,-35.8495407104492,-27.2150440216064,1259106272
sts,-84.6153717041015,-84.6470870971679,-50.7590713500976,-28.4657154083251,1259122939
sts,-84.2054977416992,-84.3069076538086,-66.3038024902343,-34.845603942871,1259139606
sts,-83.4788970947265,-83.7879180908203,-75.9359512329101,-49.2234458923339,1259156273
sts,-82.4490890502929,-83.0736923217773,-84.8031005859375,-66.7578048706054,1259172940
sts,-81.1780014038086,-82.1940994262695,-90.2793807983398,-80.3273086547851,1259189607
sts,-79.7540130615234,-81.0977020263671,-86.1986694335937,-90.8807907104492,1259206274
sts,-78.2133560180664,-79.6950225830078,-79.2361297607421,-102.530929565429,1259222941
sts,-76.6034088134765,-78.0236206054687,-76.9961395263671,-110.050964355468,1259239608
sts,-74.9572830200195,-76.2091903686523,-78.023323059082,-108.051818847656,1259256275
sts,-73.1986083984375,-74.1723098754882,-90.4977569580078,-112.208221435546,1259272942
sts,-71.2044525146484,-71.8330535888671,-111.357940673828,-124.005271911621,1259289609
sts,-69.1341400146484,-69.2793197631836,-119.555358886718,-128.669921875,1259306276
sts,-66.8849105834961,-66.6541061401367,-130.608078002929,-129.85513305664,1259322943
sts,-64.6175765991211,-63.955337524414,-121.170013427734,-135.061874389648,1259339610
sts,-62.2665061950683,-61.4075813293457,-115.240592956542,-129.540283203125,1259356277
sts,-59.8669166564941,-58.9477653503418,-108.703979492187,-131.04736328125,1259372944
sts,-57.4836044311523,-56.4016914367675,-104.054962158203,-143.809661865234,1259389611
sts,-55.0431251525878,-53.7323341369628,-114.764854431152,-155.561111450195,1259406278
sts,-52.5837898254394,-50.85693359375,-125.104148864746,-167.673126220703,1259422945
sts,-50.0818214416503,-47.9573593139648,-133.312561035156,-166.417648315429,1259439612
sts,-47.508316040039,-45.2602424621582,-136.995025634765,-154.148544311523,1259456279
sts,-44.9397964477539,-42.7736740112304,-135.736129760742,-142.410568237304,1259472946
sts,-42.4402542114257,-40.3445091247558,-134.002685546875,-140.758422851562,1259489613
sts,-39.981590270996,-37.9487037658691,-134.652862548828,-136.57388305664,1259506280
sts,-37.6020698547363,-35.5672149658203,-127.714714050292,-133.150177001953,1259522947
sts,-35.2798423767089,-33.0273475646972,-114.409530639648,-144.511688232421,1259539614
sts,-32.7443580627441,-30.1599197387695,-118.381164550781,-164.39404296875,1259556281
sts,-29.8735675811767,-27.3022289276123,-132.820571899414,-158.038223266601,1259572948
sts,-26.8092937469482,-24.6257724761962,-137.660751342773,-139.103134155273,1259589615
sts,-23.8784866333007,-22.0039558410644,-126.850997924804,-131.777786254882,1259606282
sts,-21.0557327270507,-19.327407836914,-122.68276977539,-133.892181396484,1259622949
sts,-18.2853069305419,-16.5312957763671,-113.776512145996,-136.284835815429,1259639616
sts,-15.3968667984008,-13.6250391006469,-105.042579650878,-135.02342224121,1259656283
sts,-12.2030296325683,-10.5871276855468,-112.06046295166,-139.873275756835,1259672950
sts,-8.62544536590576,-7.34503889083862,-129.962829589843,-150.72541809082,1259689617
sts,-4.89574241638183,-3.79773545265197,-133.648254394531,-160.065505981445,1259706284
sts,-1.16186738014221,0.0106269214302301,-131.228271484375,-166.199554443359,1259722951
sts,2.52653884887695,4.00337839126586,-128.473648071289,-178.953628540039,1259739618
sts,6.20900392532348,7.90477705001831,-133.040603637695,-174.292724609375,1259756285
sts,9.72996711730957,11.5709991455078,-138.103820800781,-163.681182861328,1259772952
sts,12.6946926116943,15.3471727371215,-124.350646972656,-192.239685058593,1259789619
sts,14.3918743133544,18.4003143310546,-69.7766494750976,-162.851181030273,1259806286
sts,14.9466838836669,20.3691539764404,-32.391803741455,-120.288650512695,1259822953
sts,14.1212186813354,20.6755867004394,21.1983337402343,-30.4457836151123,1259839620
sts,11.9304695129394,19.410400390625,73.3466110229492,59.5728149414062,1259856287
sts,8.79739570617675,16.9855499267578,109.337562561035,118.863464355468,1259872954
sts,5.01998233795166,13.5169534683227,145.078384399414,171.482727050781,1259889621
sts,0.906643033027648,9.42240524291992,162.870697021484,202.998825073242,1259906288
sts,-3.15062093734741,4.90210390090942,152.246673583984,222.92918395996,1259922955
sts,-6.9582028388977,0.248353287577629,135.446136474609,227.118240356445,1259939622
sts,-10.5525999069213,-4.37975168228149,135.349334716796,227.678268432617,1259956289
sts,-13.8904333114624,-8.57200813293457,132.825576782226,206.82273864746,1259972956
sts,-16.916648864746,-12.2400541305542,124.520988464355,181.771621704101,1259989623
sts,-19.7233905792236,-15.4498710632324,120.446670532226,160.954116821289,1260006290
sts,-22.4698066711425,-18.289113998413,123.67894744873,139.715042114257,1260022957
sts,-25.2159481048584,-20.9867267608642,131.718643188476,131.362167358398,1260039624
sts,-27.9197731018066,-23.7687282562255,135.608566284179,137.265716552734,1260056291
sts,-30.5937900543212,-26.6086921691894,135.763351440429,141.720092773437,1260072958
sts,-33.3043060302734,-29.4267539978027,138.643737792968,141.712432861328,1260089625
sts,-36.1053314208984,-32.2465057373046,146.080596923828,144.14468383789,1260106292
sts,-38.9799919128418,-35.0901336669921,151.744491577148,148.574615478515,1260122959
sts,-41.9085540771484,-37.941047668457,154.955032348632,149.282501220703,1260139626
sts,-44.8596382141113,-40.8166732788085,156.763412475585,150.380142211914,1260156293
sts,-47.8207511901855,-43.7287483215332,159.13557434082,151.737670898437,1260172960
sts,-50.7554855346679,-46.6529235839843,156.496017456054,150.93374633789,1260189627
sts,-53.6688804626464,-49.5065078735351,152.96728515625,146.317352294921,1260206294
sts,-56.6133155822753,-52.3687515258789,151.480194091796,149.901779174804,1260222961
sts,-59.6180114746093,-55.3379211425781,152.82177734375,160.142044067382,1260239628
sts,-62.6125984191894,-58.4904556274414,149.481872558593,172.109298706054,1260256295
sts,-65.5692138671875,-61.6853637695312,146.623641967773,174.083938598632,1260272962
sts,-68.5030899047851,-64.8443145751953,143.677032470703,174.39646911621,1260289629
sts,-71.3609390258789,-67.8229370117187,142.008972167968,164.285675048828,1260306296
sts,-74.0300979614257,-70.570327758789,137.415817260742,150.406707763671,1260322963
sts,-76.3557815551757,-72.9382400512695,118.263076782226,126.09373474121,1260339630
sts,-78.4146957397461,-75.360725402832,102.854400634765,131.244064331054,1260356297
sts,-80.2590255737304,-77.6589202880859,92.2853851318359,125.85774230957,1260372964
sts,-81.8605041503906,-79.9247741699218,85.9595794677734,124.491729736328,1260389631
sts,-83.2007904052734,-82.2513961791992,84.462158203125,135.214691162109,1260406298
sts,-84.180549621582,-84.1039276123046,79.4498825073242,115.358261108398,1260422965
sts,-84.8200607299804,-85.4100799560546,67.5078125,98.1354675292968,1260439632
sts,-85.2340393066406,-86.1737747192382,50.948802947998,86.8324661254882,1260456299
sts,-85.1854553222656,-86.3786926269531,35.1110954284668,76.240982055664,1260472966
sts,-84.556411743164,-85.9975814819336,12.1491708755493,59.9820861816406,1260489633
sts,-83.7483139038086,-85.5754852294921,-7.41767692565918,14.7735471725463,1260506300
sts,-83.3104782104492,-85.575569152832,-18.074478149414,-22.4120044708251,1260522967
sts,-83.5734329223632,-86.0654830932617,-32.4548530578613,-30.0938415527343,1260539634
sts,-84.3155899047851,-86.5688095092773,-35.7809906005859,-13.2188682556152,1260556301
sts,-85.0734786987304,-86.7027740478515,-20.4968452453613,-2.14760518074035,1260572968
sts,-85.3349914550781,-86.5792083740234,14.7296819686889,0.211080968379974,1260589635
sts,-85.0416870117187,-86.3746948242187,39.1495475769043,9.42585849761962,1260606302
sts,-84.5569152832031,-86.1103286743164,35.591064453125,20.5098991394042,1260622969
sts,-84.2081985473632,-85.8536682128906,16.228702545166,18.1863098144531,1260639636
sts,-84.0951919555664,-85.7483520507812,-2.13359069824218,8.25853252410888,1260656303
sts,-84.1519241333007,-85.7581329345703,-10.3570880889892,-2.51159739494323,1260672970
sts,-84.2812194824218,-85.8194274902343,-6.64398860931396,-1.78168618679046,1260689637
sts,-84.4273300170898,-85.8891067504882,0.339502871036529,2.75262928009033,1260706304
sts,-84.5717620849609,-85.9536361694336,-1.24380600452423,0.23917780816555,1260722971
sts,-84.6391143798828,-86.0136108398437,-2.3949065208435,-5.8407597541809,1260739638
sts,-84.5859756469726,-86.0307388305664,3.28057265281677,-12.2592611312866,1260756305
sts,-84.5197067260742,-85.9588165283203,0.918452262878418,-8.40537738800048,1260772972
sts,-84.481216430664,-85.8596267700195,-2.81491565704345,-2.02992224693298,1260789639
sts,-84.445930480957,-85.7425537109375,-0.767320871353149,4.95968914031982,1260806306
sts,-84.4139785766601,-85.6505355834961,1.15422236919403,-1.59462130069732,1260822973
sts,-84.4212493896484,-85.5878067016601,0.546326875686645,-5.22396755218505,1260839640
sts,-84.5146331787109,-85.5699081420898,-5.18418598175048,-2.78321027755737,1260856307
sts,-84.6334915161132,-85.5763702392578,-11.6623668670654,-2.76633834838867,1260872974
sts,-84.7129898071289,-85.5719833374023,-17.1488666534423,-7.88091897964477,1260889641
sts,-84.7184677124023,-85.5589141845703,-20.1831722259521,-14.4598741531372,1260906308
sts,-84.6923446655273,-85.5344619750976,-20.8891944885253,-17.5538463592529,1260922975
sts,-84.6836395263671,-85.4836044311523,-28.0950393676757,-26.7797946929931,1260939642
sts,-84.6755676269531,-85.3734893798828,-40.5261001586914,-36.9056167602539,1260956309
sts,-84.5353546142578,-85.1477584838867,-49.9125785827636,-47.5783386230468,1260972976
sts,-84.1375274658203,-84.7020645141601,-53.2295036315918,-61.1441764831543,1260989643
sts,-83.50341796875,-83.9558410644531,-59.477310180664,-73.9342422485351,1261006310
sts,-82.5894012451171,-82.9111404418945,-76.0318756103515,-83.911262512207,1261022977
sts,-81.3413619995117,-81.7092590332031,-84.609878540039,-84.9830322265625,1261039644
sts,-79.8798522949218,-80.3563079833984,-84.4207229614257,-88.9443054199218,1261056311
sts,-78.1774520874023,-78.8161468505859,-93.8964614868164,-94.7892303466796,1261072978
sts,-76.2968673706054,-77.2352066040039,-90.6331939697265,-90.9384231567382,1261089645
sts,-74.4551086425781,-75.654426574707,-76.7305679321289,-85.7441711425781,1261106312
sts,-72.4428405761718,-73.8082809448242,-85.1384353637695,-101.614921569824,1261122979
sts,-70.1863174438476,-71.6771087646484,-104.056236267089,-120.263061523437,1261139646
sts,-67.799690246582,-69.3447189331054,-117.042625427246,-128.770889282226,1261156313
sts,-65.3794403076171,-66.8597030639648,-127.126266479492,-135.130538940429,1261172980
sts,-63.030906677246,-64.2307586669921,-126.204605102539,-139.439468383789,1261189647
sts,-60.7341918945312,-61.6660270690918,-120.137069702148,-128.538223266601,1261206314
sts,-58.3849029541015,-59.0962677001953,-125.162208557128,-126.573364257812,1261222981
sts,-55.9019203186035,-56.4269218444824,-137.015167236328,-136.709274291992,1261239648
sts,-53.374095916748,-53.7015151977539,-143.094436645507,-145.96548461914,1261256315
sts,-50.8775215148925,-50.8668937683105,-137.701370239257,-156.605590820312,1261272982
sts,-48.4492454528808,-47.9515838623046,-129.901794433593,-164.729309082031,1261289649
sts,-46.1694717407226,-45.1404800415039,-120.205375671386,-160.569381713867,1261306316
sts,-43.9507179260253,-42.3497810363769,-121.178718566894,-160.303634643554,1261322983
sts,-41.5849113464355,-39.743667602539,-133.014923095703,-150.561737060546,1261339650
sts,-38.9845962524414,-37.3606414794921,-141.241333007812,-137.073532104492,1261356317
sts,-36.3760070800781,-34.9621429443359,-134.505737304687,-136.864791870117,1261372984
sts,-33.7516136169433,-32.3504638671875,-133.975219726562,-145.931884765625,1261389651
sts,-31.0460586547851,-29.6310386657714,-137.504287719726,-151.040496826171,1261406318
sts,-28.2845592498779,-27.0033931732177,-132.118606567382,-143.630187988281,1261422985
sts,-25.4872665405273,-24.4662475585937,-125.62222290039,-135.387786865234,1261439652
sts,-22.7139644622802,-21.8157482147216,-120.395278930664,-139.933349609375,1261456319
sts,-19.9320564270019,-19.0189895629882,-117.909881591796,-142.299377441406,1261472986
sts,-17.1816177368164,-16.0230503082275,-111.398529052734,-146.109939575195,1261489653
sts,-14.3137121200561,-13.0217590332031,-115.149002075195,-143.509353637695,1261506320
sts,-11.1342430114746,-9.92336463928222,-122.781883239746,-151.65217590332,1261522987
sts,-7.61174488067626,-6.64693737030029,-127.499877929687,-156.33804321289,1261539654
sts,-3.88723182678222,-3.19680309295654,-132.844741821289,-153.570648193359,1261556321
sts,0.025131681933999,0.585681855678558,-142.661712646484,-167.253631591796,1261572988
sts,3.85137248039245,4.43983030319213,-140.702362060546,-171.043243408203,1261589655
sts,7.49140119552612,8.26794815063476,-127.483268737792,-177.181716918945,1261606322
sts,10.8060674667358,11.726842880249,-115.003395080566,-153.478805541992,1261622989
sts,13.5378484725952,15.5125160217285,-98.4738693237304,-188.077819824218,1261639656
sts,15.1172847747802,18.6729927062988,-49.0438613891601,-162.26594543457,1261656323
sts,15.5479869842529,20.6907978057861,-12.4086141586303,-116.585838317871,1261672990
sts,14.7768783569335,21.1700191497802,27.4697437286376,-39.7954483032226,1261689657
sts,12.7610960006713,19.9194965362548,74.2045211791992,60.3175163269043,1261706324
sts,9.74745178222656,17.5841560363769,113.203102111816,116.168365478515,1261722991
sts,6.06525897979736,14.1514854431152,145.840560913085,171.567169189453,1261739658
sts,2.13317680358886,10.0939655303955,157.316909790039,199.84504699707,1261756325
sts,-1.75812590122222,5.74654626846313,152.28254699707,212.97752380371,1261772992
sts,-5.43272590637207,1.34581780433654,139.213226318359,214.165222167968,1261789659
sts,-8.90666103363037,-2.95114135742187,133.819458007812,208.244445800781,1261806326
sts,-12.2451801300048,-7.05319643020629,131.273132324218,201.631118774414,1261822993
sts,-15.5386581420898,-10.817325592041,137.166137695312,188.142776489257,1261839660
sts,-18.7128715515136,-14.1024866104125,134.540756225585,163.479675292968,1261856327
sts,-21.7420425415039,-17.1128025054931,129.134963989257,150.503921508789,1261872994
sts,-24.6641178131103,-20.0120487213134,129.125885009765,144.287628173828,1261889661
sts,-27.4266948699951,-22.8835792541503,128.656921386718,144.752517700195,1261906328
sts,-29.9708080291748,-25.6656074523925,121.984313964843,144.347106933593,1261922995
sts,-32.3621215820312,-28.3604507446289,117.595672607421,145.390579223632,1261939662
sts,-34.7289772033691,-30.9777145385742,119.424125671386,142.624786376953,1261956329
sts,-37.2474365234375,-33.6041030883789,132.633209228515,140.670272827148,1261972996
sts,-39.9090385437011,-36.3104934692382,143.291076660156,143.537536621093,1261989663
sts,-42.688865661621,-39.0964126586914,150.04588317871,147.866653442382,1262006330
sts,-45.5370979309082,-41.9287452697753,153.276306152343,149.302642822265,1262022997
sts,-48.481460571289,-44.7452888488769,158.412734985351,146.898208618164,1262039664
sts,-51.4583282470703,-47.5952339172363,158.114715576171,148.945663452148,1262056331
sts,-54.4667015075683,-50.4453773498535,156.863235473632,148.89891052246,1262072998
sts,-57.4456138610839,-53.3735694885253,148.937759399414,153.02847290039,1262089665
sts,-60.3620834350585,-56.4992179870605,139.049560546875,164.495666503906,1262106332
sts,-63.1450805664062,-59.5732116699218,126.572296142578,158.425476074218,1262122999
sts,-65.8534927368164,-62.5841979980468,118.239700317382,155.30354309082,1262139666
sts,-68.5247650146484,-65.5049133300781,113.831901550292,151.600112915039,1262156333
sts,-71.1766204833984,-68.2248764038086,113.747566223144,139.508346557617,1262173000
sts,-73.6305389404296,-71.0134201049804,105.125015258789,150.575103759765,1262189667
sts,-75.9174499511718,-73.8110580444336,103.375709533691,156.820022583007,1262206334
sts,-78.0523071289062,-75.9754180908203,97.9009628295898,114.325531005859,1262223001
sts,-79.9797973632812,-78.312026977539,96.3958282470703,131.373245239257,1262239668
sts,-81.6572036743164,-80.3094329833984,106.133651733398,103.386611938476,1262256335
sts,-82.8967895507812,-82.169448852539,113.537139892578,94.5889663696289,1262273002
sts,-83.6083145141601,-84.2088394165039,98.8923263549804,120.627891540527,1262289669
sts,-83.9210739135742,-86.217788696289,75.7595596313476,151.6982421875,1262306336
sts,-83.9804763793945,-87.0811386108398,56.4281921386718,139.124237060546,1262323003
sts,-83.8281936645507,-86.7582855224609,48.4599113464355,99.3487014770507,1262339670
sts,-83.552749633789,-86.3560028076171,35.4006271362304,36.2370719909668,1262356337
sts,-83.3930969238281,-86.0822372436523,2.67889332771301,-10.6153507232666,1262373004
sts,-83.3748703002929,-85.6313934326171,-14.0974102020263,-8.25642967224121,1262389671
sts,-83.5137863159179,-85.5544204711914,-19.7420806884765,-10.2537403106689,1262406338
sts,-83.782844543457,-86.0943069458007,-18.6873741149902,-25.5570163726806,1262423005
sts,-84.0707092285156,-86.6147079467773,-12.4691553115844,-5.45925569534301,1262439672
sts,-84.304817199707,-86.7661514282226,-8.25340175628662,-6.66320371627807,1262456339
sts,-84.4703292846679,-86.5824127197265,-8.75371170043945,-4.6492018699646,1262473006
sts,-84.349868774414,-86.4252700805664,11.5825452804565,1.1440782546997,1262489673
sts,-84.0043640136718,-86.2058410644531,23.0324726104736,30.0180473327636,1262506340
sts,-83.692024230957,-85.9770278930664,16.1998271942138,28.4248123168945,1262523007
sts,-83.5678482055664,-86.0005645751953,5.27617168426513,1.73107922077178,1262539674
sts,-83.7402954101562,-86.1408004760742,-9.13884830474853,-14.6410779953002,1262556341
sts,-84.1632995605468,-86.2149963378906,-24.7812461853027,-21.1808261871337,1262573008
sts,-84.536865234375,-86.1924438476562,-21.7598628997802,-21.8581829071044,1262589675
sts,-84.7069854736328,-86.0913925170898,-9.50864028930664,-11.2143964767456,1262606342
sts,-84.7011795043945,-86.0109634399414,-5.96054983139038,-9.08450508117675,1262623009
sts,-84.5625686645507,-86.0059051513671,-2.46072673797607,-11.1976728439331,1262639676
sts,-84.3964309692382,-86.0476989746093,3.20599317550659,-5.53426599502563,1262656343
sts,-84.3497238159179,-86.0933990478515,-0.761900961399078,0.655921995639801,1262673010
sts,-84.4776000976562,-86.1028366088867,-14.1661291122436,-2.90601897239685,1262689677
sts,-84.6934509277343,-86.0609970092773,-26.1415462493896,-6.27108669281005,1262706344
sts,-84.8616485595703,-86.0107650756836,-30.8825778961181,-9.43376445770263,1262723011
sts,-84.9113388061523,-85.9458084106445,-26.9228324890136,-13.4256200790405,1262739678
sts,-84.8566589355468,-85.872802734375,-19.0824909210205,-16.5778446197509,1262756345
sts,-84.7142868041992,-85.7867584228515,-16.3271789550781,-26.6628379821777,1262773012
sts,-84.5298690795898,-85.6550369262695,-16.4330024719238,-33.0395355224609,1262789679
sts,-84.3729782104492,-85.4443969726562,-19.3784580230712,-36.6154861450195,1262806346
sts,-84.2158584594726,-85.1579895019531,-28.6182270050048,-37.1999588012695,1262823013
sts,-83.967658996582,-84.7398071289062,-39.6855010986328,-42.1836967468261,1262839680
sts,-83.5189590454101,-84.1930236816406,-48.9733581542968,-45.6805419921875,1262856347
sts,-82.8888168334961,-83.5642547607421,-52.5990104675293,-46.4558410644531,1262873014
sts,-82.1405792236328,-82.8346252441406,-57.0914840698242,-50.5145988464355,1262889681
sts,-81.1466064453125,-81.9584579467773,-71.984016418457,-59.3969993591308,1262906348
sts,-79.8069610595703,-80.9713439941406,-90.8586730957031,-65.6644821166992,1262923015
sts,-78.0430068969726,-79.7821350097656,-111.925163269042,-79.9899749755859,1262939682
sts,-75.8830871582031,-78.3064575195312,-121.635818481445,-100.777236938476,1262956349
sts,-73.5126342773437,-76.6411361694336,-115.373847961425,-111.98355102539,1262973016
sts,-71.2127380371093,-74.75390625,-94.0323410034179,-120.727653503417,1262989683
sts,-68.9726104736328,-72.5382995605468,-94.3405609130859,-133.382049560546,1263006350
sts,-67.0759506225586,-70.1637420654296,-101.710693359375,-131.771987915039,1263023017
sts,-65.3403167724609,-67.7846298217773,-117.216636657714,-115.166404724121,1263039684
sts,-63.6289634704589,-65.208869934082,-112.743553161621,-112.737899780273,1263056351
sts,-61.7589874267578,-62.478214263916,-107.548934936523,-118.503753662109,1263073018
sts,-59.5692138671875,-59.7449989318847,-107.674400329589,-125.134040832519,1263089685
sts,-56.9795455932617,-57.0584030151367,-115.25227355957,-136.422531127929,1263106352
sts,-54.2871551513671,-54.4008750915527,-114.411827087402,-147.491943359375,1263123019
sts,-51.7721977233886,-51.8397750854492,-112.527153015136,-148.906707763671,1263139686
sts,-49.5091476440429,-49.2218322753906,-115.739097595214,-154.687408447265,1263156353
sts,-47.3936080932617,-46.5413513183593,-117.992858886718,-156.178985595703,1263173020
sts,-45.3061790466308,-44.1348266601562,-117.576667785644,-137.862442016601,1263189687
sts,-43.0093002319335,-42.0520668029785,-124.332191467285,-119.95694732666,1263206354
sts,-40.3702735900878,-39.9659538269043,-143.451385498046,-122.415504455566,1263223021
sts,-37.6694755554199,-37.6885108947753,-148.589721679687,-133.452880859375,1263239688
sts,-35.1984977722168,-35.5212287902832,-137.117141723632,-117.166183471679,1263256355
sts,-33.0607833862304,-33.3900642395019,-112.259376525878,-105.9384765625,1263273022
sts,-31.0324020385742,-30.8996505737304,-98.6510467529296,-127.602416992187,1263289689
sts,-28.7364921569824,-27.910228729248,-115.899047851562,-168.846466064453,1263306356
sts,-26.1221961975097,-25.0873928070068,-132.559280395507,-161.578460693359,1263323023
sts,-23.4230880737304,-22.7224063873291,-129.781387329101,-122.879432678222,1263339690
sts,-20.8487129211425,-20.4674682617187,-120.67935180664,-107.820358276367,1263356357
sts,-18.3632125854492,-18.1893157958984,-117.546257019042,-110.982566833496,1263373024
sts,-15.8285026550292,-15.7956113815307,-116.572982788085,-121.99299621582,1263389691
sts,-13.1420907974243,-13.2594804763793,-115.330474853515,-127.53872680664,1263406358
sts,-10.41295337677,-10.4642925262451,-106.108352661132,-137.855148315429,1263423025
sts,-7.62100315093994,-7.37038230895996,-98.6063842773437,-148.975112915039,1263439692
sts,-4.56797885894775,-3.99350881576538,-108.775726318359,-157.166763305664,1263456359
sts,-1.24674093723297,-0.548617720603942,-122.647796630859,-152.556427001953,1263473026
sts,2.10810661315917,2.89260482788085,-120.810981750488,-149.88394165039,1263489693
sts,5.07022666931152,6.23844671249389,-97.9403686523437,-148.230163574218,1263506360
sts,7.51050090789794,9.14067935943603,-72.7149887084961,-127.358482360839,1263523027
sts,9.42101192474365,11.7459354400634,-55.7851181030273,-117.753692626953,1263539694
sts,10.7065353393554,13.8725118637084,-35.0014381408691,-96.9108047485351,1263556361
sts,11.071494102478,15.2276096343994,-7.78580093383789,-63.27490234375,1263573028
sts,10.3345212936401,15.366413116455,29.9330825805664,-2.72916555404663,1263589695
sts,8.59121131896972,14.3441696166992,69.5205383300781,55.725715637207,1263606362
sts,6.10163402557373,12.4015502929687,97.0739440917968,100.296363830566,1263623029
sts,2.97386264801025,9.61478424072265,122.920104980468,138.526229858398,1263639696
sts,-0.408208012580871,6.12730264663696,128.74494934082,172.128723144531,1263656363
sts,-3.73872137069702,2.19071292877197,123.167243957519,194.498245239257,1263673030
sts,-6.93868732452392,-1.86904311180114,119.49893951416,199.208740234375,1263689697
sts,-10.0377054214477,-5.90709924697876,122.902069091796,199.836639404296,1263706364
sts,-12.9605636596679,-9.70840835571289,120.968910217285,188.091995239257,1263723031
sts,-15.7140626907348,-13.0705852508544,122.21630859375,162.639923095703,1263739698
sts,-18.2463817596435,-16.0333919525146,117.632904052734,142.363021850585,1263756365
sts,-20.6324920654296,-18.7281646728515,116.597106933593,125.986007690429,1263773032
sts,-23.0487937927246,-21.3671264648437,125.039672851562,122.915237426757,1263789699
sts,-25.5380992889404,-23.8894710540771,132.942947387695,110.982154846191,1263806366
sts,-28.1085548400878,-26.3165893554687,137.153747558593,103.773612976074,1263823033
sts,-30.7312278747558,-28.7593555450439,138.998565673828,105.666015625,1263839700
sts,-33.480712890625,-31.3085327148437,147.779159545898,114.244476318359,1263856367
sts,-36.2513160705566,-33.9264526367187,150.063690185546,120.496109008789,1263873034
sts,-38.9814758300781,-36.6010093688964,147.577056884765,126.85203552246,1263889701
sts,-41.7058410644531,-39.3029022216796,146.864852905273,133.016159057617,1263906368
sts,-44.4773521423339,-42.0557556152343,149.063766479492,139.416397094726,1263923035
sts,-47.2430381774902,-44.8656272888183,144.021392822265,143.568481445312,1263939702
sts,-49.954906463623,-47.7912635803222,137.183151245117,153.603927612304,1263956369
sts,-52.6878242492675,-50.7071495056152,140.103363037109,154.940628051757,1263973036
sts,-55.4435882568359,-53.6101379394531,140.716049194335,152.354751586914,1263989703
sts,-58.2642402648925,-56.5414085388183,142.889953613281,153.331878662109,1264006370
sts,-61.0213546752929,-59.4517211914062,135.454772949218,152.939880371093,1264023037
sts,-63.7261428833007,-62.3458518981933,129.982376098632,154.101852416992,1264039704
sts,-66.3946838378906,-65.188735961914,127.402236938476,153.931869506835,1264056371
sts,-69.0592956542968,-67.8308334350586,129.326675415039,140.15916442871,1264073038
sts,-71.639419555664,-70.2798767089843,132.234329223632,127.497192382812,1264089705
sts,-73.9220123291015,-72.5648498535156,117.785491943359,116.46979522705,1264106372
sts,-75.8527603149414,-74.5585250854492,99.997688293457,97.3858184814453,1264123039
sts,-77.4897079467773,-76.5325012207031,91.3925628662109,101.511093139648,1264139706
sts,-78.7679367065429,-78.4766082763671,74.837158203125,106.002304077148,1264156373
sts,-79.8209762573242,-80.1147079467773,80.0734939575195,91.8313827514648,1264173040
sts,-80.5972366333007,-81.5639953613281,79.5824584960937,91.1246109008789,1264189707
sts,-81.2226943969726,-82.9609298706054,82.4323425292968,101.315315246582,1264206374
sts,-81.7530288696289,-84.1468353271484,64.0536346435546,94.8584060668945,1264223041
sts,-82.271125793457,-85.1742401123046,43.5801734924316,106.191665649414,1264239708
sts,-82.7209854125976,-85.6742782592773,32.4220848083496,113.715408325195,1264256375
sts,-83.0400772094726,-85.6174240112304,41.3097610473632,92.69384765625,1264273042
sts,-83.2262420654296,-85.6667709350586,38.8531990051269,39.3520393371582,1264289709
sts,-83.2655639648437,-86.0302505493164,39.6916160583496,-16.6063938140869,1264306376
sts,-83.3063125610351,-86.112190246582,27.0885276794433,-29.5891590118408,1264323043
sts,-83.3481979370117,-85.818862915039,13.1498794555664,-16.6707954406738,1264339710
sts,-83.4721374511718,-85.5687103271484,-7.05264663696289,-29.9615650177001,1264356377
sts,-83.6311111450195,-85.4806976318359,-17.1096725463867,-42.6309738159179,1264373044
sts,-83.7225875854492,-85.5004196166992,-17.3413429260253,-25.3482265472412,1264389711
sts,-83.7563400268554,-85.6498565673828,-16.6337738037109,7.32825756072998,1264406378
sts,-83.7288970947265,-85.8032455444336,-11.0017957687377,32.4009780883789,1264423045
sts,-83.7115402221679,-85.835334777832,-4.43236207962036,28.5528125762939,1264439712
sts,-83.8111877441406,-85.7788696289062,-2.45169734954834,5.35979652404785,1264456379
sts,-83.9434967041015,-85.6908874511718,-2.35143685340881,-6.069176197052,1264473046
sts,-83.9598999023437,-85.6180572509765,1.24924337863922,-5.66074609756469,1264489713
sts,-83.796890258789,-85.6326446533203,9.63019561767578,-3.09953474998474,1264506380
sts,-83.5539627075195,-85.7356185913086,10.1434001922607,-5.31510400772094,1264523047
sts,-83.3932800292968,-85.8461685180664,-4.64946031570434,-4.69765663146972,1264539714
sts,-83.3518524169921,-85.9134292602539,-20.2348861694335,-6.60241079330444,1264556381
sts,-83.4474945068359,-85.9708557128906,-20.5439014434814,-11.5550422668457,1264573048
sts,-83.6673278808593,-85.9792251586914,-25.637300491333,-25.4326725006103,1264589715
sts,-83.8255004882812,-85.8655853271484,-23.7374820709228,-28.9528446197509,1264606382
sts,-83.8386535644531,-85.6621627807617,-26.5046977996826,-21.5556488037109,1264623049
sts,-83.6633605957031,-85.4539031982421,-34.1467781066894,-15.3995561599731,1264639716
sts,-83.2766418457031,-85.2620315551757,-45.0781440734863,-17.1486988067626,1264656383
sts,-82.7786254882812,-85.0550231933593,-54.5403022766113,-23.2507820129394,1264673050
sts,-82.1568298339843,-84.7094650268554,-69.594741821289,-35.8359985351562,1264689717
sts,-81.2678833007812,-84.2032318115234,-83.4489135742187,-41.927448272705,1264706384
sts,-80.0776672363281,-83.5139083862304,-89.8656539916992,-51.8886680603027,1264723051
sts,-78.6625823974609,-82.5387878417968,-89.4963912963867,-72.1983413696289,1264739718
sts,-77.2478103637695,-81.2494735717773,-76.5381698608398,-90.5526428222656,1264756385
sts,-75.915283203125,-79.7611770629882,-71.0314483642578,-96.8525238037109,1264773052
sts,-74.7067565917968,-78.0432891845703,-70.1550369262695,-106.378852844238,1264789719
sts,-73.4093856811523,-76.1965179443359,-82.9748916625976,-109.925300598144,1264806386
sts,-72.0965423583984,-74.1544036865234,-80.7299728393554,-116.275886535644,1264823053
sts,-70.6845169067382,-71.8444442749023,-81.863525390625,-124.651748657226,1264839720
sts,-68.9005355834961,-69.4360427856445,-102.514068603515,-122.434417724609,1264856387
sts,-66.8546676635742,-66.9923782348632,-109.187492370605,-118.709266662597,1264873054
sts,-64.6993103027343,-64.7016830444336,-96.7752151489257,-110.222007751464,1264889721
sts,-62.4512290954589,-62.3496475219726,-89.2766342163086,-119.8179397583,1264906388
sts,-60.2030792236328,-59.860065460205,-90.3316955566406,-135.545455932617,1264923055
sts,-58.224624633789,-57.480125427246,-87.6544876098632,-130.779388427734,1264939722
sts,-56.3172798156738,-55.1859130859375,-106.370620727539,-125.386932373046,1264956389
sts,-54.3228759765625,-52.9003562927246,-121.926582336425,-124.501922607421,1264973056
sts,-52.0861320495605,-50.6435966491699,-132.93748474121,-128.176544189453,1264989723
sts,-49.7435989379882,-48.349811553955,-133.243209838867,-138.082153320312,1265006390
sts,-47.6036186218261,-46.1402053833007,-117.320739746093,-135.60269165039,1265023057
sts,-45.6240653991699,-44.1101150512695,-110.921600341796,-120.610443115234,1265039724
sts,-43.7216758728027,-42.2587242126464,-110.420623779296,-101.789161682128,1265056391
sts,-41.931095123291,-40.3751640319824,-101.384040832519,-97.2863006591796,1265073058
sts,-40.2466163635253,-38.3006210327148,-89.648452758789,-108.266540527343,1265089725
sts,-38.4077110290527,-35.9787101745605,-93.3383178710937,-128.160659790039,1265106392
sts,-36.2464752197265,-33.5317955017089,-110.399108886718,-140.76594543457,1265123059
sts,-33.9152870178222,-31.1759166717529,-119.821884155273,-133.286697387695,1265139726
sts,-31.6663017272949,-28.9104423522949,-113.957557678222,-121.620399475097,1265156393
sts,-29.5357093811035,-26.7513256072998,-106.406707763671,-112.977127075195,1265173060
sts,-27.4391345977783,-24.7080669403076,-104.971435546875,-109.60196685791,1265189727
sts,-25.3703689575195,-22.765697479248,-97.9477920532226,-104.641975402832,1265206394
sts,-23.3060607910156,-20.8441085815429,-88.6420669555664,-98.4190673828125,1265223061
sts,-21.07954788208,-18.7641258239746,-92.9309005737304,-103.867332458496,1265239728
sts,-18.6502246856689,-16.4463367462158,-103.544525146484,-117.79108428955,1265256395
sts,-16.0720405578613,-13.9864206314086,-109.861015319824,-125.146018981933,1265273062
sts,-13.4154386520385,-11.4050359725952,-109.48794555664,-129.167984008789,1265289729
sts,-10.7672643661499,-8.72365665435791,-101.44253540039,-129.736724853515,1265306396
sts,-8.08369350433349,-6.15770053863525,-95.1941680908203,-116.738548278808,1265323063
sts,-5.21249532699585,-3.62583112716674,-101.718299865722,-110.969551086425,1265339730
sts,-2.18244552612304,-1.04319989681243,-105.92137145996,-111.039543151855,1265356397
sts,0.99320375919342,1.88502490520477,-109.577293395996,-127.457832336425,1265373064
sts,4.23455333709716,5.05058050155639,-111.6206741333,-134.102905273437,1265389731
sts,7.38709211349487,8.29734230041503,-105.463325500488,-138.623077392578,1265406398
sts,10.2539873123168,11.3657112121582,-95.0358505249023,-132.272766113281,1265423065
sts,12.7187528610229,14.2624139785766,-78.3677444458007,-135.628936767578,1265439732
sts,14.5895643234252,16.7171440124511,-56.3733444213867,-119.428344726562,1265456399
sts,15.7352256774902,18.8133945465087,-32.9634361267089,-112.29148864746,1265473066
sts,16.0576457977294,20.1069507598876,-7.73992013931274,-74.5758361816406,1265489733
sts,15.5129356384277,20.2889614105224,20.386583328247,-17.0303688049316,1265506400
sts,13.9870557785034,19.4541454315185,62.9006729125976,34.3305549621582,1265523067
sts,11.6666994094848,17.7735748291015,93.842414855957,77.0656204223632,1265539734
sts,8.73985576629638,15.3831806182861,117.169273376464,110.15795135498,1265556401
sts,5.56169605255126,12.3223180770874,123.104064941406,144.14256286621,1265573068
sts,2.34580588340759,8.82110595703125,120.44554901123,165.494476318359,1265589735
sts,-0.752071559429168,5.23013019561767,113.441459655761,167.572769165039,1265606402
sts,-3.69647026062011,1.72167754173278,107.874908447265,161.779693603515,1265623069
sts,-6.52267980575561,-1.77256393432617,108.721000671386,165.608413696289,1265639736
sts,-9.26660633087158,-5.08014202117919,111.784454345703,159.276412963867,1265656403
sts,-11.9404096603393,-8.16796779632568,116.195617675781,153.49478149414,1265673070
sts,-14.4363832473754,-11.0021305084228,108.604202270507,145.240280151367,1265689737
sts,-16.7891502380371,-13.7453508377075,105.037147521972,147.69775390625,1265706404
sts,-19.0819969177246,-16.372049331665,107.931419372558,142.727752685546,1265723071
sts,-21.3245544433593,-18.9116096496582,108.707389831542,137.253479003906,1265739738
sts,-23.5425071716308,-21.3623390197753,111.217025756835,132.088409423828,1265756405
sts,-25.7501544952392,-23.7837829589843,112.44132232666,131.525344848632,1265773072
sts,-28.0087909698486,-26.1897296905517,116.782478332519,131.957595825195,1265789739
sts,-30.3141040802001,-28.507848739624,119.654960632324,124.750732421875,1265806406
sts,-32.7038269042968,-30.754638671875,125.091415405273,119.049240112304,1265823073
sts,-35.1393661499023,-32.9223709106445,128.391128540039,112.069496154785,1265839740
sts,-37.5697784423828,-35.0907363891601,126.724205017089,110.345016479492,1265856407
sts,-39.982063293457,-37.3402099609375,123.8521194458,114.81745147705,1265873074
sts,-42.3932037353515,-39.5974426269531,120.78872680664,114.744445800781,1265889741
sts,-44.8427009582519,-41.8475837707519,118.41088104248,112.368034362792,1265906408
sts,-47.3428611755371,-44.1143188476562,116.795501708984,110.970970153808,1265923075
sts,-49.9364433288574,-46.372142791748,119.867866516113,109.228080749511,1265939742
sts,-52.6235771179199,-48.6896820068359,127.600105285644,112.752082824707,1265956409
sts,-55.3385124206543,-51.0476951599121,130.974456787109,113.729026794433,1265973076
sts,-58.0072860717773,-53.4353790283203,130.649520874023,115.010688781738,1265989743
sts,-60.6028900146484,-55.8628196716308,127.680114746093,119.21556854248,1266006410
sts,-63.1368904113769,-58.4086570739746,126.89663696289,128.724060058593,1266023077
sts,-65.5528869628906,-61.0709915161132,121.399917602539,140.624771118164,1266039744
sts,-67.9027404785156,-63.6992607116699,121.705299377441,144.77864074707,1266056411
sts,-70.1732406616211,-66.2923812866211,121.538665771484,148.366989135742,1266073078
sts,-72.3144912719726,-68.7512969970703,116.087989807128,145.540649414062,1266089745
sts,-74.3054046630859,-71.1082229614257,107.649726867675,147.067947387695,1266106412
sts,-76.0865325927734,-73.269287109375,91.8847198486328,141.798446655273,1266123079
sts,-77.7837295532226,-75.1095581054687,84.9069061279296,124.1802444458,1266139746
sts,-79.3951110839843,-76.7855377197265,81.6282958984375,112.500015258789,1266156413
sts,-80.7882995605468,-78.3505249023437,69.2393798828125,97.6928787231445,1266173080
sts,-81.9333801269531,-79.8313293457031,67.7306213378906,82.7259140014648,1266189747
sts,-82.7552490234375,-81.3322296142578,70.2335128784179,81.9403381347656,1266206414
sts,-83.1805953979492,-82.8660049438476,74.8605804443359,93.7784347534179,1266223081
sts,-83.2753601074218,-84.0674057006836,72.0842819213867,95.4162673950195,1266239748
sts,-83.2631759643554,-84.8504104614257,39.8090629577636,95.131103515625,1266256415
sts,-83.2001266479492,-85.0595779418945,-13.6154127120971,84.7996368408203,1266273082
sts,-83.0397644042968,-84.611587524414,-24.6269874572753,38.9303359985351,1266289749
sts,-83.0094757080078,-84.0600433349609,-23.5033626556396,-0.634172201156616,1266306416
sts,-83.167610168457,-83.8128662109375,-21.5631084442138,-20.7226676940917,1266323083
sts,-83.4105453491211,-84.0514297485351,-10.9853630065917,-33.9718132019043,1266339750
sts,-83.6067123413086,-84.5460128784179,-1.02498352527618,-41.2329559326171,1266356417
sts,-83.635025024414,-84.9861221313476,13.4039735794067,-29.8037967681884,1266373084
sts,-83.4668884277343,-85.2301025390625,24.8340148925781,0.109750777482986,1266389751
sts,-83.2775497436523,-85.149055480957,16.4474449157714,25.4382362365722,1266406418
sts,-83.2026901245117,-84.8640899658203,5.95454931259155,23.4693012237548,1266423085
sts,-83.1791839599609,-84.7045059204101,-2.5443148612976,23.4470558166503,1266439752
sts,-83.1543579101562,-84.7332229614257,-7.81677484512329,15.650484085083,1266456419
sts,-83.1581954956054,-84.9003448486328,-8.30035305023193,0.966726839542388,1266473086
sts,-83.2134323120117,-85.0975952148437,-12.1106748580932,-13.8338251113891,1266489753
sts,-83.2520065307617,-85.2576904296875,-10.1288232803344,-22.2408752441406,1266506420
sts,-83.2389984130859,-85.3468856811523,-6.86144876480102,-20.8742198944091,1266523087
sts,-83.1942138671875,-85.3480606079101,-8.60382461547851,-16.022045135498,1266539754
sts,-83.1566772460937,-85.2879409790039,-9.28192234039306,-14.3866653442382,1266556421
sts,-83.1017608642578,-85.1730575561523,2.33596134185791,-13.1843423843383,1266573088
sts,-83.0656280517578,-85.0812759399414,2.47065997123718,-6.38818025588989,1266589755
sts,-83.0299682617187,-85.0115509033203,-3.97159743309021,-10.0527973175048,1266606422
sts,-83.005012512207,-84.9550399780273,-5.63848495483398,-13.1927518844604,1266623089
sts,-82.9660873413086,-84.8796005249023,-6.86429452896118,-16.8985443115234,1266639756
sts,-82.9115219116211,-84.6701278686523,-10.8544912338256,-26.2328014373779,1266656423
sts,-82.8343734741211,-84.3797760009765,-23.8303184509277,-26.3870334625244,1266673090
sts,-82.6449127197265,-84.0625457763671,-32.7823410034179,-23.5697727203369,1266689757
sts,-82.3711776733398,-83.7042160034179,-34.7737121582031,-30.0231590270996,1266706424
sts,-82.0300140380859,-83.3080139160156,-45.5875663757324,-40.9368362426757,1266723091
sts,-81.5547103881836,-82.8252029418945,-58.6467361450195,-48.0884361267089,1266739758
sts,-80.8770217895507,-82.2658920288086,-64.8840713500976,-46.628562927246,1266756425
sts,-79.9432220458984,-81.4203262329101,-68.2798538208007,-58.3921203613281,1266773092
sts,-78.8440704345703,-80.3512954711914,-63.5933647155761,-66.3042297363281,1266789759
sts,-77.74609375,-79.172492980957,-55.1376571655273,-70.3924331665039,1266806426
sts,-76.5375900268554,-77.7154541015625,-66.1751251220703,-86.4713516235351,1266823093
sts,-75.1210632324218,-76.1012115478515,-82.4923629760742,-91.9441909790039,1266839760
sts,-73.5400085449218,-74.2476043701171,-83.2368927001953,-101.625137329101,1266856427
sts,-71.7362823486328,-72.182144165039,-91.1892929077148,-108.552284240722,1266873094
sts,-69.7158203125,-70.0285949707031,-92.3841934204101,-108.746444702148,1266889761
sts,-67.5469055175781,-67.7825241088867,-89.0426025390625,-115.853645324707,1266906428
sts,-65.2928466796875,-65.520263671875,-92.7388763427734,-122.574478149414,1266923095
sts,-63.1067771911621,-63.1641426086425,-101.089416503906,-134.449462890625,1266939762
sts,-60.9043464660644,-60.791893005371,-115.034088134765,-135.118789672851,1266956429
sts,-58.5862426757812,-58.4820404052734,-128.838882446289,-123.47915649414,1266973096
sts,-56.3158836364746,-56.2121315002441,-127.892807006835,-112.520858764648,1266989763
sts,-54.191650390625,-53.8587341308593,-119.369247436523,-114.409027099609,1267006430
sts,-52.0887985229492,-51.5191650390625,-122.274147033691,-115.778144836425,1267023097
sts,-49.9361724853515,-49.1292076110839,-133.308303833007,-126.737655639648,1267039764
sts,-47.9106407165527,-46.7445564270019,-128.679122924804,-134.212951660156,1267056431
sts,-46.0972480773925,-44.4469566345214,-113.062141418457,-132.57942199707,1267073098
sts,-44.3225364685058,-42.1994857788085,-102.613342285156,-129.557998657226,1267089765
sts,-42.519172668457,-40.0499229431152,-95.2795104980468,-118.839691162109,1267106432
sts,-40.6096076965332,-37.9146003723144,-100.096717834472,-115.79613494873,1267123099
sts,-38.5006866455078,-35.6804084777832,-113.437286376953,-124.782859802246,1267139766
sts,-36.10933303833,-33.3443489074707,-125.725929260253,-135.202041625976,1267156433
sts,-33.5241928100585,-31.0967750549316,-130.765731811523,-126.078254699707,1267173100
sts,-30.9970645904541,-28.9462432861328,-124.387321472167,-112.006942749023,1267189767
sts,-28.7049293518066,-26.7086277008056,-109.504211425781,-113.692779541015,1267206434
sts,-26.5672779083251,-24.3664169311523,-100.315856933593,-123.261283874511,1267223101
sts,-24.4110698699951,-22.0780372619628,-100.220832824707,-123.525283813476,1267239768
sts,-22.1577358245849,-19.8117294311523,-99.8932876586914,-121.005081176757,1267256435
sts,-19.7281703948974,-17.3371925354003,-102.777702331542,-132.131515502929,1267273102
sts,-17.071418762207,-14.7814350128173,-110.206115722656,-133.14892578125,1267289769
sts,-14.2576999664306,-12.3226900100708,-115.570930480957,-121.254875183105,1267306436
sts,-11.3797521591186,-9.86405372619628,-111.712768554687,-117.759376525878,1267323103
sts,-8.46449089050293,-7.188814163208,-104.79524230957,-126.214477539062,1267339770
sts,-5.52819299697876,-4.25141334533691,-103.341979980468,-136.71890258789,1267356437
sts,-2.48710989952087,-1.16418004035949,-107.244026184082,-141.518661499023,1267373104
sts,0.708744168281555,2.04993891716003,-110.591567993164,-148.036544799804,1267389771
sts,4.01150512695312,5.38629150390625,-113.967041015625,-150.413955688476,1267406438
sts,7.25189304351806,8.92080783843994,-113.151306152343,-162.445327758789,1267423105
sts,10.3908700942993,12.4168663024902,-113.834846496582,-166.625259399414,1267439772
sts,13.3015985488891,15.9364318847656,-103.648536682128,-180.979553222656,1267456439
sts,15.749412536621,19.1277275085449,-88.1185836791992,-168.971298217773,1267473106
sts,17.4609699249267,21.8979110717773,-67.9780960083007,-156.561691284179,1267489773
sts,18.3514213562011,24.0939712524414,-43.0155792236328,-140.470428466796,1267506440
sts,18.3853797912597,26.1927070617675,-15.2596130371093,-147.506317138671,1267523107
sts,17.6604461669921,26.1668968200683,10.4280595779418,-12.2918548583984,1267539774
sts,16.1705570220947,24.0497417449951,40.7203330993652,115.555206298828,1267556441
sts,14.0220203399658,22.3145351409912,73.9240493774414,91.4279479980468,1267573108
sts,11.4493951797485,19.7844409942626,99.3708953857421,138.138732910156,1267589775
sts,8.54610157012939,16.7739849090576,121.401969909667,160.894775390625,1267606442
sts,5.50056505203247,13.3628950119018,131.099975585937,181.055450439453,1267623109
sts,2.5362524986267,9.73699474334716,125.790382385253,192.465347290039,1267639776
sts,-0.29735192656517,6.06901502609252,118.579666137695,194.275421142578,1267656443
sts,-3.06498932838439,2.44341087341308,118.860443115234,189.909851074218,1267673110
sts,-5.78821849822998,-0.97172474861145,121.06046295166,174.70002746582,1267689777
sts,-8.36135864257812,-4.11858129501342,111.755897521972,157.978820800781,1267706444
sts,-10.8911123275756,-7.01154088973999,111.147468566894,140.703430175781,1267723111
sts,-13.38010597229,-9.71957397460937,111.999053955078,131.044372558593,1267739778
sts,-15.7782669067382,-12.3367671966552,108.329635620117,124.89672088623,1267756445
sts,-18.1368446350097,-14.8541812896728,108.861976623535,119.250228881835,1267773112
sts,-20.5199298858642,-17.2902660369873,112.597763061523,116.203811645507,1267789779
sts,-22.9208908081054,-19.6895751953125,115.166114807128,116.40143585205,1267806446
sts,-25.3173503875732,-22.0979499816894,117.460334777832,121.001144409179,1267823113
sts,-27.6687393188476,-24.4362831115722,118.000442504882,119.180831909179,1267839780
sts,-29.9457721710205,-26.7319049835205,115.973716735839,118.671836853027,1267856447
sts,-32.1817092895507,-29.086498260498,114.194969177246,123.729248046875,1267873114
sts,-34.4013175964355,-31.4440441131591,112.236602783203,122.769401550292,1267889781
sts,-36.6805763244628,-33.7663764953613,116.307014465332,119.458572387695,1267906448
sts,-39.0340919494628,-36.0917892456054,121.564804077148,120.45011138916,1267923115
sts,-41.4057807922363,-38.4332199096679,122.624191284179,125.695220947265,1267939782
sts,-43.8028907775878,-40.7546882629394,125.201614379882,127.819313049316,1267956449
sts,-46.2286567687988,-43.0383682250976,127.00357055664,126.605316162109,1267973116
sts,-48.6927909851074,-45.2179985046386,127.200256347656,119.12449645996,1267989783
sts,-51.1909141540527,-47.3463134765625,125.079643249511,113.941200256347,1268006450
sts,-53.6513442993164,-49.519416809082,118.974792480468,115.415420532226,1268023117
sts,-56.0434265136718,-51.8103942871093,115.788032531738,121.001266479492,1268039784
sts,-58.35591506958,-54.2115516662597,112.004455566406,126.497032165527,1268056451
sts,-60.6274986267089,-56.5575332641601,112.201019287109,123.705070495605,1268073118
sts,-62.8075447082519,-58.862319946289,109.201927185058,123.755256652832,1268089785
sts,-64.9083709716796,-61.175437927246,106.117515563964,127.0396194458,1268106452
sts,-66.9313430786132,-63.428237915039,98.2479095458984,123.013473510742,1268123119
sts,-68.8611679077148,-65.5486297607421,90.3543395996093,112.482727050781,1268139786
sts,-70.6355361938476,-67.6716690063476,77.759765625,111.120132446289,1268156453
sts,-72.2744827270507,-69.7521438598632,70.0374679565429,109.665390014648,1268173120
sts,-73.8790893554687,-71.6933898925781,74.1655502319336,104.309669494628,1268189787
sts,-75.3667526245117,-73.4283752441406,72.5269622802734,94.9393615722656,1268206454
sts,-76.7928009033203,-75.0289230346679,78.8603744506836,89.863052368164,1268223121
sts,-78.0652084350586,-76.4988861083984,78.4181900024414,86.1581420898437,1268239788
sts,-79.1842269897461,-77.7757949829101,78.0485076904296,77.6453704833984,1268256455
sts,-80.1887741088867,-79.0142211914062,81.5794448852539,79.47509765625,1268273122
sts,-81.0276870727539,-80.2557525634765,72.3876190185546,85.5279922485351,1268289789
sts,-81.6986770629882,-81.3921203613281,58.6538009643554,84.18994140625,1268306456
sts,-82.2163162231445,-82.3316497802734,47.5239944458007,75.6124114990234,1268323123
sts,-82.6335372924804,-83.2257537841796,40.7928504943847,81.0506286621093,1268339790
sts,-83.0350265502929,-84.0709075927734,39.4465103149414,86.1593551635742,1268356457
sts,-83.3131484985351,-84.783950805664,35.9180641174316,90.6157073974609,1268373124
sts,-83.4175720214843,-85.1353073120117,35.7217941284179,91.5319442749023,1268389791
sts,-83.4978713989257,-85.1734313964843,25.1156406402587,56.9244384765625,1268406458
sts,-83.652114868164,-85.3286972045898,1.79762518405914,3.00832343101501,1268423125
sts,-83.7436752319336,-85.6065292358398,-7.67826032638549,-42.9632835388183,1268439792
sts,-83.6792602539062,-85.505256652832,-13.7717847824096,-39.8963508605957,1268456459
sts,-83.4156951904296,-85.2223815917968,-11.0001764297485,-13.7437381744384,1268473126
sts,-83.2112655639648,-85.0943222045898,-0.474065840244293,-18.3055534362792,1268489793
sts,-83.2693862915039,-85.2042922973632,-9.73306369781494,-15.543342590332,1268506460
sts,-83.4166793823242,-85.5336303710937,-15.6065073013305,4.03563833236694,1268523127
sts,-83.5253753662109,-85.8268356323242,-11.1682081222534,15.3114023208618,1268539794
sts,-83.482421875,-85.8762130737304,-2.94964790344238,16.0817070007324,1268556461
sts,-83.2466354370117,-85.6601791381836,10.6187229156494,8.83632850646972,1268573128
sts,-83.0772857666015,-85.327522277832,14.7318220138549,3.08073830604553,1268589795
sts,-83.1249389648437,-85.1898574829101,2.57838654518127,-2.71527004241943,1268606462
sts,-83.2687072753906,-85.2879867553711,-9.23935508728027,-15.2718286514282,1268623129
sts,-83.3740692138671,-85.4351654052734,-17.3174476623535,-18.7155303955078,1268639796
sts,-83.3521194458007,-85.5088272094726,-15.1290788650512,-10.4775638580322,1268656463
sts,-83.2149658203125,-85.5451736450195,-5.37735557556152,-0.940516531467437,1268673130
sts,-83.1699066162109,-85.6398315429687,-4.91899299621582,6.15352058410644,1268689797
sts,-83.2622985839843,-85.8233642578125,-16.2021884918212,-4.4508843421936,1268706464
sts,-83.3793106079101,-85.983413696289,-23.5989341735839,-21.8819007873535,1268723131
sts,-83.4328079223632,-85.9717254638671,-29.169900894165,-31.2609252929687,1268739798
sts,-83.3432464599609,-85.7731170654296,-23.9779930114746,-31.0507411956787,1268756465
sts,-83.1654052734375,-85.4788360595703,-16.6377296447753,-28.0320682525634,1268773132
sts,-82.9890823364257,-85.1826095581054,-19.2509098052978,-28.036184310913,1268789799
sts,-82.8164901733398,-84.8493423461914,-25.7050914764404,-32.3375511169433,1268806466
sts,-82.5966339111328,-84.4605255126953,-30.6613998413085,-33.4185562133789,1268823133
sts,-82.2957687377929,-84.0397720336914,-40.0983161926269,-31.9388256072998,1268839800
sts,-81.8537063598632,-83.5556411743164,-54.3010749816894,-36.144546508789,1268856467
sts,-81.2347869873046,-82.9434814453125,-60.955020904541,-46.1562271118164,1268873134
sts,-80.4401779174804,-82.1378097534179,-67.6656951904296,-58.2071189880371,1268889801
sts,-79.4760818481445,-81.0699691772461,-71.0462265014648,-72.3769760131836,1268906468
sts,-78.3419494628906,-79.6013793945312,-72.3955993652343,-91.7505722045898,1268923135
sts,-77.1102676391601,-78.1207809448242,-68.6857223510742,-86.1110382080078,1268939802
sts,-75.906997680664,-76.5903930664062,-58.074722290039,-88.0951919555664,1268956469
sts,-74.6589889526367,-74.9285812377929,-62.147850036621,-96.7075271606445,1268973136
sts,-73.2906723022461,-73.0981826782226,-71.9043426513671,-104.491249084472,1268989803
sts,-71.7960510253906,-71.2327194213867,-74.4590911865234,-99.98828125,1269006470
sts,-70.1519699096679,-69.3766632080078,-70.856948852539,-93.8685073852539,1269023137
sts,-68.3491744995117,-67.4451446533203,-68.7584762573242,-97.6853332519531,1269039804
sts,-66.4520416259765,-65.5711517333984,-70.1943130493164,-100.915473937988,1269056471
sts,-64.4023361206054,-63.5874481201171,-82.6170196533203,-116.489738464355,1269073138
sts,-62.278636932373,-61.6343078613281,-86.800796508789,-113.040939331054,1269089805
sts,-60.1750679016113,-59.7605438232421,-88.4400634765625,-99.8051605224609,1269106472
sts,-58.072093963623,-57.7524681091308,-104.564643859863,-99.2064743041992,1269123139
sts,-56.0032882690429,-55.5039710998535,-125.569625854492,-106.496696472167,1269139806
sts,-54.0210876464843,-53.1019744873046,-130.771499633789,-114.435432434082,1269156473
sts,-52.1454010009765,-50.85152053833,-121.374870300292,-108.966613769531,1269173140
sts,-50.3207397460937,-48.8090553283691,-109.780624389648,-103.319328308105,1269189807
sts,-48.510383605957,-46.7891273498535,-96.7364120483398,-108.062751770019,1269206474
sts,-46.7418327331543,-44.6633377075195,-84.7194595336914,-115.435539245605,1269223141
sts,-44.9192428588867,-42.438003540039,-83.6680908203125,-118.372749328613,1269239808
sts,-43.0012664794921,-40.1558265686035,-92.0684814453125,-120.466247558593,1269256475
sts,-40.9112205505371,-37.809772491455,-109.673561096191,-132.257736206054,1269273142
sts,-38.5861167907714,-35.4453048706054,-125.331352233886,-141.884460449218,1269289809
sts,-36.1783866882324,-33.1120262145996,-123.192749023437,-141.519058227539,1269306476
sts,-33.7170143127441,-30.8082370758056,-123.024055480957,-136.9677734375,1269323143
sts,-31.2547893524169,-28.5476169586181,-124.744087219238,-132.805343627929,1269339810
sts,-28.8434047698974,-26.3983211517334,-123.918090820312,-125.014701843261,1269356477
sts,-26.6203784942626,-24.3729820251464,-110.567634582519,-118.971321105957,1269373144
sts,-24.5239734649658,-22.248794555664,-98.9681320190429,-127.25535583496,1269389811
sts,-22.3718929290771,-19.8656520843505,-98.9491271972656,-141.629348754882,1269406478
sts,-19.8827018737792,-17.2198009490966,-113.937782287597,-153.323837280273,1269423145
sts,-17.0138359069824,-14.4292373657226,-132.839065551757,-160.296356201171,1269439812
sts,-13.9353132247924,-11.6594467163085,-142.761596679687,-156.902801513671,1269456479
sts,-10.9810962677001,-9.01790618896484,-128.078216552734,-142.335159301757,1269473146
sts,-7.99532651901245,-6.34271001815795,-119.443771362304,-132.316497802734,1269489813
sts,-4.90732622146606,-3.53182983398437,-114.140190124511,-127.368553161621,1269506480
sts,-1.57033252716064,-0.412959367036819,-125.303688049316,-136.944473266601,1269523147
sts,1.89768803119659,3.08996844291687,-129.850326538085,-155.494201660156,1269539814
sts,5.35984134674072,6.89268445968627,-129.85984802246,-169.410934448242,1269556481
sts,8.69326591491699,10.7817239761352,-122.366813659667,-174.868988037109,1269573148
sts,11.7767210006713,14.3843669891357,-116.669784545898,-160.422592163085,1269589815
sts,14.563811302185,17.6887626647949,-104.453102111816,-154.527069091796,1269606482
sts,16.8315086364746,20.8960514068603,-90.4699325561523,-156.542587280273,1269623149
sts,18.133108139038,23.5045089721679,-58.167121887207,-134.499740600585,1269639816
sts,18.4174175262451,24.9730224609375,-23.7056446075439,-83.7698516845703,1269656483
sts,17.6193675994873,25.2375202178955,19.5172576904296,-23.1225109100341,1269673150
sts,15.8767919540405,24.1247978210449,57.301586151123,54.3332901000976,1269689817
sts,13.401436805725,21.9931335449218,83.7208175659179,108.786514282226,1269706484
sts,10.3593015670776,18.9830799102783,111.303436279296,153.172943115234,1269723151
sts,6.931489944458,15.3263797760009,135.073852539062,182.890213012695,1269739818
sts,3.33589386940002,11.2235879898071,145.986679077148,206.677337646484,1269756485
sts,-0.172117620706558,7.03485202789306,143.637313842773,209.269607543945,1269773152
sts,-3.47200369834899,2.9438841342926,132.982467651367,202.830154418945,1269789819
sts,-6.54695701599121,-0.953845858573913,124.53042602539,190.923858642578,1269806486
sts,-9.44905853271484,-4.48432254791259,121.113082885742,168.818283081054,1269823153
sts,-12.2662630081176,-7.63716650009155,117.528251647949,148.218505859375,1269839820
sts,-15.0797653198242,-10.6043882369995,118.313819885253,140.139892578125,1269856487
sts,-17.8396587371826,-13.4942941665649,114.779296875,135.411697387695,1269873154
sts,-20.5463218688964,-16.2813720703125,112.949966430664,128.738876342773,1269889821
sts,-23.1206588745117,-18.9490318298339,108.162063598632,122.215950012207,1269906488
sts,-25.5965137481689,-21.461275100708,107.090965270996,117.234336853027,1269923155
sts,-28.0572299957275,-23.8855972290039,113.066169738769,116.848693847656,1269939822
sts,-30.4955310821533,-26.2711143493652,117.429695129394,116.703086853027,1269956489
sts,-32.8978881835937,-28.707233428955,120.017341613769,122.140846252441,1269973156
sts,-35.3146896362304,-31.2560348510742,125.601554870605,133.252899169921,1269989823
sts,-37.8047370910644,-33.9040870666503,132.417236328125,143.065765380859,1270006490
sts,-40.3811798095703,-36.5463638305664,136.551544189453,145.279876708984,1270023157
sts,-43.0063400268554,-39.091209411621,136.499633789062,140.7626953125,1270039824
sts,-45.6613121032714,-41.456298828125,136.474380493164,129.65086364746,1270056491
sts,-48.3393440246582,-43.7706718444824,138.834564208984,126.533477783203,1270073158
sts,-50.9614028930664,-46.041877746582,136.584411621093,122.249694824218,1270089825
sts,-53.5089225769043,-48.369815826416,134.37205505371,124.662879943847,1270106492
sts,-55.9078712463378,-50.6916580200195,125.46141052246,122.39134979248,1270123159
sts,-58.204002380371,-53.0746421813964,118.846015930175,125.822425842285,1270139826
sts,-60.4963989257812,-55.4714775085449,120.360733032226,127.55712890625,1270156493
sts,-62.7419738769531,-57.8988990783691,121.355972290039,131.034194946289,1270173160
sts,-64.8868026733398,-60.2923622131347,120.682395935058,129.454147338867,1270189827
sts,-66.9175109863281,-62.5655632019043,117.573951721191,120.045288085937,1270206494
sts,-68.8308334350586,-64.8419952392578,111.722145080566,120.533241271972,1270223161
sts,-70.6361083984375,-67.2223739624023,103.715026855468,129.168701171875,1270239828
sts,-72.3842391967773,-69.6888275146484,101.723236083984,136.619735717773,1270256495
sts,-74.0488891601562,-71.9027786254882,98.8539199829101,123.703308105468,1270273162
sts,-75.6278610229492,-73.9362335205078,88.6717071533203,117.936538696289,1270289829
sts,-77.0947265625,-75.8948974609375,73.5492706298828,119.213264465332,1270306496
sts,-78.4506759643554,-77.5929641723632,66.9872589111328,103.558280944824,1270323163
sts,-79.6709747314453,-79.112190246582,66.2367401123046,90.5536117553711,1270339830
sts,-80.6399307250976,-80.4780654907226,58.4124870300293,75.2533340454101,1270356497
sts,-81.3292999267578,-81.7367095947265,47.5659866333007,65.6991806030273,1270373164
sts,-81.8165740966796,-83.0286712646484,44.4793815612793,77.8074493408203,1270389831
sts,-82.2094039916992,-84.4100570678711,48.6139831542968,102.677864074707,1270406498
sts,-82.582778930664,-85.5272674560546,44.5916099548339,109.9810256958,1270423165
sts,-82.8956298828125,-86.0178833007812,32.5516281127929,74.2963562011718,1270439832
sts,-83.0982589721679,-86.1378097534179,20.2710189819335,26.9008064270019,1270456499
sts,-83.2095031738281,-85.9850234985351,-0.402926325798034,-21.7028903961181,1270473166
sts,-83.2046279907226,-85.4661178588867,-13.6360454559326,-27.4944858551025,1270489833
sts,-83.1014404296875,-84.9134674072265,-15.6833009719848,-13.8799209594726,1270506500
sts,-82.9595108032226,-84.64013671875,-9.81030654907226,-18.7395973205566,1270523167
sts,-82.8861465454101,-84.6222534179687,-2.89672374725341,-29.2642192840576,1270539834
sts,-82.8660888671875,-84.8502578735351,-1.01427578926086,-28.1018619537353,1270556501
sts,-82.864143371582,-85.2332611083984,2.18144178390502,-7.6882734298706,1270573168
sts,-82.9299240112304,-85.4538650512695,4.36965370178222,11.2289867401123,1270589835
sts,-83.0170288085937,-85.3828887939453,12.2415676116943,34.1476097106933,1270606502
sts,-83.0597152709961,-85.2565383911132,16.5087642669677,35.0205459594726,1270623169
sts,-83.0083541870117,-85.1315231323242,9.83235931396484,4.34141969680786,1270639836
sts,-82.8588104248046,-85.0152435302734,1.94739305973052,-5.11639976501464,1270656503
sts,-82.7462081909179,-84.9539108276367,-0.449759155511856,-14.7510385513305,1270673170
sts,-82.7714004516601,-84.8643569946289,-7.81195211410522,-17.5783061981201,1270689837
sts,-82.8455810546875,-84.9198608398437,-10.512840270996,5.31442832946777,1270706504
sts,-82.9042205810546,-85.1825256347656,-13.0765037536621,1.96591091156005,1270723171
sts,-82.8695602416992,-85.3996810913086,-9.64958000183105,-12.2716884613037,1270739838
sts,-82.8085708618164,-85.4380416870117,-6.4945912361145,-14.0671854019165,1270756505
sts,-82.8358001708984,-85.2727127075195,-10.4291105270385,-12.695725440979,1270773172
sts,-82.871841430664,-84.9834365844726,-8.83740901947021,-7.62043380737304,1270789839
sts,-82.849609375,-84.7852630615234,-6.37520790100097,0.0348525457084178,1270806506
sts,-82.732666015625,-84.7011032104492,-1.00377488136291,-2.16422295570373,1270823173
sts,-82.6181564331054,-84.6592941284179,0.828705966472625,-7.55024051666259,1270839840
sts,-82.6447296142578,-84.5928878784179,-7.59146499633789,-12.575228691101,1270856507
sts,-82.7815628051757,-84.4715728759765,-21.1673831939697,-14.4629850387573,1270873174
sts,-82.8648529052734,-84.3543090820312,-29.0387687683105,-12.086082458496,1270889841
sts,-82.7930679321289,-84.240005493164,-32.2615547180175,-14.1734409332275,1270906508
sts,-82.567398071289,-84.071792602539,-33.2243041992187,-20.8771228790283,1270923175
sts,-82.2053298950195,-83.7975234985351,-38.7397384643554,-27.5700435638427,1270939842
sts,-81.6864852905273,-83.416145324707,-53.3050117492675,-30.7225131988525,1270956509
sts,-80.9316787719726,-82.9285125732421,-72.5208740234375,-35.6871223449707,1270973176
sts,-79.678466796875,-82.3203353881836,-101.385200500488,-44.3128585815429,1270989843
sts,-78.098388671875,-81.5891723632812,-103.562805175781,-52.3501091003418,1271006510
sts,-76.4124908447265,-80.6416625976562,-96.783821105957,-66.828369140625,1271023177
sts,-74.7722015380859,-79.3915100097656,-85.1250686645507,-84.1590805053711,1271039844
sts,-73.2882003784179,-77.7096633911132,-70.033088684082,-109.930725097656,1271056511
sts,-71.8815612792968,-75.5972213745117,-71.2800750732421,-131.399536132812,1271073178
sts,-70.5156326293945,-73.0493927001953,-83.3895111083984,-148.772491455078,1271089845
sts,-69.0188064575195,-70.1985778808593,-106.989379882812,-152.562454223632,1271106512
sts,-67.0960388183593,-67.1725997924804,-134.358016967773,-141.669662475585,1271123179
sts,-64.9460220336914,-64.2254257202148,-129.579513549804,-114.273880004882,1271139846
sts,-62.604019165039,-61.4632186889648,-115.087745666503,-98.2984771728515,1271156513
sts,-60.1809692382812,-59.0035514831543,-94.797248840332,-103.775260925292,1271173180
sts,-57.6941909790039,-57.038475036621,-89.8311614990234,-110.061386108398,1271189847
sts,-55.2023048400878,-54.8874359130859,-98.1213684082031,-142.949600219726,1271206514
sts,-52.7670631408691,-52.3374328613281,-111.067955017089,-162.278228759765,1271223181
sts,-50.3379211425781,-49.6554450988769,-125.775802612304,-156.824508666992,1271239848
sts,-47.9322509765625,-46.9824829101562,-136.524978637695,-149.304962158203,1271256515
sts,-45.604019165039,-44.7454414367675,-141.490997314453,-119.465553283691,1271273182
sts,-43.5190048217773,-42.7136001586914,-126.031181335449,-108.690238952636,1271289849
sts,-41.6414794921875,-40.6549682617187,-104.744720458984,-115.570022583007,1271306516
sts,-39.6388511657714,-38.7048835754394,-102.115676879882,-108.329650878906,1271323183
sts,-37.5809135437011,-36.8151893615722,-97.3920135498046,-96.5537567138671,1271339850
sts,-35.6218566894531,-34.7470779418945,-88.0463485717773,-105.155212402343,1271356517
sts,-33.6745491027832,-32.147777557373,-87.458511352539,-149.396514892578,1271373184
sts,-31.6157569885253,-29.2630519866943,-93.6216049194336,-174.951507568359,1271389851
sts,-29.2661113739013,-26.7695121765136,-112.967048645019,-145.189346313476,1271406518
sts,-26.6966209411621,-24.6235466003417,-127.501548767089,-118.650047302246,1271423185
sts,-24.0833148956298,-22.5660686492919,-127.951026916503,-112.092445373535,1271439852
sts,-21.5879936218261,-20.5529155731201,-117.317337036132,-106.893615722656,1271456519
sts,-19.204568862915,-18.5153217315673,-102.177177429199,-100.018936157226,1271473186
sts,-16.7792778015136,-16.0746765136718,-99.9088592529296,-123.55883026123,1271489853
sts,-14.2740783691406,-13.3033008575439,-103.402557373046,-148.122467041015,1271506520
sts,-11.6879720687866,-10.4136600494384,-104.723091125488,-153.521514892578,1271523187
sts,-8.83823299407959,-7.39848041534423,-111.639030456542,-152.613662719726,1271539854
sts,-5.69804334640502,-4.46446418762207,-117.862030029296,-134.49185180664,1271556521
sts,-2.39522361755371,-1.49434065818786,-121.27823638916,-127.516288757324,1271573188
sts,0.996105194091796,1.72527873516082,-125.097221374511,-139.115432739257,1271589855
sts,4.2870135307312,5.238609790802,-115.679336547851,-158.864685058593,1271606522
sts,7.43490409851074,8.95146656036377,-107.564010620117,-175.863586425781,1271623189
sts,10.4763927459716,12.3657541275024,-107.789184570312,-162.342712402343,1271639856
sts,13.1821203231811,15.5582094192504,-98.8658065795898,-156.53189086914,1271656523
sts,15.0868768692016,18.6048488616943,-72.3096923828125,-162.086044311523,1271673190
sts,15.9433555603027,20.7478599548339,-35.4631614685058,-124.185722351074,1271689857
sts,15.6333351135253,22.2583580017089,9.39496326446533,-108.622642517089,1271706524
sts,14.3405933380126,21.6012687683105,44.530776977539,23.2734508514404,1271723191
sts,12.2678117752075,19.5940227508544,67.9599075317382,109.623703002929,1271739858
sts,9.44747352600097,17.2081794738769,102.559104919433,118.96459197998,1271756525
sts,6.1459527015686,13.9671306610107,129.477188110351,164.950241088867,1271773192
sts,2.62742757797241,10.3205547332763,142.766204833984,182.807022094726,1271789859
sts,-0.845281958580017,6.43754720687866,138.528411865234,195.087539672851,1271806526
sts,-4.13063144683837,2.36652135848999,125.179855346679,206.276214599609,1271823193
sts,-7.20462036132812,-1.7513403892517,116.22696685791,209.834564208984,1271839860
sts,-10.1012887954711,-5.69729948043823,114.288330078125,200.029434204101,1271856527
sts,-12.8542175292968,-9.31641101837158,114.326309204101,184.750091552734,1271873194
sts,-15.4644088745117,-12.5341520309448,116.174705505371,166.218231201171,1271889861
sts,-17.9089927673339,-15.4573583602905,112.761039733886,149.377868652343,1271906528
sts,-20.2575321197509,-18.2431011199951,115.852020263671,140.172256469726,1271923195
sts,-22.6025104522705,-20.8993816375732,124.297317504882,133.029525756835,1271939862
sts,-24.9301967620849,-23.3839836120605,128.094757080078,125.315383911132,1271956529
sts,-27.2855510711669,-25.7701683044433,131.647766113281,123.185234069824,1271973196
sts,-29.7484550476074,-28.1907691955566,138.976531982421,128.88752746582,1271989863
sts,-32.2558479309082,-30.6631984710693,139.407485961914,133.005447387695,1272006530
sts,-34.8072280883789,-33.1406440734863,140.640365600585,131.610382080078,1272023197
sts,-37.3882446289062,-35.645278930664,140.593139648437,130.624603271484,1272039864
sts,-40.0020637512207,-38.1768264770507,137.614471435546,131.546905517578,1272056531
sts,-42.6530418395996,-40.7048683166503,135.772521972656,128.922225952148,1272073198
sts,-45.3223915100097,-43.1179885864257,133.776168823242,117.536270141601,1272089865
sts,-48.0112533569335,-45.4760780334472,131.968521118164,112.78751373291,1272106532
sts,-50.7274513244628,-47.8225936889648,130.250335693359,114.609138488769,1272123199
sts,-53.4391860961914,-50.2941017150878,127.946998596191,126.664848327636,1272139866
sts,-56.1178894042968,-52.9943580627441,128.643692016601,142.13003540039,1272156533
sts,-58.7115135192871,-55.724811553955,126.088172912597,140.173675537109,1272173200
sts,-61.223876953125,-58.45698928833,124.267135620117,139.453552246093,1272189867
sts,-63.5801200866699,-61.2432250976562,117.554496765136,144.412826538085,1272206534
sts,-65.7852172851562,-63.8959884643554,112.764183044433,135.363861083984,1272223201
sts,-67.9621963500976,-66.4886093139648,117.176948547363,133.747482299804,1272239868
sts,-69.9979476928711,-68.9366912841796,111.96223449707,128.038650512695,1272256535
sts,-71.8948593139648,-71.2748031616211,107.202270507812,125.22248840332,1272273202
sts,-73.6353302001953,-73.4672088623046,104.97801208496,117.415405273437,1272289869
sts,-75.1143493652343,-75.4114532470703,91.5651016235351,100.504470825195,1272306536
sts,-76.3750686645507,-77.1570510864257,83.1774520874023,89.0287475585937,1272323203
sts,-77.4280471801757,-78.7266998291015,74.9520492553711,80.8352584838867,1272339870
sts,-78.2891082763671,-80.2575073242187,58.8502502441406,84.2068481445312,1272356537
sts,-78.998062133789,-81.5655746459961,45.4129028320312,76.7682800292968,1272373204
sts,-79.5103378295898,-82.6728439331054,37.500244140625,70.6486587524414,1272389871
sts,-79.873779296875,-83.8615417480468,37.7984237670898,85.388313293457,1272406538
sts,-80.1458587646484,-85.0746307373046,37.1011734008789,106.454818725585,1272423205
sts,-80.4028549194336,-85.8816299438476,39.7611198425293,109.641044616699,1272439872
sts,-80.6358642578125,-86.0701141357421,28.7213344573974,83.7454681396484,1272456539
sts,-80.7645187377929,-85.9818038940429,18.2850265502929,55.7578392028808,1272473206
