Label,Left_Hip_q,Right_Hip_q,Left_Hip_qd,Right_Hip_qd,SampleTimeFine
sq,-10.3821350097656,-9.53483734130859,1.01947784423828,-0.389575958251953,25305542
sq,-10.3658233642578,-9.54107055664062,0.218868255615234,-6.53219223022461,25322209
sq,-10.362321472168,-9.64558563232422,-0.423431396484375,-10.1890563964844,25338876
sq,-10.3690963745117,-9.80861053466797,-0.55694580078125,-9.54580307006836,25355543
sq,-10.3780075073242,-9.96134338378906,0.135421752929687,-9.13333892822266,25372210
sq,-10.3758407592773,-10.1074768066406,0.770092010498047,-7.72905349731445,25388877
sq,-10.3635192871094,-10.2311416625977,1.16252899169922,-8.10527801513672,25405544
sq,-10.3449188232422,-10.3608261108398,1.23262405395508,-7.12728500366211,25422211
sq,-10.3251968383789,-10.4748626708984,1.31797790527344,-5.83362579345703,25438878
sq,-10.3041091918945,-10.5682006835937,1.43051147460937,-4.07075881958008,25455545
sq,-10.2812210083008,-10.633332824707,1.20258331298828,-2.92825698852539,25472212
sq,-10.261979675293,-10.6801849365234,0.742912292480469,-2.43520736694336,25488879
sq,-10.2500930786133,-10.7191482543945,0.561714172363281,-2.08663940429687,25505546
sq,-10.2411056518555,-10.7525344848633,0.718116760253906,-1.97410583496094,25522213
sq,-10.2296157836914,-10.7841201782227,0.733852386474609,-2.03371047973633,25538880
sq,-10.2178741455078,-10.8166595458984,0.635623931884766,-1.53541564941406,25555547
sq,-10.2077041625977,-10.8412261962891,0.816822052001953,-0.548362731933594,25572214
sq,-10.1946350097656,-10.85,0.380516052246094,0.0,25588881
sq,-10.1885467529297,-10.85,-0.240325927734375,0.262737274169922,25605548
sq,-10.1923919677734,-10.8457962036133,-0.35858154296875,0.605583190917969,25622215
sq,-10.1981292724609,-10.8361068725586,-0.209331512451172,0.0357627868652344,25638882
sq,-10.2014785766602,-10.8355346679687,-0.0185966491699219,-0.695228576660156,25655549
sq,-10.2017761230469,-10.8466583251953,0.100612640380859,0.0596046447753906,25672216
sq,-10.2001663208008,-10.8457046508789,-0.0457763671875,1.13248825073242,25688883
sq,-10.2008987426758,-10.8275848388672,-0.0753402709960937,0.812053680419922,25705550
sq,-10.2021041870117,-10.8145919799805,-0.100612640380859,0.152587890625,25722217
sq,-10.2037139892578,-10.8121505737305,-0.211715698242187,-0.0586509704589844,25738884
sq,-10.2071014404297,-10.8130889892578,-0.726699829101562,0.544071197509766,25755551
sq,-10.2187286376953,-10.8043838500977,-0.689506530761719,1.26075744628906,25772218
sq,-10.2297607421875,-10.784211730957,-0.740528106689453,1.46055221557617,25788885
sq,-10.2416091918945,-10.7608428955078,-0.642776489257812,1.42812728881836,25805552
sq,-10.2518936157227,-10.7379928588867,-0.985622406005859,1.55258178710937,25822219
sq,-10.2676635742187,-10.713151550293,-1.3127326965332,1.79529190063477,25838886
sq,-10.2886672973633,-10.6844268798828,-1.15251541137695,2.20775604248047,25855553
sq,-10.3071075439453,-10.6491027832031,-1.03521347045898,2.40898132324219,25872220
sq,-10.3236709594727,-10.6105590820312,-1.1134147644043,2.31122970581055,25888887
sq,-10.3414855957031,-10.5735794067383,-1.15156173706055,2.47716903686523,25905554
sq,-10.3599105834961,-10.5339447021484,-1.1749267578125,2.87294387817383,25922221
sq,-10.3787094116211,-10.4879776000977,-1.13487243652344,2.95352935791016,25938888
sq,-10.3968673706055,-10.4407211303711,-1.30510330200195,3.24916839599609,25955555
sq,-10.4177490234375,-10.3887344360352,-1.32989883422852,3.74603271484375,25972222
sq,-10.4390274047852,-10.3287979125977,-1.20973587036133,4.65297698974609,25988889
sq,-10.4583831787109,-10.2543502807617,-1.04522705078125,4.89902496337891,26005556
sq,-10.4751068115234,-10.1759658813477,-1.18780136108398,5.07640838623047,26022223
sq,-10.4941116333008,-10.094743347168,-1.59692764282227,4.03642654418945,26038890
sq,-10.5196624755859,-10.0301605224609,-1.55258178710937,3.16524505615234,26055557
sq,-10.5445037841797,-9.9795166015625,-2.00319290161133,3.95441055297852,26072224
sq,-10.5765548706055,-9.91624603271484,-2.44712829589844,5.56373596191406,26088891
sq,-10.6157089233398,-9.82722625732422,-2.50244140625,6.52742385864258,26105558
sq,-10.6557479858398,-9.72278747558594,-2.16197967529297,7.97510147094727,26122225
sq,-10.6903396606445,-9.59518585205078,-1.84917449951172,10.1022720336914,26138892
sq,-10.7199264526367,-9.43354949951172,-1.55115127563477,10.9472274780273,26155559
sq,-10.7447448730469,-9.25839385986328,-1.53255462646484,12.4416351318359,26172226
sq,-10.7692657470703,-9.05932769775391,-1.94358825683594,13.8463973999023,26188893
sq,-10.8003631591797,-8.83778533935547,-1.62696838378906,19.6919441223144,26205560
sq,-10.8263946533203,-8.52271423339844,-0.8544921875,28.7027359008789,26222227
sq,-10.8400665283203,-8.06347045898437,-0.620841979980469,38.7272834777832,26238894
sq,-10.85,-7.44383392333984,0.670909881591797,47.4910736083984,26255561
sq,-10.8392654418945,-6.68397674560547,2.11572647094727,55.1338195800781,26272228
sq,-10.8054138183594,-5.80183563232422,2.99978256225586,64.0974044799805,26288895
sq,-10.7574172973633,-4.77627716064453,6.45828247070312,77.0621299743652,26305562
sq,-10.654084777832,-3.54328308105469,12.3467445373535,91.0615921020508,26322229
sq,-10.4565368652344,-2.08629760742187,22.7179527282715,102.295875549316,26338896
sq,-10.093049621582,-0.449563598632812,32.6323509216309,112.493515014648,26355563
sq,-9.57093200683594,1.35033264160156,37.3544692993164,119.198799133301,26372230
sq,-8.97326049804687,3.25751342773437,43.942928314209,120.557308197021,26388897
sq,-8.27017364501953,5.18643035888672,52.1116256713867,128.630638122559,26405564
sq,-7.43638763427734,7.24452056884766,58.9418411254883,139.832019805908,26422231
sq,-6.49331817626953,9.48183288574219,63.0488395690918,149.919033050537,26438898
sq,-5.48453674316406,11.8805374145508,83.981990814209,142.377853393555,26455565
sq,-4.14082489013672,14.1585830688477,105.134963989258,131.239175796509,26472232
sq,-2.45866546630859,16.2584098815918,101.137638092041,121.622562408447,26488899
sq,-0.840463256835937,18.204370880127,90.0301933288574,138.883113861084,26505566
sq,0.600019836425782,20.4265007019043,124.073505401611,166.702270507812,26522233
sq,2.58519592285156,23.0937370300293,173.152685165405,137.489795684815,26538900
sq,5.35563888549805,25.2935737609863,203.566551208496,135.886669158935,26555567
sq,8.61270370483398,27.4677604675293,179.356098175049,157.254457473755,26572234
sq,11.4824012756348,29.9838317871094,90.4412269592281,142.362833023071,26588901
sq,12.9294609069824,32.2616371154785,88.3798599243168,111.46855354309,26605568
sq,14.3435386657715,34.045133972168,116.457462310791,156.882286071778,26622235
sq,16.2068580627441,36.5552505493164,173.929452896118,204.668760299683,26638902
sq,18.989729309082,39.8299507141113,207.622051239014,163.571357727051,26655569
sq,22.3116821289062,42.4470924377442,137.377977371216,140.53988456726,26672236
sq,24.5097297668457,44.6957305908203,122.710227966308,150.148868560791,26688903
sq,26.4730934143066,47.098112487793,125.025987625122,125.99241733551,26705570
sq,28.4735092163086,49.1139911651611,141.571283340454,156.25274181366,26722237
sq,30.7386497497559,51.6140350341797,149.187088012695,149.713754653931,26738904
sq,33.125643157959,54.0094551086426,162.555694580078,151.158928871155,26755571
sq,35.7265342712402,56.4279979705811,171.706914901733,168.066382408142,26772238
sq,38.473844909668,59.1170600891113,147.13978767395,142.978847026825,26788905
sq,40.8280815124512,61.4047216415405,140.142679214478,138.297319412231,26805572
sq,43.0703643798828,63.6174787521362,128.279447555542,143.482267856598,26822239
sq,45.1228355407715,65.9131950378418,130.186557769775,140.842199325561,26838906
sq,47.2058204650879,68.1666702270508,134.528040885925,122.313678264618,26855573
sq,49.3582691192627,70.1236890792847,135.878980159759,115.444362163544,26872240
sq,51.5323328018189,71.9707988739014,130.995750427246,119.694128632545,26888907
sq,53.6282648086548,73.8859049320221,112.434327602387,109.865337610245,26905574
sq,55.427214050293,75.643750333786,117.015719413757,93.2045190129429,26922241
sq,57.2994655609131,77.1350226379931,115.8007979393,85.9428287949413,26938908
sq,59.1522783279419,78.5101078987122,99.5241403579712,340.112507343292,26955575
sq,60.7446645736694,83.9519080162048,97.1961319446564,389.787703752518,26972242
sq,62.2998026847839,90.1885112762451,88.3014351129532,276.907801628113,26988909
sq,63.7126256465912,94.6190361022949,93.4899300336842,268.459320068359,27005576
sq,65.2084645271301,98.9143852233887,82.1823887526989,231.646180152893,27022243
sq,66.5233827471733,102.620724105835,66.1825705319643,171.84579372406,27038910
sq,67.5823038756847,105.37025680542,58.1184271723032,141.598463058472,27055577
sq,68.5121987104416,107.635832214356,57.1333095431328,73.0222463607788,27072244
sq,69.4263316631317,108.804188156128,44.225201010704,-18.7755823135376,27088911
sq,70.133934879303,108.503778839111,29.71051633358,-33.2969427108765,27105578
sq,70.6093031406403,107.971027755737,13.076514005661,-80.3699493408203,27122245
sq,70.8185273647308,106.685108566284,2.33405828475952,-161.472916603088,27138912
sq,70.855872297287,104.101541900635,-12.117862701416,-222.012162208557,27155579
sq,70.6619864940643,100.549347305298,-23.064985871315,-266.932964324951,27172246
sq,70.2929467201233,96.2784198760986,-39.1487181186676,-309.930264949799,27188913
sq,69.6665672302246,91.3195356369019,-49.7705861926079,-378.223180770874,27205580
sq,68.8702378511429,85.2679647445679,-60.6952272355556,-400.75708180666,27222247
sq,67.899114215374,78.8558514356613,-71.5199299156666,-15.5519545078278,27238914
sq,66.7547953367233,78.6070201635361,-75.0064998865128,-129.021089524031,27255581
sq,65.5546913385391,76.5426827311516,-83.1720158457756,-130.936872214079,27272248
sq,64.2239390850067,74.4476927757263,-93.7479883432393,-123.016208410263,27288915
sq,62.7239712715149,72.4794334411621,-97.2545742988586,-138.231664896011,27305582
sq,61.1678980827332,70.2677268028259,-105.29699921608,-140.752226114273,27322249
sq,59.4831460952759,68.0156911849976,-111.190021038055,-158.755958080292,27338916
sq,57.704105758667,65.4755958557129,-117.862403392792,-160.385727882386,27355583
sq,55.8183073043823,62.9094242095947,-128.078281879425,-172.017574310303,27372250
sq,53.7690547943115,60.1571430206299,-132.347762584686,-169.867753982544,27388917
sq,51.6514905929565,57.4392589569092,-135.78087091446,-174.666523933411,27405584
sq,49.4789966583252,54.6445945739746,-147.290825843811,-175.22144317627,27422251
sq,47.1223434448242,51.8410514831543,-153.4823179245,-176.241755485535,27438918
sq,44.6666263580322,49.0211833953857,-153.861403465271,-183.43734741211,27455585
sq,42.2048439025879,46.086185836792,-157.238125801086,-182.266354560852,27472252
sq,39.6890338897705,43.1699241638184,-164.636373519897,-182.250022888183,27488919
sq,37.0548519134521,40.2539237976074,-175.68051815033,-187.930583953857,27505586
sq,34.2439636230469,37.2470344543457,-179.579734802246,-186.297416687012,27522253
sq,31.3706878662109,34.2662757873535,-175.322294235229,-181.898832321167,27538920
sq,28.5655311584473,31.3558944702148,-178.182363510132,-174.96395111084,27555587
sq,25.7146133422852,28.5564712524414,-174.715757369995,-173.030376434326,27572254
sq,22.9191612243652,25.7879852294922,-168.86305809021,-163.999319076538,27588921
sq,20.2173522949219,23.1639961242676,-172.340393066406,-152.511596679687,27605588
sq,17.4599060058594,20.7238105773926,-175.90069770813,-135.127782821655,27622255
sq,14.6454948425293,18.5617660522461,-160.384178161621,-117.511987686157,27638922
sq,12.0793479919434,16.6815742492676,-153.851747512818,-95.064878463745,27655589
sq,9.61772003173827,15.1605361938477,-147.270917892456,-65.7989978790283,27672256
sq,7.26138534545898,14.1077522277832,-134.194374084473,-35.0255966186523,27688923
sq,5.11427536010742,13.5473426818848,-112.462520599365,-12.8347873687744,27705590
sq,3.31487503051758,13.3419860839844,-87.6929759979248,17.9817676544189,27722257
sq,1.91178741455078,13.6296943664551,-66.9832229614258,59.2219829559322,27738924
sq,0.840055847167969,14.57724609375,-42.3388481140137,99.3981361389163,27755591
sq,0.16263427734375,16.1676162719727,-14.8491859436035,156.644821166993,27772258
sq,-0.0749526977539059,18.6739334106445,4.99296188354492,177.223443984985,27788925
sq,0.00493469238281286,21.5095085144043,50.0521659851074,139.156341552734,27805592
sq,0.805769348144532,23.736009979248,79.5373916625977,131.853103637695,27822259
sq,2.07836761474609,25.8456596374512,104.523420333862,116.714477539062,27838926
sq,3.75074234008789,27.7130912780762,156.466960906982,76.6007900238033,27855593
sq,6.25421371459961,28.938703918457,223.545551300049,84.1350555419926,27872260
sq,9.83094253540039,30.2848648071289,171.871185302734,126.155376434326,27888927
sq,12.5808815002441,32.3033508300781,109.01403427124,128.82924079895,27905594
sq,14.325106048584,34.3646186828613,128.682374954224,155.834913253784,27922261
sq,16.3840240478516,36.8579772949219,121.140718460083,143.517017364502,27938928
sq,18.3222755432129,39.1542495727539,103.388547897338,136.30986213684,27955595
sq,19.9764923095703,41.3352073669434,100.738048553467,139.703512191772,27972262
sq,21.5883010864258,43.5704635620117,113.344907760621,132.83121585846,27988929
sq,23.4018196105957,45.6957630157471,210.884571075439,136.233448982239,28005596
sq,26.7759727478027,47.8754981994629,226.920127868652,164.257645606995,28022263
sq,30.4066947937012,50.5036205291748,165.627479553223,167.720079421997,28038930
sq,33.0567344665527,53.1871417999268,115.399360656738,130.341291427612,28055597
sq,34.9031242370606,55.2726024627686,114.856839179993,146.374583244324,28072264
sq,36.7408336639404,57.6145957946777,146.82936668396,161.885619163513,28088931
sq,39.0901035308838,60.2047657012939,155.633211135864,159.846246242523,28105598
sq,41.5802349090576,62.7623056411743,141.458511352539,142.198920249939,28122265
sq,43.8435710906982,65.0374883651733,148.908257484436,142.456293106079,28138932
sq,46.2261032104492,67.3167890548706,119.763016700745,134.597629308701,28155599
sq,48.1423114776611,69.4703511238098,126.235961914062,133.972227573395,28172266
sq,50.1620868682861,71.6139067649841,128.945887088776,122.239023447037,28188933
sq,52.2252210617065,73.5697311401367,109.921753406524,111.903578042984,28205600
sq,53.9839691162109,75.3601883888245,119.431912899017,96.9766704365611,28222267
sq,55.8948797225952,76.9118151158094,119.113922119141,75.3760980442166,28238934
sq,57.8007024765015,78.1178326845169,102.289229631424,449.031762778759,28255601
sq,59.4373301506042,85.3023408889771,101.551502943039,371.57678604126,28272268
sq,61.0621541976929,91.2475694656372,101.102739572525,249.042689800263,28288935
sq,62.6797980308533,95.2322525024414,90.0982022285466,262.145161628723,28305602
sq,64.12136926651,99.426575088501,84.9059000611305,257.233142852783,28322269
sq,65.4798636674881,103.542305374145,78.4394927322865,199.508786201477,28338936
sq,66.7348955512047,106.734445953369,68.5807131230831,14.1298770904541,28355603
sq,67.832186961174,106.960523986816,55.1916286349297,-19.6980237960815,28372270
sq,68.7152530193329,106.645355606079,49.8448759317398,-18.7124013900757,28388937
sq,69.5127710342407,106.345957183838,36.5872234106064,-18.6784267425537,28405604
sq,70.0981666088104,106.047102355957,24.2830514907837,-28.8102626800537,28422271
sq,70.486695432663,105.586138153076,11.2965703010559,-51.642656326294,28438938
sq,70.6674405574799,104.759855651856,-4.84132766723633,-178.335547447205,28455605
sq,70.5899793148041,101.9064868927,-16.7137384414673,-254.963636398315,28472272
sq,70.3225594997406,97.8270687103272,-30.8768898248672,-284.945249557495,28488939
sq,69.8285292625427,93.2679447174072,-38.5899096727371,-282.91517496109,28505606
sq,69.2110907077789,88.7413019180298,-51.6968816518784,-413.687139749527,28522273
sq,68.3839406013489,82.1223076820374,-67.5684440939222,-326.450813561678,28538940
sq,67.3028454958461,76.8990946650505,-73.0442102940287,6.29142811521888,28555607
sq,66.1341381311417,76.999757514894,-72.8446468710899,-168.782015796751,28572274
sq,64.9686237812042,74.299245262146,-89.076936244965,-116.083294153214,28588941
sq,63.5433928012848,72.4419125556946,-94.9334353208542,-124.960750341415,28605608
sq,62.0244578361511,70.4425405502319,-95.4858660697937,-140.066742897034,28622275
sq,60.4966839790344,68.2014726638794,-101.32697224617,-148.273229598999,28638942
sq,58.8754524230957,65.8291009902954,-113.411545753479,-158.433198928833,28655609
sq,57.06086769104,63.2941698074341,-122.18052148819,-155.563771724701,28672276
sq,55.105979347229,60.8051494598389,-126.431703567505,-158.846974372864,28688943
sq,53.0830720901489,58.2635978698731,-129.631340503693,-172.609210014343,28705610
sq,51.0089706420898,55.5018505096436,-133.420944213867,-169.838428497315,28722277
sq,48.874235534668,52.7844356536865,-144.400954246521,-175.091505050659,28738944
sq,46.5638202667236,49.982971572876,-145.002365112305,-178.869247436523,28755611
sq,44.2437824249268,47.1210636138916,-148.501634597778,-184.826731681824,28772278
sq,41.8677562713623,44.1638359069824,-150.136947631836,-189.024925231934,28788945
sq,39.4655651092529,41.1394371032715,-159.579753875732,-186.771154403686,28805612
sq,36.9122890472412,38.1510986328125,-173.456311225891,-187.695741653443,28822279
sq,34.136988067627,35.1479667663574,-175.559520721436,-185.0745677948,28838946
sq,31.328035736084,32.1867736816406,-178.181409835815,-176.970243453979,28855613
sq,28.4771331787109,29.355249786377,-172.98412322998,-165.732860565185,28872280
sq,25.7093872070312,26.703524017334,-176.647663116455,-161.786079406738,28888947
sq,22.883024597168,24.1149467468262,-166.778564453125,-161.824703216553,28905614
sq,20.214567565918,21.5257514953613,-154.760599136353,-149.53875541687,28922281
sq,17.7383979797363,19.1331314086914,-167.908191680908,-132.079124450684,28938948
sq,15.0518669128418,17.0198654174805,-153.802633285522,-111.405134201049,28955615
sq,12.5910247802734,15.2373832702637,-145.86353302002,-88.8185501098637,28972282
sq,10.2572082519531,13.8162864685059,-133.495569229126,-62.0582103729244,28988949
sq,8.12127914428711,12.8233551025391,-124.1774559021,-38.9904975891113,29005616
sq,6.13443984985352,12.1995071411133,-107.059478759766,-11.1255645751953,29022283
sq,4.42148818969727,12.0214981079102,-89.5078182220459,8.84342193603516,29038950
sq,2.98936309814453,12.1629928588867,-62.2177124023438,17.1537399291992,29055617
sq,1.99387969970703,12.4374526977539,-38.1202697753906,73.0290412902832,29072284
sq,1.38395538330078,13.6059173583984,-13.796329498291,128.429889678955,29088951
sq,1.16321411132812,15.6607955932617,7.17020034790039,116.937398910523,29105618
sq,1.27793731689453,17.5317939758301,26.0982513427734,140.799760818481,29122285
sq,1.69550933837891,19.7845901489258,49.3292808532715,171.075820922852,29138952
sq,2.48477783203125,22.5218032836914,86.6329669952393,130.553483963012,29155619
sq,3.87090530395508,24.6106590270996,133.46242904663,105.101108551026,29172286
sq,6.00630416870117,26.292276763916,162.159442901612,112.343549728394,29188953
sq,8.60085525512696,28.0897735595703,153.395414352417,130.717515945435,29205620
sq,11.0551818847656,30.1812538146973,141.250848770142,147.331476211548,29222287
sq,13.3151954650879,32.538557434082,191.286087036133,137.514591217041,29238954
sq,16.375772857666,34.7387908935547,121.96159362793,136.451244354248,29255621
sq,18.3271583557129,36.9220108032226,72.0453262329097,182.262182235718,29272288
sq,19.4798835754394,39.8382057189942,132.219791412354,185.896635055542,29288955
sq,21.5954002380371,42.8125518798828,160.751581192017,152.442812919617,29305622
sq,24.1674255371094,45.2516368865967,175.556182861328,139.461755752564,29322289
sq,26.9763244628906,47.4830249786377,178.235769271851,191.081762313843,29338956
sq,29.8280967712402,50.5403331756592,161.555528640747,165.70508480072,29355623
sq,32.4129852294922,53.1916145324707,160.370588302612,152.680993080139,29372290
sq,34.978914642334,55.6345104217529,147.022843360901,169.022679328919,29388957
sq,37.3312801361084,58.3388732910156,153.950929641724,165.117502212524,29405624
sq,39.794495010376,60.980753326416,156.740665435791,164.327919483185,29422291
sq,42.3023456573486,63.610000038147,151.307463645935,157.993376255036,29438958
sq,44.7232650756836,66.1378940582275,159.196019172669,150.345027446747,29455625
sq,47.2704013824463,68.5434144973755,138.841867446899,138.198256492615,29472292
sq,49.4918712615967,70.7545866012573,131.60628080368,127.964824438095,29488959
sq,51.5975717544556,72.8020237922669,127.755641937256,122.885286808014,29505626
sq,53.6416620254517,74.7681883811951,129.885673522949,101.552717387676,29522293
sq,55.7198328018189,76.3930318593979,122.769236564636,87.5563211739063,29538960
sq,57.684140586853,77.7939329981804,104.988098144531,204.647738486528,29555627
sq,59.3639501571655,81.0682968139648,102.437704801559,489.642977714539,29572294
sq,61.0029534339905,88.9025844573975,106.937825679779,264.093518257141,29588961
sq,62.7139586448669,93.1280807495117,98.6094027757649,247.428894042969,29605628
sq,64.2917090892792,97.0869430541992,87.1275365352631,213.746309280396,29622295
sq,65.6857496738434,100.506884002686,80.0404213368893,140.59579372406,29638962
sq,66.9663964152336,102.75641670227,67.544836550951,86.2964391708374,29655629
sq,68.0471138000488,104.137159729004,47.2740083932877,26.8787145614624,29672296
sq,68.8034979343414,104.567219161987,36.6700738668442,-35.8625650405884,29688963
sq,69.3902191162109,103.993418121338,24.9561965465546,-102.104783058167,29705630
sq,69.7895182609558,102.359741592407,13.6527419090271,-170.368075370789,29722297
sq,70.0079621315002,99.6338523864746,-1.34481489658356,-233.645081520081,29738964
sq,69.9864450931549,95.8955310821533,-14.6755278110504,-286.414563655853,29755631
sq,69.7516366481781,91.3128980636597,-35.3243350982666,-351.154685020447,29772298
sq,69.1864472866058,85.6944231033325,-42.7262037992477,-434.930518269539,29788965
sq,68.5028280258179,78.7355348110199,-55.4617159068584,-36.9197055697441,29805632
sq,67.6154405713081,78.144819521904,-67.0216418802738,-101.68282687664,29822299
sq,66.5430943012238,76.5178942918778,-75.9714469313622,-143.420122563839,29838966
sq,65.327551150322,74.2231723308563,-77.7179822325706,-108.892038464546,29855633
sq,64.0840634346008,72.4808997154236,-91.0954475402836,-139.923930168152,29872300
sq,62.6265362739563,70.2421168327332,-95.5854058265686,-133.536249399185,29888967
sq,61.0971697807312,68.1055368423462,-101.847589015961,-149.570822715759,29905634
sq,59.4676083564758,65.712403678894,-112.142711877823,-156.518757343293,29922301
sq,57.6733249664307,63.2081035614014,-120.500326156616,-158.357620239258,29938968
sq,55.7453197479248,60.6743816375732,-124.816477298737,-158.866286277771,29955635
sq,53.748256111145,58.1325210571289,-131.017446517944,-160.073161125183,29972302
sq,51.6519769668579,55.571350479126,-132.012188434601,-167.074203491211,29988969
sq,49.5397819519043,52.8981632232666,-138.280153274536,-172.156453132629,30005636
sq,47.3272994995117,50.1436599731445,-145.524382591248,-168.522953987122,30022303
sq,44.9989093780518,47.4472927093506,-145.008325576782,-174.126505851746,30038970
sq,42.6787761688232,44.6612686157226,-143.678426742554,-173.214912414551,30055637
sq,40.3799213409424,41.8898300170898,-149.951696395874,-172.908782958984,30072304
sq,37.9806941986084,39.1232894897461,-158.427119255066,-176.838636398315,30088971
sq,35.4458602905273,36.2938713073731,-168.801546096802,-180.188179016113,30105638
sq,32.7450355529785,33.4108604431152,-168.229818344116,-185.814619064331,30122305
sq,30.0533584594727,30.4378265380859,-169.232606887817,-181.492567062378,30138972
sq,27.3456367492676,27.5339454650879,-169.867515563965,-171.691656112671,30155639
sq,24.6277565002441,24.7868789672852,-162.420272827148,-171.279191970825,30172306
sq,22.0290321350098,22.046411895752,-155.401706695557,-162.995100021362,30188973
sq,19.5426048278809,19.4384902954102,-163.61927986145,-148.913145065308,30205640
sq,16.9246963500977,17.0558799743652,-152.742147445679,-130.40018081665,30222307
sq,14.4808219909668,14.9694770812988,-148.330450057984,-106.772899627686,30238974
sq,12.1075347900391,13.2611106872559,-136.942386627197,-91.5987491607662,30255641
sq,9.91645660400391,11.7955307006836,-128.5240650177,-70.4693794250488,30272308
sq,7.86007156372071,10.6680206298828,-118.083715438843,-33.7181091308594,30288975
sq,5.97073211669922,10.1285308837891,-98.5715389251709,1.9683837890625,30305642
sq,4.39358749389648,10.1600250244141,-73.528528213501,25.1398086547852,30322309
sq,3.21713104248047,10.5622619628906,-46.6604232788086,30.4279327392578,30338976
sq,2.47056427001953,11.0491088867188,-14.9054527282715,78.2666206359863,30355643
sq,2.23207702636719,12.3013748168945,12.9070281982422,178.030014038086,30372310
sq,2.43858947753906,15.1498550415039,33.3971977233887,184.375762939453,30388977
sq,2.97294464111328,18.0998672485352,50.5969524383549,115.538835525512,30405644
sq,3.78249588012696,19.9484886169434,99.5309352874756,131.14619255066,30422311
sq,5.37499084472657,22.0468276977539,137.611627578735,186.62691116333,30438978
sq,7.57677688598633,25.0328582763672,115.990161895752,124.617099761963,30455645
sq,9.43261947631836,27.0267318725586,104.406118392944,41.1481857299809,30472312
sq,11.1031173706055,27.6851028442383,102.51784324646,109.493494033813,30488979
sq,12.7434028625488,29.4369987487793,147.888660430908,145.616769790649,30505646
sq,15.1096214294434,31.7668670654297,155.784130096435,160.314321517944,30522313
sq,17.6021675109863,34.3318962097168,124.859571456909,147.690296173096,30538980
sq,19.5999206542969,36.6949409484863,94.5053100585937,166.055679321289,30555647
sq,21.1120056152344,39.351831817627,124.03130531311,188.441276550293,30572314
sq,23.0965065002441,42.3668922424317,160.777807235718,133.716583251953,30588981
sq,25.6689514160156,44.5063575744629,217.612981796265,110.40163040161,30605648
sq,29.1507591247559,46.2727836608887,133.300304412842,175.395965576172,30622315
sq,31.2835639953613,49.0791191101074,133.543252944946,169.045329093933,30638982
sq,33.4202560424805,51.7838443756103,140.519142150879,132.482647895813,30655649
sq,35.6685623168945,53.9035667419434,134.331107139587,172.247529029846,30672316
sq,37.8178600311279,56.6595272064209,160.086035728455,150.094032287598,30688983
sq,40.3792366027832,59.0610317230225,142.285943031311,142.789125442505,30705650
sq,42.6558116912842,61.3456577301025,140.6489610672,154.835343360901,30722317
sq,44.9061950683594,63.823023223877,147.45545387268,143.240213394165,30738984
sq,47.2654823303223,66.1148666381836,130.811572074891,131.295204162598,30755651
sq,49.3584674835205,68.2155899047852,124.01556968689,127.626776695251,30772318
sq,51.3427165985107,70.2576183319092,115.656018257141,108.182847499847,30788985
sq,53.193212890625,71.9885438919067,112.458765506744,113.854870200157,30805652
sq,54.9925531387329,73.8102218151093,119.53067779541,102.542087435722,30822319
sq,56.9050439834595,75.4508952140808,117.188394069672,78.8402073085308,30838986
sq,58.7800582885742,76.7123385310173,113.574117422104,232.395458966494,30855653
sq,60.5972441673279,80.4306658744812,98.1474220752716,464.796394109726,30872320
sq,62.1676029205322,87.8674081802368,91.4003551006317,275.967121124268,30888987
sq,63.6300086021423,92.2828821182251,91.4653837680821,257.200419902802,30905654
sq,65.0934547424316,96.3980888366699,88.6353477835655,233.086705207825,30922321
sq,66.5116203069687,100.127476119995,80.9495449066162,182.255744934082,30938988
sq,67.8068130254746,103.04356803894,69.927453994751,109.054088592529,30955655
sq,68.9256522893906,104.788433456421,54.1084632277489,48.8818883895874,30972322
sq,69.7913877010346,105.570543670654,45.8582639694214,-22.4983692169189,30988989
sq,70.5251199245453,105.210569763184,34.0737700462341,-73.5427141189575,31005656
sq,71.070300245285,104.03388633728,16.2588506937027,-122.295141220093,31022323
sq,71.3304418563843,102.077164077759,0.271677970886231,-187.865972518921,31038990
sq,71.3347887039185,99.0713085174561,-9.18039679527283,-260.422587394714,31055657
sq,71.1879023551941,94.9045471191406,-28.4556448459625,-310.60653924942,31072324
sq,70.7326120376587,89.9348424911499,-40.8458411693573,-321.211069822311,31088991
sq,70.079078578949,84.7954653739929,-50.3730624914169,-403.905361890793,31105658
sq,69.2731095790863,78.3329795837402,-63.495822250843,-81.2826827168465,31122325
sq,68.2571764230728,77.0324566602707,-74.5148845016956,-100.441455841064,31138992
sq,67.0649382710457,75.4253933668137,-83.1310786306858,-138.234861195087,31155659
sq,65.7348410129547,73.2136355876923,-90.7867848873138,-114.39822614193,31172326
sq,64.2822524547577,71.3832639694214,-94.4491177797322,-138.970911502838,31188993
sq,62.771066570282,69.159729385376,-105.10441660881,-131.672859191895,31205660
sq,61.089395904541,67.0529636383057,-109.077006578445,-153.54186296463,31222327
sq,59.3441637992859,64.5962938308716,-116.887837648392,-152.424037456513,31238994
sq,57.4739583969116,62.1575092315674,-124.242424964905,-151.490807533264,31255661
sq,55.4860795974731,59.7336563110351,-132.025837898254,-166.480779647827,31272328
sq,53.3736661911011,57.0699638366699,-133.082091808319,-173.769593238831,31288995
sq,51.244352722168,54.2896503448486,-140.038371086121,-169.291853904724,31305662
sq,49.00373878479,51.5809806823731,-139.457106590271,-169.282317161561,31322329
sq,46.7724250793457,48.8724636077881,-149.239182472229,-173.619151115418,31338996
sq,44.38459815979,46.0945571899414,-150.050163269043,-177.146434783935,31355663
sq,41.9837955474854,43.2602142333984,-156.217694282532,-183.05253982544,31372330
sq,39.4843124389648,40.3313735961914,-158.243894577026,-189.295053482056,31388997
sq,36.9524101257324,37.3026527404785,-166.138172149658,-187.649488449097,31405664
sq,34.2941993713379,34.300260925293,-171.125411987305,-189.733028411865,31422331
sq,31.556192779541,31.2645324707031,-170.164346694946,-172.521829605103,31438998
sq,28.8335632324219,28.5041831970215,-168.714046478272,-169.457912445069,31455665
sq,26.1341384887695,25.7928565979004,-171.890974044799,-177.109003067016,31472332
sq,23.3838829040527,22.9591125488281,-166.647672653198,-174.02458190918,31488999
sq,20.7175201416016,20.1747192382812,-169.33560371399,-159.452199935912,31505666
sq,18.0081504821777,17.6234840393066,-166.097879409789,-147.179126739503,31522333
sq,15.3505844116211,15.2686180114746,-153.002262115479,-132.476091384887,31539000
sq,12.9025482177734,13.1490005493164,-144.194602966309,-114.727973937988,31555667
sq,10.5954345703125,11.3133529663086,-138.10133934021,-109.196662902832,31572334
sq,8.38581314086914,9.56620635986328,-126.677513122559,-89.8013114929199,31589001
sq,6.3589729309082,8.12938537597656,-111.088275909424,-60.3346824645996,31605668
sq,4.58156051635742,7.16403045654297,-94.0735340118404,-45.4106330871582,31622335
sq,3.07638397216797,6.43746032714844,-82.2577476501465,-34.2473983764648,31639002
sq,1.76026000976562,5.889501953125,-66.7338371276855,-14.1124725341797,31655669
sq,0.692518615722657,5.66370239257813,-45.811653137207,5.20801544189453,31672336
sq,-0.0404678344726559,5.74703063964844,-29.6292304992676,27.5921821594238,31689003
sq,-0.514535522460937,6.18850555419922,-23.2925415039063,60.335636138916,31705670
sq,-0.887216186523437,7.15387573242188,-10.6067657470703,98.0896949768066,31722337
sq,-1.05692443847656,8.72331085205078,3.53193283081055,110.282897949219,31739004
sq,-1.00041351318359,10.4878372192383,14.8844718933106,79.1492462158203,31755671
sq,-0.762261962890625,11.7542251586914,32.4783325195313,82.7755928039551,31772338
sq,-0.242608642578125,13.0786346435547,44.2805290222168,107.941627502441,31789005
sq,0.465879821777344,14.8057006835937,55.0022125244141,116.742610931397,31805672
sq,1.34591522216797,16.6735824584961,69.434642791748,45.690536499023,31822339
sq,2.45686950683594,17.4046310424805,93.7783718109131,54.5821189880375,31839006
sq,3.95732345581055,18.2779449462891,127.091884613037,88.9089107513428,31855673
sq,5.99079360961914,19.7004875183105,117.780685424805,126.167058944702,31872340
sq,7.87528457641602,21.7191604614258,105.817556381226,159.147500991822,31889007
sq,9.56836547851563,24.2655204772949,94.099760055542,201.546669006348,31905674
sq,11.0739616394043,27.4902671813965,131.034612655639,159.507274627685,31922341
sq,13.1705154418945,30.0423835754395,117.682695388794,156.868934631348,31939008
sq,15.0534385681152,32.552286529541,109.446763992309,176.322698593139,31955675
sq,16.8045867919922,35.3734497070312,91.3119316101074,173.952579498291,31972342
sq,18.2655776977539,38.1566909790039,151.859760284424,214.756488800049,31989009
sq,20.6953338623047,41.5927947998047,203.312635421753,215.852499008179,32005676
sq,23.9483360290527,45.0464347839356,178.475379943848,168.074607849121,32022343
sq,26.8039421081543,47.7356285095215,169.989347457886,154.183983802795,32039010
sq,29.5237716674805,50.2025722503662,186.843156814575,161.410331726074,32055677
sq,32.5132621765137,52.7851375579834,164.086818695069,157.673597335815,32072344
sq,35.1386512756348,55.3079151153564,167.983651161194,178.96294593811,32089011
sq,37.8263896942139,58.1713222503662,177.862048149109,192.338526248932,32105678
sq,40.6721824645996,61.2487386703491,161.025881767273,179.178714752198,32122345
sq,43.248596572876,64.1155981063843,168.045759201049,139.26899433136,32139012
sq,45.9373287200928,66.343902015686,141.924142837525,110.029578208923,32155679
sq,48.2081150054932,68.1043752670288,142.839670181274,148.674100637436,32172346
sq,50.4935497283936,70.4831608772278,135.500431060791,140.720456838608,32189013
sq,52.6615566253662,72.7346881866455,129.491627216339,120.028838515282,32205680
sq,54.7334226608276,74.65514960289,125.58525800705,86.8376791477203,32222347
sq,56.7427867889404,76.0445524692535,115.459382534027,157.769531011581,32239014
sq,58.5901369094849,78.5688649654388,103.497207164764,438.359633088112,32255681
sq,60.2460922241211,85.5826190948486,101.433306932449,290.350019931793,32272348
sq,61.8690251350403,90.2282194137573,95.869243144989,230.567634105682,32289015
sq,63.4029330253601,93.9173015594482,83.4070146083836,210.553169250488,32305682
sq,64.7374452590942,97.2861522674561,78.6855444312096,181.380748748779,32322349
sq,65.9964139699936,100.188244247437,67.1191848814487,105.748414993286,32339016
sq,67.0703209280968,101.880218887329,57.0311658084392,30.8108329772949,32355683
sq,67.9828195810318,102.373192214966,41.4360389113426,-36.5641117095947,32372350
sq,68.6457962036133,101.788166427612,24.0031480789185,-91.2624597549438,32389017
sq,69.029846572876,100.327967071533,14.3558382987976,-177.390813827515,32405684
sq,69.2595399856567,97.489714050293,2.109594643116,-243.154644966125,32422351
sq,69.2932934999466,93.599239730835,-11.5047618746758,-290.507078170776,32439018
sq,69.1092173099518,88.9511264801025,-24.9103233218193,-333.118826150894,32455685
sq,68.7106521368027,83.6212252616882,-41.5541306138039,-330.643370747566,32472352
sq,68.0457860469818,78.3309313297272,-52.2417151369155,-22.8094793856144,32489019
sq,67.2099186047912,77.9659796595573,-60.803425963968,-127.835568040609,32505686
sq,66.2370637893677,75.9206105709076,-68.783313035965,-118.42380464077,32522353
sq,65.1365307807922,74.0258296966553,-83.8718563318257,-114.732056856155,32539020
sq,63.794581079483,72.1901167869568,-92.3473089933395,-139.057278633118,32555687
sq,62.3170241355896,69.9652003288269,-92.6781594753265,-123.719066381454,32572354
sq,60.8341735839844,67.9856952667236,-98.6565947532654,-155.830264091492,32589021
sq,59.2556680679321,65.4924110412598,-105.891585350037,-156.193733215332,32605688
sq,57.5614027023315,62.9933113098145,-116.800963878632,-151.646018028259,32622355
sq,55.6925872802734,60.5669750213623,-125.46306848526,-162.841081619263,32639022
sq,53.6851781845093,57.9615177154541,-129.928767681122,-165.980577468872,32655689
sq,51.6063179016113,55.3058284759521,-135.326027870178,-169.686555862427,32672356
sq,49.4411014556885,52.5908435821533,-138.78059387207,-164.732456207275,32689023
sq,47.2206119537354,49.9551242828369,-142.267465591431,-165.030717849731,32705690
sq,44.9443325042725,47.3146327972412,-147.485375404358,-168.613314628601,32722357
sq,42.5845664978027,44.6168197631836,-142.316699028015,-169.037580490112,32739024
sq,40.3074993133545,41.9122184753418,-146.415948867798,-172.802925109863,32755691
sq,37.9648441314697,39.147371673584,-149.132609367371,-176.985502243042,32772358
sq,35.5787223815918,36.3156036376953,-155.837535858154,-176.93018913269,32789025
sq,33.0853218078613,33.4847206115723,-166.802883148193,-169.873714447022,32805692
sq,30.4164756774902,30.7667411804199,-165.011167526246,-166.059732437134,32822359
sq,27.7762969970703,28.1097854614258,-163.930654525757,-165.031433105468,32839026
sq,25.1534065246582,25.4692825317383,-154.348611831664,-160.564184188843,32855693
sq,22.6838287353516,22.9002555847168,-156.752109527588,-155.308723449707,32872360
sq,20.1757949829102,20.4153160095215,-163.897037506103,-153.790235519409,32889027
sq,17.5534423828125,17.9546722412109,-151.79181098938,-154.113054275513,32905694
sq,15.1247734069824,15.4888633728027,-145.036458969115,-142.385959625244,32922361
sq,12.8041900634766,13.2106880187988,-143.326282501222,-132.230520248413,32939028
sq,10.510969543457,11.0949996948242,-139.474391937255,-126.480579376221,32955695
sq,8.27937927246094,9.07131042480469,-133.909463882446,-122.47896194458,32972362
sq,6.1368278503418,7.11164703369141,-127.518653869629,-108.329296112061,32989029
sq,4.09652938842773,5.37837829589844,-121.894121170044,-118.445873260498,33005696
sq,2.14622344970703,3.48324432373047,-108.999729156494,-100.394248962402,33022363
sq,0.402227783203125,1.87693634033203,-96.3830947875977,-87.9058837890625,33039030
sq,-1.13990173339844,0.470442199707032,-79.6184539794922,-89.7479057312012,33055697
sq,-2.41379699707031,-0.965524291992187,-67.2955513000488,-84.1045379638672,33072364
sq,-3.49052581787109,-2.31119689941406,-60.5287551879883,-76.7426490783691,33089031
sq,-4.45898590087891,-3.53907928466797,-55.2091598510742,-74.4795799255371,33105698
sq,-5.34233245849609,-4.73075256347656,-40.3256416320801,-64.4893646240234,33122365
sq,-5.98754272460937,-5.76258239746094,-32.7639579772949,-50.7335662841797,33139032
sq,-6.51176605224609,-6.57431945800781,-28.1500816345215,-30.0235748291016,33155699
sq,-6.96216735839844,-7.05469665527344,-27.1067619323731,-19.2670822143555,33172366
sq,-7.39587554931641,-7.36296997070312,-23.1280326843262,-17.5509452819824,33189033
sq,-7.76592407226562,-7.64378509521484,-14.1496658325195,-11.7530822753906,33205700
sq,-7.99231872558594,-7.83183441162109,-3.93342971801758,-10.4632377624512,33222367
sq,-8.05525360107422,-7.99924621582031,0.189304351806641,-6.74533843994141,33239034
sq,-8.05222473144531,-8.10717163085937,-4.09507751464844,-2.52437591552734,33255701
sq,-8.11774597167969,-8.14756164550781,-3.10468673706055,0.380992889404297,33272368
sq,-8.16742095947266,-8.14146575927734,-6.05916976928711,2.88820266723633,33289035
sq,-8.26436767578125,-8.09525451660156,-6.70289993286133,-5.01108169555664,33305702
sq,-8.37161407470703,-8.17543182373047,-5.74493408203125,-4.19139862060547,33322369
sq,-8.46353302001953,-8.24249420166016,1.70564651489258,-3.24916839599609,33339036
sq,-8.43624267578125,-8.29448089599609,3.44514846801758,-0.122547149658203,33355703
sq,-8.38112030029297,-8.29644165039062,2.410888671875,1.80816650390625,33372370
sq,-8.34254608154297,-8.26751098632812,-5.68103790283203,-2.66599655151367,33389037
sq,-8.43344268798828,-8.31016693115234,-9.29880142211914,-11.7616653442383,33405704
sq,-8.58222351074219,-8.49835357666016,-11.9104385375977,-10.493278503418,33422371
sq,-8.77279052734375,-8.66624603271484,-11.1417770385742,-7.02333450317383,33439038
sq,-8.95105895996094,-8.77861938476562,-7.23695755004883,-3.70073318481445,33455705
sq,-9.06685028076172,-8.83783111572266,-1.75333023071289,2.56633758544922,33472372
sq,-9.09490356445312,-8.79676971435547,1.71756744384766,2.07710266113281,33489039
sq,-9.06742248535156,-8.76353607177734,2.66361236572266,-0.159740447998047,33505706
sq,-9.0248046875,-8.76609191894531,0.703811645507812,2.59828567504883,33522373
sq,-9.01354370117187,-8.72451934814453,-1.69706344604492,4.94050979614258,33539040
sq,-9.04069671630859,-8.64547119140625,-1.96027755737305,2.52819061279297,33555707
sq,-9.07206115722656,-8.60502014160156,-1.46055221557617,0.825405120849609,33572374
sq,-9.09542999267578,-8.59181365966797,-1.24454498291016,-2.06470489501953,33589041
sq,-9.11534271240234,-8.62484893798828,-0.544548034667969,-4.44984436035156,33605708
sq,-9.12405548095703,-8.69604644775391,-3.06177139282227,-2.64883041381836,33622375
sq,-9.17304382324219,-8.738427734375,-5.43069839477539,0.235557556152344,33639042
sq,-9.25993499755859,-8.73465881347656,-4.70876693725586,-0.220775604248047,33655709
sq,-9.33527526855469,-8.73819122314453,-2.22873687744141,-1.97219848632812,33672376
sq,-9.37093505859375,-8.76974639892578,-0.276088714599609,-4.04119491577148,33689043
sq,-9.37535247802734,-8.83440551757812,1.69467926025391,-4.05502319335937,33705710
sq,-9.34823760986328,-8.89928588867187,2.85530090332031,-0.538825988769531,33722377
sq,-9.30255279541016,-8.90790710449219,0.524520874023437,3.43465805053711,33739044
sq,-9.29416046142578,-8.85295257568359,-0.0987052917480469,4.63676452636719,33755711
sq,-9.29573974609375,-8.77876434326172,1.08718872070312,3.78561019897461,33772378
sq,-9.2783447265625,-8.71819458007812,1.35898590087891,0.985145568847656,33789045
sq,-9.25660095214844,-8.70243225097656,1.46913528442383,-0.639915466308594,33805712
sq,-9.23309478759766,-8.7126708984375,1.37519836425781,1.08528137207031,33822379
sq,-9.21109161376953,-8.69530639648437,1.86491012573242,1.70087814331055,33839046
sq,-9.18125305175781,-8.66809234619141,0.380039215087891,1.8157958984375,33855713
sq,-9.17517242431641,-8.63903961181641,-0.882625579833984,1.72138214111328,33872380
sq,-9.18929443359375,-8.61149749755859,-0.308990478515625,-1.2359619140625,33889047
sq,-9.19423828125,-8.63127288818359,0.84686279296875,-1.81007385253906,33905714
sq,-9.1806884765625,-8.66023406982422,1.27506256103516,-1.54590606689453,33922381
sq,-9.16028747558594,-8.68496856689453,0.0848770141601562,-0.360965728759766,33939048
sq,-9.15892944335937,-8.69074401855469,-0.225543975830078,1.45339965820312,33955715
sq,-9.16253814697266,-8.66748962402344,-0.180244445800781,2.67362594604492,33972382
sq,-9.16542205810547,-8.62471160888672,-1.25551223754883,0.648975372314453,33989049
sq,-9.18551025390625,-8.61432800292969,-0.805377960205078,-0.677585601806641,34005716
sq,-9.19839630126953,-8.62516937255859,0.400543212890625,-1.08814239501953,34022383
sq,-9.19198760986328,-8.64257965087891,0.568866729736328,-1.38330459594727,34039050
sq,-9.1828857421875,-8.66471252441406,0.369071960449219,-2.26163864135742,34055717
