Label,Left_Hip_q,Right_Hip_q,Left_Hip_qd,Right_Hip_qd,SampleTimeFine
uw,-64.4523773193359,-60.8162651062011,2.75963711738586,-1.93600606918334,2787251465
uw,-64.1655960083007,-61.6350212097168,3.1348145059573387,-1.4619211187985348,2787268132
uw,-63.7288932800293,-62.649356842041,3.3233027249628964,-1.5284953697326782,2787284799
uw,-62.8248977661132,-63.7823295593261,3.4705187580778363,-1.586295656412554,2787301466
uw,-61.7575531005859,-64.8681411743164,3.540063483939985,-1.630110829149512,2787318133
uw,-60.5806274414062,-66.0487747192382,3.508165679204589,-1.6654220096522991,2787334800
uw,-59.638370513916,-66.9243927001953,3.3683389633582457,-1.7063700681323986,2787351467
uw,-58.8274192810058,-67.8072891235351,3.1335009971577543,-1.7676883651445443,2787368134
uw,-57.770824432373,-68.9686508178711,2.8354217989506263,-1.8542499902378977,2787384801
uw,-56.3496971130371,-70.1769866943359,2.5214151451646316,-1.9543658264772024,2787401468
uw,-54.615550994873,-71.2927169799804,2.247780202253974,-2.041681623107818,2787418135
uw,-53.163516998291,-72.1417694091796,2.069681995953494,-2.0857711587856294,2787434802
uw,-52.428970336914,-72.9026565551757,2.0286126268670546,-2.0664935602444294,2787451469
uw,-52.1242446899414,-73.7298889160156,2.1404401427596227,-1.9849729929190512,2787468136
uw,-51.7236099243164,-74.2155532836914,2.387858590583791,-1.865693071002978,2787484803
uw,-51.0748252868652,-74.7783813476562,2.7202487818415593,-1.748664161017631,2787501470
uw,-49.5455265045166,-75.4548797607421,3.0619952593607374,-1.6754181008973188,2787518137
uw,-47.5767745971679,-76.1619338989257,3.327993333060692,-1.6750306591621236,2787534804
uw,-45.8776321411132,-76.9417877197265,3.4432022587747726,-1.7555855109695322,2787551471
uw,-44.5873546600341,-77.8269577026367,3.361990910954783,-1.903654123415749,2787568138
uw,-43.5934677124023,-78.5317916870117,3.082562789433479,-2.091037963907882,2787584805
uw,-42.7709007263183,-79.0679321289062,2.6520707943961352,-2.2852689473607306,2787601472
uw,-42.1387977600097,-79.5328292846679,2.15965432513103,-2.459191352167575,2787618139
uw,-41.4970779418945,-79.8654327392578,1.717596454182805,-2.5960832788435932,2787634806
uw,-40.5118999481201,-80.0480422973632,1.4342652329660959,-2.6896662069783375,2787651473
uw,-39.3041019439697,-80.1221542358398,1.3853004101966802,-2.741113200970654,2787668140
uw,-38.3383235931396,-80.0733642578125,1.59073654022498,-2.756024170436414,2787684807
uw,-37.6644496917724,-79.906982421875,2.004974467915594,-2.7430755087809287,2787701474
uw,-36.966251373291,-79.8100891113281,2.523770635082306,-2.7140369219793783,2787718141
uw,-36.1364059448242,-79.732795715332,3.0082154560396264,-2.6837241820045996,2787734808
uw,-35.6028156280517,-79.5338897705078,3.32090502168055,-2.6687818152647527,2787751475
uw,-35.5238246917724,-79.3158645629882,3.365347642683105,-2.6852202045342453,2787768142
uw,-35.9243717193603,-79.0924301147461,3.117391650373206,-2.74532334502579,2787784809
uw,-36.3995151519775,-78.7885208129882,2.6382477631672505,-2.8545872528354126,2787801476
uw,-36.7422885894775,-78.5274353027343,2.0630165362918644,-3.009177508734937,2787818143
uw,-37.3593349456787,-78.2556533813476,1.5658051242438062,-3.1944592401370087,2787834810
uw,-38.1711921691894,-77.9281768798828,1.3103099860154455,-3.385416840078623,2787851477
uw,-38.8167667388916,-77.5061569213867,1.4002237586677062,-3.549803193291243,2787868144
uw,-39.4083366394042,-77.0892639160156,1.8448705795892295,-3.6542369899550518,2787884811
uw,-40.0277061462402,-76.8051376342773,2.5516127499936605,-3.6722590000743662,2787901478
uw,-40.6854362487792,-76.5224151611328,3.3488234382500797,-3.5921475953893873,2787918145
uw,-40.9600315093994,-76.2549667358398,4.03372047595179,-3.4218036344158445,2787934812
uw,-41.7925338745117,-76.0970840454101,4.430945859628303,-3.188594477891157,2787951479
uw,-43.5119972229003,-75.9953002929687,4.443328552886414,-2.9335073037866737,2787968146
uw,-45.9681167602539,-75.8703308105468,4.077927184185934,-2.700813033234597,2787984813
uw,-48.2868213653564,-75.741714477539,3.438668272754269,-2.526143876183734,2788001480
uw,-49.9095096588134,-75.7013397216796,2.6892557430320423,-2.426855850978012,2788018147
uw,-50.9169731140136,-75.6988220214843,2.001226925827035,-2.398163716761408,2788034814
uw,-51.3097190856933,-75.2675247192382,1.5064992174476284,-2.4165632844948517,2788051481
uw,-51.2371444702148,-74.5153045654296,1.269483747818111,-2.4492073405830346,2788068148
uw,-51.0421295166015,-73.1645889282226,1.283908789474667,-2.465643253683036,2788084815
uw,-51.2246055603027,-71.6266937255859,1.4896319665190696,-2.4477852360971166,2788101482
uw,-52.2796516418457,-70.4411315917968,1.799282407952619,-2.3951686114981428,2788118149
uw,-54.0150604248046,-69.6623153686523,2.1244267430372923,-2.3245424184968413,2788134816
uw,-55.1154174804687,-69.0499725341796,2.3943582132780743,-2.264716922573889,2788151483
uw,-55.4213371276855,-68.3295135498046,2.565230707628635,-2.2486261258025233,2788168150
uw,-55.8641014099121,-67.5177688598632,2.6211852025745648,-2.304652599970766,2788184817
uw,-57.3645935058593,-66.4161758422851,2.5709197841248974,-2.4488796533891133,2788201484
uw,-59.9722862243652,-65.102294921875,2.4423688559022416,-2.6797331008907026,2788218151
uw,-63.1515045166015,-63.270206451416,2.2760118584303703,-2.9764727338347505,2788234818
uw,-66.282356262207,-61.6425399780273,2.11611409862222,-3.30253164707667,2788251485
uw,-68.7109260559082,-60.6493263244628,2.0002004215302276,-3.613327075542939,2788268152
uw,-70.3453559875488,-59.8682289123535,1.9493134958761367,-3.866378012747219,2788284819
uw,-71.3537826538085,-58.8950538635253,1.962876767285924,-4.030523296796294,2788301486
uw,-71.8499412536621,-58.1277160644531,2.020846539010269,-4.091547754212397,2788318153
uw,-72.3647422790527,-57.1856842041015,2.092795905573702,-4.053290664120692,2788334820
uw,-73.1581916809082,-56.0651245117187,2.1503904251956065,-3.935063503060123,2788351487
uw,-74.4292221069335,-54.8450164794921,2.1780825806029793,-3.7667666455304545,2788368154
uw,-75.4644737243652,-53.687629699707,2.1776196999826656,-3.5825588719923775,2788384821
uw,-76.1167907714843,-52.5527610778808,2.1648993033390203,-3.413541840215336,2788401488
uw,-76.6377410888671,-51.3682327270507,2.1614008814218195,-3.280514890376116,2788418155
uw,-77.0093917846679,-50.1589126586914,2.184813702381089,-3.1888699245542353,2788434822
uw,-77.2291145324707,-49.0372085571289,2.2432486263274427,-3.1279244429280646,2788451489
uw,-77.4410209655761,-47.954288482666,2.3349603041633777,-3.075855954832832,2788468156
uw,-77.7732887268066,-46.9171524047851,2.4524487951104503,-3.0093264320792064,2788484823
uw,-78.2654037475585,-45.8460655212402,2.58781385872767,-2.9148410144509547,2788501490
uw,-78.8867607116699,-44.7903251647949,2.736135877962195,-2.7977995136556277,2788518157
uw,-79.5146026611328,-43.8841590881347,2.895245604693667,-2.685573769033439,2788534824
uw,-79.9732322692871,-43.1808815002441,3.062490101921728,-2.622691659350383,2788551491
uw,-80.427635192871,-42.5826225280761,3.230755665751785,-2.6587412179766785,2788568158
uw,-80.8704223632812,-42.0068054199218,3.386339950473944,-2.8321047889246294,2788584825
uw,-81.1437263488769,-41.6157836914062,3.510359913351755,-3.154306976711523,2788601492
uw,-81.3792915344238,-41.340461730957,3.5837752835011263,-3.6000579265352934,2788618159
uw,-81.6734619140625,-41.1717414855957,3.594367866955757,-4.106811831849164,2788634826
uw,-82.0755538940429,-41.1945266723632,3.542808953934713,-4.585092151430872,2788651493
uw,-82.4966812133789,-41.3826217651367,3.445023015228196,-4.937661645607072,2788668160
uw,-82.8175888061523,-41.8940238952636,3.329584764142066,-5.082841885853683,2788684827
uw,-82.9727630615234,-42.5644721984863,3.2309611695464264,-4.975833151764272,2788701494
uw,-83.0232543945312,-43.1125373840332,3.1807946268022267,-4.622221203329152,2788718161
uw,-82.9744415283203,-43.4360198974609,3.1997104687480915,-4.079882683788005,2788734828
uw,-82.8802947998046,-43.5189590454101,3.2917417504824775,-3.448571391803599,2788751495
uw,-82.6710052490234,-43.7166404724121,3.4427907518519434,-2.8495734332217384,2788768162
uw,-82.4634323120117,-44.1503105163574,3.623660404429017,-2.4000117722347403,2788784829
uw,-82.3934707641601,-44.5998344421386,3.797145946285663,-2.187219031974583,2788801496
uw,-82.3186798095703,-45.142162322998,3.9276116565492583,-2.248306510605077,2788818163
uw,-82.1002120971679,-46.0220680236816,3.990568366944074,-2.559282411316175,2788834830
uw,-81.7860717773437,-46.9360771179199,3.9793839205704766,-3.037224371576687,2788851497
uw,-81.4622535705566,-48.1079177856445,3.9068481682128473,-3.5575847510924676,2788868164
uw,-81.3493690490722,-49.7920265197753,3.800916702026231,-3.9854601787246566,2788884831
uw,-81.4616584777832,-51.7123718261718,3.6959755043530054,-4.214101346303505,2788901498
uw,-81.5198364257812,-53.4651069641113,3.6224971905535157,-4.198101042829907,2788918165
uw,-81.1385955810546,-53.5530090332031,3.598364537145849,-3.9670356512170737,2788934832
uw,-80.2316284179687,-52.4904708862304,3.6244211619576245,-3.611548348978415,2788951499
uw,-78.8802299499511,-52.529499053955,3.6854660718950707,-3.246537565116734,2788968166
uw,-77.427490234375,-54.0250091552734,3.7564046611679554,-2.967915086874641,2788984833
uw,-75.4085464477539,-55.7994270324707,3.8117383729119707,-2.8222107922981463,2789001500
uw,-73.2750129699707,-57.0172157287597,3.835156632915254,-2.8002063479517347,2789018167
uw,-71.2149543762207,-57.758934020996,3.8253715227343634,-2.8527573166856044,2789034834
uw,-69.0885124206543,-58.455265045166,3.7954559663819043,-2.917485592891247,2789051501
uw,-67.0877418518066,-59.3714065551757,3.765827628797479,-2.9433538655135507,2789068168
uw,-65.1582870483398,-60.4306678771972,3.754163798268832,-2.904683819165801,2789084835
uw,-63.6839790344238,-61.5101089477539,3.766986548315813,-2.8027445806861193,2789101502
uw,-62.963695526123,-62.5822372436523,3.796600278130216,-2.6582176776370554,2789118169
uw,-63.0122032165527,-63.6090621948242,3.824319582338767,-2.5001044504958876,2789134836
uw,-63.4880447387695,-64.7115783691406,3.828237200402948,-2.355981398542222,2789151503
uw,-63.9188995361328,-65.8279953002929,3.792484264384401,-2.246043693252385,2789168170
uw,-64.2432174682617,-66.8019256591796,3.715062416982353,-2.1808251115463353,2789184837
uw,-64.6356124877929,-67.7724075317382,3.6120635530945306,-2.1612739199325617,2789201504
uw,-65.4198951721191,-68.7737960815429,3.5169009997120515,-2.180241597087593,2789218171
uw,-66.5349693298339,-69.8045578002929,3.4740946451223507,-2.225350730688739,2789234838
uw,-67.0503005981445,-70.8014373779296,3.528274249691441,-2.283301972171915,2789251505
uw,-66.3294143676757,-71.6272430419921,3.710317660890745,-2.3446333030852147,2789268172
uw,-64.3001060485839,-72.2714309692382,4.023824971150029,-2.4068139228288596,2789284839
uw,-60.810432434082,-72.7197723388671,4.4361386274160415,-2.4737674278434434,2789301506
uw,-56.6740798950195,-73.2488555908203,4.878111608212146,-2.5518158471954893,2789318173
uw,-53.1368064880371,-73.8638076782226,5.255043227470418,-2.6443651298725217,2789334840
uw,-51.0725135803222,-74.3514022827148,5.46768789376099,-2.7485671324592733,2789351507
uw,-49.6816387176513,-74.6350784301757,5.438233189403921,-2.8558693522137317,2789368174
uw,-48.5053844451904,-74.8023376464843,5.133549205632449,-2.955767220845829,2789384841
uw,-47.4133605957031,-74.8999481201171,4.578212900261742,-3.0401815397685876,2789401508
uw,-46.8085765838623,-74.9464721679687,3.852767687539746,-3.1059996248242903,2789418175
uw,-46.2027492523193,-74.9758377075195,3.0771579078771127,-3.1550033346877266,2789434842
uw,-45.2384357452392,-74.9825668334961,2.3837732549394746,-3.1920732927001074,2789451509
uw,-43.6252918243408,-74.9172821044921,1.8877471658631233,-3.223049105547433,2789468176
uw,-41.5713653564453,-74.7906875610351,1.6629476838195767,-3.253038870880393,2789484843
uw,-39.3889827728271,-74.6647033691406,1.7298862775064416,-3.2851367674724217,2789501510
uw,-37.9159908294677,-74.5209732055664,2.057271860901368,-3.319131268121864,2789518177
uw,-37.8985805511474,-74.3528900146484,2.574217062398749,-3.3501152441155977,2789534844
uw,-38.5783157348632,-74.1550750732421,3.1873644904744536,-3.3676809544627457,2789551511
uw,-39.2461032867431,-73.8897171020507,3.7974655104916937,-3.356887044502227,2789568178
uw,-39.7061157226562,-73.6536483764648,4.312617743878987,-3.301748850020688,2789584845
uw,-39.7580966949462,-73.4949417114257,4.658546690673487,-3.190688124374054,2789601512
uw,-40.0300273895263,-73.4213943481445,4.787776637551184,-3.02204419510156,2789618179
uw,-40.8129444122314,-73.4754180908203,4.688276397791302,-2.807322435338877,2789634846
uw,-42.0015773773193,-73.6251068115234,4.389242337503051,-2.5706076993317604,2789651513
uw,-43.7603416442871,-73.8309326171875,3.959466557406415,-2.3440575028676145,2789668180
uw,-46.5631732940673,-74.0195846557617,3.4945000353019453,-2.1608857367490373,2789684847
uw,-48.749303817749,-74.1087951660156,3.0933488549673647,-2.04814050735259,2789701514
uw,-48.5714893341064,-74.1593780517578,2.8317467788629114,-2.021544579785361,2789718181
uw,-47.5538120269775,-74.2149276733398,2.74259257659055,-2.083736054851524,2789734848
uw,-48.1409225463867,-74.3208847045898,2.811318552700633,-2.2258435397178804,2789751515
uw,-50.91162109375,-74.5165023803711,2.9862649390214213,-2.4311254251375827,2789768182
uw,-54.275707244873,-74.6789474487304,3.197505004100832,-2.6789310729094646,2789784849
uw,-56.909252166748,-74.7230529785156,3.376445798290447,-2.94757571972448,2789801516
uw,-58.3455963134765,-74.639289855957,3.471640922847991,-3.2155576725553665,2789818183
uw,-58.6647033691406,-74.4232788085937,3.459137016522982,-3.4615194562924976,2789834850
uw,-58.6929969787597,-74.0852355957031,3.34619846040991,-3.664119780163299,2789851517
uw,-59.3747596740722,-73.664794921875,3.1670787730554326,-3.8031446250817096,2789868184
uw,-60.9991188049316,-73.2533187866211,2.9709249572531276,-3.8624919687757426,2789884851
uw,-62.6597175598144,-72.8218231201171,2.804920051937573,-3.834384143127064,2789901518
uw,-63.4338455200195,-72.2537994384765,2.6983651717314627,-3.723074220655069,2789918185
uw,-63.8424491882324,-71.3061218261718,2.6535980064880085,-3.5461434460508983,2789934852
uw,-64.6871795654296,-70.2116012573242,2.6470905391002133,-3.33231769964747,2789951519
uw,-66.2824058532714,-69.22314453125,2.640089304634995,-3.1160433657204565,2789968186
uw,-68.1110305786132,-68.382080078125,2.5946300729128353,-2.930301230068985,2789984853
uw,-69.5053482055664,-66.9896163940429,2.48896182566844,-2.799972956930492,2790001520
uw,-70.4465560913085,-65.4122009277343,2.3267495287970292,-2.7381282257241644,2790018187
uw,-71.3913192749023,-63.9245071411132,2.1367029109905857,-2.7464354237144692,2790034854
uw,-72.4416007995605,-62.5001373291015,1.962871134837965,-2.8187294970971073,2790051521
uw,-73.2985725402832,-61.2428169250488,1.849510719338479,-2.9449179447469507,2790068188
uw,-74.0303688049316,-60.0306015014648,1.8265193552099512,-3.11242817968641,2790084855
uw,-74.4882621765136,-59.0260429382324,1.9008127480153654,-3.3045205385761722,2790101522
uw,-75.0872764587402,-57.8676033020019,2.056070746773598,-3.497482334790505,2790118189
uw,-76.0116539001464,-56.4444885253906,2.2597053643477714,-3.660035523140402,2790134856
uw,-77.2353744506835,-54.9228134155273,2.473515861881594,-3.7573938387259345,2790151523
uw,-78.6089324951171,-53.4241180419921,2.6639940282038417,-3.75986205774636,2790168190
uw,-79.8081321716308,-51.852798461914,2.8091954214449215,-3.653108621728208,2790184857
uw,-80.5859870910644,-50.3125991821289,2.9007806646439938,-3.445801101758772,2790201524
uw,-81.180793762207,-48.882511138916,2.9416635408927676,-3.170993611221566,2790218191
uw,-82.1821212768554,-47.4531135559082,2.9410619700753418,-2.8801236881429086,2790234858
uw,-83.433609008789,-46.0742683410644,2.909180186936561,-2.6314161571219294,2790251525
uw,-84.4568328857421,-44.755313873291,2.853388090178543,-2.4764677071440993,2790268192
uw,-85.2797164916992,-43.5774612426757,2.77706016101892,-2.4490336312992884,2790284859
uw,-85.7885589599609,-42.6739807128906,2.6813187665200586,-2.5587988256509315,2790301526
uw,-86.0031433105468,-42.050983428955,2.5687283786633985,-2.7910431556211526,2790318193
uw,-86.0105972290039,-41.7242317199707,2.4469103403207706,-3.111387765304984,2790334860
uw,-85.8232803344726,-41.5519218444824,2.3298483605868183,-3.4736308703556387,2790351527
uw,-85.5401535034179,-41.7647552490234,2.2356605868672914,-3.828188337445123,2790368194
uw,-85.2768630981445,-42.4566612243652,2.1814156132874434,-4.128934629427607,2790384861
uw,-84.9894256591796,-43.4289093017578,2.177275809950692,-4.337344761064705,2790401528
uw,-84.5545425415039,-44.4308471679687,2.222907526043596,-4.42454247529723,2790418195
uw,-84.0402603149414,-45.355728149414,2.3082423634365377,-4.37346270152718,2790434862
uw,-83.4608993530273,-46.3331871032714,2.4186451523262567,-4.183740001077485,2790451529
uw,-83.022346496582,-47.026626586914,2.542271229309149,-3.8799174574112523,2790468196
uw,-82.8070602416992,-48.9046058654785,2.6760370211849165,-3.5187820203883255,2790484863
uw,-82.4709243774414,-51.4959831237793,2.8270674416062564,-3.1867246906071656,2790501530
uw,-81.9374504089355,-50.8151626586914,3.008638005384773,-2.9789556505374373,2790518197
uw,-81.3047828674316,-46.871295928955,3.232331501133312,-2.962825736737649,2790534864
uw,-80.5600852966308,-44.9664497375488,3.4999317518627806,-3.1415899709279222,2790551531
uw,-79.4395942687988,-49.243423461914,3.7986431638875042,-3.440223758157636,2790568198
uw,-77.8984184265136,-54.2867469787597,4.101623867397345,-3.725135357519963,2790584865
uw,-76.1858215332031,-56.7948913574218,4.373413047016195,-3.851679966235205,2790601532
uw,-74.5158195495605,-56.9414825439453,4.577885844550328,-3.719536875898869,2790618199
uw,-72.8383293151855,-56.2916603088378,4.685826033381306,-3.313027316060252,2790634866
uw,-71.1930770874023,-56.8394432067871,4.68007097940907,-2.7104808336806365,2790651533
uw,-69.5425033569335,-58.5105438232421,4.557644169450817,-2.0594000831260417,2790668200
uw,-68.0422439575195,-60.155834197998,4.329434692461308,-1.5273795086622475,2790684867
uw,-67.0368614196777,-61.3923835754394,4.018367611300581,-1.2476496469424811,2790701534
uw,-66.7005729675293,-62.4684410095214,3.6567309106815316,-1.2792556540224105,2790718201
uw,-66.9195861816406,-63.6572761535644,3.2827806279474063,-1.5948569586891181,2790734868
uw,-67.3315315246582,-64.9394149780273,2.936379269273172,-2.0973455248965247,2790751535
uw,-67.483097076416,-66.2140960693359,2.653548417791667,-2.6554970126708515,2790768202
uw,-67.0315971374511,-67.3019790649414,2.4604681517017664,-3.1434551012046326,2790784869
uw,-65.8351821899414,-68.0995559692382,2.36827997096397,-3.4705863711546687,2790801536
uw,-64.1580619812011,-68.7707748413086,2.3704512350599516,-3.595050409320224,2790818203
uw,-62.4135398864746,-69.4507675170898,2.444039188854859,-3.5220474224609255,2790834870
uw,-60.8791236877441,-70.0694427490234,2.555067710780754,-3.292370056815536,2790851537
uw,-59.6737480163574,-70.5243377685546,2.666881005424613,-2.9674697266963124,2790868204
uw,-58.7186431884765,-70.894302368164,2.749267433349134,-2.615246148521255,2790884871
uw,-57.9378662109375,-71.2060317993164,2.7857340401243618,-2.2984400706666306,2790901538
uw,-56.998550415039,-71.4757003784179,2.77677679598184,-2.0661326664059927,2790918205
uw,-55.7980422973632,-71.6889724731445,2.7382442749416906,-1.9484388601791933,2790934872
uw,-54.4546089172363,-71.8668899536132,2.6954622700939743,-1.954467803741661,2790951539
uw,-53.0178680419921,-71.9916915893554,2.6750489513232685,-2.0735407901487233,2790968206
uw,-51.6750984191894,-71.9958801269531,2.696892808686552,-2.279341197129475,2790984873
uw,-50.46138381958,-71.883186340332,2.7685274266491033,-2.536217432278155,2791001540
uw,-49.2052364349365,-71.742431640625,2.8832845943526113,-2.806479118669525,2791018207
uw,-47.9491024017334,-71.5734710693359,3.0224278092760426,-3.0573840638868846,2791034874
uw,-46.7748146057128,-71.3717956542968,3.160341194950068,-3.2666280368047866,2791051541
uw,-45.8460235595703,-71.1177597045898,3.271129431272098,-3.4254318331575826,2791068208
uw,-45.2358894348144,-70.8006362915039,3.3348293962897415,-3.5387021562079095,2791084875
uw,-44.728515625,-70.4854888916015,3.341763810082269,-3.6222329609407127,2791101542
uw,-44.0621280670166,-70.1679992675781,3.2941826257292153,-3.697516739163141,2791118209
uw,-43.1822891235351,-69.8372497558593,3.2050443007743463,-3.7853588540025283,2791134876
uw,-42.2138538360595,-69.4743194580078,3.0944348970230475,-3.899942177432565,2791151543
uw,-41.257921218872,-69.009407043457,2.9845933741835133,-4.045029528437524,2791168210
uw,-40.3896980285644,-68.4689331054687,2.894726323233832,-4.2134000976627775,2791184877
uw,-39.7392330169677,-67.9529800415039,2.836729652365681,-4.389445720458855,2791201544
uw,-39.325626373291,-67.4642333984375,2.812642082668926,-4.553690084375616,2791218211
uw,-38.9089756011962,-66.9377746582031,2.814257998956054,-4.687644243550414,2791234878
uw,-38.5929584503173,-66.4112930297851,2.8249588887438493,-4.778001023663512,2791251545
uw,-38.2417469024658,-65.9657440185546,2.8235460205540743,-4.819874836522045,2791268212
uw,-37.944746017456,-65.5841445922851,2.789615105456405,-4.818821004592341,2791284879
uw,-37.8182201385498,-65.2369079589843,2.709684410327356,-4.790902806176974,2791301546
uw,-38.0104331970214,-64.8912582397461,2.5828343565349474,-4.759928962832952,2791318213
uw,-38.6334819793701,-64.5532531738281,2.424204993110605,-4.751638075230993,2791334880
uw,-39.4660587310791,-64.2280654907226,2.264664619496703,-4.78584027749717,2791351547
uw,-40.3574028015136,-63.9394378662109,2.145639328614295,-4.8687398140622165,2791368214
uw,-40.9439430236816,-63.6670761108398,2.1095229007834484,-4.988247616508515,2791384881
uw,-41.2384757995605,-63.4052276611328,2.187789921933425,-5.114617503045656,2791401548
uw,-41.5297317504882,-63.1584854125976,2.3900861061094676,-5.207124208275265,2791418215
uw,-42.0304450988769,-62.9725074768066,2.697618136878846,-5.225243836103503,2791434882
uw,-42.7707786560058,-62.8267517089843,3.0632227621843313,-5.14090320578837,2791451549
uw,-43.5401821136474,-62.694278717041,3.4189919776306303,-4.947781499969151,2791468216
uw,-44.5112495422363,-62.5162773132324,3.690525141297464,-4.664643467475089,2791484883
uw,-45.8478469848632,-62.3462944030761,3.8149612840625426,-4.331747186517867,2791501550
uw,-47.2216739654541,-62.1750984191894,3.7583918417833,-4.001605921052618,2791518217
uw,-48.1728153228759,-61.9915161132812,3.527676257427576,-3.7269830456143334,2791534884
uw,-48.2168807983398,-61.8381233215332,3.1724054455691744,-3.5495210011848966,2791551551
uw,-47.6861877441406,-61.7365493774414,2.7748201986588104,-3.4918398256730945,2791568218
uw,-47.1959781646728,-61.7023735046386,2.428866945407809,-3.554610030200276,2791584885
uw,-46.9864521026611,-61.8473091125488,2.213765656384369,-3.718516177371035,2791601552
uw,-47.7412700653076,-62.2315940856933,2.1707204821720207,-3.9497304254253627,2791618219
uw,-49.7615585327148,-62.8260421752929,2.291292347539256,-4.206918832477308,2791634886
uw,-52.2126731872558,-63.5156097412109,2.5217471419347945,-4.448000775820019,2791651553
uw,-54.1518096923828,-64.2151641845703,2.781636911453081,-4.6356247827137045,2791668220
uw,-55.0551719665527,-64.9021759033203,2.9900810040429406,-4.741155781485102,2791684887
uw,-55.10884475708,-65.5392379760742,3.0909891587747897,-4.747407724249699,2791701554
uw,-55.1662254333496,-66.152847290039,3.0686778622038555,-4.6501732408267245,2791718221
uw,-55.9267501831054,-66.7750396728515,2.9482455795651337,-4.458147840430014,2791734888
uw,-57.3540458679199,-67.5172119140625,2.7808374582422277,-4.190880819149805,2791751555
uw,-58.8244514465332,-68.2970199584961,2.620530728922404,-3.8752207102861886,2791768222
uw,-59.8358497619628,-68.8968887329101,2.503222265022658,-3.541676307996644,2791784889
uw,-60.5483512878418,-69.2769699096679,2.4361896685889253,-3.222154122552146,2791801556
uw,-61.5295219421386,-69.4675750732421,2.4010812234387333,-2.9493602107964496,2791818223
uw,-63.0804977416992,-69.4466934204101,2.3666582679909114,-2.7564892553840137,2791834890
uw,-64.7924575805664,-69.2599563598632,2.304137989528128,-2.6748773301062068,2791851557
uw,-66.1400299072265,-68.9654769897461,2.1986437852320786,-2.727997220781065,2791868224
uw,-67.0134124755859,-68.4993286132812,2.0536512516952037,-2.9224837611672085,2791884891
uw,-67.7670631408691,-67.8333587646484,1.8888341991640138,-3.239565603913213,2791901558
uw,-68.7307548522949,-66.9845123291015,1.7336049870447112,-3.6315958688409755,2791918225
uw,-69.9365119934082,-66.1118774414062,1.6188702511776323,-4.027215438566471,2791934892
uw,-71.3416595458984,-65.2266540527343,1.569062423507551,-4.345415853861956,2791951559
uw,-72.7436866760253,-64.3319549560546,1.596107386333728,-4.515043791026587,2791968226
uw,-74.0054702758789,-63.42041015625,1.6966262458239567,-4.493940534966212,2791984893
uw,-75.0841484069824,-62.311954498291,1.8529544140342575,-4.281802699926396,2792001560
uw,-76.1633033752441,-61.0091285705566,2.037455716544031,-3.922659690878648,2792018227
uw,-77.3354530334472,-59.6029777526855,2.2186272635272037,-3.4958083202223436,2792034894
uw,-78.6292190551757,-58.0051345825195,2.367185520527116,-3.0974249537853074,2792051561
uw,-79.660789489746,-56.4162254333496,2.460739796591052,-2.817920983502112,2792068228
uw,-80.7916030883789,-55.0170783996582,2.486431691961028,-2.721136838824711,2792084895
uw,-81.6044158935546,-53.8129959106445,2.4417354269136085,-2.8302544133826455,2792101562
uw,-82.2393951416015,-52.5740089416503,2.3342530035904243,-3.1229201750655227,2792118229
uw,-82.7318420410156,-51.3443260192871,2.1814013538320105,-3.535907511922485,2792134896
uw,-83.0300674438476,-50.0800628662109,2.0100588551294116,-3.9781714462376256,2792151563
uw,-83.2748413085937,-48.7294540405273,1.8549414565599085,-4.350029790367173,2792168230
uw,-83.6710662841796,-47.5404396057128,1.7538782012749228,-4.565019341651426,2792184897
uw,-84.2731399536132,-46.3980293273925,1.7392329861420577,-4.569744256182698,2792201564
uw,-84.692153930664,-45.1135520935058,1.82729802030048,-4.356494183248552,2792218231
uw,-84.6696853637695,-43.9298973083496,2.01002338457339,-3.9645827166569205,2792234898
uw,-84.4230575561523,-42.7694511413574,2.2539059575961344,-3.469487609129894,2792251565
uw,-84.2765655517578,-41.5994911193847,2.5082823515907933,-2.962887594569662,2792268232
uw,-84.4017868041992,-40.7141761779785,2.7208168835867492,-2.529804543676777,2792284899
uw,-84.719497680664,-40.287727355957,2.8542858008754455,-2.229887181373818,2792301566
uw,-84.9956283569336,-40.0351867675781,2.898037242143026,-2.0880966822103475,2792318233
uw,-85.0998840332031,-39.7968368530273,2.8699948416624093,-2.0964484790881652,2792334900
uw,-85.0117034912109,-39.6146430969238,2.8091370245518252,-2.224484185324215,2792351567
uw,-84.7058486938476,-39.5119018554687,2.761882984235454,-2.433330938077011,2792368234
uw,-84.2925720214843,-39.4987335205078,2.767412315030468,-2.687577349120822,2792384901
uw,-83.8662719726562,-39.7317657470703,2.846504478600377,-2.960881744147114,2792401568
uw,-83.4656143188476,-40.4138717651367,2.996716706943791,-3.234441977638191,2792418235
uw,-83.1285171508789,-41.3739471435546,3.194545042045859,-3.4908444612804264,2792434902
uw,-82.9302825927734,-42.0895309448242,3.40329040691554,-3.707984266860478,2792451569
uw,-82.8370895385742,-42.549633026123,3.5840079540789644,-3.8577615031759858,2792468236
uw,-82.7233276367187,-43.1807098388671,3.7063226207439435,-3.911939564016851,2792484903
uw,-82.5867843627929,-44.1408805847168,3.756140219054644,-3.8537044279409427,2792501570
uw,-82.4445571899414,-45.0673446655273,3.7383347589269147,-3.68977252681804,2792518237
uw,-82.261734008789,-46.11865234375,3.674075348170155,-3.456241340109409,2792534904
uw,-82.1426696777343,-47.5458831787109,3.5940269110286995,-3.2129645037726724,2792551571
uw,-82.1158447265625,-47.9376373291015,3.5296506789477498,-3.0260409672446356,2792568238
uw,-82.0113372802734,-47.1922187805175,3.5050198238970895,-2.944313732001029,2792584905
uw,-81.7118682861328,-47.1094894409179,3.5311136987752145,-2.9800850466357707,2792601572
uw,-81.1563301086425,-49.0252075195312,3.6037555380655983,-3.1032954035929428,2792618239
uw,-80.233283996582,-51.7459640502929,3.705476515357422,-3.25230448557877,2792634906
uw,-79.0367355346679,-53.563003540039,3.810776924122898,-3.3569355033102832,2792651573
uw,-77.8341598510742,-53.8932952880859,3.8935121501307153,-3.3645721832687987,2792668240
uw,-76.8630981445312,-53.7818489074707,3.9344678570121805,-3.259287324858446,2792684907
uw,-76.0686416625976,-54.2196884155273,3.9268423818656832,-3.0667974874104305,2792701574
uw,-75.4167785644531,-55.2634468078613,3.877683620554357,-2.843471252098657,2792718241
uw,-74.9700279235839,-56.4401092529296,3.804486908506301,-2.653975754695539,2792734908
uw,-74.6440124511718,-57.5439147949218,3.727886068799514,-2.546864515315848,2792751575
uw,-74.3796882629394,-58.5756683349609,3.662989634235498,-2.5381209806679785,2792768242
uw,-74.1665267944335,-59.7089195251464,3.6126224231626884,-2.6087740959252184,2792784909
uw,-73.8717536926269,-60.8827285766601,3.565105943369809,-2.7160803119956696,2792801576
uw,-73.319465637207,-61.9386024475097,3.4975553505313948,-2.8119097421921495,2792818243
uw,-72.2132873535156,-62.8461685180664,3.3837753230817187,-2.8598259314963985,2792834910
uw,-70.5219383239746,-63.8088035583496,3.204399384805197,-2.84447924908329,2792851577
uw,-68.678237915039,-64.8160934448242,2.95624556688562,-2.771512323927944,2792868244
uw,-67.1664237976074,-65.8655853271484,2.657973496328485,-2.6605037278810877,2792884911
uw,-66.1805152893066,-67.007453918457,2.3499366467024916,-2.535615967769414,2792901578
uw,-65.5050506591796,-68.081069946289,2.087517167703492,-2.4181240750292283,2792918245
uw,-64.747085571289,-69.0664901733398,1.92900803662732,-2.322766203777521,2792934912
uw,-63.590217590332,-70.078384399414,1.920849832527415,-2.257372257409303,2792951579
uw,-61.8848648071289,-71.0397338867187,2.0841627434343883,-2.223785406755627,2792968246
uw,-59.5255432128906,-71.9157104492187,2.4065959005978166,-2.2182875624622542,2792984913
uw,-56.4253501892089,-72.6562423706054,2.8424161144266273,-2.2312581749945797,2793001580
uw,-52.912841796875,-73.3132019042968,3.3216152551017726,-2.2474557205762107,2793018247
uw,-49.7919254302978,-73.9656677246093,3.766065678777981,-2.248733029488074,2793034914
uw,-47.6491584777832,-74.6331405639648,4.108240795383896,-2.2197146207459792,2793051581
uw,-46.6823749542236,-75.1486892700195,4.3068004428364,-2.1548564246628215,2793068248
uw,-46.6633987426757,-75.5101776123046,4.354153809410561,-2.063854879941729,2793084915
uw,-46.8879985809326,-75.7859344482421,4.273858775437597,-1.9725117604940157,2793101582
uw,-47.0392456054687,-75.9418792724609,4.109299121168232,-1.9177422738219163,2793118249
uw,-46.8717632293701,-76.0358734130859,3.907916855325726,-1.937576707281006,2793134916
uw,-46.254072189331,-76.0639953613281,3.706325808075706,-2.0589123053131706,2793151583
uw,-45.2442588806152,-76.0820846557617,3.520881141945951,-2.286873029199517,2793168250
uw,-44.0910911560058,-76.0850982666015,3.346237766126614,-2.599569762063594,2793184917
uw,-42.9869670867919,-76.0307312011718,3.161692500580395,-2.9507188411780163,2793201584
uw,-42.0969524383544,-75.8906555175781,2.942530386746727,-3.2802701251956923,2793218251
uw,-41.2941856384277,-75.689826965332,2.672224966984979,-3.530542807469111,2793234918
uw,-40.5012626647949,-75.4642791748046,2.3516522470702688,-3.663157344283296,2793251585
uw,-39.7250347137451,-75.2595596313476,2.002956240355122,-3.671138073855956,2793268252
uw,-38.9115982055664,-75.0717544555664,1.6673866934826682,-3.581631976174975,2793284919
uw,-38.2833385467529,-74.8030853271484,1.3977354520060252,-3.447759576857617,2793301586
uw,-38.0655155181884,-74.4399261474609,1.2469635448855823,-3.3321354384822848,2793318253
uw,-38.2072467803955,-74.0344314575195,1.2554630874976023,-3.2877887187585224,2793334920
uw,-38.6155338287353,-73.6158828735351,1.4400256603687414,-3.343050787464728,2793351587
uw,-39.2443943023681,-73.2409133911132,1.787490787438548,-3.495068293605487,2793368254
uw,-40.0791721343994,-72.9385910034179,2.2548800631152006,-3.7129312708961075,2793384921
uw,-41.0521831512451,-72.7339706420898,2.775971542754471,-3.947842963990349,2793401588
uw,-42.3125801086425,-72.6156921386718,3.2726976766795257,-4.145998736746735,2793418255
uw,-43.7259349822998,-72.6561660766601,3.6691441579987445,-4.26034092459621,2793434922
uw,-44.753957748413,-72.7941665649414,3.9060362830662214,-4.259132953118962,2793451589
uw,-45.3621711730957,-72.8938827514648,3.9535210170761643,-4.1309019901054835,2793468256
uw,-46.0353984832763,-72.9511642456054,3.819337117646543,-3.8859839261916385,2793484923
uw,-46.7305564880371,-73.0803833007812,3.548972365583604,-3.554876527720654,2793501590
uw,-47.5161991119384,-73.2581024169921,3.215637889288917,-3.183477982802156,2793518257
uw,-49.0525341033935,-73.4546661376953,2.901205161291835,-2.82549279257782,2793534924
uw,-51.5310401916503,-73.6396408081054,2.6732307381162066,-2.532891505469613,2793551591
uw,-54.0425720214843,-73.7681732177734,2.565832908464196,-2.3460696064235798,2793568258
uw,-55.7667236328125,-73.6897888183593,2.571971421988137,-2.285831113628521,2793584925
uw,-56.6476783752441,-73.3391723632812,2.6508577369149404,-2.3491522379047907,2793601592
uw,-56.9485702514648,-72.7900924682617,2.7476300737315023,-2.5098543711651535,2793618259
uw,-57.1006240844726,-72.1093292236328,2.816328823498188,-2.7241898634822315,2793634926
uw,-57.3370666503906,-71.3807144165039,2.835646953166027,-2.9402679479304283,2793651593
uw,-57.8861694335937,-70.5409393310546,2.8112667527850945,-3.109347293230799,2793668260
uw,-58.8607482910156,-69.6743240356445,2.7660285001806284,-3.196379096074111,2793684927
uw,-60.0605735778808,-68.7359619140625,2.724981754468256,-3.187057106167089,2793701594
uw,-61.2180099487304,-67.5918273925781,2.703452358147279,-3.089375532905915,2793718261
uw,-62.4340896606445,-66.3670349121093,2.702890256412604,-2.9294039719538483,2793734928
uw,-63.7405738830566,-65.1332626342773,2.7142168507140547,-2.7430938442757458,2793751595
uw,-64.9928512573242,-64.0323257446289,2.7247854195768855,-2.5673158081577716,2793768262
uw,-66.0981712341308,-63.0516815185546,2.7245111300679645,-2.4331128392126935,2793784929
uw,-67.2506637573242,-61.9040489196777,2.7086726026390275,-2.362478760126794,2793801596
uw,-68.5071144104003,-60.4588890075683,2.677442168729066,-2.36792124113474,2793818263
uw,-69.7794494628906,-58.9656600952148,2.633739389281204,-2.452853761773657,2793834930
uw,-71.0026969909668,-57.6966438293457,2.5812172329942755,-2.6111483206349684,2793851597
uw,-71.8724021911621,-56.410301208496,2.5236648299105604,-2.8258192961870017,2793868264
uw,-72.4507751464843,-55.4167175292968,2.4661711956701513,-3.0686182496291687,2793884931
uw,-73.7093544006347,-54.4518318176269,2.4170603790950347,-3.302629958586001,2793901598
uw,-74.8824348449707,-53.1547927856445,2.3885670397921213,-3.4883391382720323,2793918265
uw,-75.7749443054199,-51.4870338439941,2.394638841397671,-3.5915514492937404,2793934932
uw,-76.4600944519043,-49.9796562194824,2.446182113703677,-3.5905999151865773,2793951599
uw,-77.1409835815429,-48.6672134399414,2.5459921061166466,-3.480646078644223,2793968266
uw,-78.0273895263671,-47.3044891357421,2.685980896470027,-3.273958967216653,2793984933
uw,-79.0642127990722,-45.766315460205,2.848036952212219,-2.9963046553056443,2794001600
uw,-79.9862213134765,-44.3208847045898,3.0080903925995433,-2.680675627471126,2794018267
uw,-80.5881996154785,-43.0035018920898,3.1418657277054987,-2.3602900874075887,2794034934
uw,-80.9437713623046,-41.7161216735839,3.2306007511964907,-2.062986841374116,2794051601
uw,-81.4034996032714,-40.4351577758789,3.265254217170581,-1.8087691429882538,2794068268
uw,-82.0311508178711,-39.1890220642089,3.248141474280654,-1.6112305216890148,2794084935
uw,-82.5993881225586,-38.0045318603515,3.1916648943664567,-1.482021706223658,2794101602
uw,-83.0427551269531,-36.9180870056152,3.1148287164387014,-1.435891730711188,2794118269
uw,-83.3647155761718,-35.922866821289,3.0389736483534158,-1.4929869644833773,2794134936
uw,-83.6789398193359,-35.1055870056152,2.984032035237889,-1.675735227678338,2794151603
uw,-84.0033187866211,-34.5717430114746,2.965731120840168,-1.9998467109589357,2794168270
uw,-84.2403945922851,-34.4985313415527,2.9933593269609964,-2.4619311810744766,2794184937
uw,-84.3987350463867,-34.9945373535156,3.0676210979043907,-3.0286302211196916,2794201604
uw,-84.5325469970703,-35.8359260559082,3.1787597955788267,-3.6328015601114076,2794218271
uw,-84.6088638305664,-36.9349136352539,3.3060133507576066,-4.1806840116481245,2794234938
uw,-84.3348770141601,-37.9815025329589,3.419897798239496,-4.57052467020848,2794251605
uw,-83.8452072143554,-38.894416809082,3.4882716233448847,-4.71896944764686,2794268272
uw,-83.364143371582,-39.7772216796875,3.4855503412078828,-4.587994129303152,2794284939
uw,-83.1211242675781,-40.46236038208,3.4023981448371647,-4.203559366494534,2794301606
uw,-83.2953948974609,-40.7720413208007,3.2519071732397764,-3.658309468214283,2794318273
uw,-83.6429901123046,-40.8446083068847,3.068862156000131,-3.094490652818578,2794334940
uw,-83.9403533935546,-41.6600799560546,2.9013615518327085,-2.6689667675100024,2794351607
uw,-83.9022979736328,-42.6458625793457,2.7975585325823036,-2.5084170245505644,2794368274
uw,-83.4041900634765,-42.5491218566894,2.7925817992903874,-2.6679238045061435,2794384941
uw,-82.7445831298828,-42.011962890625,2.900427212394726,-3.107972887797424,2794401608
uw,-82.1357879638671,-43.1567420959472,3.112983529111001,-3.7008327863440265,2794418275
uw,-81.4855155944824,-46.1543807983398,3.4049493160797084,-4.266970308670001,2794434942
uw,-80.9009628295898,-48.7193222045898,3.741144907143827,-4.6298089697117915,2794451609
uw,-80.445198059082,-50.0268516540527,4.082753172413573,-4.66948914115287,2794468276
uw,-80.0887374877929,-50.527847290039,4.390992061057525,-4.357191551865958,2794484943
uw,-79.6597595214843,-51.1787452697753,4.629110101837253,-3.7595753250573485,2794501610
uw,-79.0256080627441,-52.3068389892578,4.764782033399655,-3.013718800465363,2794518277
uw,-78.2922592163085,-53.5488739013671,4.774275745741598,-2.282671610367017,2794534944
uw,-77.5829238891601,-54.9759483337402,4.647824178079093,-1.7074387649325153,2794551611
uw,-76.9889030456543,-56.6302757263183,4.394012155196205,-1.3711733137870936,2794568278
uw,-76.4846229553222,-58.2826881408691,4.040859542834296,-1.2856139567363596,2794584945
uw,-75.9832382202148,-59.968521118164,3.6325344568074205,-1.400772968930546,2794601612
uw,-75.2952880859375,-61.7400131225585,3.2222716520502592,-1.6305758589547887,2794618279
uw,-74.3120956420898,-63.4086151123046,2.8632845351134675,-1.883102523633933,2794634946
uw,-73.0075874328613,-64.8594970703125,2.599943955947943,-2.0852441964369275,2794651613
uw,-71.6274032592773,-66.1466979980468,2.461174605247219,-2.196135063617349,2794668280
uw,-70.2314109802246,-67.3880386352539,2.4570078690612824,-2.2087286271529,2794684947
uw,-68.6710891723632,-68.6411819458007,2.5780806097128046,-2.1423528724860215,2794701614
uw,-66.6825218200683,-69.8947677612304,2.7973594601927414,-2.0305385421448103,2794718281
uw,-64.2421188354492,-71.1122817993164,3.0737789531372024,-1.9083534979498253,2794734948
uw,-61.7755737304687,-72.2880020141601,3.3581561236918134,-1.802516685486031,2794751615
uw,-59.5401268005371,-73.4728622436523,3.60161718756377,-1.7261879102228443,2794768282
uw,-57.5826339721679,-74.6997451782226,3.7654667850994126,-1.678886418216476,2794784949
uw,-56.0872001647949,-75.6876831054687,3.8297863214310777,-1.6506560801165735,2794801616
uw,-55.1656074523925,-76.5291595458984,3.7974569522944392,-1.628433238244839,2794818283
uw,-54.5810394287109,-77.2732238769531,3.691547440960469,-1.6019155896195851,2794834950
uw,-53.9894676208496,-77.9454193115234,3.5466370159017013,-1.566706360953544,2794851617
uw,-53.2237854003906,-78.6469192504882,3.397240677552712,-1.5242047600295534,2794868284
uw,-52.1323585510253,-79.3201217651367,3.2676160538949097,-1.4795143186675743,2794884951
uw,-50.7528266906738,-79.8161163330078,3.166363995345363,-1.4391078966407838,2794901618
uw,-48.9858360290527,-80.1992111206054,3.087082266419748,-1.4089939680383539,2794918285
uw,-47.1099014282226,-80.5353164672851,3.0140723765384974,-1.393064893379163,2794934952
uw,-45.1575546264648,-80.8542785644531,2.930613021672383,-1.3914587052489364,2794951619
uw,-43.2434177398681,-81.1068954467773,2.826915502050222,-1.399834156364404,2794968286
uw,-41.6732482910156,-81.2978210449218,2.70539801288863,-1.4109843665535169,2794984953
uw,-40.6704750061035,-81.3815383911132,2.581917119179792,-1.419224175293991,2795001620
uw,-40.0574340820312,-81.3957290649414,2.4826676832316608,-1.4259544083563411,2795018287
uw,-39.7219142913818,-81.4024581909179,2.437412538409638,-1.4432212282776329,2795034954
uw,-39.0843715667724,-81.3666915893554,2.470510939131344,-1.4923534437210655,2795051621
uw,-38.0509395599365,-81.1807785034179,2.591908612761709,-1.597142502437658,2795068288
uw,-36.7925662994384,-80.8558883666992,2.790740790563757,-1.7741828854010786,2795084955
uw,-35.6349830627441,-80.3587951660156,3.034129105093059,-2.0247489605876074,2795101622
uw,-35.0227432250976,-79.7560272216796,3.272668180431825,-2.3317524865424373,2795118289
uw,-35.1187210083007,-79.1337127685546,3.451979190967569,-2.662672352553995,2795134956
uw,-36.022008895874,-78.5377578735351,3.5273498224969373,-2.976735277190124,2795151623
uw,-37.4529819488525,-77.8905487060546,3.477079628562536,-3.233443635222092,2795168290
uw,-38.9257946014404,-77.2005081176757,3.3103762232994542,-3.4000103550738707,2795184957
uw,-40.4864749908447,-76.4576568603515,3.0672168076620796,-3.4566281795213127,2795201624
uw,-42.1479625701904,-75.7488632202148,2.809752876567196,-3.399647399902221,2795218291
uw,-43.3945388793945,-75.3468399047851,2.6070171918468255,-3.242896270623488,2795234958
uw,-43.7667388916015,-75.2322845458984,2.5165056452192975,-3.0167261914745995,2795251625
uw,-44.1877193450927,-75.1679916381836,2.5672625698761267,-2.7638990209197045,2795268292
uw,-46.0688152313232,-74.9394836425781,2.7492598375574735,-2.532112930318883,2795284959
uw,-47.8747005462646,-74.8090286254882,3.0132652408765557,-2.364693810531341,2795301626
uw,-47.9733180999755,-74.9424514770507,3.2835067711024832,-2.2924100037467654,2795318293
uw,-47.6644401550292,-75.2247772216796,3.4810345096722286,-2.329025605377815,2795334960
uw,-48.2654914855957,-75.5936965942382,3.5495521861845565,-2.4711021664846236,2795351627
uw,-49.5935974121093,-76.0800857543945,3.4721790498438443,-2.700383224156684,2795368294
uw,-51.1220626831054,-76.3529434204101,3.27147137121005,-2.9865789129097595,2795384961
uw,-52.8823661804199,-76.1117935180664,2.994410812917262,-3.289633785596987,2795401628
uw,-54.549991607666,-75.582778930664,2.6919001900278485,-3.5622537082496075,2795418295
uw,-55.948387145996,-74.6367950439453,2.4031946829924085,-3.7542010190699813,2795434962
uw,-57.1458168029785,-73.2363662719726,2.15051227036929,-3.8193004212909747,2795451629
uw,-58.5876655578613,-71.7761764526367,1.9426238161986162,-3.7247759485264265,2795468296
uw,-60.2826042175293,-70.5609283447265,1.7824334358617404,-3.4611266330968906,2795484963
uw,-61.368106842041,-69.2910003662109,1.6733594804490712,-3.0496731875435623,2795501630
uw,-61.9496002197265,-67.8509140014648,1.6214909774776536,-2.5445500294423233,2795518297
uw,-62.60205078125,-66.1282882690429,1.6331619300726807,-2.026710915032576,2795534964
uw,-63.8427124023437,-64.5781555175781,1.7094754653628934,-1.5896386842394161,2795551631
uw,-65.8288040161132,-63.221939086914,1.8402204692636936,-1.319416356617568,2795568298
uw,-67.8162307739257,-61.5542678833007,1.9998857092404854,-1.274433305577951,2795584965
uw,-69.2019920349121,-59.2177200317382,2.1481304299277655,-1.470889405898345,2795601632
uw,-70.1651802062988,-56.6086807250976,2.2358967350431502,-1.8787485479856691,2795618299
uw,-71.1798591613769,-54.6960487365722,2.2165066739367645,-2.4294101996425064,2795634966
uw,-72.337604522705,-53.2932090759277,2.0592781201222357,-3.032540506439981,2795651633
uw,-73.4137306213378,-51.955825805664,1.7620901981634536,-3.596790652298277,2795668300
uw,-74.6826171875,-50.3452224731445,1.3590561633368692,-4.048436173962692,2795684967
uw,-76.1746826171875,-48.6168746948242,0.919874532983327,-4.3431960970978505,2795701634
uw,-77.5101089477539,-46.8719635009765,0.5387407191986556,-4.468930209558086,2795718301
uw,-78.4937553405761,-45.1047744750976,0.3133673907672119,-4.4398421344345556,2795734968
uw,-79.3620223999023,-43.3937950134277,0.3184841971813732,-4.285474160560778,2795751635
uw,-80.5219421386718,-42.2806167602539,0.5817565351474551,-4.039177367145575,2795768302
uw,-82.1792907714843,-41.4506072998046,1.0712671123931536,-3.730139274915775,2795784969
uw,-83.7878875732421,-40.4797248840332,1.7009932040460432,-3.380774789830962,2795801636
uw,-84.9329223632812,-39.2823143005371,2.3543105785437377,-3.008729517903786,2795818303
uw,-85.5250167846679,-38.1425323486328,2.9178760948124793,-2.6313042261700565,2795834970
uw,-85.6245803833007,-37.1693458557128,3.3131298213788183,-2.270089502984816,2795851637
uw,-85.4593505859375,-36.4155960083007,3.5133820898252566,-1.9542173054381509,2795868304
uw,-85.3678207397461,-35.7836990356445,3.541180518985647,-1.7210217325752792,2795884971
uw,-85.3836822509765,-35.4088973999023,3.4496918908110037,-1.6129831067226106,2795901638
uw,-85.2639617919921,-35.5989265441894,3.298129622390153,-1.670226827218005,2795918305
uw,-85.0201950073242,-36.2604141235351,3.1319668698803333,-1.9190669570954932,2795934972
uw,-84.9778518676757,-36.7927017211914,2.9744469361323884,-2.3590007868335703,2795951639
uw,-85.3488693237304,-37.1912574768066,2.8296607841752244,-2.952506251561582,2795968306
uw,-86.0788650512695,-37.888069152832,2.6925131267094287,-3.6229467556358896,2795984973
uw,-86.8905639648437,-38.9242095947265,2.5593128043355717,-4.264738519484256,2796001640
uw,-87.4408264160156,-40.3746643066406,2.434430633806068,-4.766208946611774,2796018307
uw,-87.552490234375,-42.0748863220214,2.331663218198963,-5.040190265145586,2796034974
uw,-87.3544998168945,-43.3339042663574,2.27151712322354,-5.052564245031689,2796051641
uw,-87.0419769287109,-44.2101402282714,2.2764976992739703,-4.837167204867384,2796068308
uw,-86.6695404052734,-45.9409713745117,2.3659299271803214,-4.4882856281205665,2796084975
uw,-86.2891845703125,-46.5685882568359,2.5508830091424066,-4.129596613826158,2796101642
uw,-86.0924224853515,-45.0573692321777,2.8293425195015893,-3.868935246852722,2796118309
uw,-85.8925704956054,-44.0878829956054,3.182246641565799,-3.756904736800053,2796134976
uw,-85.3596572875976,-46.5259132385253,3.572014941725184,-3.767991004442125,2796151643
uw,-84.4651412963867,-50.422550201416,3.945677346844775,-3.8133059077687355,2796168310
uw,-83.2095260620117,-52.6151313781738,4.243650035248572,-3.779413753998813,2796184977
uw,-81.831485748291,-52.7725067138671,4.412824600534192,-3.576372964811093,2796201644
uw,-80.6290435791015,-52.5278625488281,4.420389843782924,-3.1752681273085392,2796218311
uw,-79.5313110351562,-53.4184913635253,4.2640144784533724,-2.620858844653806,2796234978
uw,-78.3237609863281,-55.0104103088378,3.9748838654167487,-2.0154797487556086,2796251645
uw,-76.8773727416992,-56.3341522216796,3.612064035884497,-1.481994642978661,2796268312
uw,-75.3558044433593,-57.6161651611328,3.249218321792038,-1.1217299861959404,2796284979
uw,-73.7835617065429,-59.3876075744628,2.957215022676547,-0.984048394981051,2796301646
uw,-72.1129188537597,-61.4456062316894,2.787662658673937,-1.0573960489062737,2796318313
uw,-70.5529670715332,-63.3572196960449,2.7620835996120277,-1.2814173753140212,2796334980
uw,-68.8644142150878,-64.9660949707031,2.86938563900371,-1.5717132271717205,2796351647
uw,-67.087230682373,-66.415786743164,3.0714081314845796,-1.8463229933445853,2796368314
uw,-65.1540794372558,-67.6527633666992,3.313793505223766,-2.0454952781617908,2796384981
uw,-63.1459579467773,-68.7964477539062,3.5383776178700117,-2.1409202685164344,2796401648
uw,-61.3118095397949,-70.0259475708007,3.6940981146399143,-2.134695533007141,2796418315
uw,-59.9660873413085,-71.3686370849609,3.7452337167462755,-2.0508380249011644,2796434982
uw,-59.2059516906738,-72.5282363891601,3.6770836958159223,-1.9233386879362733,2796451649
uw,-58.8866882324218,-73.6124496459961,3.499124869081244,-1.7849395668237324,2796468316
uw,-58.7010078430175,-74.6115646362304,3.244746564896542,-1.6599394990757816,2796484983
uw,-58.4230613708496,-75.4484939575195,2.966164855581496,-1.562347428574086,2796501650
uw,-57.95263671875,-76.2686004638671,2.724036148485462,-1.498260722730098,2796518317
uw,-57.2208595275878,-76.9823226928711,2.5734666927377168,-1.4697426548664707,2796534984
uw,-56.313190460205,-77.5903930664062,2.5502758767656046,-1.4776143286434302,2796551651
uw,-55.0341911315918,-78.2014007568359,2.6620143221841075,-1.5221135461530153,2796568318
uw,-53.6869201660156,-78.6069641113281,2.8867064339491493,-1.6020038934082292,2796584985
uw,-52.5605812072753,-78.9374771118164,3.1792833369830946,-1.7133759566781794,2796601652
uw,-51.3440742492675,-79.3131637573242,3.482868237064255,-1.8490481931315677,2796618319
uw,-49.8909797668457,-79.7305755615234,3.740952805946373,-1.998799216812077,2796634986
uw,-48.2858028411865,-80.0188598632812,3.9072682877368456,-2.1501483266953882,2796651653
uw,-46.6632003784179,-80.2090759277343,3.9518418676459515,-2.289219540087481,2796668320
uw,-45.2122497558593,-80.3649597167968,3.8632797938256487,-2.401464822914485,2796684987
uw,-43.875295639038,-80.4912414550781,3.648298691259626,-2.472601621805538,2796701654
uw,-42.5849571228027,-80.5447463989257,3.329902300216006,-2.490558319079616,2796718321
uw,-41.4940662384033,-80.5270538330078,2.9453213942318563,-2.4489064982372155,2796734988
uw,-40.8057193756103,-80.4302673339843,2.5438954507165996,-2.3510737335884704,2796751655
uw,-40.4736080169677,-80.2336044311523,2.183877771739032,-2.213264949285968,2796768322
uw,-40.4077415466308,-80.1195449829101,1.9265213540693717,-2.0636202060738382,2796784989
uw,-40.5897521972656,-80.0353622436523,1.8264679887585125,-1.9364800635497397,2796801656
uw,-40.8407745361328,-79.7220153808593,1.9193779550105787,-1.8632901994223143,2796818323
uw,-40.9947261810302,-79.301399230957,2.209938699021146,-1.8639169818503272,2796834990
uw,-41.1464004516601,-78.7226486206054,2.6645386631456924,-1.9421642644932327,2796851657
uw,-41.4068279266357,-78.0227508544921,3.2122449543360405,-2.0869902058785823,2796868324
uw,-41.9234313964843,-77.4946823120117,3.755606890838881,-2.2781258809834823,2796884991
uw,-42.438814163208,-77.1102218627929,4.190050394637216,-2.493316132268655,2796901658
uw,-42.975471496582,-76.7399215698242,4.427879531046294,-2.7145140973977946,2796918325
uw,-43.5574417114257,-76.2653503417968,4.420766692493069,-2.9312961617485085,2796934992
uw,-44.1454143524169,-75.6393051147461,4.173963776374728,-3.140912459168775,2796951659
uw,-44.5678615570068,-74.958251953125,3.747036887046853,-3.345452672486816,2796968326
uw,-44.9732074737548,-74.3708267211914,3.239617738603969,-3.547283914991689,2796984993
uw,-45.8861141204834,-73.9906616210937,2.76542356562464,-3.744110174058502,2797001660
uw,-46.6292457580566,-73.7321243286132,2.4220797700654004,-3.925000249462771,2797018327
uw,-46.6959743499755,-73.4930038452148,2.2664018748278925,-4.068750278263984,2797034994
uw,-47.1031055450439,-73.4822921752929,2.3032022923587347,-4.145746527942079,2797051661
uw,-48.6880092620849,-73.7967681884765,2.4902506444535843,-4.12367233251335,2797068328
uw,-50.4661636352539,-74.3250656127929,2.755521131719039,-3.975969309418981,2797084995
uw,-51.3835220336914,-74.97314453125,3.019401542311756,-3.69056144130106,2797101662
uw,-51.6074562072753,-75.6642761230468,3.2153167967380147,-3.2758748577952823,2797118329
uw,-51.8138351440429,-76.1353912353515,3.3046152591369475,-2.7620584756668936,2797134996
uw,-52.3328628540039,-76.1044692993164,3.283113351430054,-2.1971215162336737,2797151663
uw,-53.2826385498046,-75.6852645874023,3.1779112820876056,-1.6394954627186353,2797168330
uw,-54.5729446411132,-75.1554870605468,3.035469851606523,-1.1493774844936362,2797184997
uw,-56.0276412963867,-74.6061782836914,2.905029326659398,-0.7808057785952243,2797201664
uw,-57.0044250488281,-73.8615264892578,2.8232465823577404,-0.5752911191630637,2797218331
uw,-57.4042282104492,-72.7189712524414,2.8051551409573507,-0.5569258521482576,2797234998
uw,-57.7256355285644,-71.2719650268554,2.8436676168887405,-0.7287813635602158,2797251665
uw,-58.2771530151367,-69.6777954101562,2.9162861497199524,-1.070951391872953,2797268332
uw,-59.1911087036132,-68.0966186523437,2.9950048144986803,-1.541223145258398,2797284999
uw,-60.3467559814453,-66.7128448486328,3.0547236975739143,-2.079488758295957,2797301666
uw,-61.7425994873046,-65.3090209960937,3.0771100173488333,-2.616379720046143,2797318333
uw,-63.2566223144531,-63.802375793457,3.0498217106213135,-3.0852960116735475,2797335000
uw,-64.8713607788085,-62.2947463989257,2.9636865405411466,-3.4353820254579976,2797351667
uw,-66.4726409912109,-60.8787460327148,2.8113502254752074,-3.6417942640561622,2797368334
uw,-68.1300964355468,-59.4703063964843,2.589614210117175,-3.7097145701924825,2797385001
uw,-69.7984619140625,-58.1853103637695,2.304953351582597,-3.6704084397661783,2797401668
uw,-71.3731460571289,-56.411018371582,1.9791818001583774,-3.5705948219112775,2797418335
uw,-72.5647888183593,-54.8779525756835,1.651444688246325,-3.458969243434323,2797435002
uw,-73.9682807922363,-53.3592414855957,1.3739862116135446,-3.3743734525888036,2797451669
uw,-75.3218574523925,-51.7608680725097,1.2016117092161254,-3.3385497475591253,2797468336
uw,-76.5650062561035,-50.1911926269531,1.1773504627492932,-3.353992000783428,2797485003
uw,-77.5839195251464,-48.6440963745117,1.3188255309751389,-3.405755041238676,2797501670
uw,-78.4739952087402,-47.0056495666503,1.6105437386092794,-3.4657767576936966,2797518337
uw,-79.2797889709472,-45.5826072692871,2.0059099826114823,-3.49879227262473,2797535004
uw,-79.910099029541,-44.3500862121582,2.439114707704362,-3.469444189186369,2797551671
uw,-80.5361213684082,-43.141975402832,2.842613000970365,-3.3501807038549702,2797568338
uw,-81.2351264953613,-42.2319602966308,3.163356930824465,-3.1290280941465043,2797585005
uw,-81.7947311401367,-41.540225982666,3.3721054531287504,-2.815766242343675,2797601672
uw,-82.0883636474609,-40.8199920654296,3.46427219143927,-2.444810609444212,2797618339
uw,-82.1196594238281,-40.1455726623535,3.4549237644291164,-2.073334274341008,2797635006
uw,-82.2722625732421,-39.6836624145507,3.3719512345922915,-1.7738147685569579,2797651673
uw,-82.7297821044921,-39.2080154418945,3.249798855631129,-1.6212050479165656,2797668340
uw,-83.2980194091796,-38.5771675109863,3.1236407415154175,-1.6762733678349644,2797685007
uw,-83.7408981323242,-38.0427932739257,3.0230379502851283,-1.9682271346733249,2797701674
uw,-84.088020324707,-38.0387229919433,2.9653678535367023,-2.4811074133545947,2797718341
uw,-84.4557723999023,-38.6733970642089,2.951066414127063,-3.1488080985363927,2797735008
uw,-84.8551254272461,-39.5733108520507,2.963181581590089,-3.86219715087425,2797751675
uw,-85.2086029052734,-40.5598487854003,2.972559580402538,-4.4887269333581346,2797768342
uw,-85.4592514038086,-41.6638946533203,2.947985044245808,-4.901126810682301,2797785009
uw,-85.5567855834961,-42.7230072021484,2.8686520726204026,-5.008642585003572,2797801676
uw,-85.5831909179687,-43.3084297180175,2.7350481573333214,-4.7827687806057,2797818343
uw,-85.644416809082,-43.5815086364746,2.5741843872893173,-4.269847219191667,2797835010
uw,-85.7278594970703,-43.888858795166,2.4364074305571566,-3.585214561157265,2797851677
uw,-85.6819076538086,-45.4584465026855,2.383558975925416,-2.8875531928899196,2797868344
uw,-85.24658203125,-46.0990715026855,2.4712326310174717,-2.337639713867497,2797885011
uw,-84.4424285888671,-44.7170982360839,2.7302798815328164,-2.0522629196201625,2797901678
uw,-83.4753036499023,-43.3489227294921,3.1535678494406962,-2.0689982044406703,2797918345
uw,-82.5183181762695,-44.9186096191406,3.6927499836103075,-2.3362066359472142,2797935012
uw,-81.562156677246,-48.2957153320312,4.266707078582231,-2.733252337007786,2797951679
uw,-80.5198974609375,-50.5335235595703,4.77943611098049,-3.113080799442399,2797968346
uw,-79.4481544494628,-51.4083786010742,5.14206623926393,-3.3505085680031508,2797985013
uw,-78.4877662658691,-51.6567077636718,5.292626563954186,-3.3787715420033013,2798001680
uw,-77.7858200073242,-52.1792678833007,5.2084328654134575,-3.2028201772893583,2798018347
uw,-77.426471710205,-53.2124595642089,4.908669030622532,-2.8871967424598974,2798035014
uw,-77.2980918884277,-54.5362968444824,4.447643687758645,-2.5257181247625646,2798051681
uw,-77.1094017028808,-56.1851730346679,3.9013695055246913,-2.206318608062938,2798068348
uw,-76.6407890319824,-57.9019203186035,3.3512206364972976,-1.9847974932665642,2798085015
uw,-75.6505050659179,-59.3200035095214,2.8685526597689712,-1.8757723474817998,2798101682
uw,-74.1462898254394,-60.6363983154296,2.5034971235276076,-1.8606384447704054,2798118349
uw,-72.3461952209472,-62.0473937988281,2.2798133012856434,-1.905060444564945,2798135016
uw,-70.5962867736816,-63.4103698730468,2.1959146014749553,-1.975906535721879,2798151683
uw,-68.9523582458496,-64.6869964599609,2.2304999108437387,-2.0503012912618157,2798168350
uw,-67.2541275024414,-65.9956665039062,2.3503135157206807,-2.1154087333664955,2798185017
uw,-65.1566734313964,-67.2796630859375,2.5177915086410962,-2.16302453689162,2798201684
uw,-62.5459213256835,-68.6473159790039,2.697368274537926,-2.185147114486938,2798218351
uw,-59.7283973693847,-70.0036468505859,2.860226235357872,-2.174603185089965,2798235018
uw,-57.5524597167968,-71.1101455688476,2.987734709275512,-2.1300959590478574,2798251685
uw,-56.6020355224609,-71.9197463989257,3.0737288972412236,-2.0611031622358054,2798268352
uw,-55.9407196044921,-72.8153991699218,3.1253272544631905,-1.9879305207767255,2798285019
uw,-55.6267967224121,-73.5673522949218,3.161407564037329,-1.935763391061387,2798301686
uw,-55.6132431030273,-74.3116226196289,3.207720102921964,-1.9254730317856676,2798318353
uw,-55.4335746765136,-75.1777877807617,3.2886402645024595,-1.9654147505962545,2798335020
uw,-54.7460708618164,-76.0681686401367,3.417644613192281,-2.0474829967699444,2798351687
uw,-53.5544967651367,-76.85107421875,3.5902804687686802,-2.1487688697162173,2798368354
uw,-51.8822517395019,-77.4749069213867,3.7830361352593753,-2.2383559641203448,2798385021
uw,-50.1598052978515,-77.9157943725586,3.958979368894592,-2.287316598135878,2798401688
uw,-48.4756050109863,-78.2200546264648,4.077955780883476,-2.278847198404803,2798418355
uw,-46.8445205688476,-78.4262237548828,4.107433707420981,-2.2150064425663993,2798435022
uw,-45.6041717529296,-78.5172958374023,4.030430383152018,-2.117205775578452,2798451689
uw,-44.6806564331054,-78.5394973754882,3.848688181689516,-2.019659607106232,2798468356
uw,-44.0863361358642,-78.5354232788086,3.5812639039711858,-1.9578233842149777,2798485023
uw,-43.6982402801513,-78.5061492919921,3.2601174145503116,-1.9560950118828324,2798501690
uw,-43.1479549407959,-78.3854064941406,2.9246971705027627,-2.019520100958409,2798518357
uw,-42.5768966674804,-78.1789321899414,2.616838127567983,-2.1326830353632364,2798535024
uw,-42.0889148712158,-77.9483108520507,2.3760264511379225,-2.266118190079201,2798551691
uw,-41.6510868072509,-77.7113418579101,2.2342739300348593,-2.387608177967821,2798568358
uw,-41.2148456573486,-77.3624801635742,2.210233076979932,-2.473813709972614,2798585025
uw,-40.6914939880371,-77.0398712158203,2.3035419097811776,-2.517627220422827,2798601692
uw,-40.2596473693847,-76.7554702758789,2.4917126703400583,-2.528567020751305,2798618359
uw,-40.2611713409423,-76.4845581054687,2.7321528888432107,-2.526632271008212,2798635026
uw,-40.8472499847412,-76.1763916015625,2.970668394603047,-2.532877217396861,2798651693
uw,-41.9915752410888,-75.7595062255859,3.1553488463261314,-2.561141662393818,2798668360
uw,-43.8431453704834,-75.302978515625,3.252044552411037,-2.6143614160196362,2798685027
uw,-46.2701568603515,-74.8994140625,3.25594402927499,-2.686369743434936,2798701694
uw,-48.1824798583984,-74.5586547851562,3.1940539236515155,-2.7675314287858677,2798718361
uw,-49.416332244873,-74.2521362304687,3.116030503782701,-2.8511324014875847,2798735028
uw,-50.3370246887207,-73.9970245361328,3.075232561316644,-2.9375287021663863,2798751695
uw,-50.7758636474609,-73.7843475341796,3.106455684963547,-3.0342998014908344,2798768362
uw,-50.6662521362304,-73.5794296264648,3.2094657947449354,-3.152460670744653,2798785029
uw,-49.8711376190185,-73.4366073608398,3.34643417042699,-3.3004594052420413,2798801696
uw,-49.1892910003662,-73.4074020385742,3.4560466852803766,-3.478505109484425,2798818363
uw,-49.5794010162353,-73.5234069824218,3.4789202204863643,-3.6753994634177998,2798835030
uw,-51.0336647033691,-73.8003005981445,3.382373680659634,-3.868826511474351,2798851697
uw,-52.9305419921875,-74.0728149414062,3.172536736957575,-4.028742072016664,2798868364
uw,-54.3595466613769,-74.1005401611328,2.8890059403073516,-4.1227156970054795,2798885031
uw,-54.9610862731933,-73.8968658447265,2.5867267707534984,-4.121976899721093,2798901698
uw,-54.9660301208496,-73.569351196289,2.3151465141905385,-4.0072126278673235,2798918365
uw,-55.0254554748535,-73.160400390625,2.1037427457355875,-3.7733927377040883,2798935032
uw,-55.8463172912597,-72.5942916870117,1.9581403047996004,-3.432880128036435,2798951699
uw,-57.32564163208,-71.7687149047851,1.8657122164180355,-3.016049310940992,2798968366
uw,-58.7989158630371,-70.6786499023437,1.8060685503977942,-2.568849437575407,2798985033
uw,-60.0745582580566,-69.3711700439453,1.761002414721938,-2.1471589854892366,2799001700
uw,-61.1941528320312,-67.8195114135742,1.7200924317734354,-1.8082933711590572,2799018367
uw,-62.6529922485351,-66.1994705200195,1.6811183980732973,-1.6007631951133034,2799035034
uw,-64.3883399963378,-64.5604629516601,1.6470499682058537,-1.5543616862853007,2799051701
uw,-66.1001777648925,-62.8129425048828,1.6223393591387318,-1.673410377907378,2799068368
uw,-67.9680252075195,-61.0379333496093,1.610474210364696,-1.9357454340376876,2799085035
uw,-70.0789031982421,-59.1949768066406,1.6131838870887527,-2.298367795131941,2799101702
uw,-72.1521911621093,-57.5884246826171,1.630539332602445,-2.7080641369745035,2799118369
uw,-73.6775512695312,-56.3584098815918,1.6610354724878584,-3.1130957494574263,2799135036
uw,-74.7927627563476,-55.0790939331054,1.7013683531189525,-3.4717800256118077,2799151703
uw,-75.3565330505371,-53.5764770507812,1.746335608894202,-3.755825728679361,2799168370
uw,-76.2185516357421,-52.131103515625,1.7894501330079025,-3.949227565897188,2799185037
uw,-77.3387107849121,-50.6433677673339,1.8242931581412103,-4.045349891153558,2799201704
uw,-78.695083618164,-49.1919021606445,1.8459220689577416,-4.0446361270145745,2799218371
uw,-80.1999931335449,-47.6739273071289,1.8516421189191634,-3.953836347755499,2799235038
uw,-81.8944396972656,-45.9531135559082,1.8412338153619332,-3.786044700168358,2799251705
uw,-83.8220672607421,-44.2943534851074,1.8173789486910616,-3.5601202155855303,2799268372
uw,-85.8867568969726,-42.740550994873,1.7866782244116746,-3.298470177769271,2799285039
uw,-87.4512176513671,-41.3649864196777,1.7605178692471857,-3.023347608261714,2799301706
uw,-88.4655990600586,-40.1562881469726,1.7542479196034921,-2.7530451442276944,2799318373
uw,-88.988525390625,-39.1217613220214,1.7836092718743144,-2.4999191957495936,2799335040
uw,-88.9882888793945,-38.1968307495117,1.858950552357297,-2.2716393728395103,2799351707
uw,-88.6963577270507,-37.247817993164,1.9794698699540703,-2.0755633475370225,2799368374
uw,-88.4119033813476,-36.2536125183105,2.1303881036042456,-1.924337064747444,2799385041
uw,-88.4352722167968,-35.3771858215332,2.2850839718309515,-1.8396332966314592,2799401708
uw,-88.7116622924804,-34.8096199035644,2.4121223797353912,-1.8511466657308742,2799418375
uw,-89.0647735595703,-34.7590866088867,2.4848526762337038,-1.9897191399418925,2799435042
uw,-89.3481521606445,-34.8890647888183,2.4900476570312193,-2.276060026191178,2799451709
uw,-89.4058227539062,-35.0458297729492,2.4324654336904743,-2.708693622601626,2799468376
uw,-89.288948059082,-35.4454078674316,2.3338788133059807,-3.2555186017313136,2799485043
uw,-89.2060852050781,-36.0240821838378,2.2270937084269105,-3.852524536790455,2799501710
uw,-89.2613067626953,-36.7900161743164,2.1469361660399042,-4.41132693107959,2799518377
uw,-89.4861373901367,-37.5999336242675,2.120868772054073,-4.8349539609920935,2799535044
uw,-89.8942718505859,-38.3105659484863,2.16195685778309,-5.03918519434779,2799551711
uw,-90.1673431396484,-39.066421508789,2.2663699325362154,-4.974972828714388,2799568378
uw,-90.082649230957,-39.7973823547363,2.416292187625286,-4.646438467824067,2799585045
uw,-89.8606262207031,-40.5254554748535,2.5871636013661097,-4.118978104263373,2799601712
uw,-89.6741180419921,-40.9905738830566,2.7563739744155913,-3.513140875900903,2799618379
uw,-89.3611221313476,-42.2088775634765,2.909940448832328,-2.9821056783672573,2799635046
uw,-88.9793548583984,-43.8913345336914,3.044752312102364,-2.6742821368316703,2799651713
uw,-88.5545654296875,-43.4123268127441,3.1660025560846874,-2.688515228886182,2799668380
uw,-88.2560195922851,-41.8099327087402,3.2812674008550364,-3.036086391470066,2799685047
uw,-88.0444641113281,-41.7282257080078,3.393654311225055,-3.6261216257110838,2799701714
uw,-87.8857421875,-44.8820343017578,3.496536521208865,-4.28443405400546,2799718381
uw,-87.6497268676757,-48.706729888916,3.571903373743666,-4.802016612607424,2799735048
uw,-87.2020797729492,-50.5388145446777,3.5935052081219387,-4.9964076733380045,2799751715
uw,-86.5610198974609,-50.6164207458496,3.5348480956775674,-4.764257810152233,2799768382
uw,-85.7833862304687,-50.6670379638671,3.380642327770853,-4.10797540609603,2799785049
uw,-84.8025665283203,-51.556900024414,3.1385840572153176,-3.129926645694534,2799801716
uw,-83.5552062988281,-52.766731262207,2.8468834200728703,-1.9996043853859893,2799818383
uw,-82.2815170288086,-54.0659255981445,2.572747546248339,-0.9080798052115348,2799835050
uw,-81.1452484130859,-55.642162322998,2.398999822050202,-0.026455616417274484,2799851717
uw,-79.9801483154296,-56.8470497131347,2.4001538315511777,0.5202042340425429,2799868384
uw,-78.617935180664,-58.1749839782714,2.6141692593655463,0.6621240684450084,2799885051
uw,-77.503978729248,-59.9642791748046,3.019569518640763,0.3846036433148841,2799901718
uw,-76.1737327575683,-62.5564002990722,3.5276563976007123,-0.27306937018389904,2799918385
uw,-73.8687286376953,-64.3614730834961,3.9954350823376314,-1.2175562318453883,2799935052
uw,-71.053783416748,-66.9423828125,4.257625344235186,-2.305805873455165,2799951719
uw,-67.5447883605957,-69.3165054321289,4.169027374898405,-3.3604562605235566,2799968386
uw,-63.3190994262695,-71.029312133789,3.6453403734476484,-4.197281131909107,2799985053
uw,-59.1820755004882,-72.355598449707,2.6922699101418477,-4.659368941033889,2800001720
uw,-55.5500335693359,-73.4085617065429,1.4165798572304529,-4.650538575331154,2800018387
uw,-52.6196060180664,-74.4279403686523,0.015565313127657842,-4.161241978535312,2800035054
uw,-50.953498840332,-74.884292602539,-1.2564181881307277,-3.2801060056676383,2800051721
uw,-52.2801666259765,-73.6837005615234,-2.1411443531838605,-2.1832978841530637,2800068388
uw,-55.6914482116699,-73.9523468017578,-2.4378286621537213,-1.0974752114954698,2800085055
uw,-57.0917930603027,-74.543342590332,-2.0534282615772885,-0.24344271674000448,2800101722
uw,-57.3104286193847,-75.5167694091796,-1.024188400121445,0.22039769713360283,2800118389
uw,-56.8611869812011,-76.3518753051757,0.4971198410616625,0.23439677464421108,2800135056
uw,-55.236213684082,-77.2656936645507,2.27956522207069,-0.1561970088109618,2800151723
uw,-52.8393783569335,-78.0427627563476,4.062955542364899,-0.8225547792189675,2800168390
uw,-50.020637512207,-78.705825805664,5.604691394728859,-1.590869521930231,2800185057
uw,-47.3869819641113,-79.0349578857421,6.717245174738762,-2.2863800365212525,2800201724
uw,-45.5537204742431,-79.0927581787109,7.292086677959805,-2.7723753543197844,2800218391
uw,-44.8334579467773,-79.0805435180664,7.307085215486449,-2.97639424577533,2800235058
uw,-44.9408874511718,-79.055549621582,6.816582756418509,-2.899099764390812,2800251725
uw,-45.0064067840576,-79.0689620971679,5.927828481735691,-2.605217193387884,2800268392
uw,-44.3054218292236,-79.1019973754882,4.7722012862933205,-2.2002698133828793,2800285059
uw,-42.8825893402099,-79.0617904663086,3.481124836403674,-1.800454517536266,2800301726
uw,-41.2853946685791,-78.9375686645507,2.1733595703568875,-1.50422992976244,2800318393
uw,-39.7108860015869,-78.7557907104492,0.9542307462133194,-1.3724352820646541,2800335060
uw,-38.4875221252441,-78.6438827514648,-0.07833917286453135,-1.4201453921231642,2800351727
uw,-37.4990692138671,-78.3718185424804,-0.8288064421583407,-1.6198653224422148,2800368394
uw,-36.3110198974609,-77.9808578491211,-1.2067097306539003,-1.913268552429837,2800385061
uw,-35.0927772521972,-77.6137924194336,-1.1398029638147904,-2.2276522142080237,2800401728
uw,-34.0343952178955,-77.1969451904296,-0.5951797795094501,-2.493286551360505,2800418395
uw,-33.2779359817504,-76.6802520751953,0.39835507715999513,-2.6584420263325423,2800435062
uw,-32.9436655044555,-76.1405563354492,1.735501863046266,-2.6996854629826568,2800451729
uw,-32.5579814910888,-75.6759338378906,3.2353863036814903,-2.6258270812714124,2800468396
uw,-32.3180475234985,-75.3051452636718,4.662856666784025,-2.474753331990452,2800485063
uw,-32.6158742904663,-74.9897994995117,5.769321710771436,-2.303542557306495,2800501730
uw,-33.6855640411376,-74.6658020019531,6.345933125380485,-2.1738118246069518,2800518397
uw,-35.2488002777099,-74.3415985107421,6.27643642770391,-2.1358167395600405,2800535064
uw,-36.701789855957,-73.9307861328125,5.57449247352867,-2.215658045320943,2800551731
uw,-38.2077083587646,-73.3930053710937,4.392349064700851,-2.4093488116944237,2800568398
uw,-39.7935009002685,-72.7881927490234,2.99452452580307,-2.6854183061225414,2800585065
uw,-40.6412296295166,-72.1991577148437,1.6998188311423517,-2.994935363538696,2800601732
uw,-40.0512447357177,-71.6473007202148,0.8044319615718271,-3.285481878004458,2800618399
uw,-39.5253829956054,-71.2011413574218,0.5054420175259262,-3.514615983692527,2800635066
uw,-38.5357284545898,-70.8947830200195,0.8460491376039683,-3.6589979735809455,2800651733
uw,-36.3348979949951,-70.6684265136718,1.7012163833070761,-3.7171556166222,2800668400
uw,-35.9427967071533,-70.5237350463867,2.813007024017884,-3.7059886118602114,2800685067
uw,-39.060317993164,-70.5616912841796,3.8683338472186213,-3.652838887068402,2800701734
uw,-43.3298397064209,-70.8827514648437,4.593554850886622,-3.585957362450403,2800718401
uw,-46.3463230133056,-71.5268173217773,4.831684008630924,-3.5263519469966487,2800735068
uw,-47.4080390930175,-72.3495559692382,4.576027864288396,-3.4832497821393082,2800751735
uw,-47.2583923339843,-73.1884994506836,3.9537222430021832,-3.45396503320773,2800768402
uw,-46.9736213684082,-73.7543487548828,3.171573211726236,-3.4274017231833347,2800785069
uw,-46.9728832244873,-74.0102081298828,2.446427937125914,-3.389359917215978,2800801736
uw,-47.970775604248,-74.0325546264648,1.9426915822166153,-3.327608684792069,2800818403
uw,-49.9578990936279,-74.0448913574218,1.7338694761653082,-3.235323122983178,2800835070
uw,-51.8238639831543,-73.9720611572265,1.795929552821517,-3.112540764494318,2800851737
uw,-53.0606536865234,-73.4801712036132,2.030152386532634,-2.9661199203847,2800868404
uw,-53.871711730957,-72.4113540649414,2.3046564233414637,-2.8088229916927316,2800885071
uw,-54.8984451293945,-70.9747009277343,2.499391261315496,-2.657727640214647,2800901738
uw,-56.4137878417968,-69.5803985595703,2.5402486363242036,-2.5317992378021206,2800918405
uw,-57.9837646484375,-68.1421508789062,2.4134437772156567,-2.4486613548338436,2800935072
uw,-59.2732963562011,-66.3477249145507,2.1590924128858995,-2.421258360392212,2800951739
uw,-60.0866432189941,-64.3726654052734,1.8497352556664115,-2.4555366898829103,2800968406
uw,-60.6944961547851,-62.5106506347656,1.5631075238909267,-2.5499354132471463,2800985073
uw,-61.6001091003418,-61.0742874145507,1.3583267299753177,-2.6965197438189414,2801001740
uw,-62.9463119506835,-59.9312438964843,1.261952306748805,-2.882728628788167,2801018407
uw,-64.6060791015625,-58.7619018554687,1.2664293596489034,-3.0926348067094724,2801035074
uw,-66.5425109863281,-57.3989372253418,1.339353316295124,-3.3074355092678482,2801051741
uw,-68.4500732421875,-55.2859992980957,1.4387463255131012,-3.5059593734535923,2801068408
uw,-70.2804527282714,-53.0139427185058,1.5281239955856016,-3.666366770737996,2801085075
uw,-71.9912605285644,-51.5040054321289,1.5861737109289604,-3.7695158006133305,2801101742
uw,-73.494400024414,-50.6008911132812,1.6089040769428844,-3.8031354307937573,2801118409
uw,-74.9457244873046,-49.7017211914062,1.6055640751931253,-3.7649898886132283,2801135076
uw,-76.5021286010742,-48.3443717956543,1.5917186421118061,-3.663374226402019,2801151743
uw,-78.1803817749023,-46.5449256896972,1.5829321379904537,-3.5144698094267475,2801168410
uw,-79.8896293640136,-44.8513107299804,1.5912209786553775,-3.337514034053534,2801185077
uw,-81.3801879882812,-43.3932952880859,1.624840420584872,-3.1495547944891245,2801201744
uw,-82.6233978271484,-42.057804107666,1.6905307800913536,-2.961506037550045,2801218411
uw,-83.3741989135742,-40.8158416748046,1.7961274737013602,-2.7766452649775504,2801235078
uw,-83.4095840454101,-39.7378768920898,1.9508823946201144,-2.592027162349057,2801251745
uw,-83.156494140625,-38.6783027648925,2.1617446509334033,-2.4026231932537137,2801268412
uw,-83.1384582519531,-37.7039947509765,2.4263253868724997,-2.2072366386038595,2801285079
uw,-83.5670318603515,-37.0606460571289,2.7260574545583562,-2.0144641387212863,2801301746
uw,-84.2824478149414,-36.869701385498,3.0241818872489983,-1.8464821165774088,2801318413
uw,-84.8368682861328,-36.7327232360839,3.2715648508456,-1.7385518580401462,2801335080
uw,-85.0855484008789,-36.4443168640136,3.4197183119909758,-1.7330599086770733,2801351747
uw,-85.2627639770507,-36.3941345214843,3.436733576728036,-1.8685884643379354,2801368414
uw,-85.5667572021484,-36.6685371398925,3.3199678733236886,-2.166482255126169,2801385081
uw,-85.9481735229492,-37.0925865173339,3.100106127130869,-2.6188851328527742,2801401748
uw,-86.2669525146484,-37.7408790588378,2.8343925384060333,-3.1826084576818254,2801418415
uw,-86.4356079101562,-38.8896446228027,2.5911125457083966,-3.782193094083985,2801435082
uw,-86.4274749755859,-40.1224937438964,2.4309244308762916,-4.3232287363479065,2801451749
uw,-86.2704391479492,-41.0648002624511,2.3917673897683436,-4.713831823747364,2801468416
uw,-86.0647277832031,-41.6574249267578,2.4822888166931447,-4.88901216062416,2801485083
uw,-85.8699340820312,-42.0085067749023,2.6849117598644434,-4.830577984527058,2801501750
uw,-85.6054458618164,-42.848762512207,2.9656801759493745,-4.575113023315396,2801518417
uw,-85.1360092163086,-44.2414627075195,3.28579517423478,-4.204954887885541,2801535084
uw,-84.2923583984375,-44.4702949523925,3.610157261814406,-3.82239856817041,2801551751
uw,-83.324478149414,-43.1981697082519,3.910639486800694,-3.5148102631705553,2801568418
uw,-82.410888671875,-42.5114707946777,4.164740146390365,-3.324503855973099,2801585085
uw,-81.5752449035644,-44.5911712646484,4.352304680623931,-3.237131626196237,2801601752
uw,-80.8299140930175,-47.7399635314941,4.453402301894554,-3.194223963619793,2801618419
uw,-79.987205505371,-49.597053527832,4.449228734474064,-3.1236678308820016,2801635086
uw,-79.2092857360839,-49.7139663696289,4.325909192169312,-2.9734732019325767,2801651753
uw,-78.2635459899902,-49.7988700866699,4.079458205026937,-2.7335922887274133,2801668420
uw,-76.9731941223144,-51.0223693847656,3.7196370663794833,-2.437331538292731,2801685087
uw,-75.2305564880371,-52.5093307495117,3.2710040659562902,-2.1439917477526222,2801701754
uw,-73.0350456237793,-53.7260017395019,2.770630377983014,-1.9127059164042985,2801718421
uw,-70.637149810791,-55.1844139099121,2.2632279886458746,-1.780202717061774,2801735088
uw,-68.3619651794433,-56.8902740478515,1.795246608959478,-1.7515735972264055,2801751755
uw,-66.5261039733886,-58.5482711791992,1.4094275650004207,-1.8055720216733457,2801768422
uw,-65.3737258911132,-59.8936958312988,1.1404783102219438,-1.9089030096754427,2801785089
uw,-64.5792732238769,-61.0404319763183,1.0116745274677803,-2.0309857262935136,2801801756
uw,-63.7418975830078,-62.1700897216796,1.0320239698628138,-2.152539742653613,2801818423
uw,-62.901870727539,-63.3171653747558,1.1941583772810371,-2.265920854714692,2801835090
uw,-62.3565483093261,-64.5890960693359,1.4737566487131397,-2.369390293548865,2801851757
uw,-61.7185134887695,-65.7776947021484,1.8315190692322445,-2.4596636113872847,2801868424
uw,-60.2506866455078,-66.9713287353515,2.218362164767742,-2.5270647669911566,2801885091
uw,-57.8424606323242,-68.1083908081054,2.583557046585009,-2.55599159695086,2801901758
uw,-54.526123046875,-69.1963195800781,2.8841396993800408,-2.5307181323109056,2801918425
uw,-50.6942863464355,-70.0228576660156,3.092771854311482,-2.443660079012186,2801935092
uw,-46.3723697662353,-70.9154357910156,3.201289200140688,-2.301592461821687,2801951759
uw,-41.840404510498,-71.7150039672851,3.2188212435041237,-2.126184027230906,2801968426
uw,-38.1920757293701,-72.4479675292968,3.1658519454008016,-1.9482687972142652,2801985093
uw,-35.5741119384765,-73.1698532104492,3.0673081057745093,-1.7985904851074879,2802001760
uw,-33.6840457916259,-73.9645309448242,2.9474810598196663,-1.6993450443677718,2802018427
uw,-32.1806411743164,-74.7276916503906,2.827710441644017,-1.6600100676086935,2802035094
uw,-31.2366256713867,-75.39794921875,2.7259649566361013,-1.6784424318390847,2802051761
uw,-30.8014459609985,-75.832534790039,2.6568895798823813,-1.745608365941497,2802068428
uw,-30.7833423614501,-76.0142822265625,2.631273701839747,-1.850977148455878,2802085095
uw,-30.9058265686035,-76.2665557861328,2.654491993397961,-1.9859786611692314,2802101762
uw,-31.0131711959838,-76.5118560791015,2.7240948939272314,-2.1443867017329317,2802118429
uw,-31.0322113037109,-76.6711654663086,2.8274813508890952,-2.3200981269755485,2802135096
uw,-30.9562511444091,-76.7586059570312,2.9412096606459803,-2.5039030891208456,2802151763
uw,-31.0199327468872,-76.7843704223632,3.033450956189579,-2.681246927520651,2802168430
uw,-31.2256183624267,-76.7159957885742,3.070129262109958,-2.8326146927515996,2802185097
uw,-31.2289915084838,-76.5151214599609,3.0237705775811614,-2.9371211744051915,2802201764
uw,-30.9162158966064,-76.2450942993164,2.882699346809141,-2.978494098957978,2802218431
uw,-30.6482353210449,-75.9439315795898,2.657627472225226,-2.9514006511182886,2802235098
uw,-30.5021858215332,-75.6506423950195,2.3831509422604493,-2.8655045167373534,2802251765
uw,-30.3057289123535,-75.3849792480468,2.112951186890091,-2.745126309296161,2802268432
uw,-29.9804496765136,-75.0808868408203,1.9090867708206691,-2.6239379197104715,2802285099
uw,-29.4347295761108,-74.6874618530273,1.827315098319124,-2.536216225262797,2802301766
uw,-28.8675174713134,-74.0928039550781,1.9017284941546033,-2.5077941696743777,2802318433
uw,-28.6811485290527,-73.3938980102539,2.1328267027015206,-2.55000964885835,2802335100
uw,-29.1615924835205,-72.7117080688476,2.4830515974692187,-2.6584824558822135,2802351767
uw,-30.6653900146484,-72.0798034667968,2.8824637354064615,-2.816329347046486,2802368434
uw,-33.0675802230834,-71.5136795043945,3.244626935462659,-2.9998068339626838,2802385101
uw,-35.6026821136474,-71.0295486450195,3.4893975264368224,-3.184127934459897,2802401768
uw,-38.1222629547119,-70.5506286621093,3.5663371794696817,-3.348050511061863,2802418435
uw,-40.4237461090087,-70.0821838378906,3.4711958609777787,-3.4768958869684994,2802435102
uw,-41.0653095245361,-69.6205444335937,3.2490901303455617,-3.5642081358557096,2802451769
uw,-39.6182746887207,-69.2490539550781,2.9815965740043002,-3.6121571737601736,2802468436
uw,-37.4336967468261,-69.0955429077148,2.7604260120672626,-3.6304221637913945,2802485103
uw,-34.7615413665771,-69.2164230346679,2.656286124335983,-3.633270555742786,2802501770
uw,-33.4742136001586,-69.571304321289,2.6950694157984154,-3.6351448934149895,2802518437
uw,-34.9866752624511,-70.0528335571289,2.8512927163996653,-3.6459551252216222,2802535104
uw,-38.6193675994873,-70.5971603393554,3.0607934939665653,-3.66780984775543,2802551771
uw,-42.6785144805908,-71.2191467285156,3.2459162274317888,-3.694650172073152,2802568438
uw,-45.2587966918945,-71.9033660888671,3.3421533014846836,-3.7151527005281944,2802585105
uw,-46.3659152984619,-72.3983688354492,3.316551699226874,-3.717763994605868,2802601772
uw,-46.828104019165,-72.487075805664,3.1727839043297266,-3.695583849177436,2802618439
uw,-47.347261428833,-72.2549362182617,2.943128775588937,-3.648847809176262,2802635106
uw,-48.0484027862548,-71.7870712280273,2.67220812156273,-3.5842106432371765,2802651773
uw,-49.3108539581298,-71.0270080566406,2.399934422089387,-3.511991413050352,2802668440
uw,-50.8519859313964,-70.1568222045898,2.150658020501616,-3.4434264756858406,2802685107
uw,-52.1831855773925,-69.2193222045898,1.9318870536643797,-3.3890984208119663,2802701774
uw,-53.2559089660644,-68.0385513305664,1.7409393673474347,-3.3581036995521156,2802718441
uw,-54.4317054748535,-66.7425308227539,1.574330803637273,-3.356827011725657,2802735108
uw,-56.0139732360839,-65.549446105957,1.434424262145888,-3.3869482649076788,2802751775
uw,-57.7448806762695,-64.5279159545898,1.3303856161947387,-3.4436438560529714,2802768442
uw,-59.1906280517578,-63.3064842224121,1.2739168342985423,-3.515561037956686,2802785109
uw,-60.4268684387207,-61.6992721557617,1.2727204671379513,-3.587414392073844,2802801776
uw,-61.8144416809082,-60.1053390502929,1.3252080343180697,-3.644473571663497,2802818443
uw,-63.3833694458007,-58.5638923645019,1.418740684209121,-3.676996711195289,2802835110
uw,-65.0505180358886,-57.0220184326171,1.5317679552830428,-3.6827069106832337,2802851777
uw,-66.5636329650878,-55.5894660949707,1.6388010735031178,-3.6665284097551942,2802868444
uw,-67.7510108947753,-54.2514839172363,1.7166087403059775,-3.638071779301657,2802885111
uw,-68.861328125,-52.9385070800781,1.7499356289195687,-3.6080773670217923,2802901778
uw,-70.1023750305175,-51.6281089782714,1.7350601987961936,-3.5851290200732318,2802918445
uw,-71.5195388793945,-50.1535453796386,1.6798806479342694,-3.573637906789791,2802935112
uw,-73.0072212219238,-48.7708206176757,1.6003120188061906,-3.573484203604232,2802951779
uw,-74.4957809448242,-47.5002670288085,1.5143295083314927,-3.5809782130363663,2802968446
uw,-75.9714584350585,-46.18896484375,1.436138505204163,-3.590348427368974,2802985113
uw,-77.3901901245117,-44.922981262207,1.3729150973879096,-3.5950565629490696,2803001780
uw,-78.7642135620117,-43.7221031188964,1.3252560439537686,-3.588742207507019,2803018447
uw,-80.0618324279785,-42.6001968383789,1.2905995259615117,-3.5660802001687344,2803035114
uw,-81.2017784118652,-41.6242370605468,1.2674714131074782,-3.5239061760276638,2803051781
uw,-82.0201797485351,-40.7508468627929,1.2582252197621444,-3.462597081015143,2803068448
uw,-82.5305252075195,-40.1062431335449,1.2690047443820593,-3.387242959107393,2803085115
uw,-82.938117980957,-39.6500701904296,1.307268821155586,-3.3079938482461824,2803101782
uw,-83.5275650024414,-39.2885665893554,1.3784172988273042,-3.239132461904408,2803118449
uw,-84.253173828125,-38.8436737060546,1.4833172219371575,-3.1966968434657996,2803135116
uw,-84.8553009033203,-38.172492980957,1.6179734124028795,-3.194791535570346,2803151783
uw,-85.4263458251953,-37.696174621582,1.77552773423168,-3.241179697152077,2803168450
uw,-86.042854309082,-37.7061347961425,1.9494300099265798,-3.333291954183389,2803185117
uw,-86.5601196289062,-38.0652618408203,2.1355538496645887,-3.4561378353651113,2803201784
uw,-86.9254608154296,-38.5116539001464,2.3311988388149056,-3.5834954531569294,2803218451
uw,-87.2921142578125,-39.0775642395019,2.5307497421362015,-3.6830857285820775,2803235118
uw,-87.6973419189453,-39.6826820373535,2.720291800405337,-3.7252410970833276,2803251785
uw,-88.1314620971679,-40.2377319335937,2.874939845317114,-3.693080527021738,2803268452
uw,-88.4838180541992,-40.7907791137695,2.961891334391013,-3.5909383983005707,2803285119
uw,-88.7653198242187,-41.3279418945312,2.9495696912454443,-3.447480804167978,2803301786
uw,-88.9988479614257,-42.0095787048339,2.8201115296249792,-3.3110898294284086,2803318453
uw,-89.1353225708007,-43.0741271972656,2.5804708022977776,-3.2376114787586077,2803335120
uw,-89.2162857055664,-44.352725982666,2.267447920951626,-3.273579415915368,2803351787
uw,-89.1858596801757,-45.5998153686523,1.9438210588856155,-3.4401695420766525,2803368454
uw,-89.0131225585937,-46.7751388549804,1.6856083751579551,-3.7232641698175604,2803385121
uw,-88.5011138916015,-48.8487358093261,1.5634448338615239,-4.072995972757081,2803401788
uw,-87.6277618408203,-50.6330375671386,1.623358838760958,-4.4130871691318605,2803418455
uw,-86.7954559326171,-50.9286308288574,1.8730357848025323,-4.657606480852507,2803435122
uw,-86.2977905273437,-51.0626564025878,2.278279572092787,-4.731011449190374,2803451789
uw,-86.0309600830078,-51.9928741455078,2.7710536461828696,-4.586485107513525,2803468456
uw,-85.6567916870117,-53.4595146179199,3.266530795544069,-4.218065166010264,2803485123
uw,-85.2405014038086,-54.7029228210449,3.683678452353968,-3.664190033593728,2803501790
uw,-84.7727737426757,-55.4546585083007,3.96309644192598,-3.002615245589491,2803518457
uw,-83.9503021240234,-56.015151977539,4.077176210350177,-2.3374310039401234,2803535124
uw,-82.4386672973632,-56.7044410705566,4.030549134706491,-1.7789333265418945,2803551791
uw,-80.1697769165039,-57.5372009277343,3.8522469269363584,-1.418766276200313,2803568458
uw,-77.5450363159179,-58.5428161621093,3.583708315383297,-1.3062060238348019,2803585125
uw,-75.0139541625976,-60.0285263061523,3.267494700077599,-1.4337307400682429,2803601792
uw,-73.2934341430664,-61.6659545898437,2.940059531964166,-1.7383352461791497,2803618459
uw,-71.7800369262695,-63.2557220458984,2.629272361201159,-2.1196679327240204,2803635126
uw,-69.5663452148437,-64.2577819824218,2.3552328120595516,-2.4695917385897834,2803651793
uw,-66.4338912963867,-65.2808074951171,2.1321172663065338,-2.702960994446062,2803668460
uw,-63.2641563415527,-65.9155197143554,1.9694249127560015,-2.7784376226122225,2803685127
uw,-60.000373840332,-66.4800338745117,1.872533226440913,-2.702270104696894,2803701794
uw,-57.1911506652832,-67.2771301269531,1.8437538985757584,-2.5156962650593395,2803718461
uw,-55.3725662231445,-68.3317260742187,1.8847354741722446,-2.273626298155237,2803735128
uw,-54.5607604980468,-69.2763519287109,1.999168659773517,-2.0246057987798136,2803751795
uw,-54.20161819458,-70.086685180664,2.193266963056274,-1.799452976997977,2803768462
uw,-53.3856468200683,-70.8786926269531,2.472230310716734,-1.610761157721609,2803785129
uw,-52.0613632202148,-71.7461776733398,2.8334800953861325,-1.4602403445605132,2803801796
uw,-50.3466262817382,-72.4498596191406,3.259811863460126,-1.3478205093421174,2803818463
uw,-48.0451393127441,-73.1757659912109,3.7161403305992957,-1.2770081374413362,2803835130
uw,-45.715181350708,-73.8425369262695,4.152154289838987,-1.2545735485114955,2803851797
uw,-43.9110927581787,-74.3911666870117,4.51079866010928,-1.2865179394299546,2803868464
uw,-42.8807163238525,-74.7712173461914,4.7400803462112195,-1.3738622049991147,2803885131
uw,-42.6745872497558,-75.1603775024414,4.804336996527154,-1.5107741290183136,2803901798
uw,-43.0410079956054,-75.6119842529296,4.691534285416336,-1.685449839839206,2803918465
uw,-43.5335807800292,-76.0544815063476,4.415048316532595,-1.8826549828252372,2803935132
uw,-44.2647171020507,-76.4462356567382,4.010523609024153,-2.086524703700315,2803951799
uw,-44.9372062683105,-76.7889328002929,3.5296498674850043,-2.282767971480332,2803968466
uw,-45.9633045196533,-77.1355285644531,3.0327936013862047,-2.4601431597293892,2803985133
uw,-47.2423686981201,-77.3775177001953,2.581793342702268,-2.6114440275910447,2804001800
uw,-47.7874183654785,-77.499755859375,2.23348678458107,-2.7341417950281306,2804018467
uw,-47.3513355255126,-77.54931640625,2.0340711478589295,-2.830555147299844,2804035134
uw,-46.2655696868896,-77.5067901611328,2.014274906621385,-2.9072875132386424,2804051801
uw,-44.8781375885009,-77.4242095947265,2.1853994004739996,-2.9737080908674165,2804068468
uw,-43.4933052062988,-77.3322982788086,2.536397243274337,-3.039362907830172,2804085135
uw,-42.4901981353759,-77.1919708251953,3.0322475878036466,-3.11049068776337,2804101802
uw,-41.9538040161132,-77.031997680664,3.6141213985789578,-3.1864384806834813,2804118469
uw,-42.2264328002929,-76.8359985351562,4.202323796988247,-3.2574528645994896,2804135136
uw,-42.9160709381103,-76.6182785034179,4.703478624255661,-3.305377080757534,2804151803
uw,-43.6019706726074,-76.4046020507812,5.023233478869168,-3.3078016227757927,2804168470
uw,-44.2054500579834,-76.1630020141601,5.084334447238244,-3.2446354665095622,2804185137
uw,-44.6094665527343,-75.8953247070312,4.847255610450478,-3.1048896535487636,2804201804
uw,-44.5169811248779,-75.662841796875,4.327646310429683,-2.891416789796316,2804218471
uw,-43.895580291748,-75.4155654907226,3.6034456477803163,-2.62233756806041,2804235138
uw,-43.2932243347167,-75.179328918457,2.8060655933121534,-2.329164413618538,2804251805
uw,-43.3092632293701,-75.0474319458007,2.094541651318964,-2.0524294964647805,2804268472
uw,-44.1740245819091,-75.0141906738281,1.6174756005414586,-1.8357052561880167,2804285139
uw,-45.7834529876709,-74.9721450805664,1.4728475659456497,-1.7186311175263167,2804301806
uw,-47.2531375885009,-74.7600708007812,1.6783753800502073,-1.7294719168686543,2804318473
uw,-48.1942958831787,-74.5776062011718,2.163471957187614,-1.878127288037252,2804335140
uw,-49.4338836669921,-74.4440612792968,2.7874987284169603,-2.1512379555253602,2804351807
uw,-51.5176582336425,-74.3343124389648,3.379634164670928,-2.511504706649243,2804368474
uw,-53.7959442138671,-74.2985763549804,3.7872706986376152,-2.9028441047361144,2804385141
uw,-55.4400215148925,-74.388427734375,3.9166995424335167,-3.2613335970781927,2804401808
uw,-56.457275390625,-74.6055526733398,3.753537211508624,-3.5296274592186254,2804418475
uw,-57.0920829772949,-74.7233657836914,3.358587325574554,-3.670727491750059,2804435142
uw,-57.724494934082,-74.7274093627929,2.843273080367593,-3.676678206443176,2804451809
uw,-58.5013275146484,-74.6394805908203,2.3341746163239145,-3.569345498510275,2804468476
uw,-59.3770866394043,-74.4586410522461,1.9377821209964405,-3.3933248662940625,2804485143
uw,-60.3327407836914,-74.0799407958984,1.7150278803775585,-3.2037231650106492,2804501810
uw,-61.2535820007324,-73.5456008911132,1.671437484267632,-3.0527299122299087,2804518477
uw,-62.0502548217773,-72.7098846435546,1.763894688397441,-2.9783564177355744,2804535144
uw,-62.8909606933593,-71.6082382202148,1.9203306417605064,-2.997311679285634,2804551811
uw,-64.0311393737793,-70.2013854980468,2.065329167955345,-3.102628485213095,2804568478
uw,-65.4666748046875,-68.5126571655273,2.14348120627961,-3.265772978879593,2804585145
uw,-66.9546852111816,-66.7855606079101,2.133635205596391,-3.442566816732049,2804601812
uw,-68.2903022766113,-65.3900527954101,2.0506210307732218,-3.5821337880455366,2804618479
uw,-69.2851753234863,-64.3335647583007,1.9353569299500946,-3.6379515924340335,2804635146
uw,-70.0613784790039,-63.2175254821777,1.8378016737600993,-3.5796396568388023,2804651813
uw,-70.986701965332,-61.9703140258789,1.7987633668205412,-3.403236455106318,2804668480
uw,-72.2512779235839,-60.6429634094238,1.8360059968265523,-3.1366815644442974,2804685147
uw,-73.7945861816406,-59.2485656738281,1.9382650938083235,-2.8369163828241013,2804701814
uw,-75.6286430358886,-57.6645774841308,2.0686845000735614,-2.5768977933477983,2804718481
uw,-76.8841285705566,-55.8432884216308,2.1769634900841313,-2.4252731443217765,2804735148
uw,-78.0597991943359,-54.8011474609375,2.2166963288693964,-2.42591765982191,2804751815
uw,-79.9427604675293,-53.8923530578613,2.1616973689074785,-2.5851659708172985,2804768482
uw,-81.1604614257812,-52.0451011657714,2.014899787901555,-2.87078392431428,2804785149
uw,-81.6355628967285,-50.1025505065918,1.8068972377333912,-3.2217347915248653,2804801816
uw,-81.8550071716308,-48.467601776123,1.5860699701313736,-3.5645366404734933,2804818483
uw,-82.2844696044921,-47.1936264038085,1.4050100250761501,-3.8309465200507704,2804835150
uw,-83.0906524658203,-46.2323341369628,1.3076827404776976,-3.9722537746165223,2804851817
uw,-83.9222259521484,-45.4153785705566,1.320076555198334,-3.967154333153358,2804868484
uw,-84.5136566162109,-44.5666694641113,1.445625934363057,-3.8224315956953365,2804885151
uw,-84.8687744140625,-43.5416030883789,1.665709965689552,-3.5677372570397585,2804901818
uw,-85.0569076538086,-42.4705200195312,1.9446516732210133,-3.2470790033875674,2804918485
uw,-85.30078125,-41.375877380371,2.2377993135238805,-2.909933797195431,2804935152
uw,-85.6338195800781,-40.2681274414062,2.500747784236204,-2.604218884806868,2804951819
uw,-85.9395599365234,-39.2857704162597,2.697742623466938,-2.3719346361845575,2804968486
uw,-86.1773529052734,-38.6814346313476,2.8076789599822645,-2.2467451568983194,2804985153
uw,-86.4304809570312,-38.3973655700683,2.8266285521660595,-2.2518737020637234,2805001820
uw,-86.7839736938476,-38.3635826110839,2.766445764890791,-2.396995802238793,2805018487
uw,-87.2391510009765,-38.4506187438964,2.64987127737379,-2.674186075239569,2805035154
uw,-87.6693344116211,-38.853588104248,2.5036706798060413,-3.054622083544697,2805051821
uw,-87.9101104736328,-39.6228103637695,2.3522193240056937,-3.488654665264007,2805068488
uw,-87.9440460205078,-40.3964309692382,2.213844508074528,-3.911393267638403,2805085155
uw,-87.8499069213867,-41.066795349121,2.10093128360748,-4.2542461737067,2805101822
uw,-87.7440643310546,-41.6944503784179,2.022926249683733,-4.460589518413295,2805118489
uw,-87.7106018066406,-42.3087158203125,1.9899760602612264,-4.501725701133135,2805135156
uw,-87.6688079833984,-42.900707244873,2.014697139462016,-4.388132760109919,2805151823
uw,-87.5879516601562,-43.6504325866699,2.110503421718235,-4.170980771320349,2805168490
uw,-87.2797317504882,-45.1507453918457,2.286570181767657,-3.9302601022082513,2805185157
uw,-86.5267486572265,-46.0792694091796,2.541257436258401,-3.7494218329180575,2805201824
uw,-85.4404296875,-44.9473495483398,2.856978082257276,-3.6826816106170925,2805218491
uw,-84.4446105957031,-43.6611404418945,3.1994964734559974,-3.72776302136712,2805235158
uw,-83.8388061523437,-44.4893417358398,3.523298503818996,-3.818452329471777,2805251825
uw,-83.4317474365234,-47.6510734558105,3.7823470421245906,-3.8443318201412526,2805268492
uw,-82.9507369995117,-50.2742347717285,3.9430203177725227,-3.692447012326935,2805285159
uw,-82.3028106689453,-51.2999839782714,3.994397597891909,-3.2948943263523067,2805301826
uw,-81.4542808532714,-51.2887535095214,3.9513433932062973,-2.663095355396093,2805318493
uw,-80.2971534729003,-51.6226387023925,3.848322764215581,-1.8946994586922714,2805335160
uw,-78.7550735473632,-52.6870384216308,3.7255561241616055,-1.1497199475555777,2805351827
uw,-77.038215637207,-54.1092491149902,3.6122891112181854,-0.604030154882122,2805368494
uw,-75.3201484680175,-55.4662971496582,3.5134030151700775,-0.3960960006619644,2805385161
uw,-73.6132888793945,-57.2176284790039,3.4050652828116976,-0.5841034491405511,2805401828
uw,-72.0005645751953,-59.5810737609863,3.2427162112513366,-1.1260851333211641,2805418495
uw,-70.2440299987793,-61.3598594665527,2.9804694574338924,-1.888344462967457,2805435162
uw,-68.1712493896484,-63.1506996154785,2.595708696961528,-2.680028090095495,2805451829
uw,-66.0446052551269,-64.9509048461914,2.108561695352463,-3.3047658743055064,2805468496
uw,-63.6130905151367,-66.2785873413086,1.5861121604554906,-3.614496985365783,2805485163
uw,-60.7152366638183,-66.6034088134765,1.12710699770036,-3.5483712446850393,2805501830
uw,-57.8710670471191,-67.0630798339843,0.8322311871216269,-3.1437369263197414,2805518497
uw,-55.0662155151367,-67.5935440063476,0.7724183708259724,-2.5166282704844636,2805535164
uw,-52.0552177429199,-68.3747787475586,0.968347156941698,-1.8213286040307888,2805551831
uw,-49.8133373260498,-69.4956665039062,1.3878304856891517,-1.205719095528629,2805568498
uw,-48.7101364135742,-70.666015625,1.958840570636359,-0.7774473140268822,2805585165
uw,-48.36106300354,-71.6723937988281,2.59024486231048,-0.587923951314124,2805601832
uw,-48.1229648590087,-72.4120254516601,3.1922473850380784,-0.6328534905274859,2805618499
uw,-47.5589866638183,-73.3038635253906,3.691867495467482,-0.8638627509495076,2805635166
uw,-46.6982288360595,-74.1846923828125,4.042007037141015,-1.2059555564436741,2805651833
uw,-46.0240497589111,-74.9603958129882,4.224092442011864,-1.5771015659715064,2805668500
uw,-45.4267539978027,-75.6348800659179,4.24468058794227,-1.9067249155536605,2805685167
uw,-43.8843383789062,-76.1994323730468,4.1272108147213915,-2.149353633414929,2805701834
uw,-42.0970516204834,-76.6126098632812,3.9016209987443102,-2.2901375871084824,2805718501
uw,-40.4918231964111,-76.9460983276367,3.5957769495399967,-2.3412982340398334,2805735168
uw,-39.3174514770507,-77.2831954956054,3.2321368351160777,-2.331724698829341,2805751835
uw,-38.7264175415039,-77.7145919799804,2.8304848335711346,-2.294020537524679,2805768502
uw,-38.7552165985107,-78.2476501464843,2.414415748387958,-2.2534614841695615,2805785169
uw,-39.2813034057617,-78.7397918701171,2.017482327040839,-2.221975556407508,2805801836
uw,-39.7959785461425,-79.1015701293945,1.6852047623370319,-2.1982933295371274,2805818503
uw,-40.1241207122802,-79.3934555053711,1.4708656157538273,-2.1734536772252557,2805835170
uw,-40.2235870361328,-79.660659790039,1.4252556840178705,-2.1392090772808574,2805851837
uw,-40.3771514892578,-79.8865280151367,1.5825800928322145,-2.095902431218478,2805868504
uw,-40.6156272888183,-80.0212936401367,1.9461238203611546,-2.056487370148943,2805885171
uw,-40.5332660675048,-80.0155868530273,2.4778883893075947,-2.0446680158538713,2805901838
uw,-39.9091644287109,-79.83251953125,3.0963074388417398,-2.0872996206897585,2805918505
uw,-38.966796875,-79.610107421875,3.68522819433419,-2.203516096006613,2805935172
uw,-37.9848175048828,-79.3895034790039,4.115242343469895,-2.3946854820697063,2805951839
uw,-37.1268825531005,-79.0000762939453,4.27487050744672,-2.6394831671561394,2805968506
uw,-36.8432292938232,-78.5034942626953,4.104540841353794,-2.8967912371871383,2805985173
uw,-37.7657623291015,-77.9705123901367,3.622568664457911,-3.1162059518766894,2806001840
uw,-39.676643371582,-77.5112915039062,2.9319634473985197,-3.2528362148819645,2806018507
uw,-41.6487026214599,-77.09765625,2.2013517927241932,-3.281242290705447,2806035174
uw,-43.2009925842285,-76.7986221313476,1.621749819150472,-3.203707469730644,2806051841
uw,-44.5716133117675,-76.5033493041992,1.350391159266331,-3.0503233268596763,2806068508
uw,-46.002212524414,-76.2043914794921,1.459580373764402,-2.8713341228159117,2806085175
uw,-47.9328880310058,-75.9084701538086,1.909436566854567,-2.7244271303890364,2806101842
uw,-50.4156913757324,-75.5718078613281,2.556943692022874,-2.660566717727981,2806118509
uw,-51.5770263671875,-75.1441268920898,3.2010695595930128,-2.711796649192206,2806135176
uw,-51.7927627563476,-74.7010192871093,3.649079949816735,-2.883614289819833,2806151843
uw,-53.0453033447265,-74.3493423461914,3.7790976216892394,-3.1532699941841615,2806168510
uw,-54.9664726257324,-74.2615127563476,3.574457661712574,-3.4738642814553025,2806185177
uw,-56.530776977539,-74.484992980957,3.117762669753365,-3.7828339778119733,2806201844
uw,-57.0817146301269,-74.8081512451171,2.550908804484983,-4.012826041323553,2806218511
uw,-56.5581016540527,-74.9746856689453,2.021604769391865,-4.103163071936344,2806235178
uw,-55.7127685546875,-75.0232772827148,1.6393723602514445,-4.010636592682358,2806251845
uw,-55.2098197937011,-74.7899627685546,1.4547075949387085,-3.7186048043159308,2806268512
uw,-55.1065139770507,-74.2237319946289,1.4611885301053962,-3.243217377012935,2806285179
uw,-55.4317779541015,-73.2634887695312,1.6107968816025804,-2.6354511846697877,2806301846
uw,-56.040428161621,-72.55126953125,1.8320681735746687,-1.9778055868394608,2806318513
uw,-56.8213539123535,-72.0242919921875,2.046329344347845,-1.3749011704185137,2806335180
uw,-57.8981704711914,-71.5192565917968,2.1826622727719602,-0.9378972583393994,2806351847
uw,-59.3730087280273,-70.9322357177734,2.192827496075473,-0.7639783312728515,2806368514
uw,-61.180606842041,-70.1321258544921,2.06406744274815,-0.9142290101696531,2806385181
uw,-63.2763137817382,-69.1798553466796,1.824778891776633,-1.3951643126821345,2806401848
uw,-65.3669166564941,-68.0925827026367,1.5387882653176082,-2.149742108616835,2806418515
uw,-67.0428428649902,-66.8407135009765,1.2881835516510363,-3.062220064266329,2806435182
uw,-68.4644775390625,-65.6525421142578,1.1495659556330347,-3.9779789741910565,2806451849
uw,-69.8790969848632,-64.7704620361328,1.1712742579638993,-4.7351718114116474,2806468516
uw,-71.2777023315429,-64.392951965332,1.3584526408158877,-5.200892753398168,2806485183
uw,-72.7499656677246,-64.2987289428711,1.66978819883389,-5.3020869055853375,2806501850
uw,-74.4318542480468,-63.7244987487793,2.0263862812832167,-5.04225807898832,2806518517
uw,-75.6014442443847,-62.542984008789,2.330813367281522,-4.49936900737096,2806535184
uw,-76.9175758361816,-60.313419342041,2.492529447771896,-3.8059990430583586,2806551851
uw,-78.3142662048339,-57.6227836608886,2.4541829013201046,-3.1171709566580885,2806568518
uw,-79.167194366455,-54.269432067871,2.2118885043380923,-2.5737878890414887,2806585185
uw,-79.6764106750488,-52.7007484436035,1.8225309571051211,-2.2709311079261827,2806601852
uw,-81.0552673339843,-52.7889976501464,1.393302455349937,-2.2393209391756908,2806618519
uw,-81.8696250915527,-52.9704055786132,1.0539305877107992,-2.443899222696013,2806635186
uw,-82.0789947509765,-51.8938331604003,0.9192820136741252,-2.797778854832355,2806651853
uw,-82.3411560058593,-50.2580947875976,1.0551091310705565,-3.18618707273179,2806668520
uw,-82.7185287475586,-49.0071105957031,1.4588278603425324,-3.4942940550741,2806685187
uw,-83.2559661865234,-48.1162757873535,2.0609252319769933,-3.6332636910349967,2806701854
uw,-83.8208312988281,-47.2740211486816,2.744846910577372,-3.5593613817463634,2806718521
uw,-84.2509536743164,-46.4117088317871,3.3776322058956443,-3.281986530911103,2806735188
uw,-84.4088668823242,-45.4163589477539,3.8417280925673647,-2.858883064385643,2806751855
uw,-84.2905807495117,-44.2080116271972,4.059989096306105,-2.380309671354965,2806768522
uw,-84.1814346313476,-43.0310935974121,4.0091701438732,-1.9471468224559336,2806785189
uw,-84.3213272094726,-42.2477989196777,3.720465270562187,-1.6490929682272122,2806801856
uw,-84.7266006469726,-42.0664939880371,3.268225229955219,-1.5478026297682559,2806818523
uw,-85.3151931762695,-42.1203231811523,2.750245566383825,-1.6672124193087343,2806835190
uw,-85.9626770019531,-42.1210708618164,2.264959123347868,-1.9910970369902976,2806851857
uw,-86.4533615112304,-42.3121261596679,1.8916214564978513,-2.466945732659403,2806868524
uw,-86.6279525756836,-42.7280883789062,1.6782831594764267,-3.015198091032865,2806885191
uw,-86.5263748168945,-43.1608276367187,1.639258449423162,-3.5429181643297287,2806901858
uw,-86.4208374023437,-43.6335334777832,1.7603453233299138,-3.960606488992025,2806918525
uw,-86.5043869018554,-44.0420341491699,2.0078882952634776,-4.199954779318228,2806935192
uw,-86.7055282592773,-44.4225997924804,2.3377953522496147,-4.229161455951382,2806951859
uw,-86.8336791992187,-44.931827545166,2.7024614108119476,-4.06159235739187,2806968526
uw,-86.7938537597656,-45.5877075195312,3.0558112019426504,-3.7540486089998915,2806985193
uw,-86.6045150756836,-46.2156600952148,3.3578242052677556,-3.3932834653602,2807001860
uw,-86.3968353271484,-46.8492851257324,3.5793232975155402,-3.0732348586094553,2807018527
uw,-86.2727584838867,-47.54976272583,3.7061928430833877,-2.869256294984426,2807035194
uw,-86.1325073242187,-48.4803199768066,3.7410121769466502,-2.8176426852594987,2807051861
uw,-85.8984298706054,-49.5375099182128,3.7004905547987037,-2.9075886834306295,2807068528
uw,-85.5254592895507,-50.4583435058593,3.6090018171569214,-3.0882269261035216,2807085195
uw,-85.0256271362304,-51.6919403076171,3.4907004071856442,-3.287312566430021,2807101862
uw,-84.3783645629882,-53.1158447265625,3.36367894268271,-3.433708043894879,2807118529
uw,-83.6267852783203,-53.4063148498535,3.238695922766312,-3.4756835547911034,2807135196
uw,-82.9063491821289,-53.2112960815429,3.122600864154785,-3.3907136818547112,2807151863
uw,-82.1934280395507,-53.8062591552734,3.0240277523583523,-3.186755843701276,2807168530
uw,-81.2208824157714,-55.0313262939453,2.957650269614445,-2.8973732799906746,2807185197
uw,-79.945327758789,-55.9884490966796,2.943918047237993,-2.57348903965374,2807201864
uw,-78.6374015808105,-56.4570770263671,3.0032296933819715,-2.273939473372016,2807218531
uw,-77.4201583862304,-56.7639808654785,3.1459985653877798,-2.0556811387707254,2807235198
uw,-76.1366844177246,-57.2598838806152,3.36230144459524,-1.9633347401211751,2807251865
uw,-74.5591621398925,-58.1443481445312,3.6160887001981843,-2.0183643758850884,2807268532
uw,-72.6523780822753,-59.3925590515136,3.8483427847137084,-2.2107221649015703,2807285199
uw,-70.6020393371582,-60.745620727539,3.990483549790867,-2.497661476036338,2807301866
uw,-68.8904075622558,-61.7328491210937,3.9845187551670946,-2.812795146058741,2807318533
uw,-67.7531661987304,-62.6957626342773,3.802424465017727,-3.083544387832789,2807335200
uw,-66.525291442871,-63.5741729736328,3.456859899599414,-3.2504075005247417,2807351867
uw,-64.9872093200683,-64.2975845336914,2.999266248949365,-3.2806230805477465,2807368534
uw,-62.9017791748046,-64.9408416748046,2.5071045563017296,-3.1722005819322545,2807385201
uw,-60.6778526306152,-65.8232955932617,2.065811156056282,-2.9490659235493246,2807401868
uw,-58.9785385131835,-66.806037902832,1.7514231092323103,-2.651126203763566,2807418535
uw,-58.135570526123,-67.7322006225586,1.6178186972106656,-2.323494117754642,2807435202
uw,-57.7487678527832,-68.6041030883789,1.6900285190709614,-2.007860902427181,2807451869
uw,-57.2953300476074,-69.4673538208007,1.9632498545641117,-1.7372293757591855,2807468536
uw,-56.3533973693847,-70.311897277832,2.406236703212243,-1.5336685326398363,2807485203
uw,-54.9382629394531,-70.9514465332031,2.967452995534583,-1.4080222487372192,2807501870
uw,-53.0902519226074,-71.7779769897461,3.5825397689677443,-1.3608360414142002,2807518537
uw,-51.1245613098144,-72.5222778320312,4.181978355829595,-1.38450804020551,2807535204
uw,-48.9933910369873,-73.0145034790039,4.698155792719316,-1.466763231788648,2807551871
uw,-46.4854125976562,-73.5730285644531,5.071435952991927,-1.594763493533777,2807568538
uw,-44.2506999969482,-74.157600402832,5.25533230108363,-1.7583479473047496,2807585205
uw,-42.6417598724365,-74.5866394042968,5.221141465988354,-1.950975235458936,2807601872
uw,-42.0340862274169,-74.910415649414,4.962092170284857,-2.168036168134432,2807618539
uw,-42.2844314575195,-75.2621002197265,4.4963435700183965,-2.4036264415520527,2807635206
uw,-43.2106647491455,-75.6187744140625,3.867615296383971,-2.6476982833204965,2807651873
uw,-44.0828819274902,-75.9492874145507,3.142327202442941,-2.885298279216763,2807668540
uw,-44.5703544616699,-76.2284164428711,2.402867202353526,-3.0985889927499333,2807685207
uw,-44.5911026000976,-76.365119934082,1.7375865038585117,-3.2711223212463065,2807701874
uw,-44.0188484191894,-76.3801574707031,1.2288754316663841,-3.392830939348461,2807718541
uw,-42.979097366333,-76.3518753051757,0.941000852413539,-3.4636502570779384,2807735208
uw,-42.0006351470947,-76.2792205810546,0.9094516633028459,-3.4938197732720893,2807751875
uw,-41.2585334777832,-76.1782455444336,1.133611276585796,-3.5000513090932617,2807768542
uw,-40.5898609161376,-76.1101303100586,1.5746913311974615,-3.4987205321658537,2807785209
uw,-40.4002952575683,-76.0743179321289,2.160699678219087,-3.4989421161303262,2807801876
uw,-41.1108341217041,-76.0335311889648,2.7992004626190665,-3.4985525656638137,2807818543
uw,-42.4051933288574,-75.9793701171875,3.3963388394622362,-3.4845601788676444,2807835210
uw,-43.8829727172851,-75.897964477539,3.877516762352485,-3.4377460296473563,2807851877
uw,-45.4067440032959,-75.7538986206054,4.202865671763107,-3.339909745694365,2807868544
uw,-47.0176181793212,-75.5752944946289,4.371248406540115,-3.1817472513834937,2807885211
uw,-48.8080463409423,-75.4795913696289,4.410678857369711,-2.969088553624292,2807901878
uw,-50.9537506103515,-75.4736175537109,4.359255093382906,-2.7252981286736793,2807918545
uw,-53.0555801391601,-75.4368591308593,4.245720491805328,-2.488463282044896,2807935212
uw,-53.7238616943359,-75.2778015136718,4.079445676370358,-2.3035568542818416,2807951879
uw,-52.6614112854003,-74.9684143066406,3.8547980648195024,-2.2114876686497347,2807968546
uw,-52.3363533020019,-74.6822814941406,3.5665786369927366,-2.238157054635386,2807985213
uw,-53.6841087341308,-74.4757003784179,3.226416234609772,-2.386843744929477,2808001880
uw,-55.7148132324218,-74.2094421386718,2.869567820603831,-2.636246672429855,2808018547
uw,-57.4683570861816,-73.9982757568359,2.5479172394125427,-2.9445917583234005,2808035214
uw,-59.3234786987304,-73.9387130737304,2.3133216032462336,-3.2582207915103827,2808051881
uw,-61.0624237060546,-73.6000289916992,2.2001233616520914,-3.5220285930103246,2808068548
uw,-61.1513481140136,-72.7462005615234,2.2145967676864577,-3.689309867633213,2808085215
uw,-59.6120719909668,-71.5235137939453,2.334398455251928,-3.7294558200968773,2808101882
uw,-58.0633201599121,-70.2369689941406,2.5162372122648415,-3.6327382323782444,2808118549
uw,-57.6899223327636,-69.1402893066406,2.7074415714341313,-3.4118419262267565,2808135216
uw,-58.8683891296386,-68.3291397094726,2.857408651651676,-3.1000630596177805,2808151883
uw,-61.2122116088867,-67.363410949707,2.926833182036632,-2.746463559276999,2808168550
uw,-64.217658996582,-65.9131317138671,2.8942397588359365,-2.4087193764934596,2808185217
uw,-67.0533180236816,-64.0505752563476,2.759635868258207,-2.14460052018081,2808201884
uw,-69.0835075378418,-62.35152053833,2.5445966911107254,-2.0029073050993675,2808218551
uw,-70.2783279418945,-60.833080291748,2.288006229009649,-2.014723109316171,2808235218
uw,-71.0123214721679,-59.2533531188964,2.037564953712904,-2.186395140263626,2808251885
uw,-71.8861007690429,-57.7944717407226,1.838611086435201,-2.496264586262095,2808268552
uw,-73.0707855224609,-56.4457855224609,1.7230512168491798,-2.896926396895745,2808285219
uw,-74.359447479248,-55.0875205993652,1.7016513817597176,-3.3233948444304775,2808301886
uw,-75.6617469787597,-53.6012229919433,1.7622062097550504,-3.705627409449278,2808318553
uw,-76.7283859252929,-52.0427551269531,1.8742500285774197,-3.982392843877295,2808335220
uw,-77.396629333496,-50.3218383789062,1.998721534344244,-4.113050767665669,2808351887
uw,-77.9905433654785,-48.6876144409179,2.099297868066219,-4.084471130323705,2808368554
uw,-78.7483253479003,-47.3628387451171,2.1515881891772892,-3.9117433160489106,2808385221
uw,-79.5482711791992,-46.1763916015625,2.147241283398673,-3.633033462141213,2808401888
uw,-80.2851257324218,-44.9189186096191,2.0921746418929876,-3.3003942199439997,2808418555
uw,-80.8661460876464,-43.8032417297363,2.0007958176631426,-2.969033468157051,2808435222
uw,-81.2584381103515,-42.7281036376953,1.8897672089342794,-2.687385802964024,2808451889
uw,-81.6387519836425,-41.6038551330566,1.7743994492471846,-2.489645399397946,2808468556
uw,-82.0744705200195,-40.4757995605468,1.6684828028081973,-2.391689607200786,2808485223
uw,-82.4846725463867,-39.415225982666,1.585951544360498,-2.3907412671842025,2808501890
uw,-82.948860168457,-38.4375228881835,1.5418342140175922,-2.4685667444523327,2808518557
uw,-83.5544357299804,-37.6277313232421,1.55081278032413,-2.59738546803685,2808535224
uw,-84.1832122802734,-36.9809112548828,1.6235098649922517,-2.7471054442577114,2808551891
uw,-84.6113662719726,-36.5833587646484,1.7622001795363371,-2.8922438078374237,2808568558
uw,-85.02392578125,-36.4394607543945,1.9582702098814815,-3.017066877164967,2808585225
uw,-85.4610519409179,-36.4972763061523,2.1931085582880674,-3.117997144407337,2808601892
uw,-85.9276046752929,-36.6268119812011,2.4423635389830083,-3.202979205863545,2808618559
uw,-86.3764266967773,-36.6597061157226,2.6815849210088336,-3.2881285302267287,2808635226
uw,-86.6627578735351,-36.6186714172363,2.8904912092291446,-3.392551387436558,2808651893
uw,-86.7433853149414,-36.6824722290039,3.054132727061582,-3.5326152786585285,2808668560
uw,-86.7508773803711,-36.8953704833984,3.1614196639528327,-3.716969941396062,2808685227
uw,-86.7874755859375,-37.124942779541,3.2033353201543737,-3.943203345023489,2808701894
uw,-86.9200897216796,-37.2909278869628,3.173359969997079,-4.196438511567636,2808718561
uw,-87.2138900756836,-37.3883552551269,3.071042617127468,-4.449857797546307,2808735228
uw,-87.6273651123046,-37.5105094909668,2.9073435721124476,-4.667197156623354,2808751895
uw,-87.9413223266601,-37.7889595031738,2.7088117492773836,-4.807404694941425,2808768562
uw,-88.0273208618164,-38.5353202819824,2.5176918210991857,-4.831633447893454,2808785229
uw,-88.0141448974609,-39.6993026733398,2.38637866488798,-4.71245885041847,2808801896
uw,-88.0163879394531,-40.7332763671875,2.3663947745858263,-4.444531573218069,2808818563
uw,-87.9651565551757,-41.3675575256347,2.4938217842831243,-4.0545424724424555,2808835230
uw,-87.6571960449218,-41.7560234069824,2.774904230109606,-3.606430181855147,2808851897
uw,-86.8881149291992,-43.500144958496,3.176986517468629,-3.1961085455513274,2808868564
uw,-85.5757904052734,-45.1723442077636,3.6298475485774646,-2.930892914145095,2808885231
uw,-84.1438064575195,-43.7977218627929,4.0397157770602306,-2.8947865154557317,2808901898
uw,-83.1241226196289,-41.4770126342773,4.313123379257354,-3.110775485570826,2808918565
uw,-82.6574096679687,-42.136661529541,4.38273618893016,-3.518402328443316,2808935232
uw,-82.4324951171875,-46.2657203674316,4.225634359975654,-3.981736652794724,2808951899
uw,-82.2512283325195,-49.5969886779785,3.867666547403942,-4.329544800771791,2808968566
uw,-82.1687850952148,-50.7126884460449,3.3736370928783304,-4.413899113542292,2808985233
uw,-82.0028381347656,-50.4921073913574,2.8285562333552616,-4.164242520273936,2809001900
uw,-81.2037010192871,-50.8584861755371,2.3173469617267206,-3.614992153880868,2809018567
uw,-79.6191673278808,-51.8706626892089,1.9090776959396276,-2.8952933782479398,2809035234
uw,-77.3923187255859,-52.8092346191406,1.6485692922245312,-2.185066196147287,2809051901
uw,-74.8754005432128,-53.9525070190429,1.555027815885158,-1.6551278428434832,2809068568
uw,-72.2132568359375,-55.5300483703613,1.6254065623211695,-1.4145205099760194,2809085235
uw,-69.6963386535644,-57.2812118530273,1.8397190556352867,-1.4831255236968572,2809101902
uw,-67.2766189575195,-59.041877746582,2.1660601159661894,-1.7957586929680314,2809118569
uw,-64.6448936462402,-60.4154205322265,2.5641179286538507,-2.231723434581423,2809135236
uw,-62.1657028198242,-61.7457160949707,2.9871513698269836,-2.6563486191752337,2809151903
uw,-59.5250587463378,-62.8389434814453,3.383557655945755,-2.9598172964137692,2809168570
uw,-56.877643585205,-63.7275924682617,3.699944113479289,-3.0823505162297726,2809185237
uw,-54.0587196350097,-64.5852127075195,3.887458193896446,-3.0212411814305065,2809201904
uw,-51.6243324279785,-65.4399032592773,3.911568924894994,-2.8216115127150623,2809218571
uw,-50.4079246520996,-66.1735076904296,3.762999994785602,-2.5567862328594133,2809235238
uw,-50.2607917785644,-67.0590133666992,3.465527520790262,-2.3052631225443694,2809251905
uw,-50.8949699401855,-67.8811874389648,3.076242627122139,-2.1303571717776224,2809268572
uw,-51.7062110900878,-68.6764221191406,2.6759857956257846,-2.0666704627684376,2809285239
uw,-51.9380760192871,-69.3965454101562,2.351244286673386,-2.1152837445749144,2809301906
uw,-51.3246307373046,-70.2139053344726,2.172401252200591,-2.247631759043801,2809318573
uw,-50.158145904541,-70.9181060791015,2.175145996594356,-2.4165287943427565,2809335240
uw,-48.755666732788,-71.5268325805664,2.351069302332004,-2.5713411910646142,2809351907
uw,-47.3470764160156,-72.1591720581054,2.6503686188882476,-2.6729929652554896,2809368574
uw,-46.4855461120605,-72.6487426757812,2.995654489434222,-2.704276609631895,2809385241
uw,-46.3776340484619,-73.0745162963867,3.302549405533533,-2.6724454696886206,2809401908
uw,-45.791202545166,-73.5286712646484,3.5009970053805786,-2.603786796089807,2809418575
uw,-44.7295875549316,-73.9011535644531,3.5514049876317206,-2.53261821691256,2809435242
uw,-44.3463916778564,-74.2252960205078,3.4518279504394886,-2.4888642588306102,2809451909
uw,-44.2446346282959,-74.4891586303711,3.2354097574196947,-2.4885341709067537,2809468576
uw,-43.6578502655029,-74.7223663330078,2.959964846405465,-2.5300502881134173,2809485243
uw,-42.732494354248,-74.8469619750976,2.6931914138474506,-2.5970293228009043,2809501910
uw,-41.6572494506835,-74.786994934082,2.4975147799281685,-2.6658068819351763,2809518577
uw,-40.812105178833,-74.5426330566406,2.417987156892112,-2.7146728910181115,2809535244
uw,-40.2108097076416,-74.2168426513671,2.475196991309391,-2.731785048302558,2809551911
uw,-39.7634487152099,-73.8902816772461,2.6634117454965556,-2.719684859873112,2809568578
uw,-39.5089225769042,-73.5108032226562,2.9530064649469927,-2.6955978921138115,2809585245
uw,-39.4377899169921,-73.1170425415039,3.295971832377743,-2.6877354992932996,2809601912
uw,-39.7805404663085,-72.7398605346679,3.6336432809090993,-2.7284558620299713,2809618579
uw,-40.4477767944335,-72.432144165039,3.9061132746909806,-2.8455677990639856,2809635246
uw,-41.380666732788,-72.0901260375976,4.062664168286103,-3.053548994414833,2809651913
uw,-42.2240486145019,-71.7142791748046,4.072105974609299,-3.346933731110555,2809668580
uw,-42.9142513275146,-71.2832260131836,3.931473926068248,-3.698091080604522,2809685247
uw,-43.271556854248,-70.7926483154296,3.671135274349358,-4.060626371566793,2809701914
uw,-42.9166774749755,-70.2840881347656,3.353740556831116,-4.3779117777427885,2809718581
uw,-42.5621585845947,-69.8526153564453,3.064105654180323,-4.594602087086852,2809735248
uw,-42.723684310913,-69.5339736938476,2.8886621067473413,-4.6682163536078285,2809751915
