Label,Left_Hip_q,Right_Hip_q,Left_Hip_qd,Right_Hip_qd,SampleTimeFine
usq,-63.4501228332519,-59.0886650085449,0.0,0.0,2964688347
usq,-63.0826568603515,-58.9178085327148,2.1275932646751294,-4.8994302114579815,2964705014
usq,-62.7502059936523,-58.6325569152832,2.2003902354888925,-4.690621218600509,2964721681
usq,-62.428409576416,-58.2107925415039,2.3609342106095514,-4.576508029428817,2964738348
usq,-62.0421867370605,-57.5868263244628,2.636241130935514,-4.609627291535812,2964755015
usq,-61.5822296142578,-56.7979736328125,3.0032810097669222,-4.814653764977095,2964771682
usq,-61.1148719787597,-55.9558181762695,3.3854422739874632,-5.182593409114974,2964788349
usq,-60.6582679748535,-54.7507247924804,3.6659750677165177,-5.669228669147509,2964805016
usq,-60.1197433471679,-52.7962303161621,3.7175574697533182,-6.19747675488833,2964821683
usq,-59.4505462646484,-50.6651954650878,3.442281916456616,-6.664336963571031,2964838350
usq,-58.809341430664,-48.9631462097168,2.8117741758765415,-6.954979159022743,2964855017
usq,-58.256248474121,-49.3050422668457,1.8944272902153367,-6.9667840912561445,2964871684
usq,-57.7841300964355,-50.5980758666992,0.8577247589909864,-6.641942052194255,2964888351
usq,-57.408218383789,-51.6804695129394,-0.0605094261515446,-5.99892882608327,2964905018
usq,-57.0419616699218,-51.7951698303222,-0.6083020351897487,-5.146501777295951,2964921685
usq,-56.2744445800781,-50.7831382751464,-0.5891942950258588,-4.266037416659054,2964938352
usq,-55.1319885253906,-49.9058227539062,0.07512240918740914,-3.5609215180999465,2964955019
usq,-53.6639022827148,-49.1280708312988,1.309538071949894,-3.189281308759539,2964971686
usq,-51.8025169372558,-48.7565002441406,2.8911115360031183,-3.2083027491319256,2964988353
usq,-50.0469589233398,-48.5094108581543,4.497666155474146,-3.555910185938647,2965005020
usq,-48.8734664916992,-49.0075149536132,5.788569305165377,-4.077828804853297,2965021687
usq,-47.8147621154785,-49.5506172180175,6.495577547767191,-4.585482201648677,2965038354
usq,-46.6803283691406,-49.6356163024902,6.496308786292008,-4.91790801413118,2965055021
usq,-45.8805885314941,-49.3304405212402,5.847018654710828,-4.985187308824833,2965071688
usq,-45.2461395263671,-48.9370155334472,4.764290695571683,-4.784456935510581,2965088355
usq,-44.7290229797363,-48.462059020996,3.5618670655299716,-4.390952150810301,2965105022
usq,-44.0724143981933,-47.782356262207,2.562690472459643,-3.9310928656250126,2965121689
usq,-43.3323554992675,-47.0696640014648,2.012786736356988,-3.5451764146629516,2965138356
usq,-42.4043083190918,-46.4754219055175,2.0214902409066964,-3.347623184893134,2965155023
usq,-40.8616981506347,-46.177879333496,2.543157588410224,-3.3938592446815545,2965171690
usq,-39.2730140686035,-46.1683959960937,3.4023945223960133,-3.663272549019718,2965188357
usq,-38.4953498840332,-46.0125465393066,4.352156023735317,-4.065082408731858,2965205024
usq,-38.5745735168457,-45.705467224121,5.145577721285473,-4.46737468180258,2965221691
usq,-38.7545204162597,-45.1874198913574,5.600350868286312,-4.740609518255124,2965238358
usq,-38.1488494873046,-44.7498550415039,5.639010088501066,-4.799996053138731,2965255025
usq,-37.3973808288574,-44.3126831054687,5.297324749894366,-4.6308155581866846,2965271692
usq,-37.1926307678222,-43.7121772766113,4.702371080222313,-4.288071128158578,2965288359
usq,-37.1631469726562,-42.943130493164,4.029107413925547,-3.8728954053383724,2965305026
usq,-37.1613388061523,-42.0047225952148,3.448676386635055,-3.496882344088772,2965321693
usq,-37.0143737792968,-41.1506881713867,3.083045982048102,-3.2478895089179742,2965338360
usq,-36.837718963623,-40.2288131713867,2.978177633413411,-3.167334153894327,2965355027
usq,-36.2892951965332,-39.2708473205566,3.101567119630289,-3.2433921090911397,2965371694
usq,-35.1824531555175,-38.4410896301269,3.361893545011774,-3.420172179914363,2965388361
usq,-33.9400215148925,-37.5571212768554,3.642068154434258,-3.6199154192675853,2965405028
usq,-32.8295097351074,-36.4706077575683,3.8344518606314177,-3.771725052212814,2965421695
usq,-32.1039199829101,-35.2404861450195,3.868295795352798,-3.8367017025823555,2965438362
usq,-31.6383724212646,-33.4552268981933,3.7229744550261956,-3.8192494481869286,2965455029
usq,-30.8129444122314,-31.1853561401367,3.425006192431871,-3.7601150289812804,2965471696
usq,-29.4284687042236,-30.2904167175292,3.0317578776827143,-3.715497765286138,2965488363
usq,-28.053050994873,-29.8143901824951,2.6093161374820877,-3.73235832900226,2965505030
usq,-26.720869064331,-28.9220943450927,2.214052181123223,-3.8298692471587596,2965521697
usq,-25.1332206726074,-27.8427448272705,1.884775356035511,-3.992752451634608,2965538364
usq,-24.0110206604003,-26.2341728210449,1.6457416962698854,-4.177465597533523,2965555031
usq,-23.0544815063476,-24.7523117065429,1.5141440752582087,-4.328366271046394,2965571698
usq,-21.7774848937988,-23.9621849060058,1.5037167525319957,-4.398003049394772,2965588365
usq,-19.3496437072753,-23.059341430664,1.6203308265516716,-4.363880344207978,2965605032
usq,-16.168399810791,-21.6460380554199,1.8526830178420934,-4.2349395075041185,2965621699
usq,-14.0912237167358,-19.7338256835937,2.1656418031043705,-4.045540669437726,2965638366
usq,-13.1830196380615,-18.4188041687011,2.5023484403367124,-3.8410032746917704,2965655033
usq,-11.6655864715576,-17.846773147583,2.7958993940520207,-3.662597418980568,2965671700
usq,-8.83245658874511,-17.4694957733154,2.986848586814709,-3.538442071410661,2965688367
usq,-5.97915172576904,-16.6785564422607,3.040795413974538,-3.4814440856221327,2965705034
usq,-5.11474418640136,-15.0851955413818,2.9598795400436604,-3.490880526068648,2965721701
usq,-5.74186706542968,-13.3720083236694,2.782740351335677,-3.554145139938491,2965738368
usq,-5.91089820861816,-12.8036804199218,2.5710649101829564,-3.6485020802312675,2965755035
usq,-4.3243441581726,-12.3818349838256,2.3873277536396373,-3.7450409138745395,2965771702
usq,-1.85106778144836,-11.3563356399536,2.2737987632539043,-3.815854799369127,2965788369
usq,-0.194139629602432,-10.5480298995971,2.2426146139528775,-3.842460356041441,2965805036
usq,-0.0063484478741884,-10.0358066558837,2.2801578643854703,-3.8217802864389236,2965821703
usq,-0.3842354118824,-9.47408390045166,2.3607406696847306,-3.7668252653330727,2965838370
usq,-0.44741415977478,-8.60547256469726,2.4604137564398747,-3.7017084639444624,2965855037
usq,0.491595655679702,-7.69531059265136,2.564033240879732,-3.653409087814326,2965871704
usq,2.15760922431945,-7.50282955169677,2.66505530296783,-3.6443492019212904,2965888371
usq,3.63184976577758,-7.55353355407714,2.7627455160593626,-3.689166081299208,2965905038
usq,3.9692804813385,-7.33244228363037,2.861804777842329,-3.796133945885295,2965921705
usq,3.64928603172302,-7.09281206130981,2.975214154062646,-3.9703954153312426,2965938372
usq,3.69548296928405,-6.92761611938476,3.126319047145345,-4.214852590572455,2965955039
usq,4.14553833007812,-6.97373151779174,3.3448409191783592,-4.5261714558544215,2965971706
usq,4.27068567276001,-7.26883840560913,3.6545728815933862,-4.886832437340956,2965988373
usq,4.04061985015869,-7.75753164291381,4.055654760601829,-5.257347940272477,2966005040
usq,3.90535616874694,-8.19897079467773,4.508338780298604,-5.573757066362992,2966021707
usq,3.84141016006469,-8.71797370910644,4.926283336884689,-5.753856708063236,2966038374
usq,3.78842210769653,-9.17030048370361,5.185586190669272,-5.712467940429101,2966055041
usq,3.65969777107238,-9.45475673675537,5.151479745629441,-5.382863695242141,2966071708
usq,2.95966148376464,-11.4130392074584,4.7183190599904625,-4.739077281948151,2966088375
usq,1.38710725307464,-14.4487142562866,3.851537694732222,-3.8124854053949364,2966105042
usq,-1.22606372833251,-16.7929496765136,2.615699776253448,-2.6962946945037936,2966121709
usq,-4.0450758934021,-18.6760311126709,1.1742057475170429,-1.5337585675290013,2966138376
usq,-8.26177310943603,-19.2460670471191,-0.24499416019450648,-0.49017946081333125,2966155043
usq,-13.1799058914184,-18.8267765045166,-1.4096715928105912,0.2851299013582222,2966171710
usq,-17.3219032287597,-20.6831531524658,-2.1490614141186772,0.6945602797123576,2966188377
usq,-18.8654308319091,-23.8972873687744,-2.39999538000764,0.7117142967479685,2966205044
usq,-17.9606666564941,-25.2023906707763,-2.2151595893876976,0.3775373666150375,2966221711
usq,-16.0214252471923,-25.7078456878662,-1.7307530035537226,-0.22256122778116386,2966238378
usq,-13.9830808639526,-26.8009948730468,-1.107864940385874,-0.9879519394029268,2966255045
usq,-13.2487125396728,-28.5311088562011,-0.4726480826727255,-1.8255762373333715,2966271712
usq,-14.0948801040649,-30.9514217376709,0.11996704434417133,-2.659734832468568,2966288379
usq,-16.53560256958,-34.098949432373,0.6855297655000422,-3.4300642846748377,2966305046
usq,-20.454002380371,-36.974796295166,1.275698578665941,-4.083941389746035,2966321713
usq,-24.3715553283691,-39.344497680664,1.9282497356033645,-4.57041259275115,2966338380
usq,-27.5549888610839,-41.9530181884765,2.6253553470819337,-4.840420012352436,2966355047
usq,-30.8708324432373,-44.334716796875,3.2791287871663304,-4.854646929236328,2966371714
usq,-34.4311332702636,-46.1212692260742,3.7508210022128576,-4.5972793149354505,2966388381
usq,-37.9548034667968,-48.0683326721191,3.8960606579452537,-4.091746911385493,2966405048
usq,-41.5259590148925,-50.1434478759765,3.619026412492202,-3.4127677519037753,2966421715
usq,-44.3640518188476,-50.9172096252441,2.916017571275407,-2.687976310160292,2966438382
usq,-45.7157287597656,-51.196979522705,1.8931759029381015,-2.083397343124206,2966455049
usq,-46.8586845397949,-52.0329818725585,0.7520551116424637,-1.7714276333041328,2966471716
usq,-48.1520233154296,-52.992748260498,-0.25302085689974513,-1.887181292113001,2966488383
usq,-49.7852516174316,-54.2852783203125,-0.8740194102816556,-2.4857520265623605,2966505050
usq,-51.5850944519043,-55.5028266906738,-0.929457019195684,-3.515197946599704,2966521717
usq,-53.1338691711425,-56.2221221923828,-0.3512820857525906,-4.816083729768843,2966538384
usq,-53.504825592041,-56.3444366455078,0.7928238129381189,-6.149826092193177,2966555051
usq,-52.8378944396972,-56.428913116455,2.3079045128164912,-7.24890657626575,2966571718
usq,-51.8269691467285,-56.2341156005859,3.9109282779053265,-7.876277122247766,2966588385
usq,-52.1178092956543,-56.5751838684082,5.29382986914141,-7.88037582475443,2966605052
usq,-53.9677696228027,-57.1278572082519,6.196961940870086,-7.234112605651699,2966621719
usq,-58.0057563781738,-57.5152130126953,6.4749223449031925,-6.048366965459329,2966638386
usq,-64.1019287109375,-57.1467742919921,6.135909107034144,-4.553341840343774,2966655053
usq,-68.5269241333007,-59.3143119812011,5.340416206750792,-3.0475588783215417,2966671720
usq,-70.9844284057617,-60.084674835205,4.35580987354688,-1.8252858450153209,2966688387
usq,-68.8901290893554,-62.1185035705566,3.4778183822841107,-1.1038917807947253,2966705054
usq,-61.4305114746093,-63.0940780639648,2.9424278938507826,-0.9749021909913708,2966721721
usq,-55.4419860839843,-62.8631629943847,2.8561358854236487,-1.3927875110284522,2966738388
usq,-52.9642601013183,-62.9582138061523,3.167202743063721,-2.1997475278530207,2966755055
usq,-49.7707977294921,-63.2499923706054,3.6874640446575433,-3.173353671089793,2966771722
usq,-47.4295997619628,-63.3924331665039,4.156999298465251,-4.081445438740993,2966788389
usq,-42.2388877868652,-63.3365364074707,4.328687518213862,-4.731590539643538,2966805056
usq,-29.306562423706,-63.5177345275878,4.0437930926766805,-5.006197767039299,2966821723
usq,-17.1615753173828,-63.7021903991699,3.275596010022471,-4.878349092739449,2966838390
usq,-10.2663116455078,-64.1293258666992,2.131323189929147,-4.40793974672016,2966855057
usq,-7.55498695373535,-63.9804458618164,0.8167704208794544,-3.7212165330644713,2966871724
usq,-4.53739738464355,-65.4738693237304,-0.4218032228287518,-2.978049918953571,2966888391
usq,-0.43739914894104,-66.1794738769531,-1.3598958137765742,-2.332094245553797,2966905058
usq,3.41552352905273,-66.4999771118164,-1.8441892832690832,-1.8920935397819134,2966921725
usq,4.32431745529174,-69.1217041015625,-1.81795550664265,-1.6967233994212094,2966938392
usq,3.96115207672119,-72.2982788085937,-1.3191678683857897,-1.7148821098406228,2966955059
usq,4.27573537826538,-75.4971771240234,-0.45600029740547543,-1.8744489535030824,2966971726
usq,2.28913831710815,-79.6956939697265,0.6305238628050251,-2.1085913236265883,2966988393
usq,-1.23365712165832,-81.2740173339843,1.8055637303123657,-2.3976528930350347,2967005060
usq,-6.03985929489135,-69.6607360839843,2.970144772828783,-2.7830586663585355,2967021727
usq,-14.5153455734252,-59.8688697814941,4.071430473143605,-3.340740238996725,2967038394
usq,-27.85396194458,-49.5503807067871,5.0888929479886515,-4.1237030915476085,2967055061
usq,-43.2488632202148,-41.1249504089355,6.003737245671321,-5.105624037130275,2967071728
usq,-55.9176216125488,-33.8690719604492,6.770978143738778,-6.161947875803061,2967088395
usq,-65.2868576049804,-27.5101642608642,7.314079392615692,-7.103786377613399,2967105062
usq,-66.9792175292968,-24.9034748077392,7.548073616064269,-7.747744030554235,2967121729
usq,-58.5569458007812,-25.5928707122802,7.4186863052633365,-7.985928652252128,2967138396
usq,-42.3008613586425,-24.6636142730712,6.935257498915586,-7.824352462551769,2967155063
usq,-22.8217124938964,-22.2732505798339,6.179535903878899,-7.375962620518517,2967171730
usq,-7.13546085357666,-19.8084774017334,5.286411538445249,-6.814376355151153,2967188397
usq,-0.43204191327095,-19.1067733764648,4.406503225567625,-6.308694841580405,2967205064
usq,-2.94507145881652,-20.7045040130615,3.666122339061726,-5.964971166499361,2967221731
usq,-4.65246248245239,-23.121690750122,3.137402250493296,-5.7953185008713275,2967238398
usq,-3.2834312915802,-24.5314311981201,2.8260284154797946,-5.723957188396052,2967255065
usq,2.53482675552368,-26.1217784881591,2.679276276173868,-5.625564667171606,2967271732
usq,4.15495061874389,-27.8199100494384,2.6114355004493404,-5.37999891288801,2967288399
usq,3.63929438591003,-26.8045215606689,2.5368684920803344,-4.922393573580684,2967305066
usq,2.77397775650024,-24.9957256317138,2.3973136201219067,-4.270245280440357,2967321733
usq,1.54711925983428,-24.2030582427978,2.1736430425326128,-3.5184373202810764,2967338400
usq,0.161371231079101,-24.1555919647216,1.8810366706946087,-2.8058081300973385,2967355067
usq,-0.283770740032196,-24.2363834381103,1.5542313814664122,-2.2677223895044305,2967371734
usq,-0.522518396377563,-24.075963973999,1.231963154500417,-1.9933080704261574,2967388401
usq,-1.11872637271881,-24.7095966339111,0.9470208540679289,-2.0021230615662957,2967405068
usq,-1.99905383586883,-25.3302955627441,0.7231467074310105,-2.2457171975970587,2967421735
usq,-3.49500966072082,-25.6825809478759,0.5757402961950164,-2.6296481687617197,2967438402
usq,-5.33098459243774,-25.9181976318359,0.512288662344327,-3.0451788000202202,2967455069
usq,-6.56679821014404,-26.2538471221923,0.5305247628990072,-3.3989097049741397,2967471736
usq,-7.31982564926147,-26.8580017089843,0.6154614522243286,-3.632033354699503,2967488403
usq,-7.6210331916809,-27.5868606567382,0.7384914981752245,-3.726254762861918,2967505070
usq,-7.98066043853759,-28.2682266235351,0.8614923369334742,-3.69827872532839,2967521737
usq,-8.50293731689453,-28.8079662322998,0.946379361090844,-3.587589549032838,2967538404
usq,-9.32713222503662,-29.2218952178955,0.9671373705922565,-3.442644759556954,2967555071
usq,-10.2105922698974,-29.6053466796875,0.9191100880105031,-3.3091965257798863,2967571738
usq,-11.2651233673095,-30.0667552947998,0.820863721552008,-3.222443136607935,2967588405
usq,-12.3242921829223,-30.6292057037353,0.707254355827098,-3.2031079210701914,2967605072
usq,-13.173900604248,-31.2360401153564,0.6166348476543123,-3.2566982635942163,2967621739
usq,-13.4052352905273,-31.9088878631591,0.5779482398059546,-3.3750099919134144,2967638406
usq,-13.4109706878662,-32.6884765625,0.6031644330686372,-3.53917456629246,2967655073
usq,-14.0320396423339,-33.4557151794433,0.6873941889427969,-3.723832328683966,2967671740
usq,-15.0586681365966,-34.1907997131347,0.814994779036451,-3.9019859977960336,2967688407
usq,-16.3705215454101,-35.1067886352539,0.9674070408737998,-4.0497650134019505,2967705074
usq,-18.0120792388916,-36.2684593200683,1.1285400801805432,-4.1501345345881235,2967721741
usq,-19.612771987915,-37.4631729125976,1.2856948936415566,-4.194825677366497,2967738408
usq,-20.6321334838867,-38.5515747070312,1.4268215503827317,-4.184326802747749,2967755075
usq,-21.0497035980224,-39.6470947265625,1.537064298608546,-4.126306872012478,2967771742
usq,-21.1114654541015,-40.6488494873046,1.5981913080069199,-4.033096073066397,2967788409
usq,-21.1655960083007,-41.5872001647949,1.5931108215712693,-3.9188361221034937,2967805076
usq,-21.5477485656738,-42.584716796875,1.5146186184766772,-3.796823162745203,2967821743
usq,-22.0918788909912,-43.6738662719726,1.3743966479305234,-3.677573465685826,2967838410
usq,-22.3658199310302,-45.083755493164,1.207071274061185,-3.568249026685668,2967855077
usq,-22.1870326995849,-46.5984420776367,1.0657948872602576,-3.474068698385795,2967871744
usq,-21.6810684204101,-47.8222694396972,1.0095381707859212,-3.4018045938933876,2967888411
usq,-21.0631046295166,-49.1442642211914,1.086087711404179,-3.3641638857065868,2967905078
usq,-20.4942760467529,-50.693920135498,1.3167943252321774,-3.3822449050517402,2967921745
usq,-20.0401897430419,-51.881664276123,1.6886565422162567,-3.482690489834931,2967938412
usq,-19.5831985473632,-52.8448677062988,2.15666454469171,-3.6879776935617485,2967955079
usq,-19.2392082214355,-53.5733947753906,2.6554711237182773,-4.0022961691318235,2967971746
usq,-19.0853881835937,-53.8914680480957,3.115923693424334,-4.399442528650462,2967988413
usq,-19.0512256622314,-54.3948516845703,3.4804674077911137,-4.820189400947614,2968005080
usq,-18.9256210327148,-55.1773605346679,3.712731892401318,-5.183308694769802,2968021747
usq,-18.7316818237304,-56.0235862731933,3.7998522495475333,-5.408070486547829,2968038414
usq,-18.6397495269775,-56.9075965881347,3.749186615274163,-5.439810544379377,2968055081
usq,-18.8543548583984,-57.0642318725585,3.582477403924726,-5.2676836425589,2968071748
usq,-19.2803554534912,-56.5120849609375,3.330075864306412,-4.926920002981881,2968088415
usq,-19.8150920867919,-55.8884658813476,3.0265685689888437,-4.485199844576201,2968105082
usq,-20.65523147583,-55.6797447204589,2.707899976250235,-4.019709224579198,2968121749
usq,-21.818338394165,-55.8587760925293,2.4092498973804006,-3.594161180634342,2968138416
usq,-23.0918922424316,-56.1186637878418,2.162640803271559,-3.2432230773004127,2968155083
usq,-24.3858699798584,-56.0226020812988,1.9936236466659882,-2.9680050670223346,2968171750
usq,-25.7138557434082,-55.4952430725097,1.9172927797003045,-2.7429893976873543,2968188417
usq,-27.1207733154296,-54.9264450073242,1.9348202425697563,-2.5322625773664673,2968205084
usq,-28.4662933349609,-54.7023811340332,2.032095373680523,-2.3102212347799354,2968221751
usq,-29.7605724334716,-54.9631423950195,2.1816363582800955,-2.07933535215879,2968238418
usq,-31.0789146423339,-55.4256019592285,2.3478884869878693,-1.8770642286270467,2968255085
usq,-32.4564361572265,-55.9246139526367,2.494811149317149,-1.7672881267054725,2968271752
usq,-33.8900756835937,-56.340892791748,2.593793162188622,-1.8179007675197432,2968288419
usq,-35.3723068237304,-56.7342109680175,2.6297841256691044,-2.0725510099943136,2968305086
usq,-36.7805023193359,-57.3296852111816,2.6041525400700785,-2.527697724748426,2968321753
usq,-38.101951599121,-58.3059921264648,2.5338644157145236,-3.1245421428082,2968338420
usq,-39.320327758789,-59.2572135925293,2.4475489091319065,-3.7597920184833162,2968355087
usq,-40.4030265808105,-59.690143585205,2.3794485323744166,-4.312126948565364,2968371754
usq,-41.3529968261718,-59.9285240173339,2.362198890619737,-4.67554111744222,2968388421
usq,-42.0776405334472,-60.2838172912597,2.419300765124762,-4.788435210431938,2968405088
usq,-42.7125968933105,-60.7433242797851,2.5584002296716304,-4.649099051045014,2968421755
usq,-43.681037902832,-61.0017318725585,2.7669343033457183,-4.3133289871331195,2968438422
usq,-45.2497787475585,-60.9889602661132,3.0117563748804304,-3.876252575128418,2968455089
usq,-47.2034759521484,-61.0153923034668,3.2436301082213164,-3.445328726265225,2968471756
usq,-49.0713462829589,-61.3230438232421,3.406227581879444,-3.1131983453126204,2968488423
usq,-50.6667900085449,-61.7395095825195,3.4481082942935797,-2.9376024900452697,2968505090
usq,-51.9460067749023,-62.0581855773925,3.3354307973976964,-2.9323133396495256,2968521757
usq,-52.9400939941406,-62.2393531799316,3.0627797495630595,-3.0695174190505012,2968538424
usq,-53.8028182983398,-62.3849945068359,2.6593904893326266,-3.291414794918907,2968555091
usq,-54.7971000671386,-62.4013671875,2.1884154617310436,-3.5273161937211253,2968571758
usq,-55.9595870971679,-62.3548927307128,1.7379891244035957,-3.712049742182068,2968588425
usq,-56.8679695129394,-62.2677192687988,1.4046783485663428,-3.8016673899880336,2968605092
usq,-57.8454399108886,-62.0395774841308,1.271977616941442,-3.783090904846609,2968621759
usq,-59.0920372009277,-61.6289405822753,1.3882524608734406,-3.6755464091768806,2968638426
usq,-59.5757713317871,-61.0063552856445,1.7496525940588188,-3.5234959126615037,2968655093
usq,-58.6616668701171,-60.2957763671875,2.2937262765790605,-3.3830118889295915,2968671760
usq,-56.9070930480957,-59.4968223571777,2.9079586921077953,-3.30543263482613,2968688427
usq,-55.4760589599609,-58.6271286010742,3.453409285249862,-3.322895877049051,2968705094
usq,-55.1551437377929,-57.7601432800293,3.7978843211196676,-3.4396614835041306,2968721761
usq,-55.4307899475097,-56.9033813476562,3.848654317921402,-3.631317561450289,2968738428
usq,-55.6978721618652,-55.9835014343261,3.5745624067650206,-3.851713809971052,2968755095
usq,-55.6281623840332,-54.9310035705566,3.0116876651268534,-4.045505224472105,2968771762
usq,-54.960693359375,-53.9623413085937,2.252891494900356,-4.162979456632491,2968788429
usq,-53.8342971801757,-53.15869140625,1.4263600198676778,-4.173474015282711,2968805096
usq,-52.6306266784668,-52.2469596862793,0.6699770247969635,-4.074072354152283,2968821763
usq,-51.5676002502441,-51.1366806030273,0.10731107693625201,-3.8913415483116727,2968838430
usq,-50.727912902832,-49.9437217712402,-0.17137048760817064,-3.6755047318658427,2968855097
usq,-49.7171745300293,-48.7549171447753,-0.12171812762182724,-3.4882241141665067,2968871764
usq,-48.0950851440429,-47.4649200439453,0.24899878645818013,-3.3866359141657107,2968888431
usq,-45.6946678161621,-45.9022369384765,0.8838250026351141,-3.4072797825213286,2968905098
usq,-42.6869430541992,-44.2095336914062,1.6861697608554296,-3.554155287109715,2968921765
usq,-39.7403488159179,-42.7148284912109,2.536808384672312,-3.795002708107928,2968938432
usq,-37.2734642028808,-41.6577110290527,3.3142874489032184,-4.0683132255327275,2968955099
usq,-35.7074508666992,-40.7275772094726,3.9139088747132784,-4.300265883205106,2968971766
usq,-34.9316520690918,-39.538516998291,4.2614557821907235,-4.426800722555092,2968988433
usq,-34.4681243896484,-38.2677268981933,4.320409964034086,-4.413312158377689,2969005100
usq,-33.7414016723632,-37.07075881958,4.093659606753473,-4.264585384758021,2969021767
usq,-32.4288864135742,-35.5382385253906,3.6211644860245698,-4.020938998243446,2969038434
usq,-30.4631366729736,-33.8873252868652,2.9741241718421767,-3.7419685747021694,2969055101
usq,-28.1912460327148,-31.4759101867675,2.2454848307716593,-3.4845200423742675,2969071768
usq,-26.0823612213134,-29.8211555480957,1.5371014644361194,-3.2839426361363593,2969088435
usq,-24.6580696105957,-29.5488662719726,0.9450962478632728,-3.145876826199458,2969105102
usq,-24.0064792633056,-29.1662845611572,0.5458723955816012,-3.0507883091037407,2969121769
usq,-23.547700881958,-28.2120361328125,0.38527865172550324,-2.9679485207603924,2969138436
usq,-22.7060317993164,-26.9388885498046,0.4727116730447651,-2.8722560272746165,2969155103
usq,-21.2004318237304,-25.5777397155761,0.7809605416162941,-2.7571294732368683,2969171770
usq,-19.1386413574218,-24.1628360748291,1.2516873807301243,-2.6388739149317066,2969188437
usq,-16.8758831024169,-22.8061962127685,1.8056671813866656,-2.5511316348991953,2969205104
usq,-14.6067571640014,-21.510269165039,2.3561942778974925,-2.531418943996376,2969221771
usq,-12.5235605239868,-20.5222568511962,2.823380764744606,-2.604666485138513,2969238438
usq,-10.6277017593383,-20.0294342041015,3.1466139276660248,-2.7701648453223475,2969255105
usq,-8.99793434143066,-19.7055130004882,3.292594907741939,-2.9974175566671364,2969271772
usq,-7.61232709884643,-19.2458992004394,3.257443790287244,-3.233067314554728,2969288439
usq,-6.41097688674926,-18.5224666595459,3.0631160410807423,-3.4165918149875862,2969305106
usq,-5.25447607040405,-17.5647983551025,2.7500616997367615,-3.4989457583235795,2969321773
usq,-4.10190343856811,-16.5768184661865,2.368817921093016,-3.457387512458506,2969338440
usq,-2.97893929481506,-15.7360219955444,1.972713154389677,-3.3015993824193943,2969355107
usq,-1.95409190654754,-15.040165901184,1.6124749308003137,-3.069721638081032,2969371774
usq,-1.08311259746551,-14.5227584838867,1.3321564701622102,-2.816405515805505,2969388441
usq,-0.504082858562469,-14.1431016921997,1.1652425026333215,-2.597251521169114,2969405108
usq,-0.165471285581588,-13.8368949890136,1.1303213467771902,-2.454610102272629,2969421775
usq,0.202799201011657,-13.5519933700561,1.2269450756754443,-2.408770772460956,2969438442
usq,0.768238961696624,-13.3179063796997,1.4334881696345225,-2.4564431269906977,2969455109
usq,1.34667527675628,-13.2023696899414,1.7091385078585601,-2.575859368599699,2969471776
usq,1.65813946723937,-13.215196609497,2.0011076626563633,-2.7357809693970916,2969488443
usq,1.61947810649871,-13.3387413024902,2.2559802738032046,-2.904958988074248,2969505110
usq,1.3897498846054,-13.5902109146118,2.431929359256576,-3.059252657769891,2969521777
usq,1.45197033882141,-14.0581674575805,2.5076484209609418,-3.185017752056233,2969538444
usq,2.11816024780273,-14.5268478393554,2.4849792928441774,-3.278767217499054,2969555111
usq,2.91833400726318,-14.6234350204467,2.3848575209406087,-3.3440915978141086,2969571778
usq,3.13234996795654,-14.4309692382812,2.2388965069894757,-3.3873686420060625,2969588445
usq,2.51030850410461,-14.4022636413574,2.0801690012902676,-3.4139135467189274,2969605112
usq,1.51645648479461,-14.8791007995605,1.9360517658482443,-3.425892175180759,2969621779
usq,0.788852512836456,-15.799482345581,1.8242739019299763,-3.422565372927621,2969638446
usq,0.401556402444839,-16.7980518341064,1.7518912481626991,-3.4024678188042325,2969655113
usq,0.0531777292490005,-17.5179023742675,1.7164001289895208,-3.366332044932697,2969671780
usq,-0.624195516109466,-17.8642578125,1.7082784651456224,-3.319303737636,2969688447
usq,-1.60399878025054,-18.0822849273681,1.7143604923747648,-3.271369089272106,2969705114
usq,-2.74340271949768,-18.4952125549316,1.7214307931371944,-3.235723282505557,2969721781
usq,-3.78811693191528,-19.2097110748291,1.7193798919595793,-3.225648758862372,2969738448
usq,-4.70836162567138,-20.1458683013916,1.7033087404257294,-3.2509771277663777,2969755115
usq,-5.53540086746215,-21.1080493927001,1.674132860921532,-3.315249535881953,2969771782
usq,-6.41070842742919,-21.9868049621582,1.637560732298942,-3.41437890871645,2969788449
usq,-7.32489728927612,-22.8566265106201,1.6018061353677704,-3.5371440585711453,2969805116
usq,-8.22644615173339,-23.8299293518066,1.5748460371012447,-3.667358676310131,2969821783
usq,-9.20670318603515,-24.9333686828613,1.5621579474586014,-3.787168094278463,2969838450
usq,-10.2264900207519,-26.128339767456,1.5655797509181724,-3.8807042008736,2969855117
usq,-11.3358430862426,-27.417573928833,1.583453839969567,-3.9372725804095783,2969871784
usq,-12.6865425109863,-28.7197170257568,1.61181291699873,-3.9533314903009433,2969888451
usq,-14.2492570877075,-30.0311088562011,1.6461103826204977,-3.9327730530700475,2969905118
usq,-15.8699722290039,-31.2751903533935,1.6828552602064812,-3.8854415085224328,2969921785
usq,-17.6444988250732,-32.4211463928222,1.7205212748532301,-3.824315748665176,2969938452
usq,-19.4283199310302,-33.5655555725097,1.7593648803856592,-3.7621717983127128,2969955119
usq,-21.0687465667724,-34.7886962890625,1.8002831973612836,-3.7087004608687506,2969971786
usq,-22.4469604492187,-36.0989418029785,1.8433193215402874,-3.6689258017588515,2969988453
usq,-23.7984256744384,-37.3055152893066,1.8865586728264017,-3.6433420667010648,2970005120
usq,-25.3289127349853,-38.522705078125,1.9258849508799816,-3.6295537990055506,2970021787
usq,-27.0175762176513,-39.8425407409668,1.955672758457324,-3.6245956467572467,2970038454
usq,-28.878791809082,-41.1707954406738,1.970308400303581,-3.6268131001639765,2970055121
usq,-30.8575115203857,-42.4410820007324,1.966373713191884,-3.636417468083813,2970071788
usq,-32.6847801208496,-43.6438789367675,1.9450426664974636,-3.654579486817618,2970088455
usq,-34.1573371887207,-44.728530883789,1.9136854081332588,-3.6818393081330885,2970105122
usq,-35.3162841796875,-45.8994750976562,1.885380831356875,-3.717074204049118,2970121789
usq,-36.5188484191894,-47.22412109375,1.875604568586005,-3.757853796002628,2970138456
usq,-37.9328231811523,-48.5666046142578,1.8967502788136652,-3.801953223340661,2970155123
usq,-39.6591606140136,-49.7867851257324,1.9525823098827133,-3.8488891411993693,2970171790
usq,-41.5075912475585,-50.9051971435546,2.0352536774523458,-3.9002764089054525,2970188457
usq,-43.2515563964843,-52.0581474304199,2.126707410347429,-3.958547956540738,2970205124
usq,-44.8556938171386,-53.2128143310546,2.204441406565495,-4.024564777052852,2970221791
usq,-46.3184623718261,-54.389835357666,2.249634220977797,-4.095342839619409,2970238458
usq,-47.919994354248,-55.6483840942382,2.2544481721463696,-4.16327775617264,2970255125
usq,-49.7750854492187,-56.7820663452148,2.2255137649002488,-4.217719191972829,2970271792
usq,-51.5660934448242,-57.7061233520507,2.182088178060004,-4.248619230585278,2970288459
usq,-53.0949745178222,-58.3607025146484,2.1494937126809885,-4.2507813848778335,2970305126
usq,-54.4545822143554,-58.8523254394531,2.150224494108337,-4.2267119461616955,2970321793
usq,-55.8905372619628,-59.300495147705,2.195837707339639,-4.1866009309390915,2970338460
usq,-57.3441162109375,-59.7347450256347,2.282292080259701,-4.14527315061481,2970355127
usq,-58.4722251892089,-60.1320648193359,2.3901680393877465,-4.1173603807625865,2970371794
usq,-59.2304992675781,-60.466812133789,2.4897366714169893,-4.1127332614491525,2970388461
usq,-59.8041038513183,-60.8046264648437,2.5494706685687127,-4.134018188431915,2970405128
usq,-60.3985977172851,-61.0628700256347,2.5454989850620633,-4.176990958388174,2970421795
usq,-61.0158004760742,-61.1682243347168,2.4690155836691674,-4.233368287299129,2970438462
usq,-61.6846771240234,-61.1651153564453,2.329166211543369,-4.294574871884841,2970455129
usq,-62.3715515136718,-61.162857055664,2.150496671518213,-4.354774049922141,2970471796
usq,-62.8442077636718,-61.2156524658203,1.9660531664410867,-4.411921538085032,2970488463
usq,-63.048412322998,-61.2964286804199,1.8087460512937878,-4.466643297045736,2970505130
usq,-63.2502174377441,-61.3764686584472,1.703923874145032,-4.519817684034799,2970521797
usq,-63.5104751586914,-61.4289855957031,1.6651776438938948,-4.570294456491006,2970538464
usq,-63.8395462036132,-61.434341430664,1.6937874908935386,-4.614003143315877,2970555131
usq,-64.1606292724609,-61.3798904418945,1.7808238637208058,-4.644975371337071,2970571798
usq,-64.4120483398437,-61.2861671447753,1.9103452601385222,-4.657884169706219,2970588465
usq,-64.567398071289,-61.1973686218261,2.0624183158539253,-4.650964798892084,2970605132
usq,-64.6646423339843,-61.1283149719238,2.215421552676909,-4.627953720646562,2970621799
usq,-64.8918075561523,-61.0698089599609,2.3478329236847526,-4.598092293108851,2970638466
usq,-65.1777725219726,-61.0270309448242,2.440126668668166,-4.5740769735959255,2970655133
usq,-65.4110717773437,-61.0013961791992,2.4773095922263724,-4.568650574604466,2970671800
usq,-65.4871673583984,-60.9871063232421,2.451981213329539,-4.59094943245517,2970688467
usq,-65.4149856567382,-60.9656600952148,2.3669450777171717,-4.643669834513194,2970705134
usq,-65.2482833862304,-60.934154510498,2.2359697189984393,-4.72175654617283,2970721801
usq,-65.1411361694336,-60.9002227783203,2.0817397472693995,-4.812871254313082,2970738468
usq,-65.0960693359375,-60.8564682006835,1.931164956742607,-4.899521988252575,2970755135
usq,-65.0137557983398,-60.8114547729492,1.8093681340429937,-4.962466823446216,2970771802
usq,-64.843521118164,-60.7773056030273,1.734234894540618,-4.98479580427608,2970788469
usq,-64.6162948608398,-60.7690620422363,1.7131582722048488,-4.955887753767009,2970805136
usq,-64.3993988037109,-60.7653465270996,1.7427339686971732,-4.874291994407497,2970821803
usq,-64.2554321289062,-60.7497253417968,1.8110968910537508,-4.748672839626433,2970838470
usq,-64.2263565063476,-60.7375793457031,1.9018075243587793,-4.59638859203821,2970855137
usq,-64.2070007324218,-60.7427635192871,1.9979824741473997,-4.439955804702542,2970871804
usq,-64.0698852539062,-60.7482719421386,2.0856775304324686,-4.302310217997269,2970888471
usq,-63.8461303710937,-60.7340698242187,2.1560515245299166,-4.202150132120017,2970905138
usq,-63.653335571289,-60.6957855224609,2.2062017542422714,-4.150583723462553,2970921805
usq,-63.5190849304199,-60.6573333740234,2.2386674750300473,-4.149822535193781,2970938472
usq,-63.463809967041,-60.6241111755371,2.2596725334135153,-4.193975983718589,2970955139
usq,-63.5316047668457,-60.610122680664,2.276452253720738,-4.271407520240841,2970971806
usq,-63.6864204406738,-60.6099395751953,2.2943895281905204,-4.367825340452728,2970988473
usq,-63.810073852539,-60.6025810241699,2.314859738575806,-4.4692949905023385,2971005140
usq,-63.7200660705566,-60.556053161621,2.334494841190143,-4.564529195909645,2971021807
usq,-63.6201744079589,-60.4943046569824,2.3461206776809576,-4.6460332633952826,2971038474
usq,-63.6474609375,-60.4318885803222,2.3410647582215147,-4.709987357933585,2971055141
usq,-63.6912193298339,-60.3738059997558,2.312047262370114,-4.755145115536235,2971071808
usq,-63.657112121582,-60.3223991394043,2.2556878181699562,-4.7813822006560835,2971088475
usq,-63.5108642578125,-60.2696189880371,2.173913869660381,-4.788614281535107,2971105142
usq,-63.3842048645019,-60.1733665466308,2.074058814881764,-4.776539411363915,2971121809
usq,-63.3570823669433,-60.0472412109375,1.9678278796387212,-4.745208651001087,2971138476
usq,-63.4360122680664,-59.939109802246,1.8693994008660082,-4.696058111241803,2971155143
usq,-63.5752868652343,-59.8685073852539,1.7928621869986707,-4.632901381018264,2971171810
usq,-63.6309852600097,-59.8169746398925,1.7492620553550775,-4.562453168549928,2971188477
usq,-63.585838317871,-59.7717704772949,1.7438511024545575,-4.4941132238968375,2971205144
usq,-63.4511528015136,-59.7483253479003,1.774449163530894,-4.438911047493722,2971221811
usq,-63.2507553100585,-59.7507820129394,1.831731057775212,-4.407698605739213,2971238478
usq,-63.0922698974609,-59.7514991760253,1.9015958934365749,-4.408887703195836,2971255145
usq,-63.0006256103515,-59.7047805786132,1.9688693615605204,-4.446229114154484,2971271812
usq,-62.955451965332,-59.6213302612304,2.021001205243062,-4.51726297867391,2971288479
usq,-62.922435760498,-59.5502700805664,2.0505194687977326,-4.6130486412156095,2971305146
usq,-62.9072227478027,-59.5212898254394,2.055679121950805,-4.719511004575987,2971321813
usq,-62.9355697631835,-59.517723083496,2.0395152094582305,-4.820224643246814,2971338480
usq,-63.0018234252929,-59.507080078125,2.0079492963674572,-4.899910693594421,2971355147
usq,-63.043888092041,-59.4695701599121,1.967648889987136,-4.947661910273204,2971371814
usq,-63.0562934875488,-59.4467697143554,1.9242352590985847,-4.95907310052283,2971388481
usq,-63.1502075195312,-59.460765838623,1.8813166130507244,-4.936861956515678,2971405148
usq,-63.3125,-59.5130310058593,1.8405767889578621,-4.889941377552622,2971421815
usq,-63.5251502990722,-59.5604515075683,1.8026854401119141,-4.831155358449688,2971438482
usq,-63.7412872314453,-59.5721740722656,1.7683525375058127,-4.774126076613575,2971455149
usq,-63.8663597106933,-59.5524139404296,1.7388238789273447,-4.729953737936417,2971471816
usq,-63.920181274414,-59.5312042236328,1.7155979457606183,-4.704719442037687,2971488483
usq,-64.0058898925781,-59.5297660827636,1.69975989081131,-4.6986076885903,2971505150
usq,-64.1763305664062,-59.5609169006347,1.6915550422902357,-4.7069015614599286,2971521817
usq,-64.3831787109375,-59.6124153137207,1.690487785450423,-4.7223472058658675,2971538484
usq,-64.5630493164062,-59.6757469177246,1.6956805035901572,-4.73785695843718,2971555151
usq,-64.6834487915039,-59.7313995361328,1.706000027144742,-4.748519662459199,2971571818
usq,-64.7567062377929,-59.764175415039,1.7197615652909084,-4.7523696842330345,2971588485
usq,-64.8392333984375,-59.7739028930664,1.7343482597277462,-4.749997960677624,2971605152
usq,-64.9504318237304,-59.7877464294433,1.7463354345370077,-4.743503223817001,2971621819
usq,-65.0661849975586,-59.8238639831543,1.7524371201354048,-4.735338073827474,2971638486
usq,-65.1750564575195,-59.8605499267578,1.7510009323208193,-4.727425939333511,2971655153
usq,-65.2747497558593,-59.8798065185546,1.743308647964112,-4.720718524981506,2971671820
usq,-65.3365097045898,-59.8799476623535,1.733907486758903,-4.7152260152219325,2971688487
usq,-65.3408279418945,-59.8856086730957,1.7296055719412724,-4.71044578397722,2971705154
usq,-65.3429260253906,-59.9114685058593,1.73738817846417,-4.705984315693272,2971721821
usq,-65.3719329833984,-59.9517822265625,1.7620334946574017,-4.702046761533944,2971738488
usq,-65.4413299560546,-60.0000038146972,1.8043494042425903,-4.6994780695157345,2971755155
usq,-65.518798828125,-60.0471115112304,1.8606452354968173,-4.69926098923521,2971771822
usq,-65.5396423339843,-60.0921630859375,1.9235159434407636,-4.701726156183493,2971788489
usq,-65.5441741943359,-60.1147079467773,1.9835860946690558,-4.7059730461228115,2971805156
usq,-65.5749588012695,-60.1375198364257,2.031690352704311,-4.709931400418297,2971821823
usq,-65.6273956298828,-60.1733169555664,2.060953283587631,-4.711119903369658,2971838490
usq,-65.7193145751953,-60.2282524108886,2.0682473793041467,-4.7077250311592165,2971855157
usq,-65.827392578125,-60.2875328063964,2.0546166513102384,-4.699425992729143,2971871824
usq,-65.9137725830078,-60.3382682800293,2.0245858680926854,-4.68755327882247,2971888491
usq,-65.9625930786132,-60.3827056884765,1.984750884919536,-4.674549377995664,2971905158
usq,-66.0219955444336,-60.4249954223632,1.9423371817357762,-4.66303557886118,2971921825
usq,-66.1045761108398,-60.4713745117187,1.9042496051633773,-4.654903383125777,2971938492
usq,-66.1691131591796,-60.5277366638183,1.876618858424301,-4.650753377593214,2971955159
usq,-66.1929779052734,-60.5887870788574,1.8644274692160019,-4.649817166420406,2971971826
usq,-66.1997833251953,-60.6341247558593,1.8708354636687898,-4.650320956643958,2971988493
usq,-66.1674423217773,-60.6713562011718,1.8962467464241732,-4.650126628993279,2972005160
usq,-66.125015258789,-60.7124862670898,1.9375778502963474,-4.647432462793072,2972021827
usq,-66.1287384033203,-60.7561264038085,1.9883061913125515,-4.641324984043671,2972038494
usq,-66.1461486816406,-60.80562210083,2.0396233907494588,-4.63201396729109,2972055161
usq,-66.1407699584961,-60.8611602783203,2.0825283979768954,-4.6206405861817474,2972071828
usq,-66.1011199951171,-60.9140510559082,2.110213882326739,-4.608662101239579,2972088495
usq,-65.9881362915039,-60.9621353149414,2.1199028229564565,-4.5970028225930335,2972105162
usq,-65.9084777832031,-61.0143280029296,2.1135091856621875,-4.58532516406679,2972121829
usq,-65.922981262207,-61.0670700073242,2.09698323417356,-4.571774173100847,2972138496
usq,-65.9763641357421,-61.1037063598632,2.0786451038324265,-4.55336355614425,2972155163
usq,-65.9681549072265,-61.1491050720214,2.0670132921268007,-4.526925590701796,2972171830
usq,-65.8630676269531,-61.2097854614257,2.068656216114286,-4.49035699644788,2972188497
usq,-65.7740936279296,-61.2704925537109,2.0865635131305926,-4.443778177316444,2972205164
usq,-65.7596740722656,-61.32808303833,2.119435500083959,-4.390190755109083,2972221831
usq,-65.7869644165039,-61.3706588745117,2.162042681914218,-4.335318688837359,2972238498
usq,-65.811767578125,-61.3948211669921,2.2064674013945544,-4.286564663969123,2972255165
usq,-65.8104934692382,-61.4038734436035,2.243802823968779,-4.251306495344166,2972271832
usq,-65.7262344360351,-61.4220123291015,2.2658930077040185,-4.2349604068756745,2972288499
usq,-65.6220626831054,-61.438003540039,2.266885815822637,-4.239307322152474,2972305166
usq,-65.5730819702148,-61.4039611816406,2.2445083236183514,-4.261572341677983,2972321833
usq,-65.5340194702148,-61.3650856018066,2.200903224640006,-4.294683638508693,2972338500
usq,-65.4350814819336,-61.3404884338378,2.142700509206891,-4.328920468290011,2972355167
usq,-65.2521820068359,-61.3094596862793,2.0800258102714464,-4.354720657099151,2972371834
usq,-65.047866821289,-61.2884101867675,2.0244819753686842,-4.365878619334928,2972388501
usq,-64.8813705444336,-61.3017196655273,1.9865855496814595,-4.362002049123658,2972405168
usq,-64.7057113647461,-61.276065826416,1.9733858486091733,-4.3491418270582916,2972421835
usq,-64.4805755615234,-61.2222785949707,1.986900061687831,-4.338014381571209,2972438502
usq,-64.1996841430664,-61.1544075012207,2.0236746063473583,-4.340055382010412,2972455169
usq,-63.8333587646484,-61.0472145080566,2.075466167133702,-4.362406260773224,2972471836
usq,-63.4058074951171,-60.8882904052734,2.1308713335169807,-4.403518029398863,2972488503
usq,-62.9626159667968,-60.7061767578125,2.177668623356676,-4.451082634406315,2972505170
usq,-62.4726943969726,-60.4597625732421,2.2055239563595315,-4.483377475252329,2972521837
usq,-61.8759498596191,-60.0842742919921,2.208494481290654,-4.4740338259526835,2972538504
usq,-61.13330078125,-59.5407180786132,2.1865530093461643,-4.399144788897623,2972555171
usq,-60.2315597534179,-58.8641281127929,2.1453637504986514,-4.24492669670179,2972571838
usq,-59.1710510253906,-58.0174865722656,2.093984369596384,-4.013982813756443,2972588505
usq,-57.9270591735839,-57.0195388793945,2.0410722094155678,-3.7284352783842105,2972605172
usq,-56.5051803588867,-55.9079246520996,1.9911569400417954,-3.4286193645571137,2972621839
usq,-55.0228958129882,-54.8536758422851,1.9428788342947034,-3.1667708658835014,2972638506
usq,-53.7059516906738,-53.8928604125976,1.8902320698821156,-2.9963788276618866,2972655173
usq,-52.5812149047851,-52.7938919067382,1.8261176322343282,-2.9594168269617476,2972671840
usq,-51.7042732238769,-51.6866722106933,1.7461076634234756,-3.074808644614899,2972688507
usq,-50.8236808776855,-50.7752990722656,1.6503793985121895,-3.3315859967706394,2972705174
usq,-49.3931694030761,-49.9747886657714,1.5432880500431838,-3.6891325575843363,2972721841
usq,-47.4596824645996,-49.1641273498535,1.4318106986634593,-4.084972975598883,2972738508
usq,-45.4865798950195,-48.1960983276367,1.3246697217754642,-4.448279115474924,2972755175
usq,-43.8603591918945,-46.9838104248046,1.232871291910113,-4.715407158237984,2972771842
usq,-42.6841278076171,-45.6071662902832,1.1706361652015833,-4.843172090538633,2972788509
usq,-41.4244079589843,-44.1665115356445,1.1548235051050249,-4.816507344580658,2972805176
usq,-39.718090057373,-42.8572921752929,1.2017199376706724,-4.649139989143627,2972821843
usq,-37.7376594543457,-41.6188316345214,1.3218291214022297,-4.377991223970435,2972838510
usq,-35.8970146179199,-39.890338897705,1.5146505454127712,-4.053427018699472,2972855177
usq,-34.4209747314453,-37.7866287231445,1.765485688545151,-3.7280333796521896,2972871844
usq,-33.1047210693359,-35.8939132690429,2.0453441279201687,-3.446523732732095,2972888511
usq,-31.703046798706,-34.7405700683593,2.3140254120945403,-3.238925903394325,2972905178
usq,-29.9825839996337,-34.0431175231933,2.5260181836434703,-3.118248448076421,2972921845
usq,-28.0176544189453,-33.1979217529296,2.6386899867643794,-3.0823275573243296,2972938512
usq,-25.9780292510986,-31.8623485565185,2.6217016633367725,-3.1180621956231227,2972955179
usq,-24.105125427246,-30.2090911865234,2.465597967590542,-3.2057705523429068,2972971846
usq,-22.4957828521728,-28.7965221405029,2.186851651069125,-3.3223768356929013,2972988513
usq,-20.9255695343017,-27.9715423583984,1.8271378269410326,-3.443734082474546,2973005180
usq,-19.3189945220947,-27.4468383789062,1.4463424042419806,-3.547213398565689,2973021847
usq,-17.8014850616455,-26.796703338623,1.1108820511916624,-3.615134941618473,2973038514
usq,-16.4578056335449,-25.7647399902343,0.8802916559194146,-3.6383288817790147,2973055181
usq,-15.4641189575195,-24.5595874786376,0.7952771747697533,-3.618246109968787,2973071848
usq,-14.6825246810913,-23.5133743286132,0.8697761156804636,-3.566251152415406,2973088515
usq,-13.7219676971435,-22.6708641052246,1.088511007515064,-3.4998558530784023,2973105182
usq,-12.457908630371,-21.9330310821533,1.410379348488294,-3.437002363891697,2973121849
usq,-11.0925769805908,-21.2491283416748,1.7768597096380059,-3.390381621315301,2973138516
usq,-9.77405929565429,-20.6077518463134,2.1235528072977763,-3.3638261129737956,2973155183
usq,-8.55314254760742,-20.0351333618164,2.392374360125136,-3.3520685347071644,2973171850
usq,-7.51167201995849,-19.4888114929199,2.542015377669045,-3.3438768698115515,2973188517
usq,-6.66453695297241,-18.8947887420654,2.5548841246272773,-3.327211696250917,2973205184
usq,-5.97805643081665,-18.2572555541992,2.4394516281272725,-3.294203205532255,2973221851
usq,-5.34753894805908,-17.6600875854492,2.2276169593462103,-3.2439005033373913,2973238518
usq,-4.66505670547485,-17.1086635589599,1.9675379245931375,-3.1818956137339818,2973255185
usq,-4.02791881561279,-16.6292533874511,1.7133689156358913,-3.1174736493931188,2973271852
usq,-3.55712103843688,-16.2192459106445,1.5142119304069002,-3.0600410085294474,2973288519
usq,-3.11806559562683,-15.9615135192871,1.404870100074788,-3.016642542245825,2973305186
usq,-2.66157817840576,-15.8808012008667,1.4004190316312912,-2.991423759270249,2973321853
usq,-2.31730103492736,-15.87593460083,1.4953190335807756,-2.986575449485654,2973338520
usq,-2.11767578125,-15.8989486694335,1.6663895028017732,-3.0034734873002384,2973355187
usq,-1.84874057769775,-15.9422521591186,1.8782112512914693,-3.0428741922767126,2973371854
usq,-1.44151926040649,-16.126667022705,2.0896934374586493,-3.1039282046700296,2973388521
usq,-1.00419104099273,-16.525276184082,2.261134979852909,-3.1827305266213153,2973405188
usq,-0.767321586608886,-16.8907566070556,2.3613115925454577,-3.2714981516495554,2973421855
usq,-0.859523057937622,-16.9132385253906,2.373636629753642,-3.3591340794606173,2973438522
usq,-1.20562803745269,-16.7716941833496,2.2998084493509667,-3.433252088418651,2973455189
usq,-1.66523146629333,-16.9312057495117,2.159397958935019,-3.483135926204488,2973471856
usq,-2.08190965652465,-17.5890598297119,1.9848964853348068,-3.5027781902744834,2973488523
usq,-2.46052742004394,-18.5070438385009,1.8133991504337283,-3.4930634770138838,2973505190
usq,-2.88250374794006,-19.2610054016113,1.6774460223742056,-3.4623061156271326,2973521857
usq,-3.41147661209106,-19.7083129882812,1.5978438148539362,-3.424770280211144,2973538524
usq,-4.09458065032959,-20.0363655090332,1.5804244671548084,-3.3974623200982412,2973555191
usq,-4.85111236572265,-20.5379219055175,1.6171718130001358,-3.3961583596516447,2973571858
usq,-5.64177656173706,-21.3794059753417,1.6907042233518355,-3.4319384088009954,2973588525
usq,-6.43270874023437,-22.4652462005615,1.780270941488522,-3.509197681730888,2973605192
usq,-7.12775373458862,-23.6022338867187,1.8673482533596275,-3.6253482257870493,2973621859
usq,-7.79701471328735,-24.5980434417724,1.9394341771777828,-3.77171243452846,2973638526
usq,-8.53819370269775,-25.399751663208,1.9914059887024473,-3.9349167752202803,2973655193
usq,-9.51622104644775,-26.2586421966552,2.0245454330394184,-4.098455236991981,2973671860
usq,-10.7564125061035,-27.4299983978271,2.043947636594797,-4.2445721596363954,2973688527
usq,-12.1933584213256,-28.8099193572998,2.0554520260259257,-4.3567081592719425,2973705194
usq,-13.7640314102172,-30.2467784881591,2.0632888982761335,-4.422338705790495,2973721861
usq,-15.3158321380615,-31.575361251831,2.069173565157945,-4.435457388064849,2973738528
usq,-16.7849960327148,-32.8308296203613,2.0727694343340346,-4.397728433620189,2973755195
usq,-18.3094673156738,-34.1110801696777,2.0727630938449684,-4.3177254551790805,2973771862
usq,-19.8547191619873,-35.5117034912109,2.067689614540361,-4.208478663300115,2973788529
usq,-21.4764080047607,-36.9621810913085,2.056146728208713,-4.084246703319157,2973805196
usq,-23.2175388336181,-38.3941307067871,2.0367147099775136,-3.9576082291722168,2973821863
usq,-25.089614868164,-39.8563079833984,2.0082142695608907,-3.837622267210562,2973838530
usq,-26.8773384094238,-41.3143882751464,1.9706647316668064,-3.7292224465684085,2973855197
usq,-28.5248661041259,-42.7467498779296,1.9266528371927745,-3.6335324852102273,2973871864
usq,-30.3749713897705,-44.138816833496,1.8822178647948866,-3.548633107203986,2973888531
usq,-32.3981208801269,-45.4699783325195,1.8462308369770304,-3.470458860350084,2973905198
usq,-34.4748344421386,-46.780029296875,1.82782476707531,-3.393767886844974,2973921865
usq,-36.4061126708984,-48.0908050537109,1.8325322286368468,-3.3133162841809507,2973938532
usq,-38.1709632873535,-49.3714370727539,1.8587879299992882,-3.225384661756033,2973955199
usq,-39.6856880187988,-50.7149391174316,1.896689091870387,-3.1296342488693907,2973971866
usq,-41.0176887512207,-52.0511016845703,1.930143810848164,-3.030969941488615,2973988533
usq,-42.3719139099121,-53.2850227355957,1.9421216573796787,-2.9407857562451896,2974005200
usq,-43.9024963378906,-54.4141235351562,1.9213227736516736,-2.8768287329887943,2974021867
usq,-45.5470962524414,-55.5719375610351,1.8678471537001275,-2.8610733123778735,2974038534
usq,-47.2478904724121,-56.7613105773925,1.7956922463305756,-2.9154956130189964,2974055201
usq,-48.9663658142089,-57.9609260559082,1.7309492022355684,-3.056409134004012,2974071868
usq,-50.7378845214843,-59.1603050231933,1.705865993083808,-3.2888323066761513,2974088535
usq,-52.561897277832,-60.2229881286621,1.7500460767390036,-3.6027686360444435,2974105202
usq,-54.4643630981445,-61.0183715820312,1.8808635932640172,-3.97289342142454,2974121869
usq,-56.3075561523437,-61.5392608642578,2.095755737759062,-4.361992205617972,2974138536
usq,-57.8522644042968,-61.7877349853515,2.3691802835789804,-4.727142695048945,2974155203
usq,-59.1544609069824,-61.8508796691894,2.656176327052988,-5.026784323547206,2974171870
usq,-60.2267227172851,-61.8822326660156,2.9023858785453536,-5.2268829746328676,2974188537
usq,-60.9356307983398,-61.9250373840332,3.057747472201488,-5.305263447318312,2974205204
usq,-61.3036804199218,-61.7882499694824,3.089307058449218,-5.254273670324511,2974221871
usq,-61.3963394165039,-61.6114959716796,2.988882932851799,-5.082486704629965,2974238538
usq,-61.3602294921875,-61.5014686584472,2.7735732540798876,-4.815673488866871,2974255205
usq,-61.299575805664,-61.3884582519531,2.4799926184068624,-4.496130348511504,2974271872
usq,-61.0518188476562,-61.2513275146484,2.155132316369853,-4.178690900583282,2974288539
usq,-60.5598602294921,-61.1366271972656,1.8470644869656747,-3.9223708825700334,2974305206
usq,-60.091438293457,-61.054630279541,1.5975888649834347,-3.7785470624667883,2974321873
usq,-59.9149131774902,-60.7361412048339,1.4373031818713224,-3.778710608720512,2974338540
usq,-59.8525238037109,-60.2421264648437,1.382535429030671,-3.9257841691728883,2974355207
usq,-59.6525039672851,-59.9068183898925,1.4336385859827052,-4.192099929111006,2974371874
usq,-59.3821983337402,-59.4850044250488,1.5749385105339686,-4.524784000223904,2974388541
usq,-58.7285499572753,-58.8716278076171,1.7771902336428391,-4.856654539149049,2974405208
usq,-57.7477416992187,-58.1456871032714,2.003004006254683,-5.119208624473387,2974421875
usq,-56.7244834899902,-57.392032623291,2.2143852951404246,-5.25454178816363,2974438542
usq,-56.0457954406738,-56.6313667297363,2.380141560697423,-5.224463087291425,2974455209
usq,-55.4704933166503,-55.7060623168945,2.4806422523904446,-5.016235394654459,2974471876
usq,-54.6943931579589,-54.6669235229492,2.5087885176016376,-4.644601674665606,2974488543
usq,-53.7215270996093,-53.5285263061523,2.468088613112842,-4.149661653480493,2974505210
usq,-52.8790817260742,-52.3551483154296,2.369720710138361,-3.590644341893094,2974521877
usq,-52.2052459716796,-51.2008018493652,2.2297213263259956,-3.036707528706075,2974538544
usq,-51.4313735961914,-50.0066299438476,2.06613716676406,-2.556753447056502,2974555211
usq,-50.2888603210449,-48.7721824645996,1.8958111625060141,-2.2101649086558313,2974571878
usq,-48.6954460144043,-47.5355377197265,1.7315919428035271,-2.039513319262305,2974588545
usq,-47.1786766052246,-46.3599777221679,1.5814882611595684,-2.0655198351747255,2974605212
usq,-46.15718460083,-45.3019218444824,1.4502074420891886,-2.284446715241233,2974621879
usq,-45.3317260742187,-44.4215965270996,1.3414417116371558,-2.668368237488796,2974638546
usq,-44.1982841491699,-43.777904510498,1.2586009997559233,-3.168691560940938,2974655213
usq,-42.3791198730468,-43.0768966674804,1.2035993931355862,-3.7226127395579134,2974671880
usq,-40.3242530822753,-42.1336402893066,1.1759811858893943,-4.261391190529083,2974688547
usq,-38.6224365234375,-41.1096878051757,1.1749977995063257,-4.719029110426384,2974705214
usq,-37.4912300109863,-40.3342475891113,1.204293515410214,-5.040253454143455,2974721881
usq,-36.5819053649902,-39.8916244506835,1.2753021949421242,-5.187231128836496,2974738548
usq,-35.3883781433105,-39.2889747619628,1.4050184109406971,-5.144754607677453,2974755215
usq,-33.7907943725585,-38.1530494689941,1.6074085093460988,-4.923467663081803,2974771882
usq,-31.9670753479003,-36.5554504394531,1.8824979709290461,-4.560167110714142,2974788549
usq,-30.2811698913574,-34.9506454467773,2.209228450238693,-4.113881774511762,2974805216
usq,-28.8022899627685,-33.6926116943359,2.546162464379523,-3.6569830033862503,2974821883
usq,-27.3506870269775,-32.6460189819335,2.8399667846412835,-3.26216904183388,2974838550
usq,-25.580696105957,-31.6939296722412,3.03831638388734,-2.9881209065771888,2974855217
usq,-23.6045494079589,-30.7737693786621,3.1029029157944437,-2.867834216873981,2974871884
usq,-21.8556671142578,-29.8812656402587,3.0190486898834155,-2.903189954496168,2974888551
usq,-20.6118850708007,-28.9742202758789,2.7997802054484153,-3.067196851752848,2974905218
usq,-19.7284202575683,-28.025369644165,2.4834988380594467,-3.3125640097108486,2974921885
usq,-18.7424869537353,-27.075439453125,2.125687897245704,-3.58336080516558,2974938552
usq,-17.3917350769042,-26.1955509185791,1.7865135849498195,-3.826344947267348,2974955219
usq,-15.8232669830322,-25.4071369171142,1.5174214561314043,-3.9996945307076914,2974971886
usq,-14.344515800476,-24.6713542938232,1.3503607783770475,-4.078267243108902,2974988553
usq,-12.9392232894897,-23.8697719573974,1.2926746566459244,-4.055356922674803,2975005220
usq,-11.5391454696655,-22.8893966674804,1.3289849320846316,-3.9412572746742933,2975021887
usq,-10.1918630599975,-21.7991485595703,1.4290848061433414,-3.7592221418871326,2975038554
usq,-8.94688606262207,-20.7211933135986,1.558793236840905,-3.5398321275247904,2975055221
usq,-7.82597017288208,-19.7504405975341,1.6898101598579895,-3.3151023810171942,2975071888
usq,-6.70931434631347,-18.9413757324218,1.805281765721892,-3.1135680500297647,2975088555
usq,-5.52649354934692,-18.2043590545654,1.8997397674837353,-2.9570282473994363,2975105222
usq,-4.45046615600585,-17.4986228942871,1.9744324324751468,-2.85892795711459,2975121889
usq,-3.61700105667114,-16.8176097869873,2.0308252410305165,-2.8239076913537757,2975138556
usq,-2.87678790092468,-16.1355876922607,2.06555626812354,-2.8480336865296136,2975155223
usq,-2.07352972030639,-15.5150690078735,2.0692730471205083,-2.919518335430277,2975171890
usq,-1.12792921066284,-15.0085191726684,2.0299620411049673,-3.020083829213419,2975188557
usq,-0.265799552202224,-14.6655263900756,1.9393425403442561,-3.127276454899885,2975205224
usq,0.21895195543766,-14.4221067428588,1.7994337699534726,-3.2178829763065755,2975221891
usq,0.246193766593933,-14.1332521438598,1.6261283623817264,-3.2721471802959585,2975238558
usq,0.101272441446781,-13.7981595993042,1.447703383578108,-3.277907318874211,2975255225
usq,0.0601074881851673,-13.5041704177856,1.2982780209135254,-3.233396056287158,2975271892
usq,0.157262846827507,-13.2707509994506,1.2083791607694663,-3.14759415902675,2975288559
usq,0.244093671441078,-13.0598182678222,1.1959865937430816,-3.0378001764154967,2975305226
usq,0.370987951755523,-12.9211435317993,1.2611660484721028,-2.9251590761568456,2975321893
usq,0.709251701831817,-12.9364986419677,1.385942676732511,-2.8296846638472237,2975338560
usq,1.14701962471008,-13.1192016601562,1.5392363048197046,-2.7663453515655,2975355227
usq,1.35804915428161,-13.3562154769897,1.6852023566864494,-2.7431109679755394,2975371894
usq,1.1445870399475,-13.5680208206176,1.7925183826694286,-2.760978877413602,2975388561
usq,0.72808688879013,-13.8305463790893,1.8420745269954797,-2.815391276559301,2975405228
usq,0.313065320253372,-14.2587633132934,1.8311155754872426,-2.898265823344248,2975421895
usq,-0.0493881441652774,-14.7924690246582,1.7729467440450382,-2.9999857479468024,2975438562
usq,-0.412099838256835,-15.3544359207153,1.692508477209978,-3.11098675698799,2975455229
usq,-0.862675428390502,-15.9731388092041,1.6191345729066213,-3.2228929023712327,2975471896
usq,-1.41421973705291,-16.6744384765625,1.5784826545881918,-3.329335875414272,2975488563
usq,-2.07761549949646,-17.4476089477539,1.585874780413938,-3.426545422319111,2975505230
usq,-2.85146880149841,-18.1935596466064,1.6429575516841346,-3.51359315010917,2975521897
usq,-3.67594814300537,-18.8860511779785,1.7385994926234372,-3.5920289634133122,2975538564
usq,-4.45757341384887,-19.6021003723144,1.8535217985404049,-3.664758910091903,2975555231
usq,-5.1699104309082,-20.3707313537597,1.9668749764620692,-3.7343528250949753,2975571898
usq,-5.83539104461669,-21.231273651123,2.0623964937009505,-3.8013251705024556,2975588565
usq,-6.56392097473144,-22.2063941955566,2.132121643832682,-3.863085452503426,2975605232
usq,-7.46641731262207,-23.2545642852783,2.1766658490190154,-3.9141126453781574,2975621899
usq,-8.47116470336914,-24.3499221801757,2.2024242808350554,-3.9474871918368284,2975638566
usq,-9.46916103363037,-25.4424209594726,2.2171786495408483,-3.9573317360765112,2975655233
usq,-10.4900245666503,-26.5453147888183,2.2261467657456135,-3.9412291382685263,2975671900
usq,-11.7020244598388,-27.6860008239746,2.2301974488214595,-3.9016222567555054,2975688567
usq,-13.13987159729,-28.8393230438232,2.2268445676163977,-3.845670032021414,2975705234
usq,-14.7657423019409,-29.9139995574951,2.213203961291464,-3.7837822343709537,2975721901
usq,-16.3690090179443,-30.9006786346435,2.1890639699599412,-3.7276086541987894,2975738568
usq,-17.8576793670654,-32.0204315185546,2.158164023582768,-3.6882850026944376,2975755235
usq,-19.2236633300781,-33.3792457580566,2.126774812025289,-3.675269466962637,2975771902
usq,-20.4631519317626,-34.9002838134765,2.1002017133425435,-3.695475394249753,2975788569
usq,-21.7639350891113,-36.411148071289,2.079025078830436,-3.7520363444665925,2975805236
usq,-23.347915649414,-37.7997741699218,2.057084239277919,-3.842237679282854,2975821903
usq,-25.2567234039306,-39.0675659179687,2.0224010543560365,-3.954947010308874,2975838570
usq,-27.2888011932373,-40.346694946289,1.9609937330536427,-4.068895416293579,2975855237
usq,-29.2278251647949,-41.7219848632812,1.8624498177596478,-4.153685757663927,2975871904
usq,-30.9240379333496,-43.2424049377441,1.7254823680308509,-4.1748158058633615,2975888571
usq,-32.323974609375,-44.8679542541503,1.5615641278419314,-4.102324631955216,2975905238
usq,-33.7281074523925,-46.5542831420898,1.3951430547622943,-3.9206966510345667,2975921905
usq,-35.3922653198242,-48.1766319274902,1.2597888639352084,-3.6364965606890283,2975938572
usq,-37.4314651489257,-49.6424522399902,1.1907127118440601,-3.280582273220552,2975955239
usq,-39.5665588378906,-50.9780883789062,1.2152665804135776,-2.903560576771636,2975971906
usq,-41.4128341674804,-52.2710456848144,1.3440235962500624,-2.5655707554363865,2975988573
usq,-42.9053382873535,-53.508934020996,1.5654364597660833,-2.323385035351315,2976005240
usq,-44.0751647949218,-54.7381858825683,1.8464195349836343,-2.2184294081871627,2976021907
usq,-45.1607704162597,-56.0248107910156,2.1394183911770073,-2.268642632729521,2976038574
usq,-46.4813690185546,-57.2217102050781,2.3941711554328213,-2.4657308518178906,2976055241
usq,-48.1484069824218,-58.2569465637207,2.570484973583982,-2.7780295530117165,2976071908
usq,-49.8519439697265,-59.1818122863769,2.647930532155853,-3.1581133770894048,2976088575
usq,-51.5777015686035,-59.93212890625,2.62962672972052,-3.5533631018751843,2976105242
usq,-53.3069915771484,-60.5473175048828,2.539526372195973,-3.916849927172655,2976121909
usq,-54.8745346069335,-61.1031875610351,2.414694711601998,-4.215515699080187,2976138576
usq,-56.0201072692871,-61.5600395202636,2.2952392887932676,-4.433317691233632,2976155243
usq,-56.834617614746,-61.8640556335449,2.214704474072069,-4.568889980991355,2976171910
usq,-57.5498847961425,-62.012580871582,2.193183802694907,-4.62955984084244,2976188577
usq,-58.2857971191406,-62.0551872253418,2.234481447780141,-4.6249658290029965,2976205244
usq,-58.92529296875,-61.9956398010253,2.3276177765197597,-4.563253421086753,2976221911
usq,-59.3936729431152,-61.8419685363769,2.4519292652591984,-4.451134119759659,2976238578
usq,-59.7007713317871,-61.620246887207,2.5840385895827658,-4.296977812947664,2976255245
usq,-59.779296875,-61.3117942810058,2.7043102492584277,-4.114562566813583,2976271912
usq,-59.5891532897949,-60.9111976623535,2.800483890034002,-3.924743503361334,2976288579
usq,-59.1004943847656,-60.4287872314453,2.8672919163917596,-3.7532741983180635,2976305246
usq,-58.3218116760253,-59.8819694519043,2.9027760599596726,-3.6249190878579394,2976321913
usq,-57.3394317626953,-59.2018928527832,2.9037782023081755,-3.5559468110396466,2976338580
usq,-56.0755882263183,-58.3534965515136,2.863494527189088,-3.548148286182187,2976355247
usq,-54.9890365600585,-57.3489723205566,2.772539275635436,-3.5871808625455945,2976371914
usq,-54.5858612060546,-56.1901245117187,2.6225648686421845,-3.6464557838790346,2976388581
usq,-54.3342857360839,-54.9416389465332,2.410002554455056,-3.695618267350412,2976405248
usq,-53.4177474975585,-53.6949806213378,2.1381463487649266,-3.7107525447347975,2976421915
usq,-52.0032730102539,-52.3857192993164,1.8177929279592082,-3.6825416837180636,2976438582
usq,-50.8421783447265,-50.8918647766113,1.4677764808896372,-3.6192615877461387,2976455249
usq,-49.9401359558105,-49.3558082580566,1.115836053822418,-3.5436809114542576,2976471916
usq,-49.0165061950683,-47.9859504699707,0.7985124212260774,-3.4856909772927156,2976488583
usq,-47.8388214111328,-46.9945449829101,0.5581885461295527,-3.474072112568608,2976505250
usq,-46.0893402099609,-46.3780326843261,0.43649603570073164,-3.530086698937955,2976521917
usq,-44.2191848754882,-45.9216384887695,0.46505301400926974,-3.6633691275608182,2976538584
usq,-42.6801452636718,-45.3445968627929,0.6557924156304223,-3.869055223297174,2976555251
usq,-41.2183799743652,-44.4553871154785,0.9937721506577675,-4.125676180051612,2976571918
usq,-39.4331550598144,-43.2971076965332,1.4354316820037674,-4.395196297776224,2976588585
usq,-37.4517211914062,-42.0813980102539,1.9144001641472794,-4.627468899679747,2976605252
usq,-35.688491821289,-41.012580871582,2.3546741405482323,-4.76996716705114,2976621919
usq,-34.1238403320312,-40.0315628051757,2.6878281123925234,-4.780781755899922,2976638586
usq,-32.6103553771972,-38.9268264770507,2.868732647538022,-4.640737011658626,2976655253
usq,-31.2091560363769,-37.671531677246,2.884631874520195,-4.360467158308048,2976671920
usq,-29.9191589355468,-36.2515830993652,2.755155081260462,-3.980089229234473,2976688587
usq,-28.7563667297363,-34.7877311706543,2.524142730140517,-3.5614794423726255,2976705254
usq,-27.5549411773681,-33.3342819213867,2.2464531157027676,-3.175147975449106,2976721921
usq,-26.0580387115478,-31.8807067871093,1.9737877512858883,-2.884953300152696,2976738588
usq,-24.2224464416503,-30.5500259399414,1.743390234378487,-2.734341946483508,2976755255
usq,-22.3329925537109,-29.4980907440185,1.5724842079443064,-2.737444063593562,2976771922
usq,-20.3969402313232,-28.5840187072753,1.4595333618355903,-2.8772241307251,2976788589
usq,-18.5765762329101,-27.5758056640625,1.3911209947838992,-3.1111020747467975,2976805256
usq,-16.9847755432128,-26.4842433929443,1.3513362405491862,-3.3823903631945695,2976821923
usq,-15.5460996627807,-25.4205532073974,1.3300000483256225,-3.6341940954981133,2976838590
usq,-14.3156061172485,-24.405740737915,1.327064742209735,-3.821786095663184,2976855257
usq,-13.3969860076904,-23.3977527618408,1.352261435831819,-3.920219435109957,2976871924
usq,-12.6663303375244,-22.4014492034912,1.4205279432432618,-3.9257906449031954,2976888591
usq,-11.8970308303833,-21.4287052154541,1.5446123999853067,-3.8521108460653135,2976905258
usq,-10.7410793304443,-20.4751548767089,1.7268820262642728,-3.7230523142406415,2976921925
usq,-8.99430179595947,-19.4776573181152,1.953003965341403,-3.5652113074141107,2976938592
usq,-6.93802070617675,-18.4949264526367,2.1903572011983172,-3.4019416595206455,2976955259
usq,-5.00411415100097,-17.5293827056884,2.3930504070539724,-3.2500301915973306,2976971926
usq,-3.45046758651733,-16.5689964294433,2.5131393226366985,-3.1191412158204637,2976988593
usq,-2.48347830772399,-15.7220029830932,2.5149361677272144,-3.0133968629467,2977005260
usq,-1.96190953254699,-15.0865764617919,2.3875487104391855,-2.933945038922386,2977021927
usq,-1.51520144939422,-14.5791769027709,2.150944883829291,-2.881228649702244,2977038594
usq,-0.947775304317474,-14.0458831787109,1.8529234545106887,-2.8559936515180735,2977055261
usq,-0.154963955283164,-13.4555788040161,1.5575080848534193,-2.858754362819395,2977071928
usq,0.778435945510864,-12.8866329193115,1.3282222451047914,-2.888188014846711,2977088595
usq,1.70728385448455,-12.3806829452514,1.2113859461756749,-2.9394185780044833,2977105262
usq,2.4795925617218,-11.9759397506713,1.2244780762887577,-3.0031630577615682,2977121929
usq,3.02664494514465,-11.666766166687,1.352849235830068,-3.066310796346426,2977138596
usq,3.41893649101257,-11.4529657363891,1.5553277648512498,-3.113951793493669,2977155263
usq,3.71582269668579,-11.3668918609619,1.7765261218863133,-3.132407627900874,2977171930
usq,3.91476941108703,-11.3965291976928,1.961857099662931,-3.112530915637454,2977188597
usq,4.06654596328735,-11.4184226989746,2.0709051957357705,-3.052404522751211,2977205264
usq,4.28126716613769,-11.2681312561035,2.085769995046848,-2.95859600667422,2977221931
usq,4.63997840881347,-11.0138778686523,2.01278974107828,-2.845377999889048,2977238598
usq,5.08566808700561,-10.8301286697387,1.8780346377109363,-2.7318524652498817,2977255265
usq,5.36831951141357,-10.8040294647216,1.7185750392420407,-2.63760544814296,2977271932
usq,5.35425233840942,-10.8819389343261,1.5723799050848881,-2.578097339590627,2977288599
usq,5.07513618469238,-10.9903306961059,1.469618808365111,-2.5611647932782473,2977305266
usq,4.71444368362426,-11.1374521255493,1.4272562626814689,-2.5856573145517436,2977321933
usq,4.35864877700805,-11.361626625061,1.4475505110125844,-2.642521664181166,2977338600
usq,4.08511209487915,-11.6992635726928,1.5199326647786866,-2.7179034949837213,2977355267
usq,3.97365546226501,-12.1184787750244,1.6251301990390055,-2.7972933524845853,2977371934
usq,3.93636536598205,-12.647795677185,1.7403419250492609,-2.8694782522809414,2977388601
usq,3.7722635269165,-13.2229633331298,1.8444831275215925,-2.9291198867079187,2977405268
usq,3.31675720214843,-13.7001543045043,1.922665218021547,-2.9772383478149282,2977421935
usq,2.64287686347961,-14.1169128417968,1.9690767721290912,-3.0196571424353946,2977438602
usq,2.0073173046112,-14.6131677627563,1.9875372625105825,-3.0642262463367187,2977455269
usq,1.55611062049865,-15.2478084564208,1.9894820866611302,-3.1179986104924122,2977471936
usq,1.18472945690155,-15.9877548217773,1.9899553824211063,-3.18534681414859,2977488603
usq,0.724480390548706,-16.7585659027099,2.0029144194355277,-3.267424639986683,2977505270
usq,0.0853524282574653,-17.5770683288574,2.0373407894604276,-3.362708846602379,2977521937
usq,-0.746104180812835,-18.4670600891113,2.0952009947265533,-3.467913046066965,2977538604
usq,-1.75782740116119,-19.4114017486572,2.1714910534610774,-3.5785617836692905,2977555271
usq,-2.7743706703186,-20.3646812438964,2.2558891337194824,-3.6889329781006532,2977571938
usq,-3.77482366561889,-21.3033027648925,2.335234236482012,-3.791645904084726,2977588605
usq,-4.85116910934448,-22.2386360168457,2.3961426978650366,-3.877540626679538,2977605272
usq,-5.96964693069458,-23.254919052124,2.4273321749946217,-3.9364730284669385,2977621939
usq,-7.01612138748168,-24.3481502532959,2.421423885396239,-3.959267566908804,2977638606
usq,-7.97216939926147,-25.481704711914,2.376095249886886,-3.9405032824140367,2977655273
usq,-8.95355892181396,-26.6882781982421,2.294522672232701,-3.8812976358573317,2977671940
usq,-10.0918350219726,-27.989688873291,2.1851135427488804,-3.7910201600582565,2977688607
usq,-11.403356552124,-29.2340354919433,2.0605535074894665,-3.687020951324744,2977705274
usq,-12.9154138565063,-30.4108715057373,1.9362035336574988,-3.5919596979442114,2977721941
usq,-14.6219205856323,-31.5088577270507,1.8279336166246816,-3.5290476098335257,2977738608
usq,-16.294376373291,-32.6611595153808,1.7496126948001793,-3.5162834097524693,2977755275
usq,-17.8301982879638,-34.028938293457,1.710647505320975,-3.5612892906285283,2977771942
usq,-19.3293552398681,-35.5515975952148,1.714073813612064,-3.658335134302112,2977788609
usq,-20.8779735565185,-37.1220970153808,1.7556553298904627,-3.788506344036104,2977805276
usq,-22.5519943237304,-38.7154235839843,1.8242382124020442,-3.922993183974043,2977821943
usq,-24.2891998291015,-40.3252944946289,1.9033572921965969,-4.028616839256157,2977838610
usq,-25.8455390930175,-41.8409805297851,1.9739191219023409,-4.074304150708693,2977855277
usq,-27.26828956604,-43.2026939392089,2.017685868986781,-4.037305956768015,2977871944
usq,-28.6586685180664,-44.3584060668945,2.0211025912767795,-3.908279701996773,2977888611
usq,-30.2686595916748,-45.4244804382324,1.9786781322820277,-3.6946195405630964,2977905278
usq,-32.1022911071777,-46.5417594909668,1.8948784736397781,-3.4214564147089686,2977921945
usq,-34.0620002746582,-47.8103065490722,1.7837238086526892,-3.1296934943090986,2977938612
usq,-36.1917037963867,-49.1269912719726,1.6661134032135434,-2.8706393619013184,2977955279
usq,-38.3931922912597,-50.3396568298339,1.5658999993715328,-2.6974765496942172,2977971946
usq,-40.5541877746582,-51.5451583862304,1.5061981664587778,-2.6547771531851643,2977988613
usq,-42.5694541931152,-52.8196563720703,1.506943903559149,-2.7681426658570842,2978005280
usq,-44.5390357971191,-54.0453224182128,1.5835720832414764,-3.0364886431562104,2978021947
usq,-46.4058761596679,-55.1319427490234,1.7456093662267245,-3.42931983624027,2978038614
usq,-48.266300201416,-56.1000785827636,1.9938168522794373,-3.890415809489238,2978055281
usq,-50.3143768310546,-57.0541267395019,2.3156144418465145,-4.347767940562327,2978071948
usq,-52.4402999877929,-57.8891525268554,2.6804350185399715,-4.727811066781513,2978088615
usq,-54.3871726989746,-58.468952178955,3.0382287809336836,-4.970587719813248,2978105282
usq,-55.962589263916,-58.8550567626953,3.3243096168372057,-5.042022592276776,2978121949
usq,-56.9533653259277,-59.1388931274414,3.4716723966998164,-4.940263266976024,2978138616
usq,-57.3866157531738,-59.2845077514648,3.428643632012154,-4.694865377322595,2978155283
usq,-57.510383605957,-59.225730895996,3.1768420202195937,-4.3596970615932715,2978171950
usq,-57.6612358093261,-59.088768005371,2.7432825211433207,-4.001843652677919,2978188617
usq,-57.8662185668945,-59.0102882385253,2.201574707412334,-3.68906458672105,2978205284
usq,-57.6813507080078,-58.8230781555175,1.6601532660642127,-3.477892659412981,2978221951
usq,-57.2040901184082,-58.5810775756835,1.239310941577705,-3.4039949668898823,2978238618
usq,-56.8933639526367,-58.2977981567382,1.0422691722160307,-3.4762145676965415,2978255285
usq,-56.84423828125,-57.9124031066894,1.1276774515929495,-3.675501372589712,2978271952
usq,-56.652717590332,-57.3931312561035,1.4912644820543075,-3.959330212120591,2978288619
usq,-55.9156646728515,-56.782615661621,2.062610464416364,-4.271047112166719,2978305286
usq,-54.9316253662109,-56.0373229980468,2.719178445003963,-4.5521044513596,2978321953
usq,-54.034309387207,-55.2127532958984,3.314583235180256,-4.754003217122371,2978338620
usq,-53.2530937194824,-54.4912757873535,3.7133447465677847,-4.84678681751072,2978355287
usq,-52.3705139160156,-53.819652557373,3.822179447943426,-4.822355435389499,2978371954
usq,-51.3479118347168,-52.9219703674316,3.6094080813704683,-4.692859193710798,2978388621
usq,-50.2739219665527,-51.7348747253418,3.1085978715174636,-4.485740263877833,2978405288
usq,-49.35786819458,-50.3018150329589,2.407766809097395,-4.237105746081414,2978421955
usq,-48.8843727111816,-48.7736129760742,1.6288763030761653,-3.9845562898801754,2978438622
usq,-48.6261100769043,-47.40279006958,0.9030684993165154,-3.760279741543185,2978455289
usq,-47.8976974487304,-46.2808494567871,0.3463355516735326,-3.585501378234016,2978471956
usq,-46.2271766662597,-45.333999633789,0.03967711825958098,-3.467732384517517,2978488623
usq,-43.8764381408691,-44.3309669494628,0.0173985288070858,-3.4018710864161044,2978505290
usq,-41.8099327087402,-43.1672172546386,0.2656120223954775,-3.3749214760555715,2978521957
usq,-40.7046318054199,-41.9460372924804,0.7297285610346624,-3.372561158658917,2978538624
usq,-40.115982055664,-40.8244857788085,1.32684789378332,-3.3849125491128804,2978555291
usq,-38.8254165649414,-39.6278915405273,1.9591879946298103,-3.4091931765182766,2978571958
usq,-36.1727981567382,-38.3000831604003,2.527724466306944,-3.44839778250609,2978588625
usq,-33.0276565551757,-37.0147399902343,2.9472474123523766,-3.507106543162655,2978605292
usq,-30.7662467956542,-35.9946823120117,3.1620468603033625,-3.586834209990392,2978621959
usq,-30.0695247650146,-35.2700271606445,3.1571839350098654,-3.6832566756849574,2978638626
usq,-29.7727947235107,-34.535301208496,2.9590350712356717,-3.786345396698023,2978655293
usq,-28.7024631500244,-33.540916442871,2.6234646979948533,-3.8828660776496515,2978671960
usq,-26.5875968933105,-32.308853149414,2.217446070686329,-3.959784590223833,2978688627
usq,-24.3154640197753,-30.997236251831,1.8036316848146232,-4.007142028693239,2978705294
usq,-22.6914558410644,-29.9157848358154,1.4338566695630997,-4.019568703409402,2978721961
usq,-21.7914943695068,-29.1272678375244,1.150061898336591,-3.99630278474265,2978738628
usq,-20.7056770324707,-28.3434162139892,0.9862284672748509,-3.940084424437585,2978755295
usq,-18.9524364471435,-27.1802387237548,0.9662409266863922,-3.855587142810132,2978771962
usq,-16.7648544311523,-25.6282806396484,1.0978960147402756,-3.7481616922662444,2978788629
usq,-14.7365093231201,-24.131685256958,1.3673196739941034,-3.6235462971926196,2978805296
usq,-13.3168411254882,-23.101764678955,1.7378331479060751,-3.4887175596754765,2978821963
usq,-12.4131908416748,-22.5170192718505,2.1542198596143445,-3.353249034370435,2978838630
usq,-11.4565992355346,-21.9299926757812,2.5508250678082467,-3.2298287449406304,2978855297
usq,-10.2030191421508,-21.1168422698974,2.8616801931730804,-3.132635242345624,2978871964
usq,-8.8301830291748,-20.0849895477294,3.0316823396328667,-3.073408391381148,2978888631
usq,-7.38566303253173,-18.9809341430664,3.0277530943069193,-3.0567259284102617,2978905298
usq,-5.84006309509277,-17.8816604614257,2.847604775678391,-3.077010267800662,2978921965
usq,-4.20815324783325,-16.8698425292968,2.522923492099079,-3.1192488131504725,2978938632
usq,-2.71064972877502,-16.0709171295166,2.114846609319633,-3.1635508704666813,2978955299
usq,-1.5938503742218,-15.4724702835083,1.7021202457974003,-3.191682843421833,2978971966
usq,-0.866791546344757,-14.9203281402587,1.364670303646436,-3.192794420334697,2978988633
usq,-0.372449725866317,-14.2962989807128,1.1664562006825083,-3.1660326612019145,2979005300
usq,0.0608652122318744,-13.6273145675659,1.1414725499800897,-3.119203643585501,2979021967
usq,0.615012824535369,-12.9694662094116,1.2860692152537858,-3.0643233099845038,2979038634
usq,1.38400876522064,-12.4390001296997,1.5595167862799522,-3.012095150226488,2979055301
usq,2.2095878124237,-12.0800876617431,1.8929650638242828,-2.9676255223601724,2979071968
usq,2.94219946861267,-11.7689313888549,2.2049581902238553,-2.9290187262623957,2979088635
usq,3.58742547035217,-11.3354244232177,2.4200859158292736,-2.8892662087460224,2979105302
usq,4.2605447769165,-10.9203739166259,2.486596341062031,-2.8405835150702106,2979121969
usq,4.8995394706726,-10.7875022888183,2.3889064403367235,-2.7794444151464934,2979138636
usq,5.26211643218994,-10.9682683944702,2.151809314857311,-2.710230683261017,2979155303
usq,5.24070835113525,-11.2682561874389,1.8348043918969816,-2.6458041679263027,2979171970
usq,4.97285270690918,-11.4905242919921,1.5173405992830211,-2.6044281381216643,2979188637
usq,4.6240062713623,-11.4832973480224,1.2784002467224462,-2.603986528099895,2979205304
usq,4.35339546203613,-11.3239641189575,1.1758570160309934,-2.655683897127249,2979221971
usq,4.29586887359619,-11.3099355697631,1.231529983155756,-2.7596815831212416,2979238638
usq,4.34517049789428,-11.6636543273925,1.4264170818958977,-2.9042727637046832,2979255305
usq,4.31119585037231,-12.3630247116088,1.707499315459902,-3.068713189038772,2979271972
usq,4.1672306060791,-13.1672592163085,2.0037744626803056,-3.228492553864313,2979288639
usq,3.98685193061828,-13.875412940979,2.2462848343124278,-3.361212484633097,2979305306
usq,3.70982718467712,-14.3751001358032,2.3860182460548827,-3.4514041401111357,2979321973
usq,3.2140929698944,-14.7198638916015,2.4048283307701337,-3.4932641613970703,2979338640
usq,2.50840306282043,-15.1437473297119,2.317117556520158,-3.4910130477688655,2979355307
usq,1.60458493232727,-15.7618265151977,2.1628482453812112,-3.4571441704301207,2979371974
usq,0.632763981819152,-16.6431980133056,1.9946678128854596,-3.409202590454861,2979388641
usq,-0.159536466002464,-17.5319576263427,1.8631241729666792,-3.3659422036581654,2979405308
usq,-0.712426304817199,-18.3367862701416,1.8039621216158728,-3.34372489182979,2979421975
usq,-1.18600404262542,-19.0715541839599,1.8304459439381833,-3.353813240497451,2979438642
usq,-1.80182874202728,-19.7646083831787,1.9319771456699417,-3.400856558367066,2979455309
usq,-2.7583680152893,-20.5963878631591,2.078578889013618,-3.4825498787304983,2979471976
usq,-4.05368947982788,-21.6096019744873,2.229544292810816,-3.5902796430618507,2979488643
usq,-5.40869140625,-22.7994785308837,2.3438274485001758,-3.7105713864057845,2979505310
usq,-6.53975486755371,-24.102928161621,2.38960680363079,-3.8272361727257556,2979521977
usq,-7.53785896301269,-25.451093673706,2.350899405444318,-3.924120812178265,2979538644
usq,-8.55220699310302,-26.7767238616943,2.2300755162263894,-3.988197561204997,2979555311
usq,-9.64601707458496,-27.9531326293945,2.046312939483052,-4.012445580024798,2979571978
usq,-10.8404712677001,-29.0664310455322,1.8309931185808876,-3.997761149458632,2979588645
usq,-11.9354982376098,-30.2484836578369,1.6214221837131737,-3.9531330986375255,2979605312
usq,-13.2361078262329,-31.533145904541,1.45403894072301,-3.8936145415501433,2979621979
usq,-15.0102920532226,-32.7925071716308,1.3578272164906084,-3.8362597974493333,2979638646
usq,-17.2091846466064,-34.0018348693847,1.3484901115033274,-3.795060976232234,2979655313
usq,-19.4673767089843,-35.2797088623046,1.42425592790286,-3.7765908556913783,2979671980
usq,-21.4913082122802,-36.7008018493652,1.5646344800401577,-3.7780183830180056,2979688647
usq,-23.1239204406738,-38.234088897705,1.7334123246321063,-3.7882581243878475,2979705314
usq,-24.5577316284179,-39.7768211364746,1.8862387116437758,-3.7916845297326436,2979721981
usq,-26.1003017425537,-41.184284210205,1.981466699547272,-3.7728542703213286,2979738648
usq,-27.8528099060058,-42.4295234680175,1.9912855480636469,-3.7205963653238427,2979755315
usq,-29.813003540039,-43.6253967285156,1.9096200662869849,-3.6305978683474596,2979771982
usq,-31.8785152435302,-44.8778457641601,1.7542461822266386,-3.5065956446126187,2979788649
usq,-33.8074035644531,-46.2073020935058,1.5626416247801918,-3.360734595238562,2979805316
usq,-35.5825614929199,-47.6174011230468,1.383219600809436,-3.213293579456202,2979821983
usq,-37.3592376708984,-49.1826019287109,1.264773456285655,-3.0912292411425515,2979838650
usq,-39.345947265625,-50.7245407104492,1.2467836453294083,-3.024611946806084,2979855317
usq,-41.5400352478027,-52.1366577148437,1.3521450606242693,-3.0405438911631,2979871984
usq,-43.8211708068847,-53.5730819702148,1.5827984548489344,-3.1554552734324695,2979888651
usq,-46.1815948486328,-55.0764617919921,1.918352753592069,-3.368089092321876,2979905318
usq,-48.5375442504882,-56.467170715332,2.317972107668262,-3.6561030136850268,2979921985
usq,-50.7757720947265,-57.5794525146484,2.7259457277979218,-3.978441549983871,2979938652
usq,-52.8628349304199,-58.3900184631347,3.080865834348578,-4.283618036557404,2979955319
usq,-54.81001663208,-58.7917709350585,3.3271004081020434,-4.5216874091217285,2979971986
usq,-56.4528427124023,-58.9628982543945,3.4258377599714165,-4.656108589653656,2979988653
usq,-57.4484748840332,-59.1222534179687,3.3624559073553435,-4.671634031320678,2980005320
usq,-57.6030616760253,-59.1656799316406,3.1480882680293054,-4.57588326214806,2980021987
usq,-57.2199783325195,-59.0151290893554,2.8155992689359817,-4.3947238199916,2980038654
usq,-56.7568855285644,-58.6824722290039,2.4122463668861727,-4.163888831362994,2980055321
usq,-56.5053787231445,-58.221092224121,1.9917670617315109,-3.920319087433632,2980071988
usq,-56.3263893127441,-57.623908996582,1.6075058615706854,-3.696082074430374,2980088655
usq,-55.7691345214843,-56.8878707885742,1.306669699999301,-3.515869480062579,2980105322
usq,-55.0262031555175,-56.0817565917968,1.125089874775092,-3.3970944560158247,2980121989
usq,-54.4387435913085,-55.2129440307617,1.0823447660463015,-3.3505348496939664,2980138656
usq,-53.742691040039,-54.2457771301269,1.1781810819324958,-3.379778472843553,2980155323
usq,-52.7380599975585,-53.3983001708984,1.3918061837674924,-3.479189372979536,2980171990
usq,-51.6214866638183,-52.583324432373,1.6850853358213063,-3.631858154507862,2980188657
usq,-50.6184577941894,-51.3643608093261,2.00926477385096,-3.8098819779208877,2980205324
usq,-49.4575424194335,-49.9658317565918,2.3136289615223316,-3.978649378381645,2980221991
usq,-48.257568359375,-48.619888305664,2.5541702935355435,-4.104851701321689,2980238658
usq,-47.1556930541992,-47.6450042724609,2.700577106827938,-4.165725606600254,2980255325
usq,-46.0177307128906,-46.9741783142089,2.740124890387239,-4.155755026843952,2980271992
usq,-44.7054481506347,-46.2051048278808,2.6776238084036375,-4.0876099720588055,2980288659
usq,-43.0513305664062,-45.1400146484375,2.531891939421422,-3.9864736894298862,2980305326
usq,-40.7418594360351,-43.697883605957,2.3307664251924862,-3.8799453365295027,2980321993
usq,-38.1210594177246,-42.117446899414,2.106988467272923,-3.7877151779002505,2980338660
usq,-35.6458473205566,-40.6236190795898,1.8956417084881503,-3.715162867743597,2980355327
usq,-33.9615402221679,-39.1546249389648,1.7314575278021636,-3.653154950195704,2980371994
usq,-32.9422340393066,-37.5555076599121,1.6437145242962674,-3.583722088687389,2980388661
usq,-31.6622676849365,-35.7770385742187,1.6487653028062337,-3.489166006062438,2980405328
usq,-29.5966510772705,-34.0375442504882,1.7435679061027771,-3.3611740259697105,2980421995
usq,-27.1460266113281,-32.6853942871093,1.9046915129008508,-3.206770220777311,2980438662
usq,-25.0900402069091,-31.6160717010498,2.094638257213261,-3.0490530217979392,2980455329
usq,-23.8193893432617,-30.580129623413,2.2728744002277117,-2.9222183199557876,2980471996
usq,-22.5945739746093,-29.4063491821289,2.4062425568455437,-2.862000055979055,2980488663
usq,-20.7274303436279,-28.016357421875,2.474476843857803,-2.894087811045159,2980505330
usq,-18.2155647277832,-26.6037139892578,2.4702740472770706,-3.0239784916449906,2980521997
usq,-15.3526229858398,-25.5084171295166,2.3966947119874398,-3.231747517484325,2980538664
usq,-13.0501108169555,-24.7645282745361,2.2651677056984845,-3.4741406046526806,2980555331
usq,-11.8228387832641,-24.1205921173095,2.0951673460170563,-3.694232970555202,2980571998
usq,-11.3530769348144,-23.491039276123,1.91395330729483,-3.836242442375386,2980588665
usq,-10.9306344985961,-22.8366184234619,1.753903387930408,-3.8609678518879993,2980605332
usq,-10.1943349838256,-21.9800376892089,1.6464634886309775,-3.7567674697373246,2980621999
usq,-9.01193141937255,-20.7742691040039,1.6142070408641316,-3.542359008036973,2980638666
usq,-7.79496812820434,-19.3562812805175,1.6640265042239977,-3.2605542056819807,2980655333
usq,-6.9553518295288,-18.0439701080322,1.7841673229518198,-2.965257722839652,2980672000
usq,-6.30337810516357,-17.0412578582763,1.9461995056865036,-2.7063454072050774,2980688667
usq,-5.38235569000244,-16.3462734222412,2.1113177029532726,-2.51744293863048,2980705334
usq,-3.95369863510131,-15.770972251892,2.2393429725521874,-2.4101298097139416,2980722001
usq,-1.97575604915618,-15.2821474075317,2.29839713931734,-2.375541095538192,2980738668
usq,0.0088463760912418,-15.0196685791015,2.2730499411315574,-2.3918174643037293,2980755335
usq,1.19443869590759,-15.0607633590698,2.1687927977857018,-2.434153068668934,2980772002
usq,1.3109575510025,-15.4070386886596,2.011354098373711,-2.4836926005172417,2980788669
usq,0.778751969337463,-15.7081155776977,1.8407837517000545,-2.5322946628527547,2980805336
usq,0.128535941243171,-15.4400596618652,1.7018437980597203,-2.581967493772526,2980822003
usq,-0.228138759732246,-14.5612888336181,1.633200665701492,-2.639984100778025,2980838670
usq,0.0009914446854963,-13.7656202316284,1.6579365456242734,-2.7124048255909625,2980855337
usq,0.744546771049499,-13.8112640380859,1.7773974598494893,-2.799192481415678,2980872004
usq,1.54931604862213,-14.5832509994506,1.969799046092316,-2.8930825726413274,2980888671
usq,1.9598171710968,-15.3464126586914,2.194284105483415,-2.982393409616995,2980905338
usq,1.90134584903717,-15.5780868530273,2.4000452029986654,-3.0560423582097487,2980922005
usq,1.56425404548645,-15.4502019882202,2.5387412076315568,-3.108132722695029,2980938672
usq,1.24921417236328,-15.4459218978881,2.5771878726469164,-3.1399783930507157,2980955339
usq,1.0257761478424,-15.8149137496948,2.5067818421935733,-3.15896899472721,2980972006
usq,0.798738896846771,-16.4572582244873,2.346715295882699,-3.1753182979188055,2980988673
usq,0.465643256902694,-17.2145156860351,2.139692487632338,-3.1985314228292903,2981005340
usq,-0.070328764617443,-17.9484233856201,1.941054387700443,-3.2350370957674555,2981022007
usq,-0.805295288562774,-18.5117874145507,1.8042205327006107,-3.2873734610132987,2981038674
usq,-1.75414013862609,-18.9812660217285,1.7665142049771032,-3.3544682365016967,2981055341
usq,-2.71957755088806,-19.5635948181152,1.8393766173348505,-3.4324044292369558,2981072008
usq,-3.49226284027099,-20.3316192626953,2.0057026378689233,-3.5154094722683444,2981088675
usq,-4.04134082794189,-21.1840572357177,2.2249311493534756,-3.5970971050757647,2981105342
usq,-4.43943452835083,-22.1268787384033,2.444255176734665,-3.671895729224126,2981122009
usq,-4.81031703948974,-23.2033557891845,2.6125930958127395,-3.7362714304854063,2981138676
usq,-5.41354894638061,-24.3003921508789,2.6933125797930684,-3.7892059833854606,2981155343
usq,-6.37037324905395,-25.2902526855468,2.6723006318134037,-3.8316363711201786,2981172010
usq,-7.59681224822998,-26.1132926940917,2.559592204003426,-3.865063676223943,2981188677
usq,-8.75789833068847,-26.9746379852294,2.384820144118902,-3.88999108499123,2981205344
usq,-9.81433773040771,-28.1166076660156,2.1884672744913334,-3.9050117079646256,2981222011
usq,-10.9226217269897,-29.4296398162841,2.01168122144387,-3.9071351615884184,2981238678
usq,-12.1292705535888,-30.7087707519531,1.8871896234936048,-3.8933661813686,2981255345
usq,-13.5623378753662,-31.9253463745117,1.833102673802654,-3.86284356157175,2981272012
usq,-15.3049631118774,-33.2360954284668,1.8505823386727136,-3.8183624132791585,2981288679
usq,-17.2390213012695,-34.5948181152343,1.9255372725934132,-3.7661951534043157,2981305346
usq,-19.17529296875,-36.0134582519531,2.033547806453508,-3.7139281185896,2981322013
usq,-21.1048374176025,-37.5257110595703,2.146326364215637,-3.6672048246010154,2981338680
usq,-23.0070056915283,-39.0296401977539,2.23765897881191,-3.627081265203142,2981355347
usq,-24.9897937774658,-40.5222854614257,2.2872740830930445,-3.589545171107076,2981372014
usq,-27.0252037048339,-41.9403686523437,2.282256819723714,-3.5476648309703855,2981388681
usq,-29.0971050262451,-43.2220191955566,2.2168460949307374,-3.4954585414216504,2981405348
usq,-31.0117530822753,-44.4336929321289,2.092035770151731,-3.431670836032695,2981422015
usq,-32.7067222595214,-45.5642738342285,1.916011447813832,-3.3616363097030932,2981438682
usq,-34.3906784057617,-46.7101974487304,1.7053243691431221,-3.2962708674596994,2981455349
usq,-36.2644653320312,-47.8440132141113,1.4855973975177836,-3.2485322275559825,2981472016
usq,-38.232421875,-48.972728729248,1.2903149912837408,-3.228825470725294,2981488683
usq,-40.3058929443359,-50.3034172058105,1.1570863890852168,-3.2412644534033292,2981505350
usq,-42.4625129699707,-51.7525939941406,1.1220284025005318,-3.282253646815616,2981522017
usq,-44.4666519165039,-53.155891418457,1.2136504422815775,-3.3418060973782246,2981538684
usq,-46.2303390502929,-54.4483108520507,1.4474543422081776,-3.4069289836111047,2981555351
usq,-48.0899772644043,-55.6040840148925,1.8217985928566258,-3.4657937387552424,2981572018
usq,-50.2664108276367,-56.6439361572265,2.315179779327758,-3.5114269761221486,2981588685
usq,-52.558292388916,-57.506778717041,2.8853447495257645,-3.544077623919084,2981605352
usq,-54.6898460388183,-58.1855201721191,3.471199133738744,-3.5718214269038353,2981622019
usq,-56.3946495056152,-58.7022132873535,3.998526366290768,-3.6091454479475713,2981638686
usq,-57.5822944641113,-59.005313873291,4.389631443871321,-3.673383528114312,2981655353
usq,-58.2419395446777,-59.096996307373,4.5755522512251305,-3.779268651233871,2981672020
usq,-58.5028915405273,-59.0415954589843,4.508360646592917,-3.9326222327141926,2981688687
usq,-58.1975708007812,-58.8904571533203,4.171017075297043,-4.1250214716857165,2981705354
usq,-57.3858757019043,-58.5648155212402,3.5831536028422346,-4.331634225251623,2981722021
usq,-56.4426956176757,-57.9878005981445,2.8021927583608415,-4.513832137110328,2981738688
usq,-55.7912139892578,-57.2668342590332,1.919514456883392,-4.626688845046656,2981755355
usq,-55.5595703125,-56.441104888916,1.051053096901943,-4.62964384918906,2981772022
usq,-55.2963638305664,-55.5801200866699,0.3218678112719114,-4.497365666260243,2981788689
usq,-54.5767669677734,-54.6524200439453,-0.15416993028378911,-4.22776924220309,2981805356
usq,-53.394603729248,-53.6355094909668,-0.29591773783084996,-3.8451183304621925,2981822023
usq,-52.0315017700195,-52.5541038513183,-0.07239791591671266,-3.397565027380277,2981838690
usq,-50.4922561645507,-51.4372444152832,0.48878026889282516,-2.9497736957930925,2981855357
usq,-48.7444305419921,-50.3425750732421,1.3046104698608167,-2.5721865634447822,2981872024
usq,-46.9865570068359,-49.3240699768066,2.2510244086743527,-2.3289499243191703,2981888691
usq,-45.1536979675293,-48.2849693298339,3.1850717873245555,-2.266519009382677,2981905358
usq,-43.0495223999023,-47.2715225219726,3.9697739324395207,-2.404626422465749,2981922025
usq,-40.910099029541,-46.2564849853515,4.496232351686519,-2.730981747712851,2981938692
usq,-38.8504447937011,-45.071491241455,4.699066967933366,-3.2009896835108296,2981955359
usq,-36.8041801452636,-43.7019805908203,4.563634921578552,-3.743538179309608,2981972026
usq,-34.8057899475097,-42.2413902282714,4.125485818532737,-4.272766178951137,2981988693
usq,-32.8955726623535,-40.9737167358398,3.4634518554516034,-4.703662173869846,2982005360
usq,-31.2303237915039,-39.9192504882812,2.687755946670437,-4.967610599687242,2982022027
usq,-30.1041030883789,-38.7275199890136,1.9241315370291845,-5.023951801925337,2982038694
usq,-29.0864181518554,-37.156436920166,1.2949506547042409,-4.865263965537708,2982055361
usq,-27.5618858337402,-35.3170013427734,0.8992637076725034,-4.5162137854601285,2982072028
usq,-25.523790359497,-33.3578605651855,0.795130679076029,-4.02738519639233,2982088695
usq,-23.4240322113037,-31.4427871704101,0.9884799077014519,-3.4662072315657886,2982105362
usq,-21.5464115142822,-29.9189338684082,1.431858050489308,-2.9070795291464235,2982122029
usq,-19.7758159637451,-28.8698806762695,2.0338651458514327,-2.422155533697884,2982138696
usq,-18.1334953308105,-28.1295585632324,2.677064081136082,-2.0732543296135924,2982155363
usq,-16.5792522430419,-27.4366950988769,3.240205544201902,-1.9046079749006741,2982172030
usq,-14.8588819503784,-26.7118244171142,3.6203233273859263,-1.936237467951589,2982188697
usq,-13.2631673812866,-25.8623275756835,3.7510864986218215,-2.158802990739866,2982205364
usq,-11.9292049407958,-24.7598609924316,3.614746816178425,-2.53204239788274,2982222031
usq,-10.7786045074462,-23.5133342742919,3.2456467580099133,-2.989156966685691,2982238698
usq,-9.7053804397583,-22.4099597930908,2.7240165764520636,-3.4479987148584486,2982255365
usq,-8.67820167541503,-21.569896697998,2.1603438391473486,-3.8271802597489684,2982272032
usq,-7.65447759628295,-20.8650035858154,1.6728556151794918,-4.062795236801197,2982288699
usq,-6.61963319778442,-20.2222061157226,1.3627055249073519,-4.120799926033442,2982305366
usq,-5.62918949127197,-19.6394844055175,1.2923312417783603,-4.0016761131682825,2982322033
usq,-4.56967115402221,-19.0067996978759,1.4718098357035352,-3.736861587999701,2982338700
usq,-3.41604781150817,-18.1749858856201,1.856300893722317,-3.379111238073714,2982355367
usq,-2.21007347106933,-17.1015491485595,2.3554940494472616,-2.990344350736808,2982372034
usq,-0.96086174249649,-16.0989398956298,2.853692872076895,-2.630339927063716,2982388701
usq,0.306710571050643,-15.3773584365844,3.236739764525654,-2.3482534994189033,2982405368
usq,1.42067682743072,-14.8887662887573,3.4196520432545587,-2.1772403494611643,2982422035
usq,2.19237494468688,-14.4563121795654,3.367568146202048,-2.1314905542506852,2982438702
usq,2.57266044616699,-13.9707260131835,3.1036246087387553,-2.205158004625462,2982455369
usq,2.72539067268371,-13.498176574707,2.7010382111745432,-2.3734807497983823,2982472036
usq,2.77739572525024,-13.246187210083,2.2617544948238177,-2.5968140005563196,2982488703
usq,2.95230889320373,-13.2406196594238,1.888386505341146,-2.8277483532732757,2982505370
usq,3.2565267086029,-13.2358283996582,1.6579902452101496,-3.020310293625536,2982522037
usq,3.60916423797607,-13.0478830337524,1.6049926854279248,-3.1392611949037748,2982538704
usq,3.91046690940856,-12.8013200759887,1.7171296393200848,-3.167245557401066,2982555371
usq,4.11268281936645,-12.745078086853,1.9440589045425594,-3.1079709886201705,2982572038
usq,4.2422022819519,-12.932463645935,2.214813955226663,-2.9845113490143875,2982588705
usq,4.27978801727294,-13.2512493133544,2.458380040425113,-2.833028626997349,2982605372
usq,4.24301958084106,-13.4956474304199,2.6216623224847515,-2.6934430737050254,2982622039
usq,4.06529283523559,-13.600977897644,2.6805992928045854,-2.599448403966903,2982638706
usq,3.78474140167236,-13.8108797073364,2.6424571832692227,-2.5704739547505633,2982655373
usq,3.4051604270935,-14.2547044754028,2.5397740014082717,-2.6077013961321946,2982672040
usq,2.9676969051361,-14.8512496948242,2.4184930029544875,-2.6951789465796896,2982688707
usq,2.4869737625122,-15.5170097351074,2.324063970101163,-2.8056554989878615,2982705374
usq,1.89299273490905,-16.2466163635253,2.289366209058864,-2.909342417274627,2982722041
usq,1.15661180019378,-16.9561138153076,2.327290579361625,-2.9829005732179237,2982738708
usq,0.400871992111206,-17.5786590576171,2.4292134697044334,-3.015944966851593,2982755375
usq,-0.154934510588645,-18.1970386505126,2.5690176372247446,-3.013282573619775,2982772042
usq,-0.70137220621109,-18.9604701995849,2.711122333988759,-2.9925543855307217,2982788709
usq,-1.34716939926147,-19.901174545288,2.8202349212009676,-2.9783583560684352,2982805376
usq,-2.21299338340759,-20.8521366119384,2.8702409325146556,-2.99482168791104,2982822043
usq,-3.33919787406921,-21.8104610443115,2.8499599893525,-3.0587831064653743,2982838710
usq,-4.53338241577148,-22.791706085205,2.764506382630122,-3.175311769857314,2982855377
usq,-5.72984552383422,-23.7958335876464,2.632420509426552,-3.336444601481643,2982872044
usq,-6.84339904785156,-24.8901290893554,2.479970941860089,-3.5230392787372913,2982888711
usq,-7.85607099533081,-25.9944477081298,2.33457128789484,-3.7088280094384247,2982905378
usq,-8.90699768066406,-27.2090015411376,2.2190489110822167,-3.8654063716377767,2982922045
usq,-10.035400390625,-28.5290012359619,2.147843781858585,-3.967084041700606,2982938712
usq,-11.3303251266479,-29.8923473358154,2.1254867980952437,-3.995018213503958,2982955379
usq,-12.9196166992187,-31.3000183105468,2.1471501219592057,-3.9404379452611225,2982972046
usq,-14.7763719558715,-32.6805534362793,2.200742211691677,-3.8068014230439924,2982988713
usq,-16.7762222290039,-33.9894180297851,2.2699121775064577,-3.610504062470337,2983005380
usq,-18.7886791229248,-35.2088775634765,2.3373803335819705,-3.3795968181975597,2983022047
usq,-20.6228141784667,-36.4519157409668,2.388137704446514,-3.1501385695840485,2983038714
usq,-22.0399856567382,-37.8536224365234,2.4121390524830457,-2.960297342664694,2983055381
usq,-23.2140388488769,-39.197093963623,2.406075659797513,-2.8429735913451495,2983072048
usq,-24.4688568115234,-40.3220443725585,2.3737250622007022,-2.8183819924849245,2983088715
usq,-25.9540348052978,-41.369457244873,2.3244762089837625,-2.8884856508735006,2983105382
usq,-27.6416301727294,-42.5421981811523,2.270142115863124,-3.035130159560639,2983122049
usq,-29.3972396850585,-43.8311500549316,2.2209796181348858,-3.222999718832266,2983138716
usq,-30.9286785125732,-45.0565376281738,2.182437554998925,-3.407246483215792,2983155383
usq,-32.2181053161621,-46.3130798339843,2.154068932058542,-3.5441882657946495,2983172050
usq,-33.479320526123,-47.7077331542968,2.131204196699457,-3.602311216694681,2983188717
usq,-34.8990859985351,-49.1252288818359,2.1087594419859683,-3.5704811966896983,2983205384
usq,-36.5657157897949,-50.4721641540527,2.085509317375176,-3.4610186184884975,2983222051
usq,-38.5950622558593,-51.7531623840332,2.0667836637973345,-3.306810959801447,2983238718
usq,-40.7983436584472,-53.0242195129394,2.064062469936629,-3.1532841793514224,2983255385
usq,-43.1357116699218,-54.1265411376953,2.0911895773731493,-3.0473583539432596,2983272052
usq,-45.3970527648925,-54.9647178649902,2.1584127050348796,-3.0262249206344656,2983288719
usq,-47.4028587341308,-55.613597869873,2.266519015628782,-3.1086940448204676,2983305386
usq,-49.1152000427246,-56.1191253662109,2.4034482104010855,-3.290951150554227,2983322053
usq,-50.4197196960449,-56.5168380737304,2.544889123839325,-3.5472290919886706,2983338720
usq,-51.2866668701171,-56.6837348937988,2.6589683185349116,-3.8347542354083606,2983355387
usq,-51.7521095275878,-56.6414794921875,2.713845340626604,-4.101713032941319,2983372054
usq,-51.9512748718261,-56.3953514099121,2.6862326988781615,-4.2968161152603574,2983388721
usq,-52.069522857666,-55.9350280761718,2.568606886381492,-4.379009017348762,2983405388
usq,-51.9977264404296,-55.2872428894043,2.3730632337398543,-4.32584655151507,2983422055
usq,-51.5169868469238,-54.4520378112793,2.130390055544067,-4.139110893698639,2983438722
usq,-50.7547607421875,-53.3751106262207,1.884094417188364,-3.8465493444317698,2983455389
usq,-49.7860298156738,-52.1911468505859,1.6806758952434948,-3.4991177360386225,2983472056
usq,-48.6942138671875,-51.1318283081054,1.558804782553889,-3.1636981089163307,2983488723
usq,-47.6737785339355,-50.0560111999511,1.5404228070136954,-2.9118646844800677,2983505390
usq,-46.7786788940429,-48.5944786071777,1.6259384652521434,-2.806070131829297,2983522057
usq,-45.8246269226074,-46.857177734375,1.7943105415846454,-2.8857020846319865,2983538724
usq,-44.7012100219726,-45.7232475280761,2.007703286122889,-3.1563048643531255,2983555391
usq,-43.4437561035156,-45.4708518981933,2.2196377000500123,-3.5849751665835874,2983572058
usq,-42.1741790771484,-45.6020469665527,2.384811125424704,-4.103348666255334,2983588725
usq,-40.8423919677734,-45.4521217346191,2.4681730328983713,-4.6177118660129555,2983605392
usq,-39.1195220947265,-44.810977935791,2.4511734618126217,-5.024672048556933,2983622059
usq,-36.8978195190429,-43.8941001892089,2.3345553336438343,-5.2303981021738855,2983638726
usq,-34.54976272583,-42.6758079528808,2.13848700860223,-5.170770032378762,2983655393
usq,-32.6075630187988,-41.2416725158691,1.9007176089028168,-4.828437949437012,2983672060
usq,-31.3841724395751,-39.6519050598144,1.671951623702079,-4.241719152257796,2983688727
usq,-30.4368228912353,-37.9705123901367,1.5068990372023106,-3.501058266402338,2983705394
usq,-29.1809120178222,-36.1217956542968,1.45122234522002,-2.732083129617105,2983722061
usq,-27.4982299804687,-34.1158256530761,1.528011289774527,-2.068868916511172,2983738728
usq,-25.7122974395751,-32.2504844665527,1.729517943698142,-1.6245876635444116,2983755395
usq,-24.2029609680175,-30.6658153533935,2.018454006368531,-1.4675613284341393,2983772062
usq,-23.0657043457031,-29.67893409729,2.3388016874898496,-1.6086496267100865,2983788729
usq,-21.9978122711181,-29.0980472564697,2.6316667992396767,-2.0020542577776546,2983805396
usq,-20.5824298858642,-28.5258197784423,2.8499130336730256,-2.55778548559174,2983822063
usq,-18.6926612854003,-27.8674068450927,2.966864781213753,-3.161651430989879,2983838730
usq,-16.5085163116455,-27.1945934295654,2.977824506384427,-3.698060330983025,2983855397
usq,-14.1466083526611,-26.4581871032714,2.8962499164845714,-4.07147031379235,2983872064
usq,-11.7284860610961,-25.5263195037841,2.747668673318462,-4.223027084739235,2983888731
usq,-9.56330680847168,-24.3180408477783,2.563765809045421,-4.139507870445095,2983905398
usq,-7.81830072402954,-22.9691486358642,2.377586932959889,-3.8526744946539404,2983922065
usq,-6.57936286926269,-21.6313724517822,2.2195826352128587,-3.429121313146188,2983938732
usq,-5.61857032775878,-20.4176616668701,2.1138840274548456,-2.953361549484176,2983955399
usq,-4.64722299575805,-19.3426284790039,2.0746961362111747,-2.50891396398178,2983972066
usq,-3.70010423660278,-18.3713798522949,2.103502799681193,-2.1623200450971143,2983988733
usq,-2.77325725555419,-17.545669555664,2.1882735280759613,-1.9533508518864091,2984005400
usq,-1.82402908802032,-16.829303741455,2.3056784782834074,-1.8922813657561357,2984022067
usq,-0.918736517429351,-16.2029018402099,2.4264673502131906,-1.96320015833393,2984038734
usq,-0.0484006479382514,-15.6554632186889,2.52298090321268,-2.1313470383171262,2984055401
usq,0.822112441062927,-15.1363906860351,2.576726600775142,-2.3522695128552646,2984072068
usq,1.56965470314025,-14.664737701416,2.583545623790123,-2.5808351806166487,2984088735
usq,2.02290701866149,-14.2365112304687,2.5544101673783213,-2.778613105101101,2984105402
usq,2.17937922477722,-13.8549966812133,2.5112336686855854,-2.91874634437569,2984122069
usq,2.29152798652648,-13.5385379791259,2.4788376814750297,-2.9881043932217906,2984138736
usq,2.60466718673706,-13.284514427185,2.4758004388843804,-2.987068423810976,2984155403
usq,3.19444823265075,-13.0610618591308,2.5076333212864523,-2.927560667166303,2984172070
usq,3.83215069770813,-12.8693218231201,2.565067890705452,-2.829849374722739,2984188737
usq,4.341561794281,-12.6813411712646,2.6282341714497175,-2.7184920039283242,2984205404
usq,4.51786088943481,-12.6226692199707,2.67495089324131,-2.6178238867431816,2984222071
usq,4.49848985671997,-12.7296094894409,2.6894476694679548,-2.547663434288319,2984238738
usq,4.55750131607055,-12.8717937469482,2.6676697415176327,-2.520076808828622,2984255405
usq,4.62923336029052,-13.0421085357666,2.6171183204392197,-2.5378633128009245,2984272072
usq,4.49568605422973,-13.3333921432495,2.551982334752107,-2.594969978692933,2984288739
usq,4.00712776184082,-13.7618322372436,2.4864584533752905,-2.6786061357434323,2984305406
usq,3.34635639190673,-14.2341451644897,2.429506398308538,-2.772556782646445,2984322073
usq,2.8561520576477,-14.7748088836669,2.3830091488215466,-2.861027950038344,2984338740
usq,2.53319072723388,-15.3978471755981,2.343433883490835,-2.932237182272898,2984355407
usq,2.21405410766601,-16.0289268493652,2.305587437851707,-2.980959738907426,2984372074
usq,1.71106898784637,-16.6249408721923,2.2664081446274706,-3.009454489745526,2984388741
usq,0.969321966171264,-17.2513236999511,2.227019273224977,-3.0265913655704235,2984405408
usq,0.129990994930267,-17.9231243133544,2.1922768067171257,-3.04543297814021,2984422075
usq,-0.723110735416412,-18.619041442871,2.1682937457059546,-3.079853801905716,2984438742
usq,-1.58528530597686,-19.3964805603027,2.159312432906934,-3.1409705046204914,2984455409
usq,-2.464608669281,-20.2928142547607,2.165392485338356,-3.234207666940543,2984472076
usq,-3.38541054725646,-21.2615814208984,2.181718617674518,-3.3577245279905705,2984488743
usq,-4.45176601409912,-22.2837467193603,2.199455898246268,-3.502669690845576,2984505410
usq,-5.64634990692138,-23.3671226501464,2.2076184453472862,-3.655318902519142,2984522077
usq,-6.94613933563232,-24.5192966461181,2.1954986756336203,-3.8006297211428364,2984538744
usq,-8.18192195892334,-25.7897663116455,2.155396225360766,-3.926242344444608,2984555411
usq,-9.34171772003173,-27.1376037597656,2.0852621921820944,-4.025684400435734,2984572078
usq,-10.5787935256958,-28.5511016845703,1.9904975808870358,-4.099692628732743,2984588745
usq,-12.0080995559692,-30.0302448272705,1.883941104853964,-4.155157933764488,2984605412
usq,-13.6680822372436,-31.4826602935791,1.7833977131057865,-4.202018019160019,2984622079
usq,-15.4216661453247,-32.8907241821289,1.7069015217136143,-4.24912970690868,2984638746
usq,-17.1018714904785,-34.3078079223632,1.6669488454029424,-4.300455607950085,2984655413
usq,-18.6694679260253,-35.6785621643066,1.665677567769364,-4.352678826306093,2984672080
usq,-20.2513523101806,-37.123737335205,1.6929754525192882,-4.394765621817398,2984688747
usq,-22.0027503967285,-38.5127601623535,1.7286486786058535,-4.409396681824707,2984705414
usq,-23.880838394165,-39.9244117736816,1.7483655980951318,-4.375903522185351,2984722081
usq,-25.7929077148437,-41.3166923522949,1.7316972093396594,-4.274372996309292,2984738748
usq,-27.7774276733398,-42.5839538574218,1.6697765308538897,-4.0906162985320655,2984755415
usq,-29.7741909027099,-43.8278884887695,1.5701677658218511,-3.8214698555077944,2984772082
usq,-31.6420021057128,-45.1416015625,1.4573688270865355,-3.479435566289801,2984788749
usq,-33.5513153076171,-46.4493598937988,1.3685736816097336,-3.095252596419226,2984805416
usq,-35.6404495239257,-47.7247734069824,1.3454566788515265,-2.7169248587665247,2984822083
usq,-37.7889709472656,-49.0648002624511,1.4236444005713982,-2.4042124962620717,2984838750
usq,-39.9046783447265,-50.5343360900878,1.6222867419413507,-2.218686184176447,2984855417
usq,-42.1078453063964,-51.9998703002929,1.9365844049110656,-2.2109211684361822,2984872084
usq,-44.572509765625,-53.346378326416,2.3357748634762223,-2.407706711325539,2984888751
usq,-47.2664260864257,-54.5434379577636,2.7676555632488946,-2.8026067527464957,2984905418
usq,-50.1272583007812,-55.5933303833007,3.168707441310339,-3.352572490108322,2984922085
usq,-52.9843406677246,-56.4868240356445,3.477179297745639,-3.9819052534869734,2984938752
usq,-55.5564460754394,-57.1450843811035,3.6457419322468185,-4.593257461188905,2984955419
usq,-57.5948333740234,-57.5636863708496,3.6505925564448627,-5.083934343913372,2984972086
usq,-58.9719161987304,-57.7189788818359,3.494919865478181,-5.364707659110058,2984988753
usq,-59.6966590881347,-57.6547966003418,3.206167840077983,-5.37773338699414,2985005420
usq,-59.9347381591796,-57.4255943298339,2.8282899045358425,-5.109931470618,2985022087
usq,-59.7970008850097,-57.1617088317871,2.4115932768888544,-4.598422320340838,2985038754
usq,-59.3264579772949,-56.7186241149902,2.0031379236759737,-3.9257793518569173,2985055421
usq,-58.5502738952636,-56.0511016845703,1.6398881629290025,-3.205276140173624,2985072088
usq,-57.6973457336425,-55.3363075256347,1.345640407586166,-2.5592950033551776,2985088755
usq,-56.9407043457031,-54.5844421386718,1.1318261093494195,-2.0961115614915222,2985105422
usq,-56.0816345214843,-53.620792388916,1.0014767787000787,-1.8903642950940187,2985122089
usq,-54.9269561767578,-52.3057289123535,0.954547148977099,-1.9709452727105143,2985138756
usq,-53.6518211364746,-50.8494606018066,0.9918033015454637,-2.317882170598733,2985155423
usq,-52.6896018981933,-49.6505317687988,1.114703789231265,-2.8679015631956344,2985172090
usq,-51.986083984375,-49.0021324157714,1.3207316203252277,-3.526992070416727,2985188757
usq,-51.1455574035644,-48.5414657592773,1.5965546773057713,-4.187303511291017,2985205424
usq,-49.7047157287597,-48.0606422424316,1.9132798504154085,-4.745181705916502,2985222091
usq,-47.6619834899902,-47.4806823730468,2.227589814100822,-5.1172576020855205,2985238758
usq,-45.3940124511718,-46.7864341735839,2.4899373767289785,-5.25223972390484,2985255425
usq,-42.951560974121,-45.9095764160156,2.657603055289837,-5.1370460200286905,2985272092
usq,-40.2913818359375,-44.5035171508789,2.7079087339634538,-4.796840209393859,2985288759
usq,-37.6355361938476,-42.5321502685546,2.6463674417036125,-4.2893682024223,2985305426
usq,-35.3862495422363,-40.4638290405273,2.506282570008159,-3.694814106139757,2985322093
usq,-33.5037155151367,-38.6634712219238,2.3395572313545383,-3.1031078887871693,2985338760
usq,-31.7394104003906,-37.0681190490722,2.2018276725186143,-2.600854757776575,2985355427
usq,-29.8411693572998,-35.420066833496,2.136973813073366,-2.2596281827123343,2985372094
usq,-27.7023468017578,-33.6577415466308,2.1657770779241106,-2.126634606521158,2985388761
usq,-25.5988254547119,-32.1040992736816,2.281496928913896,-2.2183004050339963,2985405428
usq,-23.7725067138671,-30.9210624694824,2.452775414313238,-2.5173121738353608,2985422095
usq,-21.8517398834228,-30.0579414367675,2.6325585984428694,-2.973758555516097,2985438762
usq,-19.7759895324707,-29.3737545013427,2.7707410495639926,-3.5109702630802095,2985455429
usq,-17.8473930358886,-28.8037147521972,2.8276378488168175,-4.036295398370101,2985472096
usq,-16.2008304595947,-28.3097286224365,2.785034516574981,-4.456241505005759,2985488763
usq,-14.9591426849365,-27.7710742950439,2.6517592827621064,-4.694078083462919,2985505430
usq,-13.9802494049072,-27.008279800415,2.4618514248903574,-4.706432293279903,2985522097
usq,-12.8968658447265,-26.1139888763427,2.2654352941716587,-4.4944626883633,2985538764
usq,-11.4708929061889,-25.2178688049316,2.11474816158343,-4.1057420301056355,2985555431
usq,-9.78921031951904,-24.1657047271728,2.0494975824058748,-3.625180433489711,2985572098
usq,-7.89634180068969,-22.8161754608154,2.086084193044428,-3.1564137953927527,2985588765
usq,-6.13022470474243,-21.4663944244384,2.2139971805579943,-2.7979443174959084,2985605432
usq,-5.0674409866333,-20.5570945739746,2.400257337125116,-2.620042838107251,2985622099
usq,-4.86331939697265,-20.1857833862304,2.6000178831273133,-2.6484756153348896,2985638766
usq,-4.90300703048706,-20.0769214630126,2.7694652058782325,-2.859383924122834,2985655433
usq,-4.65766906738281,-19.9728717803955,2.8768364151313626,-3.1865617668721,2985672100
usq,-3.85199618339538,-19.721263885498,2.9086514631478244,-3.538922687114262,2985688767
usq,-2.81191682815551,-19.3284683227539,2.870277799631418,-3.8232649579870666,2985705434
usq,-2.05157351493835,-18.8768520355224,2.7817217403176278,-3.9663424899730577,2985722101
usq,-1.74272370338439,-18.5135669708251,2.6705734222298947,-3.9309023305722017,2985738768
usq,-1.63255536556243,-18.3085613250732,2.564331001924645,-3.7223339861254288,2985755435
usq,-1.58739113807678,-18.2905578613281,2.4840963279332664,-3.385139501990034,2985772102
usq,-1.60605013370513,-18.3446311950683,2.441018314476516,-2.9908301275703275,2985788769
usq,-1.68023598194122,-18.2331047058105,2.435959896179903,-2.620566742394252,2985805436
usq,-1.66518557071685,-17.9902820587158,2.4618649677065534,-2.346672614754799,2985822103
usq,-1.45751106739044,-17.8662414550781,2.507533595535874,-2.21709741482415,2985838770
usq,-1.22544372081756,-18.0413055419921,2.561306427968455,-2.246133032678762,2985855437
usq,-1.10201668739318,-18.4874877929687,2.6135852912565953,-2.4132844576621304,2985872104
usq,-1.12098264694213,-19.0411930084228,2.6578916041850973,-2.6703435599687992,2985888771
usq,-1.29847466945648,-19.6094322204589,2.690834834058297,-2.954740413383689,2985905438
usq,-1.56219947338104,-20.1670551300048,2.711615769510097,-3.205645587743723,2985922105
usq,-1.88112926483154,-20.6966876983642,2.7215244962734784,-3.3785471155533293,2985938772
usq,-2.31846809387207,-21.1555347442626,2.723564224897,-3.454446351564481,2985955439
usq,-2.8991732597351,-21.5988826751709,2.7220963910312896,-3.44143355340747,2985972106
usq,-3.51822996139526,-22.148359298706,2.7223239612088457,-3.3688108521653515,2985988773
usq,-4.13636922836303,-22.8196487426757,2.729449683247624,-3.276284661812862,2986005440
usq,-4.88226461410522,-23.5881042480468,2.747455466256147,-3.202094659832801,2986022107
usq,-5.73594236373901,-24.4150295257568,2.777676073983572,-3.1737550172767843,2986038774
usq,-6.44378805160522,-25.2810134887695,2.8176050114558815,-3.2035835075295753,2986055441
usq,-6.97223329544067,-26.1991786956787,2.860477221149413,-3.2891855841414888,2986072108
usq,-7.54110622406005,-27.2273788452148,2.8959823719814572,-3.4174242055773862,2986088775
usq,-8.33483791351318,-28.2558937072753,2.912049353654186,-3.569700411094719,2986105442
usq,-9.43610668182373,-29.2874755859375,2.897268690910442,-3.7266671910062796,2986122109
usq,-10.7396898269653,-30.3684787750244,2.843410952553699,-3.8714236539874647,2986138776
usq,-12.2346220016479,-31.5078125,2.747631349689771,-3.991193216086608,2986155443
usq,-13.7964344024658,-32.7359733581543,2.6140934187222484,-4.07800417042589,2986172110
usq,-15.3585596084594,-33.9589309692382,2.4547358444949032,-4.1288392324856105,2986188777
usq,-16.7557258605957,-35.150951385498,2.288815977245992,-4.14533874850943,2986205444
usq,-18.058853149414,-36.3289146423339,2.1408618039454534,-4.132838218508345,2986222111
usq,-19.5386981964111,-37.5647888183593,2.0368324944863785,-4.098573851479187,2986238778
usq,-21.2847385406494,-38.8415985107421,1.9986449310084058,-4.04927021691941,2986255445
usq,-23.2743530273437,-40.1098098754882,2.037826281604521,-3.9887859704254964,2986272112
usq,-25.2843704223632,-41.4321250915527,2.149854356722145,-3.916763867899966,2986288779
usq,-27.1843719482421,-42.8126144409179,2.3113514648644062,-3.8291033066287907,2986305446
usq,-29.0298519134521,-44.2102508544921,2.4821041596666955,-3.7204782750965206,2986322113
usq,-30.9005813598632,-45.6550140380859,2.6126497741760226,-3.5882369721077327,2986338780
usq,-32.7040748596191,-47.1267623901367,2.6563246456243625,-3.43627442360655,2986355447
usq,-34.4446220397949,-48.5073661804199,2.5829602870069706,-3.277316493593202,2986372114
usq,-36.0922088623046,-49.880084991455,2.390424494300452,-3.1325743654606213,2986388781
usq,-37.7494392395019,-51.3953285217285,2.110225298212046,-3.028552796586296,2986405448
usq,-39.3702888488769,-53.0441360473632,1.8045153668115066,-2.99153690131617,2986422115
usq,-41.1348762512207,-54.6724281311035,1.5539050335214357,-3.0409060382754514,2986438782
usq,-43.3435173034668,-56.244831085205,1.4380786271718924,-3.1829753097752893,2986455449
usq,-45.893440246582,-57.7022056579589,1.5136751235013324,-3.407270404879478,2986472116
usq,-48.5008316040039,-58.9080047607421,1.7955088502791445,-3.686641146588941,2986488783
usq,-50.8476829528808,-59.8389472961425,2.2472465908140427,-3.9814919799927453,2986505450
usq,-52.8990631103515,-60.580280303955,2.7856732665127337,-4.247136478848772,2986522117
usq,-54.7267379760742,-61.0296211242675,3.2988720953999713,-4.442325345728748,2986538784
usq,-56.2738723754882,-61.2466011047363,3.6740601352787476,-4.536680321577111,2986555451
usq,-57.4423561096191,-61.3992347717285,3.8270904706467617,-4.515348916078988,2986572118
usq,-58.246166229248,-61.521183013916,3.7243667095064006,-4.380543130146255,2986588785
usq,-58.8025665283203,-61.3747825622558,3.389996382557301,-4.150900752166908,2986605452
usq,-59.1762199401855,-61.0555381774902,2.8960555455124926,-3.859760927488455,2986622119
usq,-59.2109985351562,-60.7505226135253,2.34002646999677,-3.55229309914106,2986638786
usq,-58.7608642578125,-60.4139595031738,1.8180563893580302,-3.280134695707989,2986655453
usq,-57.9699325561523,-60.0176925659179,1.4033866903978451,-3.0923846787246774,2986672120
usq,-57.21577835083,-59.3967056274414,1.1358833371992212,-3.023860281967583,2986688787
usq,-56.6754875183105,-58.5124206542968,1.023202955079441,-3.0840920699212604,2986705454
usq,-56.1505737304687,-57.5152053833007,1.0497878890770707,-3.2517134411746245,2986722121
usq,-55.033950805664,-56.5014343261718,1.1884297341418242,-3.477778544713228,2986738788
usq,-53.1964607238769,-55.3971633911132,1.4102626480511615,-3.6985434565659765,2986755455
usq,-50.9746704101562,-54.2245788574218,1.6910784417038853,-3.854598452946649,2986772122
usq,-48.7503395080566,-53.0146102905273,2.0133855714892874,-3.910361032004383,2986788789
usq,-46.7816658020019,-51.6669273376464,2.3644794231169457,-3.8670026572590936,2986805456
usq,-45.3021850585937,-50.1260910034179,2.731568733835211,-3.7634932379937722,2986822123
usq,-44.1847953796386,-48.5627250671386,3.095982962511267,-3.664349927406685,2986838790
usq,-43.3899230957031,-47.2075233459472,3.4291215145504337,-3.637578481432283,2986855457
usq,-42.5359878540039,-46.1377029418945,3.69244795026239,-3.7302145333458214,2986872124
usq,-41.045669555664,-45.1136932373046,3.842549010296081,-3.950094530165823,2986888791
usq,-38.858341217041,-43.961196899414,3.8406614331158746,-4.260451035148147,2986905458
usq,-36.1059379577636,-42.6663742065429,3.6645387878550975,-4.589411256377821,2986922125
usq,-33.2545928955078,-41.2948265075683,3.3192828816675197,-4.851205323966801,2986938792
usq,-31.0069046020507,-39.85835647583,2.8431725423513052,-4.971898367275052,2986955459
