Label,Left_Hip_q,Right_Hip_q,Left_Hip_qd,Right_Hip_qd,SampleTimeFine
sw,-65.2783737182617,-66.5467681884765,26.6937618255615,-168.575866699218,425201399
sw,-65.5241928100586,-63.6184921264648,12.934133627342682,-187.67607632032704,425218066
sw,-65.7918243408203,-60.7266235351562,14.272129935213659,-173.22192488854657,425234733
sw,-66.1453018188476,-58.1477584838867,15.765830278567828,-159.0981287165803,425251400
sw,-66.4905471801757,-55.906135559082,17.60327566693528,-145.43615060428434,425268067
sw,-66.794448852539,-53.9464416503906,19.9032212135528,-132.16475343455,425284734
sw,-67.1583709716796,-52.31494140625,22.667545937216964,-118.91073654450643,425301401
sw,-67.5848083496093,-50.8300285339355,25.750119919621607,-104.96900199516497,425318068
sw,-68.1327514648437,-49.5736083984375,28.85658162629117,-89.39084962642534,425334735
sw,-68.756607055664,-48.5124320983886,31.580736980617914,-71.2067614764147,425351402
sw,-69.3869476318359,-47.7114143371582,33.47055315476879,-49.74906379386368,425368069
sw,-69.9423141479492,-47.2491607666015,34.108640172615395,-24.991024112825258,425384736
sw,-70.4682312011718,-47.3300132751464,33.19281167129287,2.2073297808327816,425401403
sw,-71.002571105957,-47.8489608764648,30.60754157959855,30.046457460426044,425418070
sw,-71.5361022949218,-48.90132522583,26.478699727957085,55.981459471973174,425434737
sw,-72.0128784179687,-50.4469604492187,21.198615048823537,77.15062784647411,425451404
sw,-72.4023361206054,-51.996597290039,15.402182700617407,90.96217699119973,425468071
sw,-72.6466598510742,-53.7679824829101,9.877340899967317,95.71949427512617,425484738
sw,-72.6562728881836,-55.7838134765625,5.409884121777526,91.14543130652417,425501405
sw,-72.5589828491211,-57.8642845153808,2.58870238356065,78.66333804168839,425518072
sw,-72.521484375,-59.6868438720703,1.6205182814304706,61.30958076078391,425534739
sw,-72.5640411376953,-60.3982315063476,2.2094429033693324,43.21305748581838,425551406
sw,-72.6760482788086,-60.1324005126953,3.541502529148038,28.70167601297359,425568073
sw,-72.7150268554687,-59.6083602905273,4.386243934047387,21.255197310938307,425584740
sw,-72.6621398925781,-59.2836532592773,3.3005210920332853,22.63327035167761,425601407
sw,-72.7914810180664,-59.8325881958007,-1.099906546777342,32.48187906860176,425618074
sw,-72.9109268188476,-61.523338317871,-9.85046237794599,48.54921449350187,425634741
sw,-72.7272644042968,-63.6790351867675,-23.391006554985907,67.40465180382759,425651408
sw,-72.0228652954101,-65.2930908203125,-41.42312358529495,85.37678573865345,425668075
sw,-70.9328155517578,-66.7881851196289,-62.90949092314753,99.39619366078641,425684742
sw,-69.5051956176757,-68.534927368164,-86.21566786383872,107.53731083009149,425701409
sw,-67.8739471435546,-70.6026763916015,-109.36319815680264,109.20748328196152,425718076
sw,-66.0405578613281,-72.6442947387695,-130.34991927974625,105.03440988781539,425734743
sw,-63.4177322387695,-74.4600830078125,-147.48848290057373,96.53491425795299,425751410
sw,-60.0628547668457,-75.6754913330078,-159.6987346217185,85.65175809581153,425768077
sw,-56.4704551696777,-76.4496688842773,-166.6670346401372,74.26056828745728,425784744
sw,-54.1575393676757,-77.1710510253906,-168.79247693944737,63.76887108379934,425801411
sw,-52.2490463256835,-78.205825805664,-166.91074432350553,54.91612548594701,425818078
sw,-49.6731872558593,-79.3488693237304,-161.8962795353871,47.81591895430906,425834745
sw,-46.9579353332519,-80.3527221679687,-154.30996490279946,42.18443376832279,425851412
sw,-44.381664276123,-81.1608734130859,-144.22587998531628,37.63012081237755,425868079
sw,-42.1669197082519,-81.7519302368164,-131.2708448933681,33.87872902252415,425884746
sw,-40.2251663208007,-82.26318359375,-114.82497096153948,30.8661289919064,425901413
sw,-38.5671501159668,-82.6960983276367,-94.30113861847049,28.703779260183346,425918080
sw,-37.3340415954589,-83.1672973632812,-69.42988708686464,27.567844536906016,425934747
sw,-36.7686424255371,-83.6677932739257,-40.49478187746758,27.571791272847825,425951414
sw,-36.7393608093261,-84.1383666992187,-8.480002988259816,28.666861042300358,425968081
sw,-37.0264816284179,-84.6295471191406,24.895689894691383,30.593671025641218,425984748
sw,-37.6870002746582,-85.2085037231445,57.27904588610763,32.89165324841637,426001415
sw,-38.9450302124023,-85.8432922363281,85.93414837976934,34.96154415093029,426018082
sw,-40.8868980407714,-86.4701995849609,108.14664295111139,36.166816777901964,426034749
sw,-43.0281105041503,-87.0875854492187,121.7366675116185,35.95267193820189,426051416
sw,-45.4992866516113,-87.729019165039,125.57698598143163,33.957543835997825,426068083
sw,-47.8766288757324,-88.344123840332,119.97005150534847,30.091771755132747,426084750
sw,-50.3097419738769,-88.8264770507812,106.74047868578306,24.560413065868072,426101417
sw,-52.0291633605957,-89.1974105834961,88.95814157898431,17.81418995590283,426118084
sw,-52.5483360290527,-89.4633178710937,70.31549135776721,10.427055117198357,426134751
sw,-52.5335731506347,-89.5011138916015,54.312764388808944,2.9195445981697805,426151418
sw,-52.9104232788085,-89.3000259399414,43.498157177454615,-4.431485661548168,426168085
sw,-53.8232917785644,-88.93798828125,39.00143644574466,-11.740467682168939,426184752
sw,-54.9697494506835,-88.39892578125,40.47673869870349,-19.558685110886163,426201419
sw,-55.8992881774902,-87.7030487060546,46.40433151436641,-28.774704402343076,426218086
sw,-56.9458312988281,-87.0831527709961,54.591620021960786,-40.365653442488764,426234753
sw,-57.9204559326171,-86.6420593261718,62.70480548912881,-55.05185706793323,426251420
sw,-59.013011932373,-86.0814895629882,68.72075207754762,-72.96295629274641,426268087
sw,-60.2818222045898,-84.8316116333007,71.25175830030253,-93.44740083030358,426284754
sw,-61.8177146911621,-82.8367004394531,69.7276311514407,-115.12088113953187,426301421
sw,-63.0347290039062,-80.080337524414,64.42390509156226,-136.15516959041327,426318088
sw,-63.9147186279296,-77.0856475830078,56.329867817525724,-154.7023716768865,426334755
sw,-64.6344604492187,-74.1345443725586,46.87644661492324,-169.29331334542795,426351422
sw,-65.1221923828125,-71.1690521240234,37.585314905881965,-179.0755819086723,426368089
sw,-65.4190902709961,-68.175064086914,29.729866354136746,-183.84477995375588,426384756
sw,-65.7984771728515,-65.3342742919921,24.09575791490322,-183.91443564141383,426401423
sw,-66.18603515625,-62.44527053833,20.894218838716778,-179.9161615276432,426418090
sw,-66.6330184936523,-59.4077033996582,19.8306595371631,-172.60949398847472,426434757
sw,-67.1236495971679,-56.6601867675781,20.284326099912764,-162.73370753161245,426451424
sw,-67.6138763427734,-54.2491340637207,21.52863941560589,-150.891317884306,426468091
sw,-68.0590209960937,-52.0985527038574,22.923125078384448,-137.4445694511299,426484758
sw,-68.4400863647461,-50.2679748535156,24.031380795878523,-122.43109158154797,426501425
sw,-68.8232269287109,-48.6854400634765,24.652707240309503,-105.53585277242613,426518092
sw,-69.2560806274414,-47.5169334411621,24.7837074365618,-86.16630728519142,426534759
sw,-69.6941375732421,-46.6603279113769,24.540954532173195,-63.65784549402199,426551426
sw,-70.0544738769531,-46.1257133483886,24.076456919526777,-37.59437000909029,426568093
sw,-70.4016876220703,-45.8854904174804,23.510631718530124,-8.176711077051285,426584760
sw,-70.7875213623046,-46.1211051940918,22.898278894745072,23.473821169047316,426601427
sw,-71.2137298583984,-46.7264862060546,22.231787724373923,55.20751441689019,426618094
sw,-71.6736755371093,-47.9916725158691,21.47179331131722,84.03741267189432,426634761
sw,-72.1576156616211,-50.1178016662597,20.58289761563235,106.65600098910402,426651428
sw,-72.5733413696289,-52.401985168457,19.54859806888976,120.19426084453963,426668095
sw,-72.8001708984375,-55.0278968811035,18.350061577482673,123.03473781603998,426684762
sw,-72.9717407226562,-57.8429946899414,16.914566561604524,115.43087106804926,426701429
sw,-73.2254943847656,-60.4035034179687,15.059457163989098,99.69781127028426,426718096
sw,-73.4980697631836,-61.9480628967285,12.462754012749425,79.83466670566746,426734763
sw,-73.7319183349609,-61.9971084594726,8.678658364261908,60.61009304665185,426751430
sw,-73.8336105346679,-61.5855751037597,3.1960878915259583,46.353082926472645,426768097
sw,-73.6176071166992,-61.4366798400878,-4.473957769858869,39.84454612228866,426784764
sw,-73.3210678100586,-62.1929321289062,-14.69690950329227,41.69709478292974,426801431
sw,-73.0693893432617,-64.0649108886718,-27.611776724208,50.41631419243916,426818098
sw,-72.5951080322265,-65.776138305664,-43.04510770137403,63.05634068441415,426834765
sw,-71.5361022949218,-67.3039474487304,-60.46808524410653,76.1720552548528,426851432
sw,-69.9745407104492,-68.8240814208984,-79.01860098402791,86.72696503502725,426868099
sw,-68.4585037231445,-70.3419799804687,-97.5897008301367,92.719044505466,426884766
sw,-66.9005050659179,-72.1074600219726,-114.9673381091245,93.4381469468859,426901433
sw,-64.9658050537109,-73.9063873291015,-129.99842825804612,89.38247721421263,426918100
sw,-62.199405670166,-75.2635803222656,-141.7711916229783,81.9180531717633,426934767
sw,-58.8661994934082,-76.1502990722656,-149.77156737305236,72.79195518659435,426951434
sw,-56.2812805175781,-76.8565368652343,-153.95385541277685,63.63144645569645,426968101
sw,-54.3946800231933,-77.7198715209961,-154.67465806093878,55.56617604521054,426984768
sw,-52.2446174621582,-78.7571029663086,-152.50358599791613,49.07229472658475,427001435
sw,-49.4498405456543,-79.7445297241211,-147.99323693860913,44.05373044374847,427018102
sw,-46.8439788818359,-80.6777648925781,-141.4997791894776,40.08579749627393,427034769
sw,-44.6690597534179,-81.4936370849609,-133.09386586960545,36.69804130652876,427051436
sw,-42.8185501098632,-82.1464233398437,-122.55118286984,33.58540225497243,427068103
sw,-41.0988578796386,-82.6844177246093,-109.40512895354344,30.69081730089594,427084770
sw,-39.4932327270507,-83.082160949707,-93.06204053806331,28.164099157330934,427101437
sw,-38.3506546020507,-83.4657440185546,-72.98334273976725,26.244742009084217,427118104
sw,-37.6585502624511,-83.89697265625,-48.920002846589554,25.129897954522736,427134771
sw,-37.2928314208984,-84.3244552612304,-21.159174989930808,24.876833950539556,427151438
sw,-37.3030471801757,-84.8068771362304,9.276519035416358,25.363583267345433,427168105
sw,-37.7086448669433,-85.333267211914,40.548042315756646,26.305861960512946,427184772
sw,-38.5935668945312,-85.8151702880859,70.1059840607919,27.312267770466942,427201439
sw,-40.11572265625,-86.2552947998046,95.0228704364752,27.956359332087402,427218106
sw,-42.3967514038085,-86.7109222412109,112.52823571636895,27.850193904453917,427234773
sw,-44.6123237609863,-87.1948089599609,120.64247751018229,26.711627812937568,427251440
sw,-46.6623268127441,-87.6747665405273,118.74266220969707,24.419776431351348,427268107
sw,-49.3594665527343,-88.1121826171875,107.87989596957532,21.048356874571923,427284774
sw,-51.4668312072753,-88.4861297607421,90.7115219875682,16.861000208788937,427301441
sw,-52.4042663574218,-88.8196563720703,71.00520580148554,12.253072682780555,427318108
sw,-52.3286361694335,-89.0599670410156,52.806198714536166,7.634462600452277,427334775
sw,-52.2231521606445,-89.0855026245117,39.49833867380885,3.266941914820702,427351442
sw,-52.5059738159179,-88.8646087646484,33.05762923779422,-0.9047358794217066,427368109
sw,-53.4446678161621,-88.4589614868164,33.73213870268041,-5.36476647504643,427384776
sw,-54.6508331298828,-87.9912414550781,40.20712310167662,-11.010676312894024,427401443
sw,-55.6453590393066,-87.7195587158203,50.13192624227973,-18.965987953935194,427418110
sw,-56.698501586914,-87.6463165283203,60.79229820664703,-30.241328227974517,427434777
sw,-57.875560760498,-87.5110092163086,69.72951093715294,-45.344507613068714,427451444
sw,-59.1868133544921,-86.8988418579101,75.18569495643159,-63.99224489859614,427468111
sw,-60.6317138671875,-85.5645599365234,76.33034354727607,-85.05934610645085,427484778
sw,-62.0462188720703,-83.4681777954101,73.26943966489101,-106.81000964717806,427501445
sw,-63.0457611083984,-80.6368331909179,66.86661644419908,-127.33143400030681,427518112
sw,-63.8035697937011,-77.6906509399414,58.43291488744026,-144.99745896802767,427534779
sw,-64.5072937011718,-74.9851531982421,49.36883826601651,-158.78134206942258,427551446
sw,-65.0977096557617,-72.3109970092773,40.85287711865289,-168.3186081433946,427568113
sw,-65.6941375732421,-69.6745071411132,33.650284895305425,-173.7469033534395,427584780
sw,-66.2844314575195,-66.9469299316406,28.070243212753685,-175.4468942612362,427601447
sw,-66.807632446289,-64.1588668823242,24.049844497296537,-173.825099272301,427618114
sw,-67.2967376708984,-61.2308349609375,21.309520010334932,-169.2187247969879,427634781
sw,-67.7160186767578,-58.4529113769531,19.515469293624406,-161.91199516514425,427651448
sw,-68.0522308349609,-56.0101432800293,18.397989519962398,-152.1904267489798,427668115
sw,-68.3701095581054,-53.8596229553222,17.80098899832152,-140.3556741818377,427684782
sw,-68.6971359252929,-51.9977302551269,17.665837748065453,-126.66994747823057,427701449
sw,-69.0008697509765,-50.4304504394531,17.972746715336378,-111.25863236114508,427718116
sw,-69.3236846923828,-49.2264366149902,18.670892148237968,-94.0372500425,427734783
sw,-69.7142562866211,-48.3275146484375,19.62547552143949,-74.73004778296809,427751450
sw,-70.1202697753906,-47.6701049804687,20.59967648746707,-53.01657532412794,427768117
sw,-70.4923019409179,-47.2530479431152,21.276918937933864,-28.79148407578077,427784784
sw,-70.8560409545898,-47.3062934875488,21.31851867852519,-2.467628954489331,427801451
sw,-71.2358779907226,-47.6282386779785,20.445043652926675,24.786413946839435,427818118
sw,-71.626594543457,-48.3619728088378,18.524259857869275,50.988372808320115,427834785
sw,-72.0077362060546,-49.5410690307617,15.642409956364332,73.54239346684474,427851452
sw,-72.3495864868164,-51.2555236816406,12.131523275995802,89.70591693507129,427868119
sw,-72.5745391845703,-53.1579475402832,8.5295667616443,97.24414889809057,427884786
sw,-72.63720703125,-55.2321395874023,5.466376809727186,95.11261253986254,427901453
sw,-72.5887908935546,-57.3528251647949,3.493556243648085,83.96356576502646,427918120
sw,-72.5448760986328,-59.1055603027343,2.900843616206079,66.28342070950288,427934787
sw,-72.5558013916015,-60.30318069458,3.5725805919445097,46.04432176336809,427951454
sw,-72.6592864990234,-60.3474540710449,4.929414433071593,27.888583616066963,427968121
sw,-72.7758178710937,-59.7996940612793,5.976733183483745,16.03044160247237,427984788
sw,-72.8108520507812,-59.1719360351562,5.454397557198574,13.19401445553603,428001455
sw,-72.837532043457,-59.0248298645019,2.0619585071759428,19.935650660818293,428018122
sw,-72.8601760864257,-59.9027824401855,-5.279087714369536,34.584485327943085,428034789
sw,-72.8005981445312,-61.8591995239257,-17.17391695421506,53.81187888459108,428051456
sw,-72.4929885864257,-64.0641937255859,-33.56873411755414,73.60810883935918,428068123
sw,-71.7362976074218,-65.6971359252929,-53.682442269712226,90.31581556531589,428084790
sw,-70.4133911132812,-67.2322692871093,-76.08509886452737,101.40252549998881,428101457
sw,-68.7312622070312,-69.0164566040039,-98.91440688694195,105.81103351385876,428118124
sw,-66.7033996582031,-70.9103317260742,-120.18344453402672,103.8999725926364,428134791
sw,-64.6279983520507,-72.6542129516601,-138.11281370799054,97.09005684417383,428151458
sw,-62.0528144836425,-74.1413497924804,-151.42150606741944,87.35577020190843,428168125
sw,-58.6278228759765,-75.2052307128906,-159.51957265403422,76.69169271464271,428184792
sw,-55.4524841308593,-75.9877395629882,-162.55257340722986,66.66956392536828,428201459
sw,-53.3212738037109,-76.8251800537109,-161.26769068704002,58.18177050013175,428218126
sw,-51.3561477661132,-77.9492111206054,-156.72558958209171,51.41979694107676,428234793
sw,-48.7986373901367,-79.0707244873046,-149.9518974839526,46.061621389187,428251460
sw,-46.1459274291992,-79.9857101440429,-141.649477502324,41.570334376914104,428268127
sw,-43.8128242492675,-80.7083053588867,-132.04911096999098,37.47808826343506,428284794
sw,-41.9049415588378,-81.2814331054687,-120.9042475182952,33.55988848203968,428301461
sw,-40.1904983520507,-81.7295608520507,-107.59569776617931,29.866524903956208,428318128
sw,-38.6512107849121,-82.0812606811523,-91.31470911934977,26.645131410965742,428334795
sw,-37.4380111694335,-82.4520263671875,-71.3045182587393,24.205006218913105,428351462
sw,-36.8018455505371,-82.8820877075195,-47.13665225683468,22.78487980266869,428368129
sw,-36.5811882019043,-83.265884399414,-18.982738008537893,22.458361318926283,428384796
sw,-36.6007766723632,-83.6414947509765,12.17324353593251,23.09136670474699,428401463
sw,-36.9823989868164,-84.0408248901367,44.44948778321149,24.349256008332045,428418130
sw,-37.96626663208,-84.4458541870117,75.17667607060247,25.74483187763581,428434797
sw,-39.6648368835449,-84.8676452636718,101.24674477469301,26.71728992817808,428451464
sw,-42.1239929199218,-85.3336029052734,119.67694723037756,26.731170010789516,428468131
sw,-44.3972778320312,-85.8647384643554,128.27898972742182,25.380328142560117,428484798
sw,-46.5938110351562,-86.3768005371093,126.25790834035107,22.475762816485094,428501465
sw,-49.4267120361328,-86.7501983642578,114.55585049612117,18.092512547753064,428518132
sw,-51.5234603881835,-86.9721145629882,95.8043870995892,12.555392279679987,428534799
sw,-52.5372352600097,-87.138442993164,73.843768011422,6.356780362977592,428551466
sw,-52.5712814331054,-87.2090148925781,52.898996519096976,0.016496481942645733,428568133
sw,-52.3683128356933,-87.0802001953125,36.63762553545513,-6.091224091919838,428584800
sw,-52.5775527954101,-86.7425003051757,27.4003289748736,-11.905031958930483,428601467
sw,-53.41011428833,-86.1245574951171,25.83334545419765,-17.78572925265845,428618134
sw,-54.4766654968261,-85.3590240478515,30.984197123286716,-24.508850114838076,428634801
sw,-55.3390502929687,-84.7582092285156,40.746810585935165,-33.09936369763991,428651468
sw,-56.2853317260742,-84.4113159179687,52.45491491179087,-44.519867623024155,428668135
sw,-57.2751312255859,-84.1440505981445,63.44581841660535,-59.298968825868435,428684802
sw,-58.3144264221191,-83.5177154541015,71.49939961388623,-77.24421249998626,428701469
sw,-59.5511016845703,-82.2406387329101,75.13135161395627,-97.37728622934047,428718136
sw,-61.0892181396484,-79.9966964721679,73.75038856679109,-118.14287763325278,428734803
sw,-62.4483985900878,-77.0608978271484,67.68311073028495,-137.81385464171825,428751470
sw,-63.4228897094726,-74.1324996948242,58.05815756663396,-154.91763357971564,428768137
sw,-64.1624908447265,-71.3412780761718,46.55156857460299,-168.50371723594753,428784804
sw,-64.5945968627929,-68.5783386230468,35.031207913059426,-178.1658715508365,428801471
sw,-64.8760757446289,-65.8670196533203,25.176485771005773,-183.86546630431815,428818138
sw,-65.1504516601562,-63.0541229248046,18.163945841686456,-185.6931929213466,428834805
sw,-65.2995071411132,-59.9438171386718,14.491173199929063,-183.7067471979566,428851472
sw,-65.5223922729492,-56.681396484375,13.970887187484232,-177.9048122296232,428868139
sw,-65.9361572265625,-53.7543869018554,15.880193264425683,-168.30033987387705,428884806
sw,-66.4695816040039,-51.3086051940918,19.209976708343504,-155.00181225175103,428901473
sw,-67.0622177124023,-49.2327537536621,22.93606156826653,-138.22811590643153,428918140
sw,-67.6027221679687,-47.5282936096191,26.235047236435253,-118.24784338624393,428934807
sw,-68.0654983520507,-46.238971710205,28.595418194592266,-95.29645825960382,428951474
sw,-68.5045928955078,-45.3825645446777,29.81781596869479,-69.54773824192894,428968141
sw,-68.9590835571289,-44.9432334899902,29.937322229854473,-41.194387016796725,428984808
sw,-69.4467391967773,-44.7429389953613,29.11852313299183,-10.642062615020961,429001475
sw,-69.9260940551757,-45.0926895141601,27.567542605998355,21.238821897329938,429018142
sw,-70.3782958984375,-45.8425903320312,25.48346309781747,52.90783623668514,429034809
sw,-70.8351516723632,-46.7996673583984,23.04792268486904,82.11782302930649,429051476
sw,-71.2846908569336,-48.4553642272949,20.43522608327188,106.14182568443907,429068143
sw,-71.6503753662109,-50.8567962646484,17.819192725754935,122.28369013050559,429084810
sw,-71.9329605102539,-53.5596885681152,15.357262613688315,128.58155726733435,429101477
sw,-72.1673126220703,-56.3957557678222,13.145177383031431,124.50387108714959,429118144
sw,-72.3194198608398,-59.0450592041015,11.151856801041584,111.38295298962655,429134811
sw,-72.454231262207,-61.2402839660644,9.156981793785773,92.37130208348947,429151478
sw,-72.5743103027343,-62.1418762207031,6.718239033216991,71.84294982841189,429168145
sw,-72.6491012573242,-61.9091072082519,3.190449779385647,54.36093838834284,429184812
sw,-72.5658187866211,-61.6148300170898,-2.1921328594832374,43.52069669125969,429201479
sw,-72.1734619140625,-61.8841361999511,-10.17253042679538,41.06133493055285,429218146
sw,-71.9611282348632,-63.269115447998,-21.28473640134544,46.54613126066535,429234813
sw,-71.8834381103515,-64.9654388427734,-35.66336435086582,57.68202590487711,429251480
sw,-71.1995239257812,-66.4752044677734,-52.90906684359192,71.103193243152,429268147
sw,-69.7152023315429,-68.1338882446289,-72.06990574456034,83.31407987181908,429284814
sw,-68.0824203491211,-69.5879135131836,-91.76326726323701,91.50877242039564,429301481
sw,-66.4427642822265,-71.2667999267578,-110.40941347680942,94.09584194629865,429318148
sw,-64.678352355957,-73.1682968139648,-126.5146871551665,90.87487685487216,429334815
sw,-62.0816650390625,-74.8154525756836,-138.94121314025992,82.88767653371426,429351482
sw,-58.9886779785156,-75.8312759399414,-147.1057842923703,72.01202371147424,429368149
sw,-56.1351203918457,-76.4491729736328,-151.04927456021815,60.40669557289676,429384816
sw,-54.12691116333,-77.0673675537109,-151.33547556405787,49.95546856263964,429401483
sw,-52.4993209838867,-77.8297500610351,-148.80040350601686,41.86419675726632,429418150
sw,-49.9053840637207,-78.5489883422851,-144.24929081493818,36.512347922104425,429434817
sw,-47.2012672424316,-79.3301544189453,-138.22021661917307,33.56505964525047,429451484
sw,-44.8850173950195,-80.1735305786132,-130.87682800396243,32.26233638564996,429468151
sw,-42.9473915100097,-80.9000549316406,-122.01392381585592,31.758235109531775,429484818
sw,-41.2389869689941,-81.5503616333007,-111.12820297637325,31.393179316562634,429501485
sw,-39.606948852539,-82.0467300415039,-97.52806374811234,30.830661440889365,429518152
sw,-38.3035049438476,-82.4706344604492,-80.4854757419668,30.049765707954837,429534819
sw,-37.4982032775878,-82.9213562011718,-59.43679231386326,29.2332155684789,429551486
sw,-37.0134162902832,-83.3702850341796,-34.22125915945335,28.61318125045138,429568153
sw,-36.8426055908203,-83.8688888549804,-5.320425693810352,28.333596440449803,429584820
sw,-36.9886970520019,-84.373291015625,25.964406391569536,28.367869993074216,429601487
sw,-37.5955352783203,-84.8601608276367,57.47817523842332,28.506516285909942,429618154
sw,-38.8317985534668,-85.3574600219726,86.39594424555793,28.40838111528694,429634821
sw,-40.9296493530273,-85.9005966186523,109.65012633242343,27.69449889141512,429651488
sw,-43.2830162048339,-86.4298782348632,124.54210467289965,26.054954001573552,429668155
sw,-45.5306892395019,-86.8544006347656,129.39420408192933,23.336805192545178,429684822
sw,-48.2055053710937,-87.1598587036132,124.05357240328885,19.586896818251617,429701489
sw,-50.7672958374023,-87.396614074707,110.07581744765335,15.036783234359433,429718156
sw,-52.4294967651367,-87.6228256225586,90.48957359109949,10.032631795491717,429734823
sw,-52.9285621643066,-87.8355407714843,69.16304585539287,4.924138547061905,429751490
sw,-52.8538551330566,-87.9387283325195,49.9356434709775,-0.06794034253635198,429768157
sw,-52.949649810791,-87.8147506713867,35.78190176929298,-4.9804397955989534,429784824
sw,-53.6618385314941,-87.4865112304687,28.269212388546638,-10.19702742950071,429801491
sw,-54.7353210449218,-86.9480895996093,27.441245300423546,-16.452470135125424,429818158
sw,-55.4931373596191,-86.3759384155273,32.07968650525082,-24.711863354578067,429834825
sw,-56.2433547973632,-85.9170684814453,40.17549758344755,-35.91884187127306,429851492
sw,-57.0639686584472,-85.5559997558593,49.430334943232744,-50.665909246621226,429868159
sw,-57.9300384521484,-84.9882736206054,57.67713765684202,-68.89800733662601,429884826
sw,-58.8940048217773,-83.6858673095703,63.1866867063674,-89.77844921355008,429901493
sw,-60.1048736572265,-81.6903991699218,64.86877830394427,-111.79813389082932,429918160
sw,-61.3258247375488,-78.8623657226562,62.37926415408981,-133.10664322112532,429934827
sw,-62.325942993164,-75.7518463134765,56.12904112861372,-151.93962878356803,429951494
sw,-63.2028007507324,-72.7682342529296,47.182976211984126,-166.97271558997357,429968161
sw,-63.8810386657714,-69.84423828125,37.0484387750708,-177.4771059974438,429984828
sw,-64.2717971801757,-67.0448913574218,27.3796934859729,-183.25976598886515,430001495
sw,-64.5279693603515,-64.2152099609375,19.65188806857411,-184.475407456446,430018162
sw,-64.641128540039,-61.4078826904296,14.874734012898209,-181.43793959346348,430034829
sw,-64.7193222045898,-58.3212089538574,13.414076147042525,-174.52039676185657,430051496
sw,-64.9566650390625,-55.4669570922851,14.966667915895593,-164.14944936607472,430068163
sw,-65.4225997924804,-53.0236320495605,18.693056604764717,-150.83147942499636,430084830
sw,-66.0293655395507,-50.9733009338378,23.466874757370526,-135.1347203982448,430101497
sw,-66.6854171752929,-49.2911529541015,28.16365383933949,-117.59667767798561,430118164
sw,-67.3014373779296,-47.9243736267089,31.904624704544222,-98.5905097985886,430134831
sw,-67.9322433471679,-46.9890823364257,34.194269359324466,-78.2259183644353,430151498
sw,-68.5486907958984,-46.4480628967285,34.93197276770648,-56.360542926185914,430168165
sw,-69.0885238647461,-46.0982017517089,34.31881461555605,-32.761362722611835,430184832
sw,-69.5414199829101,-46.0039291381835,32.70720283031792,-7.395732054428671,430201499
sw,-69.9713973999023,-46.2691268920898,30.449869472400497,19.233702841927578,430218166
sw,-70.4417877197265,-46.7701072692871,27.796498372941265,45.84231100468615,430234833
sw,-70.9213638305664,-47.8167076110839,24.863745012663173,70.33908601739654,430251500
sw,-71.3591156005859,-49.6185569763183,21.674811134253083,90.10396840186668,430268167
sw,-71.7406005859375,-51.6110877990722,18.23938913575268,102.54680028505763,430284834
sw,-72.073860168457,-53.6404685974121,14.633054942823575,105.81961650010766,430301501
sw,-72.3170013427734,-55.8681983947753,11.038944170981992,99.48025059945003,430318168
sw,-72.4663162231445,-58.0279693603515,7.729290180251439,84.89026027420333,430334835
sw,-72.610107421875,-59.9950790405273,4.983890741835745,65.1747479483851,430351502
sw,-72.728775024414,-60.6787643432617,2.961780116433137,44.67360190051883,430368169
sw,-72.7416000366211,-60.2834014892578,1.5586749494245533,27.970130303658223,430384836
sw,-72.5280151367187,-59.7375793457031,0.29561991577911606,18.75725178199587,430401503
sw,-72.2055358886718,-59.3334312438964,-1.7087432745712778,18.907998159985762,430418170
sw,-72.09521484375,-59.7537956237793,-5.6376757942401365,28.074131740394172,430434837
sw,-72.0437469482421,-61.3251419067382,-12.735926281108558,43.94089782720968,430451504
sw,-71.9106140136718,-63.6968841552734,-23.972058005932695,63.008212027688934,430468171
sw,-71.5382995605468,-65.4662857055664,-39.69761141446059,81.57911806664525,430484838
sw,-70.7304611206054,-66.7232208251953,-59.41631644083425,96.6087353741536,430501505
sw,-69.4899826049804,-68.2299880981445,-81.75143913427128,106.1987624938392,430518172
sw,-67.7109375,-70.2171325683593,-104.64156452321537,109.71190171907818,430534839
sw,-65.6944427490234,-72.2053604125976,-125.72838280074328,107.60629220266026,430551506
sw,-63.2949867248535,-74.1444244384765,-142.84528733181378,101.11203711125057,430568173
sw,-60.162109375,-75.6687698364257,-154.4824212439198,91.84081468918953,430584840
sw,-56.429027557373,-76.6901473999023,-160.09475461422483,81.39872546944218,430601507
sw,-53.988052368164,-77.5838012695312,-160.14544706655838,71.07505760396167,430618174
sw,-52.3120956420898,-78.7350234985351,-155.8544036235771,61.67530875918448,430634841
sw,-50.0556755065918,-79.9231185913086,-148.7375926031786,53.5273038652272,430651508
sw,-47.5283317565918,-80.8983459472656,-140.10919161067142,46.62338098640371,430668175
sw,-45.296947479248,-81.7381820678711,-130.71316089274708,40.810862777136265,430684842
sw,-43.4364967346191,-82.3797531127929,-120.56990970095264,35.941714178240076,430701509
sw,-41.6855735778808,-82.9246292114257,-109.04028569140091,31.935425413181356,430718176
sw,-40.0245895385742,-83.3426284790039,-95.0651532271699,28.762396609076507,430734843
sw,-38.5978889465332,-83.7413558959961,-77.52042232824182,26.387968423016293,430751510
sw,-37.7020149230957,-84.1716003417968,-55.61308327992402,24.72133517107899,430768177
sw,-37.2627410888671,-84.6117324829101,-29.23548502071042,23.597429399131506,430784844
sw,-37.1638603210449,-85.0305938720703,0.7990378591389019,22.796997842536168,430801511
sw,-37.4548454284668,-85.4332733154296,32.69953444319719,22.091648918609057,430818178
sw,-38.2531547546386,-85.8248672485351,63.85834828746607,21.292420379007137,430834845
sw,-39.9936065673828,-86.1795120239257,91.23451455347573,20.28235003561484,430851512
sw,-42.2148704528808,-86.5264434814453,111.91053457744059,19.02183539077398,430868179
sw,-44.2713470458984,-86.8953781127929,123.71059115631941,17.52549101889476,430884846
sw,-46.6032562255859,-87.2322540283203,125.72812065573873,15.816880154105304,430901513
sw,-49.2180938720703,-87.4959564208984,118.61532710745361,13.87129963963222,430918180
sw,-51.3292503356933,-87.7208480834961,104.53325729032049,11.557809103734725,430934847
sw,-52.7161788940429,-87.8921585083007,86.7381973524834,8.591980003524414,430951514
sw,-53.1116828918457,-87.9346466064453,68.88316512779008,4.511758506427516,430968181
sw,-53.3299674987793,-87.7791290283203,54.21774750292907,-1.3089949494396318,430984848
sw,-54.1653175354003,-87.4799041748046,44.91913514675473,-9.592475805809466,431001515
sw,-55.3439559936523,-87.0434265136718,41.736762269838046,-21.02080048777057,431018182
sw,-56.1128578186035,-86.5041427612304,44.00507630009062,-36.03535499705744,431034849
sw,-56.8655433654785,-86.0296096801757,49.95604391265589,-54.60975733562815,431051516
sw,-57.7097244262695,-85.3675537109375,57.21042451599017,-76.07492789453117,431068183
sw,-58.8245811462402,-83.9998550415039,63.33617100125823,-99.0932064591994,431084850
sw,-60.2185974121093,-81.9848937988281,66.38088369648003,-121.8458611646694,431101517
sw,-61.8325080871582,-79.0554580688476,65.28442311775991,-142.4116599346173,431118184
sw,-63.0912704467773,-75.7471694946289,60.076231689724366,-159.212810754804,431134851
sw,-63.8946914672851,-72.6539840698242,51.79423892426132,-171.35215201620318,431151518
sw,-64.3536987304687,-69.7565155029296,42.13844772124465,-178.70492397827257,431168185
sw,-64.5723114013671,-67.0489501953125,32.96335800664062,-181.74514156074443,431184852
sw,-64.7626266479492,-64.2789535522461,25.7712269091252,-181.21201526926967,431201519
sw,-65.0726470947265,-61.439151763916,21.361782753532776,-177.78096452643572,431218186
sw,-65.44140625,-58.4300422668457,19.7290575966393,-171.8687628288488,431234853
sw,-65.8947525024414,-55.5469169616699,20.205589020001963,-163.60782552349326,431251520
sw,-66.5161514282226,-53.0443267822265,21.775737427049666,-152.93599575113643,431268187
sw,-67.2214202880859,-50.8013801574707,23.43719880835685,-139.7138102041316,431284854
sw,-67.8193817138671,-48.7815513610839,24.490044522910114,-123.80485042418006,431301521
sw,-68.2074279785156,-47.1603546142578,24.671349678520077,-105.10518823571398,431318188
sw,-68.4686584472656,-46.1374740600585,24.116818034180998,-83.55136602075423,431334855
sw,-68.7601470947265,-45.5736579895019,23.194670824510133,-59.15661110800781,431351522
sw,-69.0712280273437,-45.2664680480957,22.295039688821156,-32.11742247459675,431368189
sw,-69.39794921875,-45.2749900817871,21.65756127778216,-2.995475820138714,431384856
sw,-69.7950439453125,-45.5630111694335,21.289280972285162,27.07829708944497,431401523
sw,-70.2199096679687,-46.2755889892578,20.984304464176585,56.2819819656464,431418190
sw,-70.5963516235351,-47.6309547424316,20.422905518190255,82.17767830977449,431434857
sw,-70.9765701293945,-49.548957824707,19.3088225185603,102.04792786662196,431451524
sw,-71.373664855957,-51.7326622009277,17.499062473433224,113.46299464334034,431468191
sw,-71.7198638916015,-54.0756874084472,15.086188349019851,114.94701864530693,431484858
sw,-71.9900741577148,-56.5301322937011,12.404749444112568,106.54552597380084,431501525
sw,-72.2463912963867,-58.5601997375488,9.95009735592882,90.09139020184809,431518192
sw,-72.460334777832,-60.2213745117187,8.218901576766477,69.0268882477106,431534859
sw,-72.5287399291992,-60.8108558654785,7.504015420288122,47.759740290869864,431551526
sw,-72.5053405761718,-60.6007118225097,7.697975040868557,30.686801221863515,431568193
sw,-72.3998947143554,-60.1864128112793,8.17293316919454,21.158120070850497,431584860
sw,-72.3276977539062,-59.9854660034179,7.800327237529471,20.70777341793988,431601527
sw,-72.5032196044921,-60.582103729248,5.142094948684425,28.801341383232096,431618194
sw,-72.7815856933593,-62.3419456481933,-1.2113491913478698,43.16142979433222,431634861
sw,-72.9664306640625,-64.3227844238281,-12.243498787842373,60.5158518226967,431651528
sw,-72.7553787231445,-65.6532592773437,-28.178605333426262,77.47572480261813,431668195
sw,-71.956802368164,-66.9472579956054,-48.32484758367423,91.25989445424761,431684862
sw,-70.6311264038086,-68.5844116210937,-71.14651285863087,100.1123818450891,431701529
sw,-69.0287933349609,-70.5238876342773,-94.54158850443913,103.40928290834604,431718196
sw,-67.1463165283203,-72.4691696166992,-116.24462956229152,101.53207233979278,431734863
sw,-65.0257568359375,-74.240478515625,-134.2557166064773,95.5901974502374,431751530
sw,-62.2503776550293,-75.5732879638671,-147.2041089553174,87.06066870916024,431768197
sw,-58.895336151123,-76.5217590332031,-154.5689096866583,77.41569759989775,431784864
sw,-56.1736373901367,-77.4849319458007,-156.69633073759286,67.82316181027386,431801531
sw,-54.1390800476074,-78.5878601074218,-154.59484949109532,58.995251046261174,431818198
sw,-52.2121772766113,-79.7063446044921,-149.5644001567166,51.21039573871834,431834865
sw,-49.8271331787109,-80.7803649902343,-142.78631653924654,44.462655141139756,431851532
sw,-47.4087753295898,-81.6071014404296,-135.0104411539305,38.64448071309251,431868199
sw,-45.2503395080566,-82.1552200317382,-126.41508436659144,33.673200216423446,431884866
sw,-43.3454055786132,-82.5268249511718,-116.63620765140067,29.521977113620125,431901533
sw,-41.6308250427246,-82.8313369750976,-104.91866809664266,26.176923988562418,431918200
sw,-40.0918464660644,-83.2174530029296,-90.34101038250657,23.57671794303222,431934867
sw,-38.986228942871,-83.6780242919921,-72.07867266197854,21.5852354682272,431951534
sw,-38.3141136169433,-84.0967483520507,-49.67713313013047,20.014437820548924,431968201
sw,-37.9517250061035,-84.4959106445312,-23.302903333365037,18.68009402388106,431984868
sw,-37.8828353881835,-84.8503036499023,6.071205623554204,17.45660154834608,432001535
sw,-38.1586608886718,-85.1198272705078,36.605051581803586,16.30279970949914,432018202
sw,-38.9798164367675,-85.3038558959961,65.71754730857847,15.249673799105246,432034869
sw,-40.5861625671386,-85.4979782104492,90.43768297106843,14.360942333504656,432051536
sw,-42.769660949707,-85.7647857666015,107.95314530621764,13.688298629664779,432068203
sw,-44.7283668518066,-86.0509719848632,116.24829488136814,13.239700515197677,432084870
sw,-46.8855400085449,-86.3474197387695,114.66539058409413,12.965313725038774,432101537
sw,-49.3447952270507,-86.6575393676757,104.21598891225293,12.751674508660578,432118204
sw,-51.5049247741699,-86.9280776977539,87.51336736290195,12.409370077220846,432134871
sw,-52.42964553833,-87.0970077514648,68.28418826579801,11.645701798896305,432151538
sw,-52.2658157348632,-87.1491317749023,50.54506044379606,10.028378155688237,432168205
sw,-52.1850891113281,-87.1350860595703,37.66661888020577,6.96275821856904,432184872
sw,-52.5439491271972,-87.0097122192382,31.618669687190753,1.7149315542586443,432201539
sw,-53.3645286560058,-86.7549057006836,32.63077127292324,-6.4916140456037095,432218206
sw,-54.3934020996093,-86.4413070678711,39.33544836366864,-18.299654824483916,432234873
sw,-55.4489021301269,-86.1608963012695,49.28531406975881,-33.991833813502296,432251540
sw,-56.5129737854003,-85.7951431274414,59.64115466711984,-53.283554032821066,432268207
sw,-57.6558761596679,-85.0195693969726,67.83350855806819,-75.22870074546381,432284874
sw,-58.9547386169433,-83.5923156738281,72.06267035908294,-98.31534035693801,432301541
sw,-60.4128952026367,-81.3933486938476,71.56949642589589,-120.76044663549628,432318208
sw,-61.7513732910156,-78.4015731811523,66.6583784153211,-140.91628993115967,432334875
sw,-62.5936431884765,-75.291389465332,58.491576826877775,-157.63028559247073,432351542
sw,-63.1493606567382,-72.368667602539,48.71542117909942,-170.40591031970683,432368209
sw,-63.6115608215332,-69.5887374877929,39.02040917288115,-179.30393876581746,432384876
sw,-64.0184173583984,-66.9004364013671,30.75592543687414,-184.65362065752106,432401543
sw,-64.4225311279296,-64.1278915405273,24.697491683482355,-186.73537051553976,432418210
sw,-64.8971252441406,-61.0270156860351,21.007060474962547,-185.59481023952412,432434877
sw,-65.368049621582,-57.6743354797363,19.361622356357497,-181.0570006041767,432451544
sw,-65.8433532714843,-54.61861038208,19.178296256635146,-172.8894447483469,432468211
sw,-66.3272323608398,-52.0086631774902,19.847919032834852,-160.98782164324365,432484878
sw,-66.8132781982421,-49.7675666809082,20.903166596605708,-145.46896874732784,432501545
sw,-67.2060394287109,-47.9414329528808,22.0818640775904,-126.6319585429767,432518212
sw,-67.4925918579101,-46.5820732116699,23.288478328101732,-104.83455956831659,432534879
sw,-67.7915573120117,-45.717903137207,24.49344826834595,-80.38176036350212,432551546
sw,-68.2034454345703,-45.1244087219238,25.628230317607578,-53.51914269892448,432568213
sw,-68.7382278442382,-44.7899513244628,26.526294701033773,-24.574034802352596,432584880
sw,-69.2730941772461,-44.9556198120117,26.931847578032517,5.788621872494139,432601547
sw,-69.7547912597656,-45.3002967834472,26.565634071785304,36.30187995612205,432618214
sw,-70.2121658325195,-46.0273513793945,25.217361110328298,64.9685961461092,432634881
sw,-70.667366027832,-47.5708694458007,22.831339975521946,89.19544727031307,432651548
sw,-71.062385559082,-49.5607070922851,19.558777406845614,106.23526857762235,432668215
sw,-71.3678207397461,-51.792194366455,15.758918364315914,113.86516207283388,432684882
sw,-71.6517028808593,-54.2382202148437,11.940091927879434,111.11647113280719,432701549
sw,-71.892707824707,-56.7362594604492,8.642345005434272,98.81535821809686,432718216
sw,-71.9799270629882,-58.5761680603027,6.277049257055425,79.71294130344506,432734883
sw,-71.9445724487304,-59.9750709533691,4.955404522616205,58.082279009494364,432751550
sw,-71.8897323608398,-60.1025657653808,4.353645606051565,38.81972969333385,432768217
sw,-71.822639465332,-59.6867713928222,3.669368472423566,26.26919425489316,432784884
sw,-71.6788711547851,-59.2129669189453,1.7111364485434493,23.120204883174782,432801551
sw,-71.6641006469726,-59.2017173767089,-2.8702530565782944,29.74356476115614,432818218
sw,-71.8148422241211,-60.2055435180664,-11.248498724728917,44.1933744886346,432834885
sw,-71.8091659545898,-62.4296150207519,-24.072655376590976,62.86553911972208,432851552
sw,-71.3102264404296,-64.8841781616211,-41.2110975411525,81.56269122944286,432868219
sw,-70.2902603149414,-66.5038146972656,-61.67842186809876,96.58710278233855,432884886
sw,-68.8610153198242,-68.1006164550781,-83.77683867652404,105.5264169459387,432901553
sw,-67.0323333740234,-69.883918762207,-105.4142897941755,107.57111059621576,432918220
sw,-65.0328292846679,-71.8218383789062,-124.5138815816694,103.39097213889406,432934887
sw,-62.7736930847168,-73.5863265991211,-139.41570935560492,94.70536737778127,432951554
sw,-59.7797164916992,-74.8806838989257,-149.18142330042335,83.70364155279862,432968221
sw,-56.401870727539,-75.7274703979492,-153.7279963892492,72.45997116180237,432984888
sw,-53.9102897644043,-76.421142578125,-153.74319742676542,62.474310512974014,433001555
sw,-52.3647232055664,-77.2916488647461,-150.39129928902102,54.44480315150596,433018222
sw,-50.2333183288574,-78.4601898193359,-144.90059596736685,48.31320302787846,433034889
sw,-47.7524490356445,-79.5755310058593,-138.18179095494725,43.5315205204811,433051556
sw,-45.3903083801269,-80.5008163452148,-130.6036357261367,39.41991766728472,433068223
sw,-43.3025817871093,-81.18994140625,-121.96433292085956,35.46818670541323,433084890
sw,-41.4451789855957,-81.661865234375,-111.61641117434053,31.48301676122111,433101557
sw,-39.8023109436035,-82.022476196289,-98.67679652210897,27.565869581895612,433118224
sw,-38.4404754638671,-82.274673461914,-82.26975144138918,23.975806418822167,433134891
sw,-37.4756164550781,-82.5439682006836,-61.77285444305619,20.961771559788744,433151558
sw,-37.0912170410156,-82.8462982177734,-37.04726457981261,18.63924270020721,433168225
sw,-37.0278434753418,-83.1887664794921,-8.632340424670879,16.951355304990027,433184892
sw,-37.1892585754394,-83.5292282104492,22.12737882951763,15.713031866240428,433201559
sw,-37.6961212158203,-83.8541412353515,53.07439193579743,14.70449399082588,433218226
sw,-38.7514419555664,-84.182502746582,81.41229002092447,13.76737850448718,433234893
sw,-40.636360168457,-84.4881820678711,104.1010948343499,12.863051656795422,433251560
sw,-42.8620071411132,-84.7158432006836,118.44463170217361,12.072264432363484,433268227
sw,-45.1239166259765,-84.8955841064453,122.75004358641407,11.539382685989914,433284894
sw,-47.611946105957,-85.0497970581054,116.87317393500626,11.384779640747942,433301561
sw,-50.052749633789,-85.222053527832,102.45671103559494,11.61858338302732,433318228
sw,-51.8617897033691,-85.4220886230468,82.7293976318098,12.084281224143004,433334895
sw,-52.3818550109863,-85.7401657104492,61.85632839328591,12.44432572306359,433351562
sw,-52.0988044738769,-86.0972595214843,43.987722975447454,12.200630277391403,433368229
sw,-51.973648071289,-86.3112411499023,32.28764614119511,10.732086569370095,433384896
sw,-52.3081703186035,-86.3068466186523,28.255096812921774,7.3369459958602885,433401563
sw,-53.2859497070312,-86.0736465454101,31.540088391710718,1.287461237493736,433418230
sw,-54.5017280578613,-85.7375030517578,40.25944992329603,-8.07827167594345,433434897
sw,-55.4536247253418,-85.4968566894531,51.64184900911704,-21.207452704907762,433451564
sw,-56.5817642211914,-85.3012619018554,62.762806422345705,-38.143058169817074,433468231
sw,-57.8091850280761,-84.9314804077148,71.17072252512932,-58.36043173179308,433484898
sw,-59.1025924682617,-83.971435546875,75.29483307913824,-80.72416041006352,433501565
sw,-60.4786834716796,-82.2586898803711,74.60578348111741,-103.63134488073176,433518232
sw,-61.7580184936523,-79.6462860107421,69.54840232259161,-125.3254024691533,433534899
sw,-62.6560935974121,-76.5780487060546,61.29482819603365,-144.27169486624467,433551566
sw,-63.3621482849121,-73.6563949584961,51.38862866797144,-159.4424178766976,433568233
sw,-63.9177780151367,-70.9241561889648,41.367865251917564,-170.39880934418798,433584900
sw,-64.3792114257812,-68.2733459472656,32.456156286702296,-177.165230751933,433601567
sw,-64.8378524780273,-65.6032485961914,25.386771223752994,-179.99625012096337,433618234
sw,-65.3191375732421,-62.753490447998,20.380920871614716,-179.17679514127872,433634901
sw,-65.6672286987304,-59.6456184387207,17.254741039028957,-174.94651396422987,433651568
sw,-66.0608291625976,-56.679832458496,15.59714599693686,-167.54190403266446,433668235
sw,-66.4894256591796,-54.0527534484863,14.950949931130287,-157.2710350168198,433684902
sw,-66.8783340454101,-51.8833541870117,14.940785054362083,-144.52441402775378,433701569
sw,-67.1367416381836,-50.0206718444824,15.317428053453078,-129.68137016152647,433718236
sw,-67.327522277832,-48.5345039367675,15.92244365551654,-112.95185272826842,433734903
sw,-67.5340728759765,-47.4656829833984,16.609225712483386,-94.24933054025244,433751570
sw,-67.8308029174804,-46.6470031738281,17.17244015606887,-73.19516438821856,433768237
sw,-68.1890716552734,-45.9882736206054,17.328862151772867,-49.30906845817545,433784904
sw,-68.555435180664,-45.5689239501953,16.764189931246456,-22.3619492552979,433801571
sw,-68.8951187133789,-45.6744194030761,15.228904160222578,7.214388834407961,433818238
sw,-69.1909790039062,-46.1174964904785,12.646340475997619,38.01737518470876,433834905
sw,-69.4266815185546,-47.0081214904785,9.19247320038337,67.6163778925951,433851572
sw,-69.6158065795898,-48.7194099426269,5.315467113199048,92.83836192968678,433868239
sw,-69.7572479248046,-50.7966804504394,1.6780206380619538,110.38322557159049,433884906
sw,-69.7438812255859,-52.9656867980957,-0.9761130969166235,117.641936514121,433901573
sw,-69.5890274047851,-55.5531501770019,-2.0092218952295555,113.50408373900092,433918240
sw,-69.4534149169921,-57.9365692138671,-1.0881402590495952,98.90966379822919,433934907
sw,-69.4190826416015,-60.0181312561035,1.6591589845647636,76.93397194461491,433951574
sw,-69.505386352539,-61.152359008789,5.576373785555556,52.297883113814216,433968241
sw,-69.7186737060546,-60.7567176818847,9.5260641947483,30.362582514713335,433984908
sw,-69.9855041503906,-60.244945526123,12.04715372052385,15.85802911175995,434001575
sw,-70.0735168457031,-59.7151832580566,11.595111068666782,11.72573523254173,434018242
sw,-70.2363967895507,-59.6782798767089,6.824132798569926,18.447297135839833,434034909
sw,-70.462043762207,-60.6245803833007,-3.135829678257858,34.06557907185378,434051576
sw,-70.3676300048828,-62.7090110778808,-18.45937479470455,54.85607462190774,434068243
sw,-69.7605514526367,-64.8127212524414,-38.51500824136007,76.38449306513513,434084910
sw,-68.7838973999023,-66.2996597290039,-61.89921278606502,94.58983462851272,434101577
sw,-67.3744125366211,-67.8297348022461,-86.6190785307774,106.59341581513337,434118244
sw,-65.6632232666015,-69.8853759765625,-110.39423823883018,111.09645729920494,434134911
sw,-63.6859703063964,-72.0822067260742,-131.02729959888055,108.38089222996821,434151578
sw,-61.1626243591308,-74.1561965942382,-146.77956589426756,99.99925547689199,434168245
sw,-57.9185562133789,-75.6080093383789,-156.67556872036965,88.2510022120417,434184912
sw,-54.2563285827636,-76.3120727539062,-160.64873835938124,75.5558192024422,434201579
sw,-52.210693359375,-76.8690414428711,-159.45794160877915,63.868795008105735,434218246
sw,-50.553367614746,-77.6327438354492,-154.37673870606787,54.297297558242704,434234913
sw,-48.1151161193847,-78.7366638183593,-146.76039489201958,47.02730312685627,434251580
sw,-45.5237579345703,-79.7916488647461,-137.65266777157188,41.55144459821143,434268247
sw,-43.1843719482421,-80.8117523193359,-127.5543963650756,37.0731760447861,434284914
sw,-41.334056854248,-81.5790405273437,-116.38067328663438,32.90878264687569,434301581
sw,-39.6747589111328,-82.0790786743164,-103.56614639233607,28.74242643382631,434318248
sw,-38.2032890319824,-82.3918685913086,-88.26826223148005,24.67675417931073,434334915
sw,-36.9722938537597,-82.6134490966796,-69.63254737705648,21.11080321739529,434351582
sw,-36.2747917175293,-82.8279724121093,-47.08771775245111,18.530392900818736,434368249
sw,-36.0670890808105,-83.0866394042968,-20.62946156911924,17.3032954345123,434384916
sw,-36.150291442871,-83.4637298583984,8.958050880304205,17.54349258590928,434401583
sw,-36.5201911926269,-83.8796844482421,40.00083190836964,19.067041002318625,434418250
sw,-37.3359947204589,-84.2537002563476,70.01442275630896,21.427115039663875,434434917
sw,-38.8091087341308,-84.6253128051757,96.00919184438933,23.999790614568223,434451584
sw,-41.0410194396972,-85.0825119018554,115.01615936360115,26.094100781750655,434468251
sw,-43.411563873291,-85.6159057617187,124.74555254843226,27.068359715657483,434484918
sw,-45.8480415344238,-86.1213150024414,124.21152923708411,26.43849891216458,434501585
sw,-48.2937049865722,-86.6055831909179,114.12552911427888,23.96152778099107,434518252
sw,-50.6035385131835,-87.0427627563476,96.89939264106707,19.674355558586452,434534919
sw,-51.6924514770507,-87.365966796875,76.20145548945221,13.870872697499147,434551586
sw,-51.7261810302734,-87.5615310668945,56.15152029041495,7.010155727747623,434568253
sw,-51.5726737976074,-87.6067428588867,40.38071594149262,-0.4346296358562919,434584920
sw,-51.8808250427246,-87.3551406860351,31.250619208032887,-8.155484528400162,434601587
sw,-52.6793937683105,-86.7892303466796,29.466835327628004,-16.164122961255288,434618254
sw,-53.8807182312011,-86.0135650634765,34.15512807907455,-24.85672842206771,434634921
sw,-54.8169937133789,-85.3262634277343,43.29005301119256,-34.93534690349058,434651588
sw,-55.725772857666,-84.8358993530273,54.275409434194245,-47.17770822433421,434668255
sw,-56.7497787475585,-84.4140472412109,64.49830338080511,-62.11722485939096,434684922
sw,-57.7779159545898,-83.5074386596679,71.76342957466369,-79.75438446761618,434701589
sw,-58.9499893188476,-82.0347671508789,74.59018024607347,-99.42689528154244,434718256
sw,-60.4664993286132,-79.7732467651367,72.38429802665131,-119.90247006869343,434734923
sw,-61.8692970275878,-76.9289169311523,65.48470459050043,-139.65495937401457,434751590
sw,-62.8495903015136,-73.9855270385742,55.067730442226875,-157.20131187010927,434768257
sw,-63.5330009460449,-71.0558319091796,42.897832558476125,-171.36235647285864,434784924
sw,-63.9188423156738,-68.091567993164,30.95370717916167,-181.36941188215167,434801591
sw,-64.0678939819336,-65.1619796752929,21.008154380294712,-186.8296497128574,434818258
sw,-64.2292327880859,-62.2845497131347,14.266641465588272,-187.6284133030004,434834925
sw,-64.2793350219726,-59.2374267578125,11.157778652465606,-183.85198494506884,434851592
sw,-64.4174118041992,-56.1271858215332,11.325357963336389,-175.76645274831108,434868259
sw,-64.8162231445312,-53.3628540039062,13.813283355210805,-163.8254230133065,434884926
sw,-65.4267349243164,-50.9568176269531,17.379126621729565,-148.64520375220826,434901593
sw,-66.0630340576171,-48.8685989379882,20.83540216939496,-130.9026586488757,434918260
sw,-66.5388717651367,-47.2726402282714,23.314954477969327,-111.16513914417848,434934927
sw,-66.8574066162109,-46.2307968139648,24.393466887167254,-89.7195452818802,434951594
sw,-67.1623611450195,-45.5887794494628,24.062830955832634,-66.49783628241977,434968261
sw,-67.5285415649414,-45.173484802246,22.602869765122556,-41.182163957279165,434984928
sw,-67.8789443969726,-44.8937263488769,20.420629698444486,-13.511166569327242,435001595
sw,-68.1675262451171,-45.0755271911621,17.914625656395692,16.28383463758066,435018262
sw,-68.424934387207,-45.520263671875,15.393499200197736,47.0701320134435,435034929
sw,-68.6905288696289,-46.3708152770996,13.052263172816337,76.62595807718161,435051596
sw,-68.9740905761718,-47.883544921875,10.991374703813653,101.82765955470178,435068263
sw,-69.2026443481445,-50.2234725952148,9.253901218345053,119.25209409492247,435084930
sw,-69.3678359985351,-52.9817657470703,7.854158931248908,126.07792804763379,435101597
sw,-69.4922943115234,-55.9195671081543,6.778373995149204,121.02563655851243,435118264
sw,-69.6073913574218,-58.4312858581543,5.951741735386482,105.00998876219326,435134931
sw,-69.7042922973632,-60.3869247436523,5.180787936182255,81.23186978800734,435151598
sw,-69.8279647827148,-61.0522346496582,4.090268461180298,54.602478400651854,435168265
sw,-69.8617324829101,-60.6651382446289,2.079397247705662,30.621336621251828,435184932
sw,-69.6948318481445,-60.0094757080078,-1.6748873098702668,14.03851430555611,435201599
sw,-69.2151412963867,-59.4716110229492,-8.139667867674056,7.729628685373284,435218266
sw,-68.9029846191406,-59.6431121826171,-18.253883745317097,12.140854293608621,435234933
sw,-68.6280975341796,-60.8798828125,-32.671442168449396,25.440847252805217,435251600
sw,-68.0525665283203,-62.952651977539,-51.47458417910363,44.24761857531174,435268267
sw,-67.0811157226562,-64.3956451416015,-73.9530293530885,64.60868310749689,435284934
sw,-65.7250900268554,-65.4620132446289,-98.5493617927859,82.88895261609092,435301601
sw,-63.7525367736816,-66.6749801635742,-123.02970527695459,96.35560984677264,435318268
sw,-61.3704795837402,-68.2679595947265,-144.86699210958918,103.43805041302288,435334935
sw,-58.469669342041,-70.2388153076171,-161.74872340828517,103.75740668669174,435351602
sw,-54.650291442871,-72.604133605957,-172.06555266079025,98.01653818150308,435368269
sw,-50.9282455444335,-74.6194229125976,-175.22281098881626,87.77381099726102,435384936
sw,-49.0066680908203,-75.5589904785156,-171.6659381917352,75.08632534912789,435401603
sw,-47.1082458496093,-75.9140853881836,-162.62317655377223,62.048533102365006,435418270
sw,-44.3956871032714,-76.4706573486328,-149.69014432089162,50.33555071777592,435434937
sw,-41.5766716003418,-77.1389389038086,-134.42388549302964,40.90269376380635,435451604
sw,-39.5090217590332,-77.9115295410156,-118.05212046634458,33.94187564919062,435468271
sw,-37.8867568969726,-78.7211151123046,-101.31064349649004,29.081996992545992,435484938
sw,-36.5392341613769,-79.3846435546875,-84.3836906671441,25.721381424657494,435501605
sw,-35.586986541748,-80.1009216308593,-66.94155189171452,23.347312689609012,435518272
sw,-34.7639923095703,-80.5247726440429,-48.29100638738974,21.72964898483568,435534939
sw,-34.2763481140136,-80.6994476318359,-27.641700780426554,20.94228096726588,435551606
sw,-34.3111877441406,-80.9358367919921,-4.453672217080817,21.236501198304715,435568273
sw,-34.5290946960449,-81.279426574707,21.20820780372041,22.839285792949998,435584940
sw,-34.8984184265136,-81.7411804199218,48.41274129253903,25.76175786901335,435601607
sw,-35.7656669616699,-82.2358093261718,75.29796672387555,29.68153282167556,435618274
sw,-37.3901824951171,-82.7655715942382,99.27927717412074,33.9271156208259,435634941
sw,-39.7228965759277,-83.3986511230468,117.53355708244135,37.562627504709845,435651608
sw,-42.3652381896972,-84.1011276245117,127.66120447535803,39.55225819340121,435668275
sw,-44.5326080322265,-84.8089141845703,128.34295111945855,38.97104272596262,435684942
sw,-46.9432296752929,-85.5094375610351,119.78714522648119,35.21814336973471,435701609
sw,-49.3853073120117,-86.1139526367187,103.81488713305252,28.18263646002038,435718276
sw,-50.7960090637207,-86.5583801269531,83.52956461410076,18.313973567035017,435734943
sw,-51.2051086425781,-86.875503540039,62.63771478028241,6.562682047984538,435751610
sw,-51.0489311218261,-86.8856735229492,44.60804749180449,-5.817600363621991,435768277
sw,-51.069538116455,-86.5050354003906,31.93023016217731,-17.579284960575823,435784944
sw,-51.7348022460937,-85.8178405761718,25.70662424920684,-27.832218365195565,435801611
sw,-52.9411163330078,-84.8039398193359,25.669023582814535,-36.33506586335649,435818278
sw,-53.8855438232421,-83.6932067871093,30.531538459069967,-43.61850696587204,435834945
sw,-54.4789962768554,-82.7665710449218,38.47740393918855,-50.868220665049606,435851612
sw,-55.3043785095214,-82.1409301757812,47.58723535894435,-59.572405214758625,435868279
sw,-56.1774673461914,-81.5982818603515,56.11462040929188,-71.03173680020109,435884946
sw,-56.9043159484863,-80.6943588256836,62.62112132772991,-85.8970326595986,435901613
sw,-57.8131446838378,-79.2135848999023,66.04014113855938,-103.90119764044485,435918280
sw,-59.0049858093261,-76.7664642333984,65.7380748326904,-123.87680516376265,435934947
sw,-60.2986793518066,-73.8781509399414,61.59801445615893,-144.03230173321214,435951614
sw,-61.5424308776855,-70.7762298583984,54.09356230422896,-162.36046809443653,435968281
sw,-62.4996070861816,-67.7250213623046,44.28342044080499,-177.0252186983572,435984948
sw,-62.9700889587402,-64.6926956176757,33.66802427779244,-186.6245262711893,436001615
sw,-63.2645797729492,-61.7861976623535,23.904666849534742,-190.31504291756556,436018282
sw,-63.4162292480468,-58.8228607177734,16.445451266406536,-187.84648670799396,436034949
sw,-63.3445281982421,-55.5478019714355,12.205356050739189,-179.5554321445885,436051616
sw,-63.3658294677734,-52.5900611877441,11.366206804298171,-166.32157046704867,436068283
sw,-63.6727104187011,-50.2320518493652,13.380010434299312,-149.44471333452682,436084950
sw,-64.2184982299804,-48.3435554504394,17.16873991702749,-130.40527540467968,436101617
sw,-64.847183227539,-46.8253440856933,21.45086109035245,-110.52883450357216,436118284
sw,-65.4928741455078,-45.6866111755371,25.084524704702073,-90.64538774603412,436134951
sw,-66.090950012207,-44.9754028320312,27.320959544782756,-70.86941783313426,436151618
sw,-66.5964889526367,-44.5996932983398,27.904632908797215,-50.60969728424675,436168285
sw,-66.9820098876953,-44.2253990173339,27.016455931759573,-28.854974917413923,436184952
sw,-67.2788467407226,-44.0765419006347,25.107645705832308,-4.689605339156998,436201619
sw,-67.5761947631836,-44.2594528198242,22.69863643553531,22.1034713621806,436218286
sw,-67.9033203125,-44.7251167297363,20.214680745269,50.560269930775156,436234953
sw,-68.237678527832,-45.7163009643554,17.902810517827202,78.38149475528944,436251620
sw,-68.583625793457,-47.3891983032226,15.836891018503362,102.23537905686567,436268287
sw,-68.9518890380859,-49.8479652404785,13.984151180037482,118.50485545933104,436284954
sw,-69.2520141601562,-52.4442634582519,12.28887906583739,124.30404862604527,436301621
sw,-69.42431640625,-55.2078704833984,10.730337387775181,118.46530776110949,436318288
sw,-69.5998382568359,-57.8927459716796,9.32853740692471,102.16406819202037,436334955
sw,-69.8253555297851,-59.9703521728515,8.094187815036442,78.92472360734415,436351622
sw,-70.0213088989257,-60.4839057922363,6.938524754894682,53.92448625541453,436368289
sw,-70.0875396728515,-59.9363174438476,5.571945240964628,32.74608309037726,436384956
sw,-69.9144897460937,-59.3423919677734,3.430799026615408,19.94873299328634,436401623
sw,-69.5566940307617,-58.9516487121582,-0.32094334537992025,17.92461622579888,436418290
sw,-69.4587249755859,-59.4044303894043,-6.675314690560032,26.41461035677749,436434957
sw,-69.4509887695312,-61.0222015380859,-16.54369957385566,42.804064226589915,436451624
sw,-69.2865524291992,-63.4031715393066,-30.4510937687291,63.02773676523868,436468291
sw,-68.7042770385742,-65.0500411987304,-48.261665884568025,82.71870407702983,436484958
sw,-67.6737747192382,-66.3668365478515,-69.04366226926915,98.21948071852887,436501625
sw,-66.1860427856445,-67.922622680664,-91.13987354141618,107.21641660462659,436518292
sw,-64.3126449584961,-69.9766616821289,-112.44184182978582,108.95097877282707,436534959
sw,-62.2755889892578,-72.0985260009765,-130.80343103932003,104.08652068687198,436551626
sw,-59.612190246582,-73.913589477539,-144.48931507831432,94.33662512102268,436568293
sw,-56.134708404541,-75.0078659057617,-152.5366914352724,81.94895667773613,436584960
sw,-53.0211219787597,-75.7169036865234,-154.91610440768966,69.14623451175959,436601627
sw,-51.3368415832519,-76.3939971923828,-152.42669251147737,57.650224018171286,436618294
sw,-49.6370773315429,-77.3056488037109,-146.35950754662937,48.40859806505036,436634961
sw,-47.1815452575683,-78.3163223266601,-138.06444698717777,41.580256420014486,436651628
sw,-44.7776832580566,-79.2062911987304,-128.58462407148394,36.7383080297869,436668295
sw,-42.7548599243164,-79.865852355957,-118.45533033421201,33.17824334957934,436684962
sw,-41.0618133544921,-80.4244308471679,-107.66989584762497,30.208519408633524,436701629
sw,-39.5599708557128,-80.958023071289,-95.76668882510805,27.342450540189635,436718296
sw,-38.1785125732421,-81.380126953125,-81.99616270706541,24.367193700676033,436734963
sw,-37.0556755065918,-81.6687927246093,-65.5430698970701,21.308936810173268,436751630
sw,-36.4557342529296,-81.9153213500976,-45.78060596127889,18.336359290635727,436768297
sw,-36.2046012878418,-82.1262283325195,-22.524745787732744,15.650783333178277,436784964
sw,-36.1991271972656,-82.3449630737304,3.751886475333213,13.403369292153561,436801631
sw,-36.4848556518554,-82.6198806762695,31.796222521133558,11.65956558382271,436818298
sw,-37.2111434936523,-82.8936996459961,59.597301029312234,10.406589566174246,436834965
sw,-38.6040573120117,-83.0956726074218,84.60095046695847,9.582222222537316,436851632
sw,-40.5803108215332,-83.2699661254882,104.11983158292949,9.100276899167245,436868299
sw,-42.6952934265136,-83.4431533813476,115.87448434965513,8.858567311090768,436884966
sw,-44.7338905334472,-83.584976196289,118.53927505184741,8.7302111424187,436901633
sw,-47.0540008544921,-83.7084808349609,112.14171077037949,8.549119880637598,436918300
sw,-49.3527679443359,-83.8809967041015,98.18281105128307,8.101228757735946,436934967
sw,-50.9217453002929,-84.1144332885742,79.40376681820477,7.125683272566647,436951634
sw,-51.4619636535644,-84.3180770874023,59.21721795449569,5.320033988430034,436968301
sw,-51.254051208496,-84.380256652832,40.93992546672642,2.338532653851909,436984968
sw,-51.1410675048828,-84.2765197753906,27.061825557840454,-2.2205066516975562,437001635
sw,-51.3061714172363,-83.987060546875,18.796327514127462,-8.82541399631375,437018302
sw,-52.0885391235351,-83.5128784179687,16.0481057696335,-17.99197667498108,437034969
sw,-53.1092414855957,-82.9933624267578,17.756541830706468,-30.20729891468296,437051636
sw,-53.6322593688964,-82.4394760131836,22.425066001430352,-45.79267978420261,437068303
sw,-54.2007751464843,-81.7146377563476,28.60684138702369,-64.73928913248598,437084970
sw,-54.8709297180175,-80.7916946411132,35.18917437576403,-86.58337208758493,437101637
sw,-55.3744392395019,-79.1388320922851,41.44154963552898,-110.39164446918981,437118304
sw,-55.8093223571777,-76.5628433227539,46.89576755777442,-134.8880199998825,437134971
sw,-56.5064048767089,-73.3283081054687,51.17632493392313,-158.681128132834,437151638
sw,-57.4427452087402,-69.7808227539062,53.89160790356824,-180.4892172870125,437168305
sw,-58.4812812805175,-66.2717514038086,54.64424271316547,-199.25306112896695,437184972
sw,-59.5237998962402,-62.8387260437011,53.148625399754955,-214.09371477794886,437201639
sw,-60.5913619995117,-59.7035102844238,49.38895841210105,-224.17272840982372,437218306
sw,-61.4929504394531,-56.2563400268554,43.73368098024758,-228.58043995647034,437234973
sw,-62.1805610656738,-52.5179824829101,36.942291467844086,-226.3650335522424,437251640
sw,-62.5586929321289,-48.7266235351562,30.04486732525273,-216.7270119455066,437268307
sw,-62.7965354919433,-45.0749931335449,24.124477165551014,-199.2965262327185,437284974
sw,-63.2120361328125,-42.0601615905761,20.06806697178107,-174.3517815959033,437301641
sw,-63.5703353881835,-40.0612258911132,18.35862191420956,-142.86058226793782,437318308
sw,-63.7650909423828,-38.8021011352539,18.963319838414716,-106.31923150964931,437334975
sw,-63.9738121032714,-38.2602424621582,21.345024393257326,-66.47062445537722,437351642
sw,-64.4268341064453,-38.2814102172851,24.598382378862315,-25.045929540976555,437368309
sw,-65.1855239868164,-38.7914772033691,27.68309811122715,16.341901734726257,437384976
sw,-66.0310287475586,-39.7951011657714,29.69323299839535,56.10929846684266,437401643
sw,-66.7063522338867,-41.0302200317382,30.078431417121912,92.48603955087889,437418310
sw,-67.1564025878906,-42.3611335754394,28.74388339409988,123.32995617949749,437434977
sw,-67.4799270629882,-44.3692588806152,26.00386289806975,146.15720288306397,437451644
sw,-67.7520141601562,-47.2509231567382,22.42361426264676,158.51050249117372,437468311
sw,-67.9347305297851,-50.3588142395019,18.622672489572494,158.64036819877393,437484978
sw,-68.1127777099609,-54.0438613891601,15.112900769354285,146.29529626697092,437501645
sw,-68.4242706298828,-57.1274604797363,12.213022666195851,123.29536824495275,437518312
sw,-68.849853515625,-59.1820106506347,10.036628019863155,93.5763013816589,437534979
sw,-69.3017578125,-59.7993583679199,8.513284497858148,62.557911469882384,437551646
sw,-69.5524444580078,-59.2003440856933,7.39168340184371,35.958708141971975,437568313
sw,-69.4322433471679,-58.5207939147949,6.1999241259849915,18.429145818472758,437584980
sw,-69.0218963623046,-58.3414764404296,4.190674236771074,12.475820879267479,437601647
sw,-68.7798233032226,-58.8727760314941,0.3444505903938635,18.031373530672482,437618314
sw,-68.7407836914062,-60.5415344238281,-6.49595763952671,32.74963818607568,437634981
sw,-68.8372344970703,-62.3382225036621,-17.34525303824475,52.82409738431675,437651648
sw,-68.6803512573242,-63.6309738159179,-32.720639171940505,73.98155984786472,437668315
sw,-67.9486465454101,-64.9892196655273,-52.34178317044168,92.34076607668531,437684982
sw,-66.8125686645507,-66.2820205688476,-75.01096090587528,104.98571922119474,437701649
sw,-65.3165969848632,-68.1281356811523,-98.73827801394874,110.2634791471427,437718316
sw,-63.4132041931152,-70.5187911987304,-121.0966217992095,107.88065540080483,437734983
sw,-60.8871002197265,-73.096809387207,-139.72137211308018,98.83754202676505,437751650
sw,-57.8611831665039,-74.6028518676757,-152.82131748506072,85.17965132086071,437768317
sw,-54.3208770751953,-75.2631759643554,-159.54592193883855,69.5479217248471,437784984
sw,-51.5757293701171,-75.943244934082,-160.07919363648332,54.588104469773135,437801651
sw,-50.0753746032714,-76.6291732788086,-155.420084200241,42.37060878154622,437818318
sw,-48.2357597351074,-77.0275421142578,-146.94120119018336,33.993521525219094,437834985
sw,-45.719383239746,-77.5007400512695,-135.91447745627656,29.477233636805703,437851652
sw,-43.3064079284668,-78.239875793457,-123.18106466748014,27.955907519408353,437868319
sw,-41.4773178100585,-78.9932708740234,-109.03725543550995,28.079826538994418,437884986
sw,-40.0812377929687,-79.8380584716796,-93.30258153623109,28.488516827694973,437901653
sw,-38.8870315551757,-80.5448303222656,-75.5010800909637,28.207295861376856,437918320
sw,-38.0552787780761,-80.8951950073242,-55.107218933139734,26.860423149873178,437934987
sw,-37.6275100708007,-81.182632446289,-31.82930934041108,24.667088152754562,437951654
sw,-37.5044898986816,-81.4585418701171,-5.898069477350863,22.261580973457832,437968321
sw,-37.7742919921875,-81.7681274414062,21.69473086403197,20.42510713597666,437984988
sw,-38.3455429077148,-82.1370086669921,49.08382733898646,19.82072112954477,438001655
sw,-39.2083282470703,-82.5148162841796,73.62441502605746,20.79598704820327,438018322
sw,-40.521629333496,-82.8910217285156,92.24615350675452,23.283250042286173,438034989
sw,-42.4928817749023,-83.3493728637695,102.05639862276841,26.801487714469413,438051656
sw,-44.6855850219726,-83.8564300537109,101.08830949941348,30.5495765955287,438068323
sw,-46.7031631469726,-84.3915710449218,89.00037510897518,33.57264212493856,438084990
sw,-48.3232307434082,-84.9779739379882,67.49679296713495,34.97474067925617,438101657
sw,-49.1079483032226,-85.6823501586914,40.284117600768376,34.14011628465386,438118324
sw,-49.726089477539,-86.3845901489257,12.499560350597445,30.913591315172877,438134991
sw,-49.3454284667968,-87.0081405639648,-10.301056082779072,25.6846418392569,438151658
sw,-48.1088943481445,-87.534309387207,-23.36828231000071,19.32864840511107,438168325
sw,-47.0143394470214,-87.8395156860351,-23.880210479368014,12.988874951423503,438184992
sw,-46.3444786071777,-87.84423828125,-11.637346200673834,7.7310320590234305,438201659
sw,-46.314842224121,-87.5479278564453,10.890783214482536,4.155977023254552,438218326
sw,-47.2795143127441,-87.1021423339843,39.19985615323383,2.094749942128842,438234993
sw,-49.2001800537109,-86.7878875732421,67.88475607917499,0.5108694686625692,438251660
sw,-51.7540435791015,-86.7659606933593,91.93482626067274,-2.31612473408239,438268327
sw,-53.8226890563964,-86.9763793945312,107.81191516564591,-8.344921701020267,438284994
sw,-55.1921348571777,-87.1712570190429,114.03027007956949,-19.183447766712458,438301661
sw,-56.8550605773925,-87.1352920532226,111.15121699263184,-35.53945566284253,438318328
sw,-58.5720748901367,-86.6471328735351,101.30063790154846,-56.894869472252836,438334995
sw,-59.843822479248,-85.3578414916992,87.42591185426052,-81.52609872397453,438351662
sw,-60.8341789245605,-83.3693618774414,72.51627623317702,-106.885032535155,438368329
sw,-61.5542182922363,-80.6013793945312,58.96305467037548,-130.23265872695987,438384996
sw,-62.1647300720214,-77.3259963989257,48.17573646100207,-149.32087168953055,438401663
sw,-62.9156684875488,-74.3855590820312,40.50352275243783,-162.8922030270198,438418330
sw,-63.8095550537109,-71.8308792114257,35.43694321255863,-170.83581686617026,438434997
sw,-64.7654190063476,-69.2561569213867,31.993305262374484,-173.97925865740712,438451664
sw,-65.5584335327148,-66.7963638305664,29.147974840979828,-173.63985431616717,438468331
sw,-66.0933761596679,-64.1754302978515,26.179184206112616,-171.1313975598093,438484998
sw,-66.4449081420898,-61.3636283874511,22.843752000441526,-167.3929706335702,438501665
sw,-66.7688217163086,-58.6596450805664,19.36915049594863,-162.8130069394874,438518332
sw,-67.0950546264648,-56.1333694458007,16.302442356387324,-157.22827904451512,438534999
sw,-67.3876495361328,-53.8976554870605,14.282238060397532,-150.03243446937444,438551666
sw,-67.5538330078125,-51.7710571289062,13.80111715541032,-140.33685073675358,438568333
sw,-67.6785583496093,-49.8443336486816,15.01745655138182,-127.15779408210737,438585000
sw,-67.9443054199218,-48.2078285217285,17.663882375603883,-109.6250021456591,438601667
sw,-68.3894424438476,-46.92232131958,21.079549320070427,-87.20664138791359,438618334
sw,-68.9369812011718,-46.0449790954589,24.361125493522312,-59.93251115418029,438635001
sw,-69.4910812377929,-45.6344337463378,26.591307203190773,-28.58234771451353,438651668
sw,-70.0262603759765,-45.8259506225585,27.080155189379436,5.206237869892206,438668335
sw,-70.5812530517578,-46.2609901428222,25.552599426711364,38.96359311682105,438685002
sw,-71.1249923706054,-47.0791473388671,22.231058099210003,69.60003139235847,438701669
sw,-71.544448852539,-48.4823684692382,17.786351865151534,93.83598548856914,438718336
sw,-71.7939224243164,-50.5844497680664,13.158653284331395,108.82967404554608,438735003
sw,-71.8904800415039,-53.0021362304687,9.28234149838296,112.89767946174209,438751670
sw,-71.8644409179687,-55.4904022216796,6.7797525206581675,106.13805002243694,438768337
sw,-71.7630462646484,-57.9986953735351,5.7083859678229585,90.7254521951084,438785004
sw,-71.6625137329101,-60.3683471679687,5.443440156874681,70.68895402658463,438801671
sw,-71.721809387207,-60.7189292907714,4.748318468095196,51.11399439654604,438818338
sw,-71.901008605957,-60.1814956665039,2.0350167157654777,36.9123496772979,438835005
sw,-71.8998336791992,-59.3305969238281,-4.241442231643192,31.513745678013343,438851672
sw,-71.8016815185546,-59.2232933044433,-15.155441532262966,35.936042151453364,438868339
sw,-71.7874984741211,-60.4225845336914,-30.96854552456474,48.59084444404657,438885006
sw,-71.2953491210937,-62.875259399414,-50.97674852691331,65.89582009875096,438901673
sw,-69.8898544311523,-65.3323898315429,-73.60526149148524,83.43784864095582,438918340
sw,-67.9887542724609,-67.3145370483398,-96.7348283431884,97.23714690221549,438935007
sw,-65.7073059082031,-68.8776168823242,-118.16333962063958,104.69047137714279,438951674
sw,-63.651023864746,-70.5170669555664,-136.06110121800265,104.97176154641366,438968341
sw,-61.2371482849121,-72.482437133789,-149.29341511526985,98.90123641600394,438985008
sw,-57.9013710021972,-74.0370788574218,-157.54096971603963,88.44117896815378,439001675
sw,-54.7495498657226,-74.9977493286132,-161.20549904542685,76.01864409383722,439018342
sw,-52.8299598693847,-75.6476364135742,-161.13233569733785,63.8626135636851,439035009
sw,-50.862003326416,-76.2748870849609,-158.2306429135792,53.51438984354409,439051676
sw,-48.2071838378906,-77.1353073120117,-153.11970922069605,45.618590763858975,439068343
sw,-45.4661407470703,-78.1851577758789,-145.9283011157784,40.01510044559896,439085010
sw,-43.0373764038085,-79.0964050292968,-136.30213370619066,36.05232316585338,439101677
sw,-40.9703865051269,-79.8597640991211,-123.58179218787157,32.976371120681776,439118344
sw,-39.1915321350097,-80.4179916381836,-107.06573041931692,30.24986050688427,439135011
sw,-37.7157135009765,-80.9057540893554,-86.28103371816495,27.70844654316023,439151678
sw,-36.7095985412597,-81.3141784667968,-61.21326112174837,25.537356775572537,439168345
sw,-36.2619934082031,-81.6493835449218,-32.46696401013223,24.110998822878756,439185012
sw,-36.2602653503418,-81.8975372314453,-1.337048078946845,23.77208381564867,439201679
sw,-36.763427734375,-82.1639404296875,30.22552766986105,24.633067562019896,439218346
sw,-37.6324272155761,-82.5690078735351,59.76803787167356,26.466379505234467,439235013
sw,-38.8604927062988,-83.1104965209961,84.61878566519796,28.71579930961757,439251680
sw,-40.5761833190918,-83.7387237548828,102.28869596777383,30.618972604620804,439268347
sw,-42.9477157592773,-84.3896865844726,110.94510093066403,31.395474162069632,439285014
sw,-44.909381866455,-84.9999465942382,109.86430176194004,30.4392053190507,439301681
sw,-46.534008026123,-85.5369186401367,99.7392037811865,27.461070149928837,439318348
sw,-48.4257507324218,-85.9508819580078,82.72846683946482,22.549640280175662,439335015
sw,-50.1429252624511,-86.2859573364257,62.18268262818144,16.14144398936299,439351682
sw,-50.7025642395019,-86.558723449707,42.055477941488284,8.909618349849389,439368349
sw,-50.4083137512207,-86.6881408691406,26.098149597862626,1.5890292174647545,439385016
sw,-49.9318923950195,-86.577896118164,17.034060164779582,-5.235797301387847,439401683
sw,-49.7533798217773,-86.2013626098632,15.963574387328034,-11.339357403491821,439418350
sw,-50.213394165039,-85.5996322631836,22.201565381037003,-17.00184178527643,439435017
sw,-51.5093955993652,-84.8976974487304,33.5959449284326,-23.02768262326508,439451684
sw,-52.8758697509765,-84.3077011108398,47.192974536920254,-30.59019662011068,439468351
sw,-53.9628601074218,-83.9355087280273,60.0022099146481,-40.91014232530249,439485018
sw,-55.2136802673339,-83.6058578491211,69.62270675780458,-54.84770860078423,439501685
sw,-56.3514595031738,-83.0660247802734,74.59678740084827,-72.54449156661134,439518352
sw,-57.3639183044433,-81.9775772094726,74.48378967289044,-93.25867146714562,439535019
sw,-58.4295501708984,-79.9567413330078,69.73005462807978,-115.47536114223566,439551686
sw,-59.6433219909668,-76.9903030395507,61.43308780426363,-137.26243324763328,439568353
sw,-60.6421508789062,-73.8329620361328,51.07333012444694,-156.73233576479842,439585020
sw,-61.3523521423339,-70.6764984130859,40.24862008720686,-172.42529962726402,439601687
sw,-61.7791709899902,-67.6680679321289,30.424690278223288,-183.48074661841616,439618354
sw,-62.0457611083984,-64.9268035888671,22.71933666554356,-189.58321456582843,439635021
sw,-62.3289947509765,-62.1918907165527,17.752139743118377,-190.78264193335295,439651688
sw,-62.5447120666503,-59.1033973693847,15.593426803887874,-187.32742667648935,439668355
sw,-62.7422294616699,-55.775104522705,15.827933169391027,-179.59471923640768,439685022
sw,-63.1389541625976,-52.7504692077636,17.718599203659313,-168.10081340382015,439701689
sw,-63.7659645080566,-50.2437477111816,20.42608337630907,-153.50185840146318,439718356
sw,-64.3883895874023,-48.3101806640625,23.2197864406884,-136.50339004073453,439735023
sw,-64.8583602905273,-46.7572212219238,25.61697768714356,-117.67496154012598,439751690
sw,-65.1975555419921,-45.6324882507324,27.414687713918497,-97.25363973677642,439768357
sw,-65.5710983276367,-44.8644561767578,28.624741793773026,-75.05957704593301,439785024
sw,-66.0851898193359,-44.27681350708,29.3598356848406,-50.61743182644858,439801691
sw,-66.6662063598632,-43.7919845581054,29.726463089417866,-23.494069608264596,439818358
sw,-67.1876144409179,-43.8059463500976,29.7605294153074,6.2390948766496415,439835025
sw,-67.6752853393554,-44.2540245056152,29.413788849894544,37.588756152856156,439851692
sw,-68.1680831909179,-45.0599746704101,28.581281911377477,68.45535336409095,439868359
sw,-68.6717147827148,-46.5199699401855,27.15363970101564,95.81602691381521,439885026
sw,-69.1535491943359,-48.8167877197265,25.07602992895065,116.29746368611,439901693
sw,-69.6043014526367,-51.3723373413085,22.39340440209533,127.0235092782456,439918360
sw,-70.0400695800781,-54.1196250915527,19.26192899854043,126.50395175782201,439935027
sw,-70.3355484008789,-56.8722076416015,15.912932055118505,115.277779797143,439951694
sw,-70.5387420654296,-59.4461212158203,12.569257542700814,96.0617771769995,439968361
sw,-70.7331008911132,-60.7687187194824,9.331342162181041,73.28087570125739,439985028
sw,-70.8145446777343,-60.5894699096679,6.065720578296988,52.04901966469658,440001695
sw,-70.7321853637695,-60.1427688598632,2.33680348361136,36.8801729193942,440018362
sw,-70.423599243164,-59.7475776672363,-2.5788275399868885,30.548087970061502,440035029
sw,-70.1752090454101,-60.2225837707519,-9.57068891751338,33.486195888659175,440051696
sw,-70.2075881958007,-62.0058937072753,-19.47207670021131,43.91057819696196,440068363
sw,-70.0302200317382,-64.0301208496093,-32.789571585579814,58.55862723917651,440085030
sw,-69.3535003662109,-65.4621353149414,-49.47327343967818,73.71681227311558,440101697
sw,-68.0318298339843,-66.899429321289,-68.8142624118496,86.16767996409027,440118364
sw,-66.5096588134765,-68.3296890258789,-89.50945349502999,93.80796458657781,440135031
sw,-64.8694839477539,-70.0666580200195,-109.87483616306551,95.86944464057132,440151698
sw,-63.0244445800781,-71.9490661621093,-128.15204022002874,92.80300432007257,440168365
sw,-60.5703926086425,-73.4761123657226,-142.84346184260409,85.93288881315294,440185032
sw,-57.2353553771972,-74.4731292724609,-153.0032575228603,76.99120124000929,440201699
sw,-53.6944274902343,-75.2639007568359,-158.39624799349457,67.64519539136502,440218366
sw,-51.6504669189453,-76.1795196533203,-159.4463609334873,59.13204750427389,440235033
sw,-50.065502166748,-77.2408599853515,-156.96837539777695,52.08822936125838,440251700
sw,-47.5904197692871,-78.2267913818359,-151.7875115145669,46.59251058714295,440268367
sw,-44.8618354797363,-79.1002120971679,-144.41296450639925,42.36322232513779,440285034
sw,-42.4871292114257,-79.8924789428711,-134.88664490415042,39.005500960952624,440301701
sw,-40.4928398132324,-80.6104583740234,-122.82325390501698,36.21041039829663,440318368
sw,-38.7936248779296,-81.2638778686523,-107.58392008589308,33.84930459200913,440335035
sw,-37.3348922729492,-81.734992980957,-88.51623433064808,31.9565512883286,440351702
sw,-36.2380561828613,-82.1383361816406,-65.21364216650305,30.633208219881386,440368369
sw,-35.6362380981445,-82.6235733032226,-37.75871160625449,29.925232406775745,440385036
sw,-35.6001815795898,-83.1156463623046,-6.912836369579472,29.72969068700689,440401703
sw,-36.0168838500976,-83.6067123413086,25.7888044116475,29.76415753665973,440418370
sw,-36.7782287597656,-84.1204376220703,58.07729408041718,29.607617677961695,440435037
sw,-37.9220237731933,-84.6679992675781,87.1581494136454,28.79685003606396,440451704
sw,-39.6748123168945,-85.2049026489257,110.10001378115508,26.946587983880658,440468371
sw,-42.2368965148925,-85.6909790039062,124.3709401964878,23.855997516042375,440485038
sw,-44.5602645874023,-86.1205139160156,128.42322111452685,19.568082139226792,440501705
sw,-46.9308166503906,-86.4313583374023,122.17093651149348,14.361513813199771,440518372
sw,-49.3329811096191,-86.5827560424804,107.19444576370392,8.673145078979243,440535039
sw,-51.3183708190918,-86.5511093139648,86.55808011884575,2.9694063263236288,440551706
sw,-51.9830665588378,-86.4735260009765,64.23141184819885,-2.3999426875515257,440568373
sw,-51.7704582214355,-86.4527130126953,44.23807094221751,-7.327537082425765,440585040
sw,-51.5319175720214,-86.2808456420898,29.775004977949774,-12.022885972130121,440601707
sw,-51.8110008239746,-85.8719482421875,22.580575448602993,-17.018075220198668,440618374
sw,-52.7568550109863,-85.2409973144531,22.737531051613367,-23.096985181100077,440635041
sw,-53.8009147644043,-84.5593643188476,28.915438111439723,-31.146741219948385,440651708
sw,-54.5399093627929,-83.9453430175781,38.89313926580418,-41.94412976752803,440668375
sw,-55.5171356201171,-83.3352584838867,50.143759594528746,-55.918467501279245,440685042
sw,-56.5102882385253,-82.5715255737304,60.31728467479194,-72.96409055136853,440701709
sw,-57.3767127990722,-81.4135971069336,67.55587035304366,-92.38343040719728,440718376
sw,-58.3679962158203,-79.5125656127929,70.65900475355242,-113.00507919782792,440735043
sw,-59.6497497558593,-76.7530899047851,69.1494682998373,-133.4465327008619,440751710
sw,-60.9166221618652,-73.6824188232421,63.278642917398734,-152.41538215018744,440768377
sw,-61.962417602539,-70.6801147460937,53.97348491785487,-168.9156017165205,440785044
sw,-62.7949638366699,-67.7283172607421,42.70071327981187,-182.27561842030906,440801711
sw,-63.3352241516113,-64.8070449829101,31.22993448899467,-192.019560460169,440818378
sw,-63.6184387207031,-61.9327812194824,21.313135991982804,-197.6966070086039,440835045
sw,-63.7388877868652,-58.6765098571777,14.34045023446706,-198.8025053579375,440851712
sw,-63.5972595214843,-55.1277427673339,11.058420910609708,-194.85772710652665,440868379
sw,-63.6644668579101,-51.687271118164,11.433815035283384,-185.59379531821014,440885046
sw,-64.0536422729492,-48.8843994140625,14.709718744690015,-171.11915092329332,440901713
sw,-64.7211380004882,-46.6251564025878,19.639538034473784,-151.9434029795685,440918380
sw,-65.3745574951171,-44.8621444702148,24.822598626218515,-128.82723226686423,440935047
sw,-65.9832611083984,-43.6869621276855,29.033762427323083,-102.53410273974376,440951714
sw,-66.5637969970703,-42.9666595458984,31.454976084667244,-73.62409380582662,440968381
sw,-67.1488800048828,-42.5916442871093,31.76552386131127,-42.42021970660888,440985048
sw,-67.6416931152343,-42.4725265502929,30.10007046391702,-9.20276089468338,441001715
sw,-68.0133438110351,-42.7908248901367,26.917711353518687,25.420697584048003,441018382
sw,-68.3422546386718,-43.4816741943359,22.83696724803575,60.1205549593382,441035049
sw,-68.6798629760742,-44.521614074707,18.48552160145222,92.62592124336302,441051716
sw,-68.9826126098632,-46.1887397766113,14.394775201444897,119.85460628390456,441068383
sw,-69.2470169067382,-48.8553886413574,10.94487626979011,138.46123991370615,441085050
sw,-69.4630126953125,-51.9893836975097,8.34551768909889,145.71210560071827,441101717
sw,-69.6463165283203,-55.2676582336425,6.629377113425574,140.433974483383,441118384
sw,-69.7858581542968,-58.3652305603027,5.639949838049398,123.69472371518475,441135051
sw,-69.8884658813476,-61.0119552612304,5.0094344371666715,98.91032421731344,441151718
sw,-69.9172210693359,-61.6680374145507,4.139194606717254,71.24186871272504,441168385
sw,-69.8721237182617,-61.2112350463867,2.209097396178814,46.4015384398414,441185052
sw,-69.7052764892578,-60.5884246826171,-1.753256652946745,29.23315252702781,441201719
sw,-69.3360900878906,-60.4545707702636,-8.722237118325674,22.54734084252324,441218386
sw,-69.2497024536132,-61.4586563110351,-19.44923203338773,26.592227994857232,441235053
sw,-69.1912612915039,-63.1242179870605,-34.210869994733734,39.27008312479427,441251720
sw,-68.518928527832,-64.5954666137695,-52.61525097540305,56.92151726064891,441268387
sw,-67.1803131103515,-65.7951354980468,-73.55427840147719,75.34341757046832,441285054
sw,-65.5233993530273,-67.170654296875,-95.34478141589587,90.73077002209328,441301721
sw,-63.586929321289,-68.8360900878906,-116.02998898321333,100.3627911141173,441318388
sw,-61.6015243530273,-71.1030654907226,-133.7593804208155,102.97618282626684,441335055
sw,-59.090160369873,-73.3815689086914,-147.14923617985312,98.82331269382871,441351722
sw,-55.7275047302246,-74.8747863769531,-155.53319186413097,89.42733451323224,441368389
sw,-52.3558273315429,-75.6475524902343,-159.0257469167377,77.08100326487063,441385056
sw,-50.5400810241699,-76.289924621582,-158.3574868144606,64.20969713112102,441401723
sw,-49.0036239624023,-77.0363006591796,-154.52177854880287,52.78264858653209,441418390
sw,-46.3861198425293,-77.7858963012695,-148.36923081538535,43.94612914038273,441435057
sw,-43.6305770874023,-78.5739364624023,-140.31698287974055,37.96063383258762,441451724
sw,-41.2673225402832,-79.4342803955078,-130.26627920879113,34.40480249042171,441468391
sw,-39.3838729858398,-80.2189407348632,-117.70809099237906,32.52386906028647,441485058
sw,-37.79292678833,-81.0081176757812,-101.93588213371028,31.577166313028798,441501725
sw,-36.4607925415039,-81.6386260986328,-82.29571402550718,31.070358978588736,441518392
sw,-35.4926872253418,-82.0143661499023,-58.436986758784805,30.820712258934268,441535059
sw,-34.9990272521972,-82.4106216430664,-30.5400354047051,30.871973080595236,441551726
sw,-35.0221328735351,-82.8834686279296,0.5111447864197187,31.325616109403732,441568393
sw,-35.5277061462402,-83.3987655639648,33.05350034401787,32.17158626300887,441585060
sw,-36.4127540588378,-83.9148254394531,64.71127820135555,33.18451866342244,441601727
sw,-37.6500434875488,-84.4776382446289,92.63803636479513,33.91630095561008,441618394
sw,-39.4595260620117,-85.1006317138671,113.93994417820274,33.780626138991956,441635061
sw,-42.2261199951171,-85.7385101318359,126.23393831149241,32.19906058598036,441651728
sw,-44.5706100463867,-86.3203887939453,128.22677300475758,28.763141149935468,441668395
sw,-46.7619361877441,-86.8299789428711,120.15103100669162,23.36377021199413,441685062
sw,-49.0792808532714,-87.2151260375976,103.89888458223444,16.247832396624236,441701729
sw,-51.0031127929687,-87.3597335815429,82.76151751648472,7.980396653485878,441718396
sw,-51.6765174865722,-87.3526306152343,60.7908631320263,-0.6852957253518182,441735063
sw,-51.3301239013671,-87.3045578002929,41.925561647104566,-9.00435794648623,441751730
sw,-51.0501327514648,-87.0009536743164,29.128853622425606,-16.459646652853884,441768397
sw,-51.4090194702148,-86.4404754638671,23.81099449603107,-22.94956751003622,441785064
sw,-52.4372673034668,-85.5690231323242,25.708250853105206,-28.885572926662743,441801731
sw,-53.6091880798339,-84.6556625366211,33.20296484858684,-35.14748593062379,441818398
sw,-54.4679870605468,-83.8893966674804,43.90505012314481,-42.87431853740554,441835065
sw,-55.3458976745605,-83.3146438598632,55.26572239657503,-53.125423221544466,441851732
sw,-56.3919258117675,-82.8005294799804,65.05922650574622,-66.51365403078788,441868399
sw,-57.4779891967773,-81.9365692138671,71.67520974906249,-82.94979350423962,441885066
sw,-58.7226753234863,-80.3781433105468,74.24186091731077,-101.61083872767794,441901733
sw,-60.0871276855468,-77.9668884277343,72.62541161474401,-121.15275160387738,441918400
sw,-61.2302169799804,-75.1319122314453,67.342786273958,-140.07416220258045,441935067
sw,-62.246826171875,-72.2658767700195,59.40846847728999,-157.06717298863975,441951734
sw,-63.1160011291503,-69.4414825439453,50.13116446662131,-171.20996359385435,441968401
sw,-63.769058227539,-66.5692749023437,40.88211654808107,-181.95295223924612,441985068
sw,-64.2781219482421,-63.7017745971679,32.866487075641324,-188.9646682837942,442001735
sw,-64.7500457763671,-60.7203636169433,26.933802868461754,-191.96622970624847,442018402
sw,-65.0904159545898,-57.4436264038085,23.45975018031036,-190.66265174596484,442035069
sw,-65.3989028930664,-54.051097869873,22.320359102564954,-184.7960886295769,442051736
sw,-65.7927856445312,-51.1124153137207,22.96320399517033,-174.2580755563715,442068403
sw,-66.3256683349609,-48.699405670166,24.5606844437124,-159.1630304346958,442085070
sw,-66.9111938476562,-46.6122703552246,26.21032355039984,-139.82275678691678,442101737
sw,-67.4923477172851,-44.9888381958007,27.13278870790881,-116.63821937638917,442118404
sw,-68.0712509155273,-43.8804283142089,26.818409013046164,-89.98571237229773,442135071
sw,-68.535659790039,-43.2378158569335,25.090149615810446,-60.18709517541342,442151738
sw,-68.8479995727539,-42.9811096191406,22.07919475851533,-27.619183881524076,442168405
sw,-69.0456161499023,-43.0523948669433,18.13741730815663,7.046596059262956,442185072
sw,-69.1970825195312,-43.6169166564941,13.72795117635207,42.55485404647445,442201739
sw,-69.3929367065429,-44.525520324707,9.333149997658156,76.86199769283644,442218406
sw,-69.62890625,-45.856101989746,5.398616021687373,107.16383857540835,442235073
sw,-69.8442993164062,-47.8266868591308,2.3036308621903836,130.25513186463652,442251740
sw,-69.9525985717773,-50.7381172180175,0.32942260082079355,143.21555123119438,442268407
sw,-69.9503860473632,-53.865867614746,-0.4000843093597002,144.27491494949533,442285074
sw,-69.8858642578125,-57.2465476989746,-0.0061229336485615245,133.58456954539724,442301741
sw,-69.7655868530273,-60.2060279846191,1.0582340115470712,113.57859916203587,442318408
sw,-69.6853713989257,-61.8297157287597,1.9714019546673118,88.69436686842344,442335075
sw,-69.7162399291992,-62.1187286376953,1.6011213089670358,64.43116104050252,442351742
sw,-69.7934341430664,-61.5195960998535,-1.32596700542162,45.989095786186425,442368409
sw,-69.6081924438476,-61.1766929626464,-7.964445340373904,36.928409367884626,442385076
sw,-69.347785949707,-61.7722854614257,-19.05575377353949,38.307665333803136,442401743
sw,-69.2488403320312,-63.3104591369628,-34.67506716815704,48.572239570025005,442418410
sw,-68.5139236450195,-64.7801818847656,-54.09752872567927,64.16993760975511,442435077
sw,-67.204963684082,-66.6733627319336,-75.84229550426451,80.62525262425319,442451744
sw,-65.3871383666992,-68.2804412841796,-97.90685974207206,93.71028636039281,442468411
sw,-63.5562438964843,-69.9725646972656,-118.14433603276179,100.40304556846237,442485078
sw,-61.5104789733886,-72.028091430664,-134.69133921843456,99.44665164850477,442501745
sw,-58.5680923461914,-74.1089324951171,-146.33914945831887,91.44285216493729,442518412
sw,-55.1485137939453,-75.3405151367187,-152.74662060059802,78.50541009880592,442535079
sw,-52.3439102172851,-75.8645477294921,-154.41576713007305,63.580419990472485,442551746
sw,-50.8138961791992,-76.2421798706054,-152.41145788375385,49.621307636771945,442568413
sw,-49.0967292785644,-76.7737884521484,-147.91066057798733,38.85345222482292,442585080
sw,-46.4999351501464,-77.386978149414,-141.7567872105147,32.33126900730303,442601747
sw,-43.976146697998,-78.0167694091796,-134.19153437271726,29.880157376965645,442618414
sw,-41.8276481628418,-78.7042922973632,-124.83571279387428,30.38250267704248,442635081
sw,-40.0425567626953,-79.4706268310546,-112.8762173395533,32.2708956293939,442651748
sw,-38.4435920715332,-80.3957138061523,-97.36560573484364,34.05626518222354,442668415
sw,-37.1772003173828,-81.2611312866211,-77.55172318752915,34.73552933231854,442685082
sw,-36.2280693054199,-81.850715637207,-53.179957881074344,33.97740566194716,442701749
sw,-35.77978515625,-82.2348937988281,-24.72206356451859,32.062516893456156,442718416
sw,-35.9249458312988,-82.5107192993164,6.5120409478677015,29.634874555864915,442735083
sw,-36.4115333557128,-82.7945327758789,38.41622531243738,27.377946240819245,442751750
sw,-37.3373832702636,-83.146255493164,68.30390243130384,25.73788119933713,442768417
sw,-38.9761428833007,-83.5760879516601,93.29020472837328,24.779473901054214,442785084
sw,-41.1647834777832,-84.0854721069336,110.79364892630787,24.198888340259238,442801751
sw,-43.3671379089355,-84.6395874023437,119.06471228614349,23.459112901353325,442818418
sw,-45.1733665466308,-85.1602935791015,117.61789452158484,21.979635453621253,442835085
sw,-47.3350143432617,-85.5628356933593,107.44789243358903,19.30764458716109,442851752
sw,-49.8040924072265,-85.8262710571289,90.94714351326455,15.218960921915013,442868419
sw,-50.8415184020996,-85.9733810424804,71.49824225777269,9.729894602631841,442885086
sw,-51.348777770996,-86.0861358642578,52.79334699013623,3.031450096509503,442901753
sw,-51.214500427246,-86.1077117919921,38.034261129965124,-4.624804760729388,442918420
sw,-50.9879493713378,-85.8594894409179,29.248635316825585,-13.053913020738781,442935087
sw,-51.3236846923828,-85.2766036987304,26.950563351781774,-22.24127106773432,442951754
sw,-52.6350021362304,-84.5247497558593,30.251189777145886,-32.38670761685018,442968421
sw,-54.1564064025878,-83.715217590332,37.339711390602176,-43.86119593084919,442985088
sw,-54.9966697692871,-82.8872680664062,46.110339207831245,-57.0742875623707,443001755
sw,-55.7641792297363,-81.9504318237304,54.689494219099885,-72.28930796930089,443018422
sw,-56.7468566894531,-80.805061340332,61.71895686553215,-89.45532542596223,443035089
sw,-57.6017608642578,-79.2780838012695,66.39326040500502,-108.12771328376886,443051756
sw,-58.4754486083984,-76.9831161499023,68.34661934697837,-127.51460317861935,443068423
sw,-59.6076202392578,-74.0670852661132,67.5069021575453,-146.62710553227214,443085090
sw,-60.7108078002929,-70.9571456909179,64.00080687715297,-164.45740979447768,443101757
sw,-61.7283821105957,-67.6796417236328,58.13673282386135,-180.09592581067125,443118424
sw,-62.7218551635742,-64.4873123168945,50.43797561604147,-192.74119840227442,443135091
sw,-63.7194633483886,-61.5750389099121,41.66883326298301,-201.631260764345,443151758
sw,-64.5453872680664,-58.4756813049316,32.796531595733995,-205.98300416527172,443168425
sw,-64.8916778564453,-55.0929985046386,24.85942088783484,-205.02500878096612,443185092
sw,-64.9096069335937,-51.6144523620605,18.758969692846904,-198.1450578976097,443201759
sw,-64.9020233154296,-48.363956451416,15.041867901584734,-185.08742006867953,443218426
sw,-65.1770629882812,-45.5751152038574,13.760019120962726,-166.0870247131701,443235093
sw,-65.69140625,-43.5041236877441,14.47013220324799,-141.85262072854303,443251760
sw,-66.2161026000976,-42.2272033691406,16.373101885396448,-113.39434533177578,443268427
sw,-66.6546554565429,-41.4643173217773,18.53587478887821,-81.78268488269687,443285094
sw,-67.0311279296875,-41.1244354248046,20.11850485534817,-47.97225534452259,443301761
sw,-67.4553070068359,-41.0852661132812,20.547505833491847,-12.797155333505776,443318428
sw,-67.9009399414062,-41.3814086914062,19.60873450155516,22.84396043950726,443335095
sw,-68.2681274414062,-42.1306724548339,17.45656842579635,57.70179607089458,443351762
sw,-68.5351333618164,-43.3224906921386,14.547550292027768,89.95122078187623,443368429
sw,-68.7844314575195,-44.9742088317871,11.513864087907182,117.19368069992292,443385096
sw,-69.00537109375,-47.3346290588378,8.999772904333701,136.78393688641253,443401763
sw,-69.0950469970703,-50.5151863098144,7.490946359720189,146.45241146588057,443418430
sw,-69.0680694580078,-53.6132125854492,7.170224613420625,145.05463759743577,443435097
sw,-69.1414489746093,-56.5776672363281,7.8322876941527815,133.18234862360697,443451764
sw,-69.3708190917968,-59.5383377075195,8.880288856594282,113.3681463431592,443468431
sw,-69.6266403198242,-61.064842224121,9.407575659553638,89.72431631908991,443485098
sw,-69.8854141235351,-61.2249641418457,8.344031305787563,67.05039618305824,443501765
sw,-69.9826126098632,-60.8811111450195,4.632868378795144,49.66092308460926,443518432
sw,-69.7165069580078,-60.7539253234863,-2.592751711592151,40.32811055346217,443535099
sw,-69.3418884277343,-61.749454498291,-13.85030937703142,39.70983136803126,443551766
sw,-69.1295471191406,-63.7553367614746,-29.175811155636755,46.42903499236369,443568433
sw,-68.7102279663086,-65.1447219848632,-48.03910695061056,57.6962180520647,443585100
sw,-67.5626525878906,-66.2810592651367,-69.34275720874315,70.18215562618899,443601767
sw,-66.0025558471679,-67.7501754760742,-91.53640157097735,80.83847032617227,443618434
sw,-64.0870132446289,-69.1039276123046,-112.84387643592214,87.48092496770255,443635101
sw,-62.0676574707031,-70.8195419311523,-131.55699171302535,89.08094915871126,443651768
sw,-59.8328666687011,-72.7724533081054,-146.32689588483035,85.78327960086587,443668435
sw,-56.8110237121582,-74.3159713745117,-156.38435405682833,78.68887798066672,443685102
sw,-53.2109870910644,-75.1460494995117,-161.62817265622692,69.45790303869059,443701769
sw,-50.7594604492187,-75.6953506469726,-162.53784707594394,59.825450587993295,443718436
sw,-49.1945724487304,-76.4591903686523,-159.91674632951728,51.16381840379215,443735103
sw,-46.9298973083496,-77.3758163452148,-154.55413256646068,44.22136228147355,443751770
sw,-43.977798461914,-78.1385421752929,-146.9466447491422,39.099343649828604,443768437
sw,-41.2684593200683,-78.9875793457031,-137.18174584165868,35.43097553447547,443785104
sw,-39.1792335510253,-79.7276229858398,-124.98458893824751,32.65860068538595,443801771
sw,-37.564598083496,-80.3615264892578,-109.85874285827077,30.292929513295356,443818438
sw,-36.168098449707,-80.9741744995117,-91.25789753528832,28.071250614852406,443835105
sw,-35.0456504821777,-81.3158798217773,-68.77012835074864,25.983827889129127,443851772
sw,-34.3045425415039,-81.6414031982421,-42.3177699941963,24.187962198608748,443868439
sw,-34.1826400756835,-81.983283996582,-12.359509274923562,22.86357305884671,443885106
sw,-34.533821105957,-82.2754898071289,19.948177790611627,22.0750883045021,443901773
sw,-35.0850105285644,-82.5875701904296,52.691504892553354,21.69207238209372,443918440
sw,-36.1851806640625,-82.9625167846679,83.30270647460071,21.393689839119105,443935107
sw,-38.0608558654785,-83.3674697875976,108.86402563132502,20.751300640243304,443951774
sw,-40.5052986145019,-83.7912979125976,126.59794030472851,19.358365998145626,443968441
sw,-43.0225067138671,-84.2154159545898,134.45671428379373,16.963077652208035,443985108
sw,-45.2257919311523,-84.5573501586914,131.66496493848598,13.55926877518948,444001775
sw,-47.6216506958007,-84.7548828125,119.05583355029839,9.404334377850887,444018442
sw,-49.9177589416503,-84.8242645263671,99.07831738911142,4.954922821799496,444035109
sw,-51.4192428588867,-84.847785949707,75.42378943349918,0.7351599113508382,444051776
sw,-51.8773040771484,-84.8116760253906,52.31497002262102,-2.8296392945997515,444068443
sw,-51.623966217041,-84.6626358032226,33.61379146441388,-5.572850433188141,444085110
sw,-51.2563400268554,-84.467041015625,21.998035323752834,-7.700104142396836,444101777
sw,-51.3037376403808,-84.1470336914062,18.466262081279936,-9.823145014739124,444118444
sw,-52.2370262145996,-83.7518920898437,22.32181600443139,-12.891752230942622,444135111
sw,-53.6514549255371,-83.2991104125976,31.600091508811722,-18.0194238388502,444151778
sw,-54.5069847106933,-82.9548873901367,43.73808802568602,-26.225330037151732,444168445
sw,-55.3138999938964,-82.6803207397461,56.23131616868601,-38.148755983507655,444185112
sw,-56.4886169433593,-82.3256607055664,67.09319709310633,-53.8221433770135,444201779
sw,-57.7468605041503,-81.5329971313476,75.05768115977476,-72.5944282827688,444218446
sw,-58.957763671875,-80.0389328002929,79.56520155884537,-93.25812905534664,444235113
sw,-60.1857833862304,-77.6605529785156,80.61537153645192,-114.3528182787033,444251780
sw,-61.4100875854492,-74.7514038085937,78.57294099742376,-134.5281846755061,444268447
sw,-62.5886650085449,-71.9189910888671,73.99562894488281,-152.80608279065078,444285114
sw,-63.7991714477539,-69.1018981933593,67.52134077031633,-168.62173236256658,444301781
sw,-64.9930953979492,-66.2166137695312,59.8157941605744,-181.63837019639735,444318448
sw,-66.0097961425781,-63.624942779541,51.55270659201116,-191.45454946832206,444335115
sw,-66.8028411865234,-60.7731590270996,43.38949856966689,-197.38473678888664,444351782
sw,-67.3039627075195,-57.3313331604003,35.91536659858977,-198.45374812146946,444368449
sw,-67.7076721191406,-53.5722770690918,29.576282137181753,-193.6236246494174,444385116
sw,-68.0887985229492,-50.2708625793457,24.604855235705887,-182.13753311665326,444401783
sw,-68.540283203125,-47.6477699279785,20.987152477885175,-163.8022625287982,444418450
sw,-68.9782638549804,-45.6963157653808,18.482893721991672,-139.07794390234815,444435117
sw,-69.322639465332,-44.3936614990234,16.693483004877535,-108.96354300932266,444451784
sw,-69.5644454956054,-43.6114082336425,15.159369947200812,-74.77748928912847,444468451
sw,-69.8001251220703,-43.2296600341796,13.46811103487603,-37.97131528941023,444485118
sw,-70.0849456787109,-43.2065391540527,11.358209127315074,-0.07044348724427923,444501785
sw,-70.393081665039,-43.6505584716796,8.801333498160654,37.25576747714339,444518452
sw,-70.6444625854492,-44.5378799438476,6.037755783996375,72.08229947481892,444535119
sw,-70.826171875,-45.8941574096679,3.53779628717063,102.20716598394773,444551786
sw,-70.9489517211914,-47.9113998413085,1.875416047199913,125.3312650193391,444568453
sw,-70.9476623535156,-50.9429244995117,1.528177971612995,139.46756332591255,444585120
sw,-70.7729339599609,-53.7638092041015,2.6506486685220527,143.4924933867224,444601787
sw,-70.6585845947265,-56.634967803955,4.89211425045683,137.65308330410173,444618454
sw,-70.7574462890625,-59.7449493408203,7.33100810630217,123.80988370942862,444635121
sw,-70.9392166137695,-61.6849365234375,8.571145688588569,105.2519456706676,444651788
sw,-71.1145629882812,-62.5942993164062,6.996457204428451,86.05618509946923,444668455
sw,-71.2356872558593,-62.6540565490722,1.1314562623214797,70.14179713225955,444685122
sw,-71.1782760620117,-63.0127868652343,-9.977898331154456,60.31874798253202,444701789
sw,-70.9666366577148,-64.4141311645507,-26.458967408798948,57.657533175690205,444718456
sw,-70.7170944213867,-65.81884765625,-47.470397386285036,61.37936554910665,444735123
sw,-69.4765319824218,-67.1064376831054,-71.28225950247817,69.2537877696247,444751790
sw,-67.5459442138671,-68.6687545776367,-95.58339678116043,78.3210818626427,444768457
sw,-65.3235931396484,-70.2589340209961,-117.94909270386718,85.70016923012454,444785124
sw,-63.2520408630371,-72.1132431030273,-136.34388119177737,89.27486112562787,444801791
sw,-60.7953033447265,-74.1561965942382,-149.52293047656863,88.11426499631334,444818458
sw,-57.6309432983398,-75.7915420532226,-157.2293344239112,82.54965977960856,444835125
sw,-54.3025779724121,-76.8027038574218,-160.13409461395767,73.90770709697559,444851792
sw,-51.9358558654785,-77.349624633789,-159.51890616398111,63.994183745182454,444868459
sw,-50.4226760864257,-77.8871307373046,-156.77483650686614,54.50684715314237,444885126
sw,-48.2671699523925,-78.6862487792968,-152.8740107908928,46.57998958060682,444901793
sw,-45.4458465576171,-79.6687316894531,-148.00580104034455,40.59805820245251,444918460
sw,-42.8118667602539,-80.704116821289,-141.50377489897278,36.29075374457212,444935127
sw,-40.6132202148437,-81.4813385009765,-132.06091916979915,33.00803506678565,444951794
sw,-38.7576560974121,-82.0446853637695,-118.13123308741775,30.028923182496666,444968461
sw,-37.1428451538085,-82.4583206176757,-98.39494945545098,26.790147097432204,444985128
sw,-35.8623809814453,-82.7586822509765,-72.1929200085113,22.991406633035453,445001795
sw,-35.1466636657714,-83.0222854614257,-39.86298380074367,18.596125092792636,445018462
sw,-35.1342277526855,-83.2411727905273,-2.921892025257666,13.774643466684635,445035129
sw,-35.5757789611816,-83.4050140380859,35.956041306703106,8.832687462771782,445051796
sw,-36.4704704284668,-83.4764938354492,73.19547643955356,4.147792568432164,445068463
sw,-38.132339477539,-83.4606704711914,104.81352297412842,0.11661322009519111,445085130
sw,-40.4868087768554,-83.4160232543945,127.10459056200304,-2.894229967511171,445101797
sw,-43.0871505737304,-83.4061965942382,137.40713379431563,-4.60126000464416,445118464
sw,-45.55122756958,-83.4121551513671,134.78157477774383,-4.863025783690811,445135131
sw,-48.3469123840332,-83.3795471191406,120.40284648480379,-3.739321811187054,445151798
sw,-50.8342475891113,-83.3121490478515,97.50369912151804,-1.538640447476718,445168465
sw,-51.8720550537109,-83.2652435302734,70.80195525965412,1.1624461097436163,445185132
sw,-51.6829528808593,-83.3380279541015,45.49821320781071,3.542795341016152,445201799
sw,-51.2050666809082,-83.4758987426757,26.100494898713762,4.608971012652113,445218466
sw,-50.7881965637207,-83.4945297241211,15.435129350665079,3.309632798104235,445235133
sw,-50.9334373474121,-83.287124633789,14.158874863655278,-1.3228754480664644,445251800
sw,-52.1745872497558,-83.035903930664,20.896436138189404,-10.019683399982425,445268467
sw,-53.4945945739746,-82.7793350219726,32.88498763837812,-23.1282802564991,445285134
sw,-54.4020347595214,-82.340347290039,46.83924654402486,-40.49784472855872,445301801
sw,-55.4368324279785,-81.6485900878906,59.73318092596935,-61.43768203042867,445318468
sw,-56.5032081604003,-80.5702209472656,69.30846153578001,-84.78922755996885,445335135
sw,-57.4903182983398,-78.8104476928711,74.27466360681278,-109.12184558876024,445351802
sw,-58.6125984191894,-76.1560363769531,74.27545766115644,-133.00589707701437,445368469
sw,-59.8472099304199,-73.1102523803711,69.72878667621502,-155.26103066107152,445385136
sw,-60.926456451416,-70.0326995849609,61.62580952474495,-175.06451326873494,445401803
sw,-61.8475341796875,-66.7829132080078,51.32836712189397,-191.860117038458,445418470
sw,-62.6781463623046,-63.8341369628906,40.3687010690636,-205.11499611589142,445435137
sw,-63.2447776794433,-60.9454727172851,30.243064004582873,-214.06951480018364,445451804
sw,-63.6287193298339,-57.3793334960937,22.20068641421946,-217.6471564980575,445468471
sw,-63.7220878601074,-53.3274116516113,17.05106091980347,-214.61255700950898,445485138
sw,-63.7095108032226,-49.4859809875488,15.032926849897649,-203.92457846171695,445501805
sw,-63.9360084533691,-46.2834396362304,15.792586505394137,-185.11663472439028,445518472
sw,-64.5020904541015,-43.8119392395019,18.495613061467022,-158.5241709401852,445535139
sw,-65.1266021728515,-42.2581138610839,22.049619980614622,-125.27180243027288,445551806
sw,-65.5825271606445,-41.2640838623046,25.372644138934245,-87.06191469780573,445568473
sw,-65.923225402832,-40.8324432373046,27.630378581342217,-45.892668731782926,445585140
sw,-66.4105453491211,-40.9149856567382,28.389288549214708,-3.8373285762415152,445601807
sw,-67.0762710571289,-41.4580841064453,27.666695779812596,37.048713081983315,445618474
sw,-67.6982498168945,-42.5571022033691,25.878957939905757,74.71787453558372,445635141
sw,-68.0823135375976,-44.0000991821289,23.69655216126719,107.11152027128574,445651808
sw,-68.3128280639648,-46.0298500061035,21.82852157583672,132.24364215361092,445668475
sw,-68.5041351318359,-49.0052299499511,20.78451438014768,148.45364394110447,445685142
sw,-68.6667175292968,-51.8950729370117,20.68419087064142,154.80197675764083,445701809
sw,-68.9333267211914,-55.1011695861816,21.17989129817313,151.4802724878335,445718476
sw,-69.4109420776367,-58.466796875,21.52324506943138,140.04772133077773,445735143
sw,-70.1214294433593,-60.5716133117675,20.75260149005048,123.32634579295383,445751810
sw,-70.7280502319336,-62.048484802246,17.92997445766814,104.89699828621372,445768477
sw,-70.9319839477539,-62.7685661315918,12.33977473168855,88.30342174712933,445785144
sw,-70.8050918579101,-63.039981842041,3.5901287870668215,76.21963999734578,445801811
sw,-70.4205169677734,-64.3142471313476,-8.383716217837163,69.8776025925245,445818478
sw,-69.8965454101562,-66.3300170898437,-23.363819181353502,68.94660249801782,445835145
sw,-69.4573287963867,-67.5445556640625,-40.883020848829716,71.85773345115163,445851812
sw,-68.7045669555664,-68.9191284179687,-60.22382937292666,76.39761280770222,445868479
sw,-67.255142211914,-70.376220703125,-80.40748989244841,80.3471229768453,445885146
sw,-65.7747268676757,-71.9395980834961,-100.22360279942619,81.99897139297073,445901813
sw,-64.3097076416015,-73.6706466674804,-118.34128327092027,80.4710787713748,445918480
sw,-62.1184387207031,-75.259895324707,-133.50979302169318,75.78791887451905,445935147
sw,-58.955265045166,-76.3285903930664,-144.8098342133188,68.73679281125636,445951814
sw,-55.5120315551757,-77.0845184326171,-151.86416084909584,60.548155023912706,445968481
sw,-52.8089942932128,-77.7207717895507,-154.8908653735265,52.499895219198,445985148
sw,-51.2124595642089,-78.5169677734375,-154.53227370785018,45.57397960067238,446001815
sw,-49.3684425354003,-79.4270935058593,-151.51335871760114,40.26894289490119,446018482
sw,-46.8285827636718,-80.3385925292968,-146.29139743681083,36.598682761091595,446035149
sw,-44.1820983886718,-81.1046371459961,-138.8613178676124,34.22948773919597,446051816
sw,-41.9446945190429,-81.7219161987304,-128.77984282356778,32.66758658106923,446068483
sw,-40.0527648925781,-82.2864990234375,-115.35762955578241,31.42079180200266,446085150
sw,-38.5025253295898,-82.7747116088867,-97.92251189669285,30.097971019588705,446101817
sw,-37.3722915649414,-83.2633285522461,-76.07862243007105,28.447686554344624,446118484
sw,-36.6230392456054,-83.7768173217773,-49.92552706063362,26.35523648411693,446135151
sw,-36.3345146179199,-84.2102661132812,-20.221089484427523,23.817313300294888,446151818
sw,-36.4827232360839,-84.5538940429687,11.53258059445646,20.906736245349176,446168485
sw,-37.0042648315429,-84.7861328125,43.11490453969531,17.735610030420716,446185152
sw,-37.9591941833496,-84.9605178833007,71.76575065260874,14.425593487546726,446201819
sw,-39.4318008422851,-85.1095199584961,94.54315165694352,11.09406269592627,446218486
sw,-41.5425682067871,-85.242561340332,108.84009559550982,7.859993029671109,446235153
sw,-43.7805862426757,-85.3724670410156,112.97442937231914,4.863495143573992,446251820
sw,-45.5618019104003,-85.5362167358398,106.70695046284736,2.282785594205301,446268487
sw,-47.6522636413574,-85.6814422607421,91.52321127493245,0.3274979173415283,446285154
sw,-49.6318435668945,-85.7281341552734,70.54740732732019,-0.80845264342392,446301821
sw,-50.4634170532226,-85.721450805664,48.03594260347683,-1.0367930140845758,446318488
sw,-50.1739158630371,-85.6865692138671,28.51630025064927,-0.4891426511556039,446335155
sw,-49.5933227539062,-85.5918960571289,15.773978784997025,0.38159718554970934,446351822
sw,-49.198429107666,-85.4590377807617,11.987104891893146,0.7579299107557927,446368489
sw,-49.2016906738281,-85.240005493164,17.290805851090074,-0.48888480424298875,446385156
sw,-50.3118362426757,-84.9546127319336,29.90407845207773,-4.6308355795044225,446401823
sw,-52.0244255065918,-84.7409591674804,46.73920603058741,-12.814814837868628,446418490
sw,-53.1690216064453,-84.6216735839843,64.24764163413593,-25.748075319457225,446435157
sw,-54.3789710998535,-84.3568420410156,79.21712728838361,-43.428435148597686,446451824
sw,-55.891975402832,-83.7346572875976,89.32262073457893,-65.02400327860741,446468491
sw,-57.3573608398437,-82.5499114990234,93.37193070806558,-88.97774091619057,446485158
sw,-58.8106002807617,-80.6131973266601,91.29047069955001,-113.33681364599225,446501825
sw,-60.3098487854003,-77.839729309082,83.9285286670434,-136.2111243534407,446518492
sw,-61.5108528137207,-74.6860275268554,72.77053773234337,-156.19531508004002,446535159
sw,-62.3954849243164,-71.5389099121093,59.609222613198106,-172.58673253027897,446551826
sw,-63.1152648925781,-68.5475311279296,46.23404893414229,-185.31246106804048,446568493
sw,-63.7245712280273,-65.7543182373046,34.17424179392909,-194.61088700141022,446585160
sw,-64.2125778198242,-63.0036582946777,24.52512702544095,-200.63082701118896,446601827
sw,-64.5999069213867,-59.8467941284179,17.869432749637554,-203.14756508218554,446618494
sw,-64.7836151123046,-56.244514465332,14.287732636676415,-201.52616895248084,446635161
sw,-65.0178070068359,-52.5992240905761,13.440721182928176,-194.92658163700503,446651828
sw,-65.4010848999023,-49.4509658813476,14.699774443165321,-182.6232820735359,446668495
sw,-65.9080505371093,-46.8567428588867,17.296701533636636,-164.2756096640956,446685162
sw,-66.3979949951171,-44.8209266662597,20.45979462739664,-140.0444154122876,446701829
sw,-66.7978210449218,-43.4457664489746,23.509309063253145,-110.55557162153482,446718496
sw,-67.1644592285156,-42.5834426879882,25.905095928041266,-76.79235296760893,446735163
sw,-67.61962890625,-42.1151657104492,27.26196822566647,-40.01663590195113,446751830
sw,-68.1915588378906,-42.0763282775878,27.357179836825985,-1.774648089694637,446768497
sw,-68.7779769897461,-42.5329093933105,26.14232460473748,36.03314546442554,446785164
sw,-69.2750549316406,-43.43013381958,23.75058957691045,71.1058384959251,446801831
sw,-69.6608428955078,-44.8528289794921,20.478686563545633,100.83183776021902,446818498
sw,-69.947265625,-46.9716987609863,16.729952072133692,122.592650276606,446835165
sw,-70.1271667480468,-49.737319946289,12.923913701587475,134.27310709552876,446851832
sw,-70.2654113769531,-52.6143531799316,9.393798259690726,134.86349793538966,446868499
sw,-70.3437271118164,-55.1783866882324,6.297700089630425,124.95789211245224,446885166
sw,-70.4884567260742,-57.7385559082031,3.5615071337350646,106.93998772122492,446901833
sw,-70.642219543457,-59.5379600524902,0.8589917682665151,84.71649325007175,446918500
sw,-70.608642578125,-60.3320808410644,-2.374012115916104,62.99044645483788,446935167
sw,-70.2665176391601,-60.2140655517578,-6.891862251823439,46.22796016866268,446951834
sw,-69.7624130249023,-60.0000038146972,-13.54723892648134,37.60957274495991,446968501
sw,-69.3048629760742,-60.1393737792968,-23.140142258451263,38.30273354523104,446985168
sw,-68.9966278076171,-61.4245414733886,-36.21180282088019,47.296838910331495,447001835
sw,-68.4684143066406,-63.5143890380859,-52.82815298314799,61.83232447513853,447018502
sw,-67.3468933105468,-65.2675628662109,-72.43152805985231,78.23437047626588,447035169
sw,-65.7873611450195,-66.6276473999023,-93.83426698290394,92.84752623026547,447051836
sw,-63.7949981689453,-68.2318801879882,-115.37939605311246,102.80517153471963,447068503
sw,-61.5554809570312,-70.2194213867187,-135.2312274670046,106.49677066865372,447085170
sw,-59.3064384460449,-72.3320159912109,-151.7179701622982,103.7122411420401,447101837
sw,-56.6010513305664,-74.3223800659179,-163.63999301905181,95.49604454081575,447118504
sw,-52.6829376220703,-75.6237106323242,-170.4660529206758,83.76280121310633,447135171
sw,-49.4306030273437,-76.3492202758789,-172.3542756831477,70.75888605487255,447151838
sw,-47.8282089233398,-76.8829116821289,-169.97214388822968,58.50373965000209,447168505
sw,-45.5409851074218,-77.673469543457,-164.16762852845957,48.36793347470303,447185172
sw,-42.5226364135742,-78.5602569580078,-155.62285675815806,40.902615871135296,447201839
sw,-39.7988777160644,-79.4486694335937,-144.6276145658367,35.93576882406013,447218506
sw,-37.6806182861328,-80.2607192993164,-131.03195378744348,32.84968745962871,447235173
sw,-35.829246520996,-80.9206771850586,-114.3517015093054,30.905298160737033,447251840
sw,-34.316909790039,-81.4656066894531,-93.97147617668179,29.495450971515176,447268507
sw,-33.1273498535156,-81.9205627441406,-69.40161346209284,28.265868689959984,447285174
sw,-32.3597259521484,-82.3258819580078,-40.552904165793144,27.10405391186103,447301841
sw,-32.2756652832031,-82.6616897583007,-7.98326021852834,26.039916686688578,447318508
sw,-32.7392272949218,-82.9720611572265,26.940913011967908,25.11934140748075,447335175
sw,-33.5022048950195,-83.3058166503906,62.025925433804865,24.30581522685119,447351842
sw,-34.7433624267578,-83.6341934204101,94.41953144178456,23.44331077206585,447368509
sw,-36.853832244873,-83.9972381591796,120.98515577643762,22.285764618902775,447385176
sw,-39.5349197387695,-84.4019241333007,138.85061079565264,20.574158798522895,447401843
sw,-41.9666366577148,-84.8150329589843,146.0343183892052,18.127789649863324,447418510
sw,-44.4086456298828,-85.1681976318359,141.9971101835112,14.914219373778788,447435177
sw,-47.5196342468261,-85.4137954711914,127.95224918538437,11.071687016548703,447451844
sw,-50.2339515686035,-85.5416564941406,106.79744315427644,6.874353787969012,447468511
sw,-51.1283264160156,-85.6329193115234,82.6123450197021,2.6481439016157107,447485178
sw,-51.058292388916,-85.698257446289,59.79968291601301,-1.3429207446145586,447501845
sw,-50.9398880004882,-85.6318359375,42.10464681421848,-5.014639151343102,447518512
sw,-51.2308692932128,-85.3832321166992,31.830361922691484,-8.557341563088048,447535179
sw,-52.2380676269531,-84.8486251831054,29.497140288346426,-12.477013873859606,447551846
sw,-53.4484634399414,-84.1954193115234,33.99931038057369,-17.55169547341085,447568513
sw,-54.2153091430664,-83.6955337524414,43.11882672477896,-24.684222704741973,447585180
sw,-55.0977325439453,-83.3380279541015,54.16806097294222,-34.666859937404745,447601847
sw,-56.3484420776367,-83.0338973999023,64.56921706847218,-47.922593652920895,447618514
sw,-57.4942741394043,-82.5177993774414,72.2697283277794,-64.32288544253637,447635181
sw,-58.6481094360351,-81.4395675659179,75.97270878931522,-83.16989674101518,447651848
sw,-60.0515365600585,-79.6958847045898,75.2045478447134,-103.36505980923441,447668515
sw,-61.2529869079589,-77.2497406005859,70.25616212006099,-123.69527857474954,447685182
sw,-62.2289123535156,-74.583251953125,62.03370432627123,-143.104434880884,447701849
sw,-63.1330528259277,-71.8598403930664,51.85002175534989,-160.82232671082548,447718516
sw,-63.8452415466308,-69.0105819702148,41.186555769277426,-176.29925234795223,447735183
sw,-64.4029541015625,-66.0461959838867,31.455321322840547,-189.00263987280434,447751850
sw,-64.8222885131836,-63.2822036743164,23.788796485473625,-198.21203080070512,447768517
sw,-65.0448989868164,-60.0630569458007,18.882858814684884,-202.9547248933997,447785184
sw,-65.2288436889648,-56.2935829162597,16.915179445154326,-202.149337559297,447801851
sw,-65.5440521240234,-52.5554885864257,17.554772550452377,-194.90488144080263,447818518
sw,-66.0368957519531,-49.4776000976562,20.062654838235,-180.82759855541192,447835185
sw,-66.524673461914,-47.05073928833,23.460875383480648,-160.17985198730605,447851852
sw,-67.0219116210937,-45.0819931030273,26.729052726867028,-133.82126739331474,447868519
sw,-67.5455627441406,-43.804515838623,28.985407166475024,-102.98217257109644,447885186
sw,-68.0728454589843,-43.0618019104003,29.622533318249598,-68.99895542457128,447901853
sw,-68.5762329101562,-42.7763977050781,28.38556801352471,-33.14563579982124,447918520
sw,-69.0226364135742,-42.8445396423339,25.392073500384914,3.363814324774778,447935187
sw,-69.42431640625,-43.2965202331543,21.09720720298715,39.22001461732115,447951854
sw,-69.7886352539062,-44.2342376708984,16.20807040844588,72.81406667274219,447968521
sw,-70.0930862426757,-45.4474411010742,11.551649150976397,102.13557571589868,447985188
sw,-70.2559967041015,-47.2252311706543,7.905230889358534,124.90618875266287,448001855
sw,-70.2997894287109,-50.1715812683105,5.809021581745874,138.99736043995122,448018522
sw,-70.3005142211914,-53.3042488098144,5.395747466290385,143.05005434022124,448035189
sw,-70.2985229492187,-56.4143829345703,6.283012045500066,137.08711538704125,448051856
sw,-70.3570709228515,-59.4400787353515,7.571094397317676,122.85271358924797,448068523
sw,-70.5250930786132,-61.4733695983886,7.9674920298405825,103.67104709106432,448085190
