Label,Left_Hip_q,Right_Hip_q,Left_Hip_qd,Right_Hip_qd,SampleTimeFine
sw,-86.2073898315429,-67.4113311767578,40.8946304321289,-55.5755462646484,129878826
sw,-86.3050994873046,-66.1691665649414,45.63862295934821,-64.93955584495446,129895493
sw,-86.3376693725586,-65.1621322631836,40.29242235435783,-41.76626661379742,129912160
sw,-86.2671356201171,-64.8765029907226,34.931077728619925,-17.365954408967006,129928827
sw,-86.1144561767578,-64.9598388671875,29.64553550147113,8.369614708830133,129945494
sw,-85.984878540039,-65.5111846923828,24.53449209321536,34.40585082843955,129962161
sw,-85.8852462768554,-66.6372756958007,19.70556621907351,58.56612476829423,129978828
sw,-85.7891769409179,-68.0819244384765,15.281618407336502,77.94943419194418,129995495
sw,-85.6549072265625,-69.9307861328125,11.421208439380846,89.6729768965409,130012162
sw,-85.4623184204101,-72.1889877319336,8.34305973321342,91.7467448192339,130028829
sw,-85.2601318359375,-74.2398834228515,6.322333745428132,83.83196279837199,130045496
sw,-85.1096038818359,-75.96337890625,5.621584151375464,67.64122367418014,130062163
sw,-85.0473403930664,-77.454719543457,6.342431801888846,46.81122677926326,130078830
sw,-85.1582336425781,-77.8626174926757,8.229614124181108,26.21105274886161,130095497
sw,-85.4107208251953,-77.4652633666992,10.505508783160645,10.817063700432985,130112164
sw,-85.6552658081054,-76.7286224365234,11.831981298554783,4.448357120299438,130128831
sw,-85.6262817382812,-76.0936737060546,10.468617046136265,8.749584108924848,130145498
sw,-85.4120941162109,-76.2681503295898,4.627627575494111,22.766894168076373,130162165
sw,-85.2198791503906,-77.6043014526367,-7.054357435175014,43.27616734665784,130178832
sw,-85.1516799926757,-80.0836486816406,-25.06247175300358,65.75588600972124,130195499
sw,-85.2853240966796,-82.5471801757812,-48.7109587262095,85.66364789933756,130212166
sw,-85.6708831787109,-83.6324691772461,-76.11704959265171,99.58336910376902,130228833
sw,-85.8566970825195,-84.4864425659179,-104.4771324535324,105.9033015066204,130245500
sw,-85.0404586791992,-85.3978958129882,-130.59738573095433,104.90352099542048,130262167
sw,-82.9972839355468,-86.1745452880859,-151.55341498299808,98.34671894772767,130278834
sw,-80.2089767456054,-86.3160247802734,-165.30456342135108,88.78086584485963,130295501
sw,-76.1911392211914,-85.9307098388671,-171.08779225267787,78.77440313540292,130312168
sw,-73.3472671508789,-85.599494934082,-169.47145373843395,70.26868599983324,130328835
sw,-72.1454849243164,-85.2378692626953,-162.05509031924908,64.18682118707098,130345502
sw,-70.4646759033203,-84.5204544067382,-150.92885616752977,60.380337849738595,130362169
sw,-68.2895812988281,-83.2549438476562,-138.09428474468484,57.90892765376058,130378836
sw,-66.3128814697265,-81.8236312866211,-125.03756927497008,55.541565920667104,130395503
sw,-64.4506225585937,-80.5812225341796,-112.5453764620232,52.284735396265354,130412170
sw,-62.7912940979003,-79.8201522827148,-100.739001961033,47.73896229992748,130428837
sw,-61.4023551940918,-79.3583908081054,-89.24315564240177,42.17199772282445,130445504
sw,-60.1966171264648,-78.9913330078125,-77.40622010033752,36.32966262446996,130462171
sw,-59.155403137207,-78.7123870849609,-64.51752465125678,31.110426564219306,130478838
sw,-58.4171180725097,-78.3191604614257,-49.99640133948807,27.2589609996422,130495505
sw,-58.0381889343261,-77.7248001098632,-33.54673392724034,25.188503739114978,130512172
sw,-57.9770164489746,-76.9987716674804,-15.278697069675916,24.959164377075595,130528839
sw,-58.1576881408691,-76.288101196289,4.203676023801891,26.364773663143666,130545506
sw,-58.3222007751464,-75.6723937988281,23.76643375868547,29.047121333163027,130562173
sw,-58.6431159973144,-75.1449584960937,41.80221786535188,32.571569677550315,130578840
sw,-59.3948135375976,-74.6607055664062,56.43122887982769,36.44459140181357,130595507
sw,-60.7412605285644,-74.1236572265625,65.86972246785139,40.10074058335655,130612174
sw,-62.2793922424316,-73.445816040039,68.91497445190413,42.90815521149621,130628841
sw,-63.7524757385253,-72.645881652832,65.40931438075307,44.23008057809162,130645508
sw,-65.2520523071289,-71.8632354736328,56.50180030434906,43.54572378569512,130662175
sw,-66.1133804321289,-71.1172332763671,44.56063033203832,40.59684762668469,130678842
sw,-66.591682434082,-70.3209762573242,32.69769947808261,35.5033689302177,130695509
sw,-66.5044326782226,-69.5266647338867,24.009691372161893,28.788122545622464,130712176
sw,-66.1088333129882,-68.9288482666015,20.762070121194455,21.268086213680217,130728843
sw,-65.9814910888671,-68.7236099243164,23.78964827533128,13.807557942783149,130745510
sw,-66.4312667846679,-68.8775939941406,32.32905903421419,6.985425613789831,130762177
sw,-67.8140106201171,-69.2250366210937,44.34454940853614,0.786355995918301,130778844
sw,-69.8221893310546,-69.6334915161132,57.216819732842836,-5.547395379594065,130795511
sw,-71.397720336914,-69.973876953125,68.52415636481173,-13.39785965714375,130812178
sw,-72.3034973144531,-70.1606369018554,76.63093367319557,-24.3708847627315,130828845
sw,-73.2293090820312,-70.2490463256836,80.91762399877187,-39.715135348850175,130845512
sw,-74.3077850341796,-70.52197265625,81.66258644266713,-59.759023931150786,130862179
sw,-75.4343719482421,-71.4027328491211,79.71494091581599,-83.59095143821162,130878846
sw,-76.7473831176757,-73.2423019409179,76.12648904957398,-109.13924763645976,130895513
sw,-78.1712188720703,-76.070930480957,71.85925248754718,-133.6582369073103,130912180
sw,-79.4147796630859,-79.4659881591796,67.60871772733486,-154.4561518768808,130928847
sw,-80.3536148071289,-82.699836730957,63.72861182839147,-169.59223497591896,130945514
sw,-81.1325531005859,-85.0962753295898,60.23110283642274,-178.28502469194373,130962181
sw,-81.71435546875,-85.932258605957,56.8535605127145,-180.90862256002688,130978848
sw,-82.2841873168945,-85.2009811401367,53.19504127499529,-178.63811088211358,130995515
sw,-82.9903411865234,-84.0512313842773,48.907800378663275,-172.9427725137736,131012182
sw,-83.556884765625,-82.1679229736328,43.88970225019418,-165.15133545448737,131028849
sw,-83.9541854858398,-79.7361450195312,38.397416386084274,-156.2269518226985,131045516
sw,-84.3533325195312,-77.2167892456054,33.01930629673056,-146.7511721332194,131062183
sw,-84.8112564086914,-74.8357849121093,28.50845088259803,-137.00994838063244,131078850
sw,-85.2333450317382,-72.6909713745117,25.54124750680338,-127.05692177457637,131095517
sw,-85.405647277832,-70.9264068603515,24.493788066478654,-116.69485507229055,131112184
sw,-85.3629150390625,-69.4922256469726,25.30889405947635,-105.41111234357956,131128851
sw,-85.2909774780273,-68.104751586914,27.486117595407674,-92.36596085670757,131145518
sw,-85.298225402832,-66.8311004638671,30.190065136673958,-76.52749752818046,131162185
sw,-85.3597030639648,-65.7463684082031,32.44489155018759,-56.978096493280496,131178852
sw,-85.355484008789,-65.1977996826171,33.362704135497516,-33.323739159464154,131195519
sw,-85.2545928955078,-65.2088928222656,32.34552656086812,-6.070651624420304,131212186
sw,-85.0876998901367,-65.5674743652343,29.21119968658777,23.175894068779414,131228853
sw,-84.9152374267578,-66.3824844360351,24.220517049559714,51.792330528630764,131245520
sw,-84.7459640502929,-67.7193527221679,18.01320157423763,76.52634297643175,131262187
sw,-84.6202087402343,-69.5479965209961,11.480136763248696,94.14267643857707,131278854
sw,-84.593032836914,-71.9659652709961,5.602682983291129,102.19373590930694,131295521
sw,-84.6580429077148,-74.1471939086914,1.2820277788294996,99.72468775927884,131312188
sw,-84.7614288330078,-76.2045516967773,-0.8269211895394631,87.70791088881676,131328855
sw,-84.8310089111328,-77.9806365966796,-0.464677157065999,69.04515616202725,131345522
sw,-84.8100509643554,-79.0613937377929,2.1167634682444376,48.071922099146235,131362189
sw,-84.8549423217773,-79.1311798095703,6.093366986737418,29.630544269865634,131378856
sw,-85.044692993164,-78.5850601196289,10.093586546242056,17.923781256451566,131395523
sw,-85.2382736206054,-77.9535675048828,12.340734709544028,15.474032571655606,131412190
sw,-85.1228790283203,-77.9146499633789,10.932825423867852,22.525885589761113,131428857
sw,-84.7994155883789,-79.2112808227539,4.238554119948974,37.098944071030935,131445524
sw,-84.4826049804687,-81.3911361694336,-8.672249716860208,55.66211056130483,131462191
sw,-84.3892669677734,-82.9971389770507,-27.691791707752326,74.171532565594,131478858
sw,-84.6432113647461,-83.7511978149414,-51.55643832569383,89.10980645565836,131495525
sw,-85.0199584960937,-84.572525024414,-78.01302303328536,98.22636689926203,131512192
sw,-85.0235061645507,-85.2852783203125,-104.24203548263166,100.8438279262436,131528859
sw,-84.1316452026367,-85.5455245971679,-127.42588138651695,97.74960760951758,131545526
sw,-82.1600799560546,-85.1883850097656,-145.3072422937382,90.77437078712123,131562193
sw,-79.5006027221679,-84.5893402099609,-156.59271340840647,82.18689200969753,131578860
sw,-75.9209518432617,-84.134521484375,-161.1089936561546,74.05073649570711,131595527
sw,-73.590347290039,-83.7273941040039,-159.68956957727914,67.70082716732097,131612194
sw,-72.152359008789,-83.1408767700195,-153.8405714784856,63.482651927106716,131628861
sw,-70.3247909545898,-82.0812149047851,-145.29338419622653,60.82854028188131,131645528
sw,-68.2539672851562,-80.7568664550781,-135.5787675443226,58.63127225688595,131662195
sw,-66.3123779296875,-79.3359069824218,-125.73204074023221,55.76160120286083,131678862
sw,-64.5548248291015,-78.2372436523437,-116.17310435676902,51.52294789007746,131695529
sw,-62.9500160217285,-77.7023391723632,-106.74260464243335,45.876397260256276,131712196
sw,-61.4689636230468,-77.3419570922851,-96.84732641340848,39.383032314582806,131728863
sw,-60.1805038452148,-77.0785751342773,-85.66840872583191,32.936786090660334,131745530
sw,-59.0490570068359,-76.7550354003906,-72.39527066118926,27.43404205137459,131762197
sw,-58.2018165588378,-76.3282241821289,-56.45534954296892,23.518506773154474,131778864
sw,-57.6930770874023,-75.7620162963867,-37.71360642453701,21.472448768171812,131795531
sw,-57.5325698852539,-75.1121978759765,-16.616901016856584,21.24451954652794,131812198
sw,-57.5901489257812,-74.5794143676757,5.743835688898271,22.550646501706233,131828865
sw,-57.7920341491699,-74.1669464111328,27.685908180039355,24.97619300666755,131845532
sw,-58.2401695251464,-73.7669067382812,47.13490910941935,28.037883168610144,131862199
sw,-59.3335952758789,-73.3090744018554,61.98593412743649,31.207673537837962,131878866
sw,-61.1907653808593,-72.8081512451171,70.58505276439658,33.93008542057187,131895533
sw,-62.7615165710449,-72.2211761474609,72.21420365000738,35.66590247510394,131912200
sw,-64.3796463012695,-71.5201797485351,67.41127203106869,35.9733665889693,131928867
sw,-65.2815551757812,-70.7775192260742,57.97772705609548,34.60775006069906,131945534
sw,-66.0244369506836,-70.1006164550781,46.623684107890725,31.596728020121528,131962201
sw,-66.4597702026367,-69.4514846801757,36.330474627343065,27.24355221814293,131978868
sw,-66.3545684814453,-68.9143447875976,29.61610803261025,22.02690948381052,131995535
sw,-66.2386398315429,-68.6257705688476,27.93189523602443,16.4018943180703,132012202
sw,-66.4487686157226,-68.6515579223632,31.385356185852967,10.551205982184229,132028869
sw,-67.5440139770507,-68.8892745971679,38.87724446004243,4.175063823736872,132045536
sw,-69.4355239868164,-69.212776184082,48.58477907073526,-3.5769524428126322,132062203
sw,-71.0156631469726,-69.5638122558593,58.582828118511124,-13.956589639176384,132078870
sw,-71.7278366088867,-69.8525238037109,67.35068129041152,-28.24711150326727,132095537
sw,-72.4482879638671,-70.0603332519531,73.99880210715538,-47.26617813527631,132112204
sw,-73.4925460815429,-70.5112609863281,78.21178049136842,-70.9142772581796,132128871
sw,-74.5817565917968,-71.7511672973632,80.03354650696564,-97.9603978617818,132145538
sw,-75.9390792846679,-74.026123046875,79.65114592239978,-126.18807673160183,132162205
sw,-77.4803085327148,-77.2289657592773,77.27664628576795,-152.88378243850576,132178872
sw,-78.921401977539,-80.8044204711914,73.13927170222384,-175.49843639691076,132195539
sw,-80.0259094238281,-84.05712890625,67.5344535419343,-192.23306112872467,132212206
sw,-80.7680358886718,-86.0292129516601,60.86246742217585,-202.33864668418678,132228873
sw,-81.1873550415039,-85.490852355957,53.622365131799,-206.057203389084,132245540
sw,-81.5234909057617,-83.7762908935546,46.371094699557375,-204.2891216156005,132262207
sw,-81.8843917846679,-81.8220672607421,39.67493324004331,-198.1697903100046,132278874
sw,-82.124282836914,-79.1654052734375,34.06459228164666,-188.73587259648514,132295541
sw,-82.4667282104492,-76.272720336914,29.984344874820486,-176.77470199534432,132312208
sw,-82.9956588745117,-73.4720077514648,27.7276703493528,-162.83559714589776,132328875
sw,-83.7062454223632,-70.8434753417968,27.374366731077735,-147.30426998730564,132345542
sw,-84.3241195678711,-68.5905227661132,28.7580616820604,-130.43775233456049,132362209
sw,-84.584487915039,-66.9007034301757,31.480364571132625,-112.31871898155865,132378876
sw,-84.5692367553711,-65.7039184570312,34.963133828756575,-92.77304459206685,132395543
sw,-84.5075302124023,-64.753189086914,38.52034913145822,-71.35348126394204,132412210
sw,-84.5186691284179,-63.8743782043457,41.44038545107078,-47.48862125633672,132428877
sw,-84.5584564208984,-63.2852401733398,43.07793751532802,-20.822203221579407,132445544
sw,-84.4909973144531,-63.220287322998,42.94746547627909,8.345088532078991,132462211
sw,-84.2904434204101,-63.3891220092773,40.7966986439362,38.69229415475405,132478878
sw,-84.018440246582,-64.3812637329101,36.639770017209955,67.79413255141644,132495545
sw,-83.7041854858398,-66.2623214721679,30.748613481714468,92.44292651967797,132512212
sw,-83.4348220825195,-68.7721633911132,23.619505237134728,109.35673723229598,132528879
sw,-83.260498046875,-71.5189361572265,15.928883881944689,116.09347533032624,132545546
sw,-83.1725769042968,-74.2964324951171,8.469540598730383,111.88560713379755,132562213
sw,-83.1134796142578,-77.0026626586914,2.036348863155705,98.10303387517655,132578880
sw,-83.1261978149414,-77.978889465332,-2.7659757435377696,78.14488075448251,132595547
sw,-83.3415069580078,-78.4731292724609,-5.782126185644558,56.731477217860046,132612214
sw,-83.7605819702148,-78.0226974487304,-7.559669122004528,38.77332067837152,132628881
sw,-84.287971496582,-77.5816574096679,-9.471115724116085,28.160972505306425,132645548
sw,-84.8235473632812,-77.5300979614257,-13.575900859631382,26.863237938662213,132662215
sw,-85.2088317871093,-78.6889266967773,-22.164876253393036,34.60182028701059,132678882
sw,-85.3800506591796,-80.5951461791992,-37.061175852520456,49.140423547277685,132695549
sw,-85.3953857421875,-82.0341033935546,-58.88661697309036,67.00624882480649,132712216
sw,-85.3033981323242,-82.7295150756836,-86.56996121540926,84.36376295600563,132728883
sw,-84.8685150146484,-83.3871994018554,-117.32445258655736,97.80705372922458,132745550
sw,-83.3625717163086,-83.9201049804687,-147.1652965228824,104.95256630508054,132762217
sw,-80.8065338134765,-84.4363784790039,-171.83811034511388,104.79981570058067,132778884
sw,-77.4748306274414,-84.126106262207,-187.87339036957758,97.84434810270962,132795551
sw,-72.5063018798828,-83.0742874145507,-193.43013694405317,85.90969107169153,132812218
sw,-69.5137176513671,-82.4225692749023,-188.65789146320537,71.67946202839792,132828885
sw,-68.0851898193359,-82.5061950683593,-175.47210523194144,57.99667966041407,132845552
sw,-66.3433532714843,-82.4622497558593,-156.85430493870433,47.121213037226326,132862219
sw,-64.407600402832,-81.9820327758789,-135.96150154786312,40.2009037438708,132878886
sw,-62.5477294921875,-81.4626846313476,-115.36124149120224,37.14231341514416,132895553
sw,-60.8839721679687,-80.7756118774414,-96.59311133709042,36.8927571872965,132912220
sw,-59.4759216308593,-80.0449752807617,-80.09051109049302,37.97640047661728,132928887
sw,-58.4639320373535,-79.4453430175781,-65.37913697395601,39.055059357815665,132945554
sw,-57.6871833801269,-78.7485580444336,-51.43111068088641,39.32162264394179,132962221
sw,-57.0950241088867,-78.104995727539,-37.06907778434758,38.634056392202396,132978888
sw,-56.7426567077636,-77.6129150390625,-21.344570836748087,37.40305851158344,132995555
sw,-56.6649932861328,-77.25341796875,-3.837073644448421,36.31934651226512,133012222
sw,-56.9020309448242,-76.7542037963867,15.167502384077833,36.03551911206413,133028889
sw,-57.4622650146484,-76.0254516601562,34.64958658365604,36.905760465959666,133045556
sw,-58.144416809082,-75.3234939575195,52.995350776402034,38.84641062765043,133062223
sw,-59.0626068115234,-74.7158737182617,68.29625435944241,41.332633239547995,133078890
sw,-60.5730628967285,-73.9954833984375,78.77099438089726,43.51204479726097,133095557
sw,-62.5169944763183,-73.1593704223632,83.22954459646328,44.400324917846255,133112224
sw,-63.9840507507324,-72.3563079833984,81.45709447838854,43.11627991834494,133128891
sw,-65.6562347412109,-71.6407775878906,74.38475462174883,39.10692545296781,133145558
sw,-66.6682586669921,-70.9806594848632,63.95862796414322,32.31060256699978,133162225
sw,-67.5319137573242,-70.4591369628906,52.71151765683873,23.2138487922925,133178892
sw,-67.8063507080078,-70.1026992797851,43.146561405087056,12.775867192323751,133195559
sw,-67.7430343627929,-69.9797592163086,37.11966303088071,2.2205972516962293,133212226
sw,-67.8454895019531,-70.1683273315429,35.42596172945602,-7.2710157405955815,133228893
sw,-68.5635833740234,-70.6144409179687,37.735212320836126,-14.901327990117927,133245560
sw,-70.1335525512695,-71.141242980957,42.88859670877563,-20.536074001220396,133262227
sw,-71.8259048461914,-71.6965408325195,49.415293096009336,-24.829631328130734,133278894
sw,-72.8008651733398,-72.2397537231445,56.034298235520616,-29.13192226994095,133295561
sw,-73.4291687011718,-72.7807998657226,61.93780364936214,-35.172609951058604,133312228
sw,-74.3030853271484,-73.2901535034179,66.78931982188405,-44.58882617761137,133328895
sw,-75.1905288696289,-73.7902755737304,70.52079729357739,-58.42327821010174,133345562
sw,-76.0905380249023,-74.5536193847656,73.08908075710593,-76.74897292524274,133362229
sw,-77.2711486816406,-75.9934387207031,74.33200744312657,-98.5557885488763,133378896
sw,-78.7250747680664,-78.33544921875,73.9847768735968,-121.95475135441382,133395563
sw,-80.2127838134765,-81.2420272827148,71.82633214074392,-144.63786817646758,133412230
sw,-81.4848022460937,-84.3050842285156,67.86243244665224,-164.4266008289514,133428897
sw,-82.4515838623046,-86.406265258789,62.44114699943523,-179.70910228369434,133445564
sw,-83.1334762573242,-85.7616882324218,56.23634489466724,-189.62840599682465,133462231
sw,-83.499526977539,-83.4573211669921,50.098287717030175,-194.00785837617278,133478898
sw,-83.7086105346679,-81.3589630126953,44.82553233814944,-193.11738926312313,133495565
sw,-83.9884948730468,-79.1604995727539,40.94087554914078,-187.4336332898436,133512232
sw,-84.534423828125,-76.4034652709961,38.55180449822602,-177.50861070146112,133528899
sw,-85.2623672485351,-73.6168212890625,37.34512373459156,-163.96496361221207,133545566
sw,-85.9403991699218,-71.2191848754882,36.715120066866376,-147.54288175189097,133562233
sw,-86.3175659179687,-69.0465011596679,35.973821575963484,-129.09314422537315,133578900
sw,-86.2944107055664,-67.3174819946289,34.56348213700546,-109.45656207400795,133595567
sw,-86.0841369628906,-66.0459899902343,32.19811886299127,-89.25633140504809,133612234
sw,-85.91064453125,-65.2420196533203,28.89703476422538,-68.70311382677835,133628901
sw,-85.8336868286132,-64.5976181030273,24.919210137084765,-47.536358024374735,133645568
sw,-85.8160095214843,-63.9741554260253,20.642043565317703,-25.18701749542093,133662235
sw,-85.7923889160156,-63.6969299316406,16.438864518737244,-1.15673862491309,133678902
sw,-85.7409896850586,-63.9090690612793,12.597313721223012,24.49883417313696,133695569
sw,-85.6482391357421,-64.361083984375,9.295289249424728,50.77175844863113,133712236
sw,-85.4822616577148,-65.3161697387695,6.625572712912016,75.58571658804664,133728903
sw,-85.3035583496093,-67.1793212890625,4.64314686803251,96.08595334887863,133745570
sw,-85.227180480957,-69.6704025268554,3.4035341036906286,109.3190516027061,133762237
sw,-85.2573623657226,-72.2622833251953,2.966187227088968,113.1265006227933,133778904
sw,-85.2944717407226,-74.8580780029296,3.351232310753088,106.96541702866733,133795571
sw,-85.2574462890625,-77.6293334960937,4.45397413787959,92.35997527473707,133812238
sw,-85.1379623413086,-79.3127059936523,5.934229406065402,72.7799846981886,133828905
sw,-85.0729217529296,-79.7927474975586,7.109814641726529,52.90936350007945,133845572
sw,-85.2464294433593,-79.3588790893554,6.901314089272929,37.47265003419088,133862239
sw,-85.6405944824218,-78.7868118286132,3.8920339483710222,29.974174927572964,133878906
sw,-85.9226913452148,-78.7596206665039,-3.4407752331143775,31.778029179256777,133895573
sw,-85.9473037719726,-79.9736785888671,-16.321924090045005,41.847426476519324,133912240
sw,-85.9172668457031,-82.0324325561523,-35.19324699974317,57.20329196774275,133928907
sw,-85.9925918579101,-83.5212860107421,-59.32298451652417,73.88829301241246,133945574
sw,-86.1449661254882,-84.2986221313476,-86.69856748217074,88.07457446969231,133962241
sw,-85.6442337036132,-84.9749221801757,-114.30824580407916,96.97909227591329,133978908
sw,-83.8440017700195,-85.395637512207,-138.76814801391697,99.38659139790987,133995575
sw,-81.2165603637695,-85.277359008789,-157.10988604988577,95.72511528125081,134012242
sw,-78.0073013305664,-84.6544494628906,-167.4774010456305,87.73833055137253,134028909
sw,-73.7825012207031,-83.9976348876953,-169.51314918709022,77.86353245345481,134045576
sw,-71.8792190551757,-83.6651306152343,-164.3203730329418,68.4810602409854,134062243
sw,-70.5118331909179,-83.4074478149414,-154.0317500447863,61.245950389185786,134078910
sw,-68.6606903076171,-82.7831344604492,-141.1502084633794,56.707540322639005,134095577
sw,-66.6580657958984,-81.7485733032226,-127.895047927069,54.3343754747327,134112244
sw,-64.7858200073242,-80.5792770385742,-115.74546340423501,52.908852051913925,134128911
sw,-62.9338569641113,-79.37744140625,-105.2569884681812,51.11161741423392,134145578
sw,-61.4007453918457,-78.4529571533203,-96.11693144024082,48.05628851647504,134162245
sw,-60.1471366882324,-77.7667007446289,-87.35665482258395,43.58468985381703,134178912
sw,-59.0608177185058,-77.2667617797851,-77.64608333522978,38.25348785582464,134195579
sw,-58.0328063964843,-76.9587249755859,-65.62326744660822,33.068731327883455,134212246
sw,-57.2049980163574,-76.6805953979492,-50.22807138708123,29.102914737548648,134228913
sw,-56.7968101501464,-76.3021469116211,-31.005244391811765,27.14130403180205,134245580
sw,-56.7187118530273,-75.7420272827148,-8.32976591565577,27.462259657901722,134262247
sw,-56.8704147338867,-75.0425720214843,16.499329769513164,29.78839096171947,134278914
sw,-57.2452011108398,-74.3919525146484,41.346691544178505,33.38331145905408,134295581
sw,-57.9634170532226,-73.806037902832,63.54287812396231,37.23580415938715,134312248
sw,-59.6043510437011,-73.1512603759765,80.3926201486064,40.27341342230158,134328915
sw,-61.5761108398437,-72.3948364257812,89.8082157002525,41.56525705056735,134345582
sw,-63.584716796875,-71.6488037109375,90.90513143904509,40.48870318597892,134362249
sw,-65.6825714111328,-70.9562759399414,84.35518624710102,36.83850147032144,134378916
sw,-66.8646087646484,-70.3248596191406,72.33466339144164,30.856810108511272,134395583
sw,-67.4630279541015,-69.843765258789,58.03152186801325,23.16807838534617,134412250
sw,-67.6148223876953,-69.5093383789062,44.84134398720739,14.617455722444873,134428917
sw,-67.3525619506836,-69.3557739257812,35.512663689146464,6.033362217993705,134445584
sw,-67.4450225830078,-69.4346923828125,31.532724539753552,-2.0399319037224495,134462251
sw,-68.3223266601562,-69.7994842529296,32.95038063576527,-9.571106694288135,134478918
sw,-69.9458694458007,-70.3690414428711,38.64922500034421,-17.15177514740518,134495585
sw,-71.4442138671875,-71.0034942626953,46.89742023549968,-25.91868164820661,134512252
sw,-72.1294631958007,-71.6266174316406,55.91043546152371,-37.26275010974895,134528919
sw,-72.6321411132812,-72.1544723510742,64.2176115010722,-52.373030953221495,134545586
sw,-73.4973831176757,-72.6915969848632,70.77616633500051,-71.74450340652838,134562253
sw,-74.4823303222656,-73.6487350463867,74.91747127997021,-94.82851688931501,134578920
sw,-75.6372680664062,-75.4636840820312,76.25947891031232,-119.9853787123227,134595587
sw,-77.0276794433593,-78.3251113891601,74.67639144542332,-144.7978503638362,134612254
sw,-78.4246978759765,-81.7961807250976,70.33482429397736,-166.65550743174103,134628921
sw,-79.5605545043945,-85.1905441284179,63.73965800540104,-183.39635840205233,134645588
sw,-80.3470993041992,-87.0039596557617,55.71658146935555,-193.76593403829187,134662255
sw,-80.8013153076171,-85.4784851074218,47.29623299578641,-197.5446006384298,134678922
sw,-81.0839462280273,-82.9884033203125,39.526669640738625,-195.3501623307488,134695589
sw,-81.3986206054687,-80.9568481445312,33.28100993474804,-188.25834977675498,134712256
sw,-81.7210617065429,-78.6981887817382,29.12092942866398,-177.43235366172811,134728923
sw,-81.9704055786132,-75.9782409667968,27.23913085202566,-163.9010426443458,134745590
sw,-82.3014526367187,-73.3478317260742,27.470998942268913,-148.51252301438532,134762257
sw,-82.8819732666015,-70.9883117675781,29.35839655932632,-131.98357022032738,134778924
sw,-83.6856536865234,-68.9562377929687,32.255347007699854,-114.92722469053206,134795591
sw,-84.3373947143554,-67.4204025268554,35.461775743266145,-97.78607549334124,134812258
sw,-84.5699615478515,-66.413589477539,38.354259794851195,-80.6909116413477,134828925
sw,-84.4883651733398,-65.7557373046875,40.47431212546929,-63.34513016304784,134845592
sw,-84.3580551147461,-65.0649719238281,41.552753354146674,-45.05803529610465,134862259
sw,-84.3190765380859,-64.4284896850586,41.48186762185989,-24.99771215763481,134878926
sw,-84.3163146972656,-64.2304306030273,40.267815463614966,-2.6266366824242207,134895593
sw,-84.2450332641601,-64.3941345214843,37.99078995583829,21.826814562534967,134912260
sw,-84.0971755981445,-64.8955459594726,34.78118856700804,47.06262421151378,134928927
sw,-83.8875274658203,-66.2964477539062,30.806826998483018,70.74004452479909,134945594
sw,-83.6373062133789,-68.1253967285156,26.266654710333857,89.90749606063042,134962261
sw,-83.4136962890625,-70.5352478027343,21.391550283310604,101.74709932177771,134978928
sw,-83.2863311767578,-72.8736877441406,16.45028969836057,104.42251769636438,134995595
sw,-83.2308807373046,-75.2784423828125,11.747425695201258,97.76227385536211,135012262
sw,-83.1085510253906,-77.3303527832031,7.589716086380248,83.54174173045314,135028929
sw,-82.9546890258789,-78.5829391479492,4.199901862403358,65.23042119553038,135045596
sw,-82.9401702880859,-78.9662017822265,1.5757758761551346,47.22272209184198,135062263
sw,-83.2071990966796,-78.7053756713867,-0.6730999717088179,33.742130900420364,135078930
sw,-83.773452758789,-78.2542114257812,-3.439045346361633,27.748019554173737,135095597
sw,-84.4077758789062,-78.1902923583984,-8.086217058916118,30.20739989279807,135112264
sw,-84.78955078125,-79.3730697631836,-16.206655856905975,39.975659334636184,135128931
sw,-84.8927001953125,-81.7001495361328,-29.172275794070423,54.29711366791132,135145598
sw,-84.8878402709961,-83.5004119873046,-47.60056330148291,69.69992470881647,135162265
sw,-84.8892974853515,-84.0007705688476,-70.92937883748178,82.94305338585076,135178932
sw,-84.6532440185546,-84.4527053833007,-97.29268883977886,91.726195731388,135195599
sw,-83.8995361328125,-84.9074554443359,-123.7949578980511,95.03473903965325,135212266
sw,-82.2213058471679,-85.1932373046875,-147.13528056284815,93.1388771494542,135228933
sw,-79.5834655761718,-85.0491638183593,-164.3964896978879,87.32883152447386,135245600
sw,-76.0069961547851,-84.5557632446289,-173.74577023032757,79.47195563916785,135262267
sw,-72.5204315185546,-84.1556167602539,-174.81812805524737,71.48199093197579,135278934
sw,-70.9561157226562,-83.8927307128906,-168.66563067337893,64.81716310274959,135295601
sw,-69.3366546630859,-83.3489913940429,-157.31650736094855,60.14380514602385,135312268
sw,-67.4036331176757,-82.390884399414,-143.13054108213453,57.27320052303797,135328935
sw,-65.4597930908203,-81.2982101440429,-128.18656654420633,55.38870158738734,135345602
sw,-63.6508064270019,-80.1441192626953,-113.87481350089166,53.46541221995549,135362269
sw,-62.0411567687988,-79.0730361938476,-100.74909447016722,50.70940172104713,135378936
sw,-60.5842018127441,-78.413703918457,-88.59889153498776,46.849031430243556,135395603
sw,-59.4512100219726,-77.9115982055664,-76.66255289921168,42.18987032957846,135412270
sw,-58.5607452392578,-77.4458541870117,-63.90793953970521,37.45065955850713,135428937
sw,-57.8624954223632,-77.0200119018554,-49.32986097377924,33.47738399524208,135445604
sw,-57.3898048400878,-76.5540618896484,-32.233014132354505,30.955522986885182,135462271
sw,-57.2959022521972,-76.0389328002929,-12.47415528364918,30.21211477713352,135478938
sw,-57.4619636535644,-75.3859786987304,9.370055552270639,31.14662826373817,135495605
sw,-57.8141632080078,-74.6911544799804,31.953180626635145,33.28011415975939,135512272
sw,-58.3620834350585,-74.0571823120117,53.27368117836846,35.88207047942162,135528939
sw,-59.2448081970214,-73.465705871582,70.98539830317404,38.128493894405686,135545606
sw,-61.0559844970703,-72.7992401123046,82.8888126764555,39.2560887348691,135562273
sw,-62.9561920166015,-72.0699310302734,87.51084243498323,38.692439851100765,135578940
sw,-65.0039520263671,-71.3979415893554,84.60390762040798,36.148909667005256,135595607
sw,-66.4974822998046,-70.8158721923828,75.37191032888092,31.66254757897496,135612274
sw,-67.4539642333984,-70.3174819946289,62.29706588840761,25.5738912883108,135628941
sw,-68.0344619750976,-69.9244537353515,48.57973602279872,18.43487957156539,135645608
sw,-68.1984100341796,-69.6176223754882,37.35159767358526,10.85418032788347,135662275
sw,-67.9052734375,-69.5506286621093,30.914104854671304,3.303310538886218,135678942
sw,-68.0382919311523,-69.70849609375,30.25092332425344,-4.075259410160716,135695609
sw,-69.0218353271484,-70.0944519042968,34.96184436067946,-11.600632587246736,135712276
sw,-70.8425369262695,-70.6078109741211,43.598495003319,-20.064250890576893,135728943
sw,-72.3480529785156,-71.2045211791992,54.22034679950956,-30.57493687624791,135745610
sw,-72.908950805664,-71.8709869384765,64.92337690945223,-44.241185617789355,135762277
sw,-73.5771789550781,-72.5061874389648,74.16601805974368,-61.759485248124875,135778944
sw,-74.6679382324218,-73.2602386474609,80.87068117359226,-83.03802560563959,135795611
sw,-75.8907623291015,-74.5522994995117,84.398689161186,-107.0084444108243,135812278
sw,-77.3182373046875,-76.7898025512695,84.5118368426817,-131.73683650791654,135828945
sw,-79.0013809204101,-79.9702987670898,81.36785126128402,-154.83693496900696,135845612
sw,-80.4371337890625,-83.509765625,75.51993055593869,-174.05367971529282,135862279
sw,-81.3227996826171,-86.5001678466796,67.85824283168073,-187.7969145422146,135878946
sw,-81.8386306762695,-86.6086349487304,59.46023308567989,-195.42168385880953,135895613
sw,-82.1515731811523,-84.3732223510742,51.3802463525219,-197.17198468496196,135912280
sw,-82.4030227661132,-82.3322067260742,44.454440945088564,-193.86271312019042,135928947
sw,-82.7143325805664,-80.2352142333984,39.18817204288971,-186.48213883402244,135945614
sw,-82.9907302856445,-77.5208663940429,35.74284890074614,-175.89916128597034,135962281
sw,-83.372444152832,-74.6755294799804,33.99278348479425,-162.7639429777882,135978948
sw,-83.8781127929687,-72.0414657592773,33.611229002330106,-147.56296990122226,135995615
sw,-84.4520034790039,-69.6514434814453,34.16111978533389,-130.71061153163487,136012282
sw,-84.8103485107421,-67.7289657592773,35.18067914839986,-112.56943719266245,136028949
sw,-84.7570877075195,-66.3189086914062,36.25251748050568,-93.37029607800889,136045616
sw,-84.4543685913086,-65.4219970703125,37.040325882491764,-73.0945455156594,136062283
sw,-84.1668930053711,-64.6979904174804,37.28784268754426,-51.432067072973425,136078950
sw,-83.9846496582031,-64.1605377197265,36.797194980038235,-27.911877322487932,136095617
sw,-83.8644180297851,-63.91206741333,35.41693530654401,-2.222054249133018,136112284
sw,-83.6998901367187,-64.0026702880859,33.06015342340861,25.37119682314928,136128951
sw,-83.4171524047851,-64.4412002563476,29.747537274665792,53.6776839773282,136145618
sw,-83.057258605957,-65.535530090332,25.64856215638641,80.49835851558225,136162285
sw,-82.6803512573242,-67.3819198608398,21.088941611699074,102.92160255240188,136178952
sw,-82.3613357543945,-70.0043411254882,16.503373001545093,117.98585849457241,136195619
sw,-82.1900329589843,-72.7643356323242,12.331113188415452,123.53983102794245,136212286
sw,-82.1856079101562,-75.609146118164,8.87022151117254,119.02415382630713,136228953
sw,-82.2512435913086,-78.4863510131836,6.120714983220471,105.88612736578924,136245620
sw,-82.2969665527343,-79.8340301513671,3.656841879292772,87.43082817359954,136262287
sw,-82.481201171875,-80.328628540039,0.5740713451291956,68.08628969568474,136278954
sw,-82.7704544067382,-80.0921020507812,-4.444586896927752,52.27396998883028,136295621
sw,-83.1697921752929,-79.8305587768554,-12.910772097436427,43.24929969946912,136312288
sw,-83.5518035888671,-80.3692855834961,-26.161720090586904,42.31232521906875,136328955
sw,-83.7369689941406,-82.1218948364257,-44.89775909377864,48.64164431215071,136345622
sw,-83.9109954833984,-83.3789520263671,-68.75436415378053,59.74701404246221,136362289
sw,-84.0792388916015,-83.9897308349609,-96.08151635449418,72.31396069094303,136378956
sw,-83.9675903320312,-84.5154495239257,-124.07625713529892,83.13421349598987,136395623
sw,-82.9514083862304,-84.8471069335937,-149.3021087083676,89.86964775855981,136412290
sw,-80.7186737060546,-84.70361328125,-168.47439037515664,91.49993125825058,136428957
sw,-77.468879699707,-83.8663330078125,-179.2696788512961,88.39141892804761,136445624
sw,-73.583999633789,-82.9742660522461,-180.89045216554172,81.99562000168729,136462291
sw,-71.6887969970703,-82.5310516357421,-174.19625629115575,74.26650659659188,136478958
sw,-70.0040588378906,-82.3670425415039,-161.37028248986778,66.97820597293696,136495625
sw,-68.1163482666015,-81.9800415039062,-145.259475025433,61.18129136728104,136512292
sw,-66.2058563232421,-81.0730667114257,-128.6264771565949,56.99559049179237,136528959
sw,-64.4189987182617,-79.8896789550781,-113.53786699515211,53.79220945137437,136545626
sw,-62.7398796081543,-78.6569671630859,-101.01528997645066,50.64105711023576,136562293
sw,-61.2459259033203,-77.7595443725586,-90.96809443561995,46.79575789568722,136578960
sw,-60.0591392517089,-77.1617813110351,-82.35963454658244,42.00747080796544,136595627
sw,-59.0409812927246,-76.7260971069336,-73.53947378681053,36.572791671480935,136612294
sw,-58.0882339477539,-76.4054107666015,-62.67752732146446,31.151884086695244,136628961
sw,-57.2096481323242,-76.1241073608398,-48.238180986658676,26.475527359478008,136645628
sw,-56.6916007995605,-75.7944564819336,-29.421874034502235,23.072172797012414,136662295
sw,-56.545539855957,-75.3536529541015,-6.488152695481612,21.105657885419284,136678962
sw,-56.6771049499511,-74.881362915039,19.12467312114712,20.35341471907549,136695629
sw,-57.1407966613769,-74.4848098754882,44.943879442839076,20.30262466139194,136712296
sw,-58.0880393981933,-74.1276168823242,67.88518124958384,20.314251155877276,136728963
sw,-59.9312438964843,-73.7477416992187,84.90261504415948,19.802913863518896,136745630
sw,-61.743293762207,-73.4046554565429,93.73482322004915,18.39242709840882,136762297
sw,-64.1478805541992,-73.1063919067382,93.55015433911736,16.01935442538504,136778964
sw,-65.8921585083007,-72.7893676757812,85.27860892692273,12.964736137524078,136795631
sw,-67.1229400634765,-72.4179458618164,71.48520543440117,9.799321835616128,136812298
sw,-67.8745727539062,-72.1276779174804,55.7783898869678,7.235408163812252,136828965
sw,-67.7272415161132,-71.9638900756836,41.91085105951552,5.894939454538193,136845632
sw,-67.5241394042968,-71.9753036499023,32.850843763725436,6.032408047020271,136862299
sw,-67.6413421630859,-72.1122741699218,30.12250787446493,7.286147006020178,136878966
sw,-68.4963989257812,-72.3000564575195,33.61382102214877,8.554905051971751,136895633
sw,-70.2104339599609,-72.3701095581054,41.865423585368426,8.08696478598956,136912300
sw,-71.6715240478515,-72.251480102539,52.668280957210456,3.8158355391789183,136928967
sw,-72.3466491699218,-71.9809646606445,63.70927931400912,-6.110465336936549,136945634
sw,-73.215461730957,-71.7817001342773,73.052552678173,-22.74913360028557,136962301
sw,-74.4099044799804,-72.0597915649414,79.38015569113857,-45.924094072444156,136978968
sw,-75.5624618530273,-73.0890731811523,82.0381971958463,-74.10023448597522,136995635
sw,-76.9130020141601,-74.9460983276367,80.97935035054842,-104.64439007420748,137012302
sw,-78.4655838012695,-77.5676498413086,76.66785115329195,-134.40906901587007,137028969
sw,-79.8337631225586,-80.8008499145507,69.9638893701718,-160.45266327338496,137045636
sw,-80.8125686645507,-83.9345016479492,61.97212735323924,-180.65666251397525,137062303
sw,-81.4062805175781,-85.7516708374023,53.84604515323988,-194.0419611572476,137078970
sw,-81.7859420776367,-85.0315399169921,46.577596868900045,-200.70893096159966,137095637
sw,-82.1189727783203,-83.1182098388671,40.833232454945964,-201.47786751636303,137112304
sw,-82.4589233398437,-81.3797378540039,36.889025057251565,-197.41832349902148,137128971
sw,-82.7643280029296,-79.0943450927734,34.67275909555738,-189.47471008857931,137145638
sw,-83.1099166870117,-76.2530517578125,33.875277762060364,-178.31397633377006,137162305
sw,-83.6198577880859,-73.4663696289062,34.07910591644876,-164.38566147887073,137178972
sw,-84.3434219360351,-70.9177932739257,34.86860732609996,-148.07397099468983,137195639
sw,-84.974380493164,-68.6906967163086,35.906599637378484,-129.79776049569676,137212306
sw,-85.1726608276367,-67.0032653808593,36.968764723238905,-109.98058830895891,137228973
sw,-85.0335922241211,-65.8907241821289,37.92777426753026,-88.91894806191904,137245640
sw,-84.8504104614257,-65.1062316894531,38.69255273921424,-66.65938251445807,137262307
sw,-84.7735595703125,-64.4035339355468,39.133453593710385,-43.01162354530626,137278974
sw,-84.7361984252929,-63.9215278625488,39.03794086763173,-17.7651616089817,137295641
sw,-84.6235656738281,-63.9595870971679,38.126187995141045,8.933182880047308,137312308
sw,-84.395278930664,-64.2219009399414,36.121581964382784,36.19002471192828,137328975
sw,-84.0783081054687,-64.9793090820312,32.84363619950968,62.16374392633918,137345642
sw,-83.7069015502929,-66.7948837280273,28.28668150367236,84.21207704562305,137362309
sw,-83.3373870849609,-68.8933334350586,22.661671583335266,99.43045427955694,137378976
sw,-83.0771789550781,-71.5934143066406,16.393795459880888,105.46316478890874,137395643
sw,-83.0031127929687,-73.9225082397461,10.074589840451381,101.34002242358933,137412310
sw,-83.0023803710937,-76.6692810058593,4.366232384705551,88.04749529012209,137428977
sw,-82.946533203125,-78.6877059936523,-0.14341687288297578,68.59730210476815,137445644
sw,-82.9239654541015,-79.0843811035156,-3.12684279302074,47.490435147876234,137462311
sw,-83.1076736450195,-78.6461029052734,-4.714695671659031,29.668306248348504,137478978
sw,-83.5739212036132,-77.8396377563476,-5.646055075012239,19.247740682355534,137495645
sw,-84.1412124633789,-77.3862609863281,-7.286778615091453,18.457546702687857,137512312
sw,-84.5232467651367,-77.8871459960937,-11.438269899761556,27.141291921214126,137528979
sw,-84.6348724365234,-79.8405990600586,-19.918719703140354,42.96878305172744,137545646
sw,-84.5949172973632,-81.9932022094726,-34.00047848298146,62.22170059906493,137562313
sw,-84.5832595825195,-82.9820022583007,-53.88105096861701,80.8316891204568,137578980
sw,-84.5223541259765,-83.5640106201171,-78.39303215417235,95.33262899219486,137595647
sw,-84.2780685424804,-84.1858139038086,-105.09495682291833,103.51137252082563,137612314
sw,-83.3570785522461,-84.6992492675781,-130.7544448723097,104.69264520395691,137628981
sw,-81.3329315185546,-84.7388763427734,-152.0927798153197,99.68312080444392,137645648
sw,-78.4526977539062,-84.191909790039,-166.56343445284276,90.42383204050168,137662315
sw,-74.6545333862304,-83.6964721679687,-172.9215691794609,79.41639643827969,137678982
sw,-72.3094253540039,-83.6256942749023,-171.41200837630547,69.03885492786127,137695649
sw,-70.8582382202148,-83.4844360351562,-163.53756157519834,60.93275611150599,137712316
sw,-69.0472259521484,-82.7846908569336,-151.52032196114217,55.66021824921406,137728983
sw,-66.9096374511718,-81.7259292602539,-137.6667120957087,52.748712112834276,137745650
sw,-64.9911041259765,-80.6065902709961,-123.84090364827176,51.08485835495233,137762317
sw,-63.2033004760742,-79.3678817749023,-111.15882519387125,49.47354234658331,137778984
sw,-61.6791839599609,-78.5617904663086,-99.91085994551987,47.12700280367906,137795651
sw,-60.3196220397949,-78.0213012695312,-89.66306477002621,43.90859207481808,137812318
sw,-59.1213722229003,-77.5328521728515,-79.47605856619536,40.2824520043038,137828985
sw,-58.0976791381835,-77.1535186767578,-68.19021091283125,37.04349801449428,137845652
sw,-57.2310829162597,-76.7353210449218,-54.73444826340667,34.968549127459056,137862319
sw,-56.7487487792968,-76.1845550537109,-38.418309300824035,34.525422758714846,137878986
sw,-56.4963607788085,-75.4911956787109,-19.16564694151042,35.723472812535206,137895653
sw,-56.4477882385253,-74.6744384765625,2.353035235554005,38.12075587986357,137912320
sw,-56.6188087463378,-73.9039840698242,24.731946715895493,40.94950665923154,137928987
sw,-57.0412902832031,-73.2097015380859,46.017916699918295,43.2992305389494,137945654
sw,-58.6046409606933,-72.4727096557617,64.0760115564246,44.30412065470094,137962321
sw,-60.0753746032714,-71.6853637695312,77.07390191633712,43.3025355565185,137978988
sw,-62.0073318481445,-70.9653701782226,83.95791705392085,39.95294880808242,137995655
sw,-63.8435974121093,-70.3870010375976,84.76077765364712,34.29667270664574,138012322
sw,-65.0326385498046,-69.8893737792968,80.61622137583215,26.758178313609843,138028989
sw,-65.999885559082,-69.4754257202148,73.45472504844476,18.075529761098835,138045656
sw,-66.7885589599609,-69.1268997192382,65.47647396191768,9.158140405804497,138062323
sw,-67.1104049682617,-69.0010681152343,58.58656239121457,0.8782829960967887,138078990
sw,-67.6114196777343,-69.1452941894531,53.99061371736503,-6.179047115345588,138095657
sw,-68.6742858886718,-69.5338363647461,52.077841912659686,-11.955341115715978,138112324
sw,-70.4671096801757,-70.119400024414,52.589468116417855,-17.067325558940418,138128991
sw,-72.0798034667968,-70.8046112060546,54.94029220207106,-22.78025863540141,138145658
sw,-72.619514465332,-71.4162979125976,58.50358738051751,-30.75445144821074,138162325
sw,-73.0324401855468,-71.8027572631836,62.72718451974514,-42.588008489312166,138178992
sw,-73.9489364624023,-72.077766418457,67.08267094833003,-59.272234246403656,138195659
sw,-74.9087524414062,-72.7860641479492,70.95997612409953,-80.746295909941,138212326
sw,-75.9892120361328,-74.3304672241211,73.63537698988357,-105.73739125905949,138228993
sw,-77.3985595703125,-76.8600387573242,74.37402674610682,-131.98074014490825,138245660
sw,-78.9314270019531,-80.0986557006836,72.63657964073057,-156.76115247788684,138262327
sw,-80.2028121948242,-83.4744186401367,68.2933875104116,-177.58010789959562,138278994
sw,-81.1224975585937,-86.1381225585937,61.737717420901966,-192.70388210863857,138295661
sw,-81.6647338867187,-86.1751022338867,53.836246847184924,-201.41357207781414,138312328
sw,-81.9195938110351,-83.9191436767578,45.73255765913531,-203.91692153968182,138328995
sw,-82.1050872802734,-81.8115615844726,38.58002360261661,-201.02104798959041,138345662
sw,-82.3282852172851,-79.6227111816406,33.2936148751092,-193.7419859074201,138362329
sw,-82.620361328125,-76.7673263549804,30.382004231645187,-183.01449032643245,138378996
sw,-83.0279388427734,-73.8173828125,29.88230629525102,-169.57743487685494,138395663
sw,-83.577163696289,-71.1149978637695,31.394415784296314,-153.99803428248623,138412330
sw,-84.2714233398437,-68.5954284667968,34.20003839221698,-136.72917231900885,138428997
sw,-84.7569351196289,-66.5650863647461,37.43792255436252,-118.10616451066605,138445664
sw,-84.8192672729492,-65.1278381347656,40.28828135180188,-98.26506133456051,138462331
sw,-84.6159133911132,-64.2103195190429,42.11339493942506,-77.05145543227928,138478998
sw,-84.4038162231445,-63.4342155456543,42.522758507095006,-54.03412884065963,138495665
sw,-84.292984008789,-62.7725067138671,41.36868551578559,-28.710955983695825,138512332
sw,-84.208511352539,-62.5515022277832,38.70406740556873,-0.899579225108225,138528999
sw,-84.0611267089843,-62.6615753173828,34.73289069374869,28.81322985322535,138545666
sw,-83.8404998779296,-63.2445602416992,29.766385460778782,58.767139132250435,138562333
sw,-83.606689453125,-64.9015350341796,24.183607275198646,86.26034690746111,138579000
sw,-83.3872528076171,-66.9943313598632,18.3938497222342,108.00302910696853,138595667
sw,-83.2168502807617,-69.838508605957,12.802425149633063,120.91719092899127,138612334
sw,-83.1661987304687,-72.5895919799804,7.779420696509217,123.06285696220527,138629001
sw,-83.1983642578125,-75.7895202636718,3.620557087201201,114.3958802423016,138645668
sw,-83.1311111450195,-78.6288528442382,0.4802700380404751,97.07850342389129,138662335
sw,-83.1162719726562,-79.7515487670898,-1.736157534219758,75.16843565958435,138679002
sw,-83.28466796875,-79.7058563232421,-3.505483356100367,53.69979353410585,138695669
sw,-83.6848449707031,-78.9737548828125,-5.785432424100385,37.40304557695144,138712336
sw,-84.3221130371093,-78.5467529296875,-9.988389223224655,29.488694177015642,138729003
sw,-84.8621063232421,-79.2195129394531,-17.749616625309194,30.919097881037068,138745670
sw,-85.0745468139648,-81.2389984130859,-30.48305852243446,40.38645034814858,138762337
sw,-85.1659622192382,-82.8837966918945,-48.83356055531188,54.91730241589353,138779004
sw,-85.2954330444336,-83.5817947387695,-72.23035856028837,70.80951432893391,138795671
sw,-85.2588882446289,-84.2813491821289,-98.75371743554987,84.57314767913671,138812338
sw,-84.4779968261718,-84.8396606445312,-125.42284053729489,93.65117807198581,138829005
sw,-82.489631652832,-85.275032043457,-148.84662626692761,96.82476546038302,138845672
sw,-79.7016143798828,-85.1577072143554,-166.03408375187647,94.2871019536964,138862339
sw,-76.13623046875,-84.5317306518554,-175.10291884019165,87.40680253312092,138879006
sw,-72.2361984252929,-83.9216232299804,-175.66644279727913,78.23912034140903,138895673
sw,-70.4279861450195,-83.6419601440429,-168.7935451690739,68.90233719822692,138912340
sw,-68.9164123535156,-83.2885818481445,-156.58312427235228,60.995459573629155,138929007
sw,-66.9483642578125,-82.545913696289,-141.5235921348125,55.24139450959949,138945674
sw,-65.0120544433593,-81.6403427124023,-125.86216111045799,51.46417136559922,138962341
sw,-63.1980934143066,-80.6225814819336,-111.16037277939218,48.87491849092116,138979008
sw,-61.5779953002929,-79.5933456420898,-98.10298882135693,46.520956729089605,138995675
sw,-60.2176933288574,-78.8217468261718,-86.53212308645865,43.70764353692665,139012342
sw,-59.1758575439453,-78.1605148315429,-75.63810408714545,40.24439939387456,139029009
sw,-58.2693138122558,-77.6073532104492,-64.24240729221702,36.459112685349005,139045676
sw,-57.3973503112793,-77.2183685302734,-51.125019243187204,33.0185488739773,139062343
sw,-56.8291358947753,-76.8425521850586,-35.3564605665281,30.65027659731561,139079010
sw,-56.7516822814941,-76.3755416870117,-16.590786841940854,29.873114103818374,139095677
sw,-56.8882789611816,-75.7958526611328,4.729298776475024,30.817190642035428,139112344
sw,-57.1553802490234,-75.1579284667968,27.30380950212999,33.16993949451833,139129011
sw,-57.6269340515136,-74.4994659423828,49.0874522866805,36.24118366825237,139145678
sw,-58.3675193786621,-73.8245239257812,67.61198215048402,39.1137784411208,139162345
sw,-60.2415046691894,-73.1658782958984,80.50555746197536,40.83872033230452,139179012
sw,-62.2467231750488,-72.4536437988281,86.11556633267433,40.63705463569193,139195679
sw,-64.2670364379882,-71.7133178710937,84.05562873653213,38.074908332087546,139212346
sw,-65.8461151123046,-71.0319442749023,75.4679823758409,33.17823002331134,139229013
sw,-66.8211212158203,-70.4457321166992,62.86080769735232,26.454421998950643,139245680
sw,-67.3214950561523,-69.9930572509765,49.52712966868037,18.79697907293991,139262347
sw,-67.463020324707,-69.7178726196289,38.71048235768885,11.271237125485001,139279014
sw,-67.3238067626953,-69.6808471679687,32.78244634621275,4.812205827838711,139295681
sw,-67.3893661499023,-69.8192291259765,32.69916293674314,-0.09896438024194447,139312348
sw,-68.1047744750976,-70.1012115478515,37.906372652657026,-3.687155528242478,139329015
sw,-69.7732925415039,-70.4535217285156,46.69661194019988,-6.967921134091058,139345682
sw,-71.6533126831054,-70.8023300170898,56.85006787026358,-11.59724765067752,139362349
sw,-72.6270446777343,-71.1246185302734,66.29388708580372,-19.48045246039563,139379016
sw,-73.3353500366211,-71.2958374023437,73.54951334502391,-32.216162990472256,139395683
sw,-74.4309005737304,-71.4529953002929,77.87911248096431,-50.529625763965,139412350
sw,-75.4846801757812,-72.0326919555664,79.19194913907543,-73.89064543016181,139429017
sw,-76.6212387084961,-73.5088119506836,77.84185634457764,-100.48239837325224,139445684
sw,-77.9907684326171,-76.0063095092773,74.42747433406328,-127.57740651662765,139462351
sw,-79.3019638061523,-79.2379684448242,69.6449765785786,-152.21857232161537,139479018
sw,-80.342658996582,-82.7570571899414,64.18800194958678,-171.96859922878588,139495685
sw,-81.126708984375,-85.6163558959961,58.66870912879805,-185.4542096744789,139512352
sw,-81.7172927856445,-86.4325714111328,53.54863360941233,-192.51940271825458,139529019
sw,-82.158935546875,-84.9233322143554,49.094711606328424,-193.97374969938,139545686
sw,-82.5955200195312,-83.1480636596679,45.384280652443664,-191.09090805836902,139562353
sw,-82.997444152832,-81.1198043823242,42.363418477990116,-185.09619523237726,139579020
sw,-83.3960342407226,-78.456802368164,39.932754904183405,-176.84494147490102,139595687
sw,-83.8982543945312,-75.5862197875976,38.01935178448303,-166.7643313048216,139612354
sw,-84.4497451782226,-72.7729339599609,36.60390335339241,-154.98718629457656,139629021
sw,-84.9465408325195,-70.1363067626953,35.69935672304856,-141.52681917045217,139645688
sw,-85.23046875,-68.0628890991211,35.299733724885066,-126.36295647882082,139662355
sw,-85.2122650146484,-66.5789184570312,35.32440255154961,-109.40397034940443,139679022
sw,-85.0421981811523,-65.4521942138671,35.577931426041225,-90.3974420248031,139695689
sw,-84.8964691162109,-64.3828659057617,35.740342751273275,-68.91620594117906,139712356
sw,-84.8080825805664,-63.4188995361328,35.39948388185368,-44.51706448120719,139729023
sw,-84.7150955200195,-63.0085563659668,34.12891797087674,-17.069905098134896,139745690
sw,-84.5584259033203,-63.1543731689453,31.598095759621316,12.856054004721056,139762357
sw,-84.3084259033203,-63.61519241333,27.68485443591376,43.7231259151404,139779024
sw,-83.9690933227539,-64.7136077880859,22.553613407014026,73.0313072752955,139795691
sw,-83.644546508789,-66.5531997680664,16.668253102964243,97.67514767124467,139812358
sw,-83.4687194824218,-69.1935653686523,10.72367118829865,114.60609275258703,139829025
sw,-83.4679641723632,-71.7828674316406,5.501508595031245,121.63612296846317,139845692
sw,-83.577522277832,-74.5090255737304,1.6780109201543398,118.14648478181573,139862359
sw,-83.7031326293945,-77.3473281860351,-0.37428404578699853,105.46767400333745,139879026
sw,-83.7422943115234,-79.0079498291015,-0.7498596475054351,86.76934212574285,139895693
sw,-83.7993850708007,-79.7888946533203,-0.10570576505577195,66.4255909278846,139912360
sw,-83.9645080566406,-79.5868301391601,0.33942027213899856,48.987153171223504,139929027
sw,-84.2479629516601,-79.2155532836914,-1.067813116995523,38.05435406869567,139945694
sw,-84.5535278320312,-79.2321014404296,-6.137052166027627,35.41861832030511,139962361
sw,-84.6272506713867,-80.5246887207031,-16.414000724226273,40.75549822892961,139979028
sw,-84.574478149414,-82.3538360595703,-32.69455131758805,51.932165313494984,139995695
sw,-84.6873626708984,-83.2814254760742,-54.62210508235869,65.75817431516704,140012362
sw,-84.9359283447265,-83.7581405639648,-80.54050973539356,78.88797875570339,140029029
sw,-84.9469299316406,-84.1954574584961,-107.7122963844767,88.61063793326859,140045696
sw,-84.0024337768554,-84.3894424438476,-132.87974711914072,93.36731553267695,140062363
sw,-81.9272766113281,-84.230484008789,-153.00993215485155,92.93497236937371,140079030
sw,-79.11865234375,-83.6207122802734,-165.9918881173579,88.27773151984243,140095697
sw,-75.4308319091796,-83.0760955810546,-171.07264075756476,81.11876227624023,140112364
sw,-72.607063293457,-82.799331665039,-168.91101576129384,73.34777413289989,140129031
sw,-71.1222991943359,-82.5431213378906,-161.25502303751776,66.44065953073495,140145698
sw,-69.3927993774414,-81.8631820678711,-150.36961489042326,61.08407030813453,140162365
sw,-67.209243774414,-80.8221969604492,-138.4133331712344,57.12982395749066,140179032
sw,-65.2086105346679,-79.6995697021484,-126.94960049019353,53.86697772991761,140195699
sw,-63.3335494995117,-78.6112365722656,-116.69239127230983,50.46525912756993,140212366
sw,-61.6406326293945,-77.8106460571289,-107.4878603418034,46.38705792046406,140229033
sw,-60.2013893127441,-77.2124862670898,-98.47759852065009,41.608164229319094,140245700
sw,-58.9250946044921,-76.80419921875,-88.37998269882306,36.592916635377186,140262367
sw,-57.6906051635742,-76.4994964599609,-75.83567654707218,32.07683550723319,140279034
sw,-56.6786079406738,-76.1674880981445,-59.76805638334032,28.772622646833582,140295701
sw,-56.0300865173339,-75.7305603027343,-39.704720395899194,27.118614604910476,140312368
sw,-55.863670349121,-75.1911239624023,-16.001920812562993,27.14623210501506,140329035
sw,-56.0169219970703,-74.613899230957,10.080533383541658,28.483772152523727,140345702
sw,-56.2528343200683,-74.0618057250976,36.490430253872056,30.466442423821523,140362369
sw,-56.935977935791,-73.4889831542968,60.6931254879008,32.30182782289588,140379036
sw,-58.8460884094238,-72.9278411865234,80.15399631214608,33.24340888081365,140395703
sw,-60.8425750732421,-72.3788986206054,92.90499480544277,32.73880752460949,140412370
sw,-63.0182418823242,-71.8049774169921,98.04269955171829,30.53131010015594,140429037
sw,-64.6598052978515,-71.2096099853515,95.9886051489268,26.698151451918335,140445704
sw,-65.9296112060546,-70.6983489990234,88.4057052238907,21.610687908238525,140462371
sw,-67.0315856933593,-70.3577117919921,77.78544372305556,15.808290345491498,140479038
sw,-67.667724609375,-70.1447448730468,66.83548667899356,9.796422622558907,140495705
sw,-67.9187393188476,-70.1647109985351,57.86154051246703,3.8089202781591776,140512372
sw,-68.5131378173828,-70.448501586914,52.32752154939924,-2.3953135139880803,140529039
sw,-69.9519500732421,-70.8995819091796,50.702239438792425,-9.61511751578698,140545706
sw,-71.485855102539,-71.4716644287109,52.58213503862921,-19.096066549028563,140562373
sw,-72.3123779296875,-72.0182418823242,56.974348664274295,-32.201894118704566,140579040
sw,-72.9157409667968,-72.4678955078125,62.59683098130762,-49.92554899713823,140595707
sw,-73.8235473632812,-72.9245223999023,68.11348146676818,-72.38438539023124,140612374
sw,-74.8979721069336,-73.8804931640625,72.30939910163093,-98.49596173653231,140629041
sw,-76.1561508178711,-75.7295150756836,74.24950058716769,-126.00607882207174,140645708
sw,-77.6534957885742,-78.7112197875976,73.43572101110239,-151.9253551483686,140662375
sw,-78.972053527832,-82.4180679321289,69.92339754476093,-173.26170619063632,140679042
sw,-79.922119140625,-85.9410781860351,64.32813477591984,-187.7944839390078,140695709
sw,-80.6364059448242,-87.2746658325195,57.67894710384589,-194.60260263617175,140712376
sw,-81.0400009155273,-84.9665069580078,51.14097357205145,-194.15948837652374,140729043
sw,-81.2942352294921,-82.5325317382812,45.69806449353532,-187.99211588383614,140745710
sw,-81.6251144409179,-80.5797805786132,41.90784072155313,-178.07605122291244,140762377
sw,-82.011245727539,-78.3803939819336,39.80736616732057,-166.22124836418425,140779044
sw,-82.4582214355468,-75.8386459350586,38.98131535165661,-153.6633760048274,140795711
sw,-82.9267044067382,-73.3209991455078,38.745809442194485,-140.945264279892,140812378
sw,-83.4083175659179,-70.9348526000976,38.37501042408213,-128.03158276091173,140829045
sw,-83.8406295776367,-68.8343658447265,37.30270412909344,-114.52361621495446,140845712
sw,-84.0847396850586,-67.1181488037109,35.25110446297567,-99.85485370475996,140862379
sw,-84.0853424072265,-65.7919540405273,32.26207728347678,-83.4195612902599,140879046
sw,-83.9342498779296,-64.8623352050781,28.630913132255625,-64.6607256025002,140895713
sw,-83.773323059082,-64.1964950561523,24.770623089091007,-43.17895271227179,140912380
sw,-83.7192153930664,-63.9776916503906,21.05854649728873,-18.906028618843383,140929047
sw,-83.7571029663086,-64.1028060913086,17.723687883581377,7.670900912816927,140945714
sw,-83.8299713134765,-64.4337081909179,14.814761212211918,35.3146876798203,140962381
sw,-83.8628158569336,-65.3706970214843,12.252059555001603,61.99134899712875,140979048
sw,-83.827278137207,-67.1314620971679,9.929723556690451,85.0713793162181,140995715
sw,-83.7344665527343,-69.3543930053711,7.817018396813264,101.80018988121384,141012382
sw,-83.6550750732421,-71.9356384277343,6.013561808474918,109.94731138602806,141029049
sw,-83.6505355834961,-74.2520217895507,4.73564178327368,108.45438798831078,141045716
sw,-83.7069244384765,-76.5791397094726,4.235030902109409,97.87667308838482,141062383
sw,-83.7461547851562,-77.9834365844726,4.668861137031256,80.45806759904484,141079050
sw,-83.7553405761718,-78.7725677490234,5.948411718613916,59.775848353471424,141095717
sw,-83.8023605346679,-79.1544723510742,7.6015994661019475,40.01311835564793,141112384
sw,-83.8914413452148,-78.9804916381836,8.693932533152804,25.036784134988157,141129051
sw,-84.0121459960937,-78.7559585571289,7.861811257948235,17.538061231901956,141145718
sw,-84.0549926757812,-78.7817230224609,3.5038696762310346,18.490167918580443,141162385
sw,-83.9518814086914,-79.8754272460937,-5.8657374466057774,27.076900955435875,141179052
sw,-83.8385925292968,-81.6751556396484,-21.168334507072522,41.077132428501706,141195719
sw,-83.8396072387695,-82.8341751098632,-42.34796545674748,57.531189407414736,141212386
sw,-83.9168548583984,-83.357551574707,-68.14806212895223,73.44885994551571,141229053
sw,-83.7802581787109,-83.9857864379882,-96.18822754307969,86.37207173765441,141245720
sw,-83.0472030639648,-84.6127548217773,-123.35875898700733,94.71992657243688,141262387
sw,-81.3876953125,-85.1788330078125,-146.44356782147187,97.92832865295068,141279054
sw,-78.9143981933593,-85.0308380126953,-162.80308930802576,96.41086580597259,141295721
sw,-75.5625457763671,-84.2486801147461,-170.92600949485544,91.34707456233788,141312388
sw,-71.9944534301757,-83.7071075439453,-170.6965415725083,84.30985371169147,141329055
sw,-70.3203506469726,-83.3927459716796,-163.30826415574248,76.80146900289216,141345722
sw,-68.736831665039,-82.7644882202148,-150.86356632999764,69.84062056943024,141362389
sw,-66.8462677001953,-81.7649307250976,-135.79496347091984,63.75875145720388,141379056
sw,-65.1372528076171,-80.5585021972656,-120.28689568015281,58.28322070323921,141395723
sw,-63.6684951782226,-79.2772369384765,-105.84574886744265,52.848867390067745,141412390
sw,-62.3368492126464,-78.3471374511718,-93.09326337982581,46.97578460545126,141429057
sw,-61.1935386657714,-77.7470550537109,-81.79143823558287,40.54090101458123,141445724
sw,-60.1864852905273,-77.3574523925781,-71.0636490600796,33.848042877200434,141462391
sw,-59.154296875,-77.1205978393554,-59.748614190029826,27.50885431999747,141479058
sw,-58.2095108032226,-76.8522415161132,-46.802820252402675,22.223657019872427,141495725
sw,-57.6058311462402,-76.513931274414,-31.65637540405546,18.56730486625851,141512392
sw,-57.4271049499511,-76.0951538085937,-14.437008405741928,16.850150474365257,141529059
sw,-57.6733741760253,-75.6164245605468,3.988632931653931,17.07066043401647,141545726
sw,-58.0308227539062,-75.171646118164,22.159674480977884,18.93582368981315,141562393
sw,-58.5293045043945,-74.8420791625976,38.314936940822484,21.91462045752556,141579060
sw,-59.4907646179199,-74.5332336425781,50.776067404855105,25.30503998848979,141595727
sw,-61.0200996398925,-74.1279754638671,58.34408736805289,28.318245705668897,141612394
sw,-62.2561378479003,-73.6071166992187,60.61746760316319,30.193525517148437,141629061
sw,-63.4606971740722,-73.0182189941406,58.138069270142154,30.344967678721755,141645728
sw,-64.0966796875,-72.3723754882812,52.30712433197452,28.51309781361606,141662395
sw,-64.6468887329101,-71.7317504882812,45.08428422335926,24.86997530685711,141679062
sw,-65.4124069213867,-71.1333618164062,38.55329095422559,20.020333634337728,141695729
sw,-66.0703430175781,-70.7658615112304,34.47145565220002,14.86142191068996,141712396
sw,-66.3676681518554,-70.6648406982421,33.91134494059118,10.308061438052093,141729063
sw,-66.7144470214843,-70.7343978881836,37.07395844186999,6.944990906074869,141745730
sw,-67.2799835205078,-70.9110870361328,43.31915374905278,4.714549371647087,141762397
sw,-68.3580627441406,-71.1068725585937,51.41247908783154,2.761159369050774,141779064
sw,-70.0982894897461,-71.2462692260742,59.919084291078995,-0.4775583897216307,141795731
sw,-71.7060012817382,-71.3132400512695,67.60869161010946,-6.914867770911377,141812398
sw,-72.6188812255859,-71.3025588989257,73.7202138210316,-18.267371269000616,141829065
sw,-73.3555526733398,-71.3692321777343,78.00001115985275,-35.47067218571182,141845732
sw,-74.3914642333984,-71.7475280761718,80.54364756402192,-58.253463879253495,141862399
sw,-75.5883636474609,-72.8422393798828,81.56222538634589,-85.03953001656762,141879066
sw,-76.9662704467773,-74.8648452758789,81.20514417559579,-113.24965508053084,141895733
sw,-78.5930862426757,-77.7915115356445,79.50866097462814,-139.93109542331402,141912400
sw,-80.0659790039062,-81.1968765258789,76.45557886723196,-162.50631991297627,141929067
sw,-81.1274337768554,-84.4540863037109,72.07733153204504,-179.37071211387172,141945734
sw,-81.8370208740234,-86.232666015625,66.52916165032696,-190.12149438983133,141962401
sw,-82.2629013061523,-85.5026397705078,60.108949910573926,-195.35401701785253,141979068
sw,-82.6211624145507,-84.2288513183593,53.23226205383513,-196.14834777120146,141995735
sw,-82.9765548706054,-82.6207046508789,46.388715687288226,-193.49664386969528,142012402
sw,-83.3182220458984,-79.9723815917968,40.0892608752114,-187.92326080159958,142029069
sw,-83.709602355957,-76.7407836914062,34.797965847367166,-179.42507138148758,142045736
sw,-84.1549758911132,-73.6285552978515,30.847371727744843,-167.68274412919283,142062403
sw,-84.5752716064453,-70.7880172729492,28.357866573641264,-152.36880223262997,142079070
sw,-84.7945938110351,-68.5322570800781,27.195063511908664,-133.37021137597577,142095737
sw,-84.7457733154296,-66.9408569335937,26.989970203792076,-110.83888197651211,142112404
sw,-84.5279006958007,-65.8586196899414,27.22206779947986,-85.11172808175343,142129071
sw,-84.2971801757812,-64.9576797485351,27.34297574649383,-56.62497997284326,142145738
sw,-84.1389007568359,-64.3232650756836,26.908524740468472,-25.941997426735,142162405
sw,-84.0392532348632,-64.0552749633789,25.688140918373644,6.071636580988546,142179072
sw,-83.9353790283203,-64.3012542724609,23.725823793039073,38.00601796237907,142195739
sw,-83.7716903686523,-64.8884506225586,21.33318938584556,67.7581578599443,142212406
sw,-83.5650787353515,-66.1941604614257,19.00481926204158,92.64164875606913,142229073
sw,-83.3751602172851,-68.3456649780273,17.264397463414642,109.84044772465121,142245740
sw,-83.2771377563476,-71.309341430664,16.475154441451338,117.15005921404325,142262407
sw,-83.2949600219726,-74.1529159545898,16.668202515629826,113.79449346818329,142279074
sw,-83.3141098022461,-77.3272476196289,17.443353336586462,101.00997163455357,142295741
sw,-83.2074813842773,-78.9828796386718,17.97463378033859,82.10514659125627,142312408
sw,-83.007095336914,-79.3422775268554,17.117695839094676,61.85872123680936,142329075
sw,-82.8736267089843,-79.0841293334961,13.58905624912425,45.35971900864833,142345742
sw,-82.867691040039,-78.5205001831054,6.183569990378352,36.63975009291263,142362409
sw,-83.0627365112304,-78.2915420532226,-5.987420862825468,37.5682953177046,142379076
sw,-83.2178268432617,-79.3644790649414,-23.245446787037537,47.400161960644695,142395743
sw,-83.331672668457,-81.3613204956054,-45.11289043562039,63.10855018920496,142412410
sw,-83.6068954467773,-82.7009353637695,-70.17843477637287,80.34207457166488,142429077
sw,-83.8692092895507,-83.52734375,-96.16494727216465,94.65686348827248,142445744
sw,-83.5906600952148,-84.1197052001953,-120.26321231655656,102.65409756780738,142462411
sw,-82.2869873046875,-84.0622482299804,-139.6897583296687,102.74883435554483,142479078
sw,-80.0722732543945,-83.4471054077148,-152.31656654038727,95.42209926857026,142495745
sw,-77.2073898315429,-82.5698013305664,-157.16994932826597,82.92497697217023,142512412
sw,-74.1409912109375,-82.0954284667968,-154.6306115671215,68.5218299397343,142529079
sw,-72.6870040893554,-81.9612426757812,-146.2675466624055,55.48623546219011,142545746
sw,-71.5370483398437,-82.0343017578125,-134.36482554347387,46.157937057008866,142562413
sw,-70.0141220092773,-81.9418258666992,-121.30543731040011,41.365984316906804,142579080
sw,-68.3411026000976,-81.3825378417968,-109.01267125249102,40.3933300757143,142595747
sw,-66.8301391601562,-80.5580215454101,-98.59852086756256,41.45031308499156,142612414
sw,-65.330451965332,-79.5063400268554,-90.26748465293961,42.438501834492605,142629081
sw,-64.0173797607421,-78.5418319702148,-83.43729427744408,41.70560742751686,142645748
sw,-62.9175872802734,-77.7365493774414,-77.00047810699725,38.53678930062362,142662415
sw,-61.9062347412109,-77.287124633789,-69.65309205814651,33.25831868241547,142679082
sw,-60.906566619873,-77.2232818603515,-60.232552294731384,26.982111105301435,142695749
sw,-60.0356712341308,-77.2386093139648,-48.01566048419719,21.13701874256544,142712416
sw,-59.3779716491699,-77.0894088745117,-32.92822149866589,16.979690271527673,142729083
sw,-59.2536659240722,-76.7709732055664,-15.621548530447418,15.247046331503835,142745750
sw,-59.5210609436035,-76.3656921386718,2.608791968347508,16.027913614774967,142762417
sw,-59.8251304626464,-75.8547058105468,20.05284078833824,18.83811067468633,142779084
sw,-60.4097938537597,-75.2920684814453,34.923053518800884,22.8219638421476,142795751
sw,-61.478832244873,-74.7930450439453,45.73480855798406,26.989344123146953,142812418
sw,-62.6695327758789,-74.375732421875,51.652901418354084,30.421117080882603,142829085
sw,-63.8952674865722,-73.9279861450195,52.717370600661404,32.41501685920673,142845752
sw,-65.0160446166992,-73.3608779907226,49.872475713644874,32.574965305498154,142862419
sw,-65.5451889038086,-72.7425231933593,44.767775466003194,30.85506166447126,142879086
sw,-65.7773895263671,-72.1090621948242,39.37307535196552,27.556887446515546,142895753
sw,-66.4860076904296,-71.4817962646484,35.51664754742554,23.262442125784673,142912420
sw,-67.1430969238281,-71.0356826782226,34.48103911676902,18.684304912013904,142929087
sw,-67.525894165039,-70.9018173217773,36.76253947230105,14.438364257782455,142945754
sw,-68.0071411132812,-70.96728515625,42.044264032226245,10.785807365148555,142962421
sw,-68.8880386352539,-71.0419769287109,49.377175014781294,7.429129679234877,142979088
sw,-70.5328903198242,-71.1524276733398,57.51070006138768,3.456394574956528,142995755
sw,-72.10986328125,-71.3027191162109,65.26323153221688,-2.504709190364416,143012422
sw,-73.150894165039,-71.4274673461914,71.79964752668137,-11.928388452705732,143029089
sw,-74.0400390625,-71.5016479492187,76.72320621846956,-25.911195952614847,143045756
sw,-75.0229339599609,-71.699951171875,79.98346617526208,-44.71700539188263,143062423
sw,-76.1907501220703,-72.318618774414,81.68999118425565,-67.51324803651785,143079090
sw,-77.5954437255859,-73.6427307128906,81.94685079226481,-92.42560120372468,143095757
sw,-79.2024917602539,-75.7471008300781,80.78036557617658,-116.9369900830279,143112424
sw,-80.6576385498046,-78.6826629638671,78.16221595120325,-138.5233148110102,143129091
sw,-81.7918319702148,-81.8420181274414,74.0798140225743,-155.3089013239505,143145758
sw,-82.6958618164062,-84.3359756469726,68.6007834719134,-166.497821397044,143162425
sw,-83.4363403320312,-85.3472671508789,61.908220862177664,-172.4200270834555,143179092
sw,-84.0503387451171,-84.8263473510742,54.314236231587195,-174.19419816776926,143195759
sw,-84.572998046875,-83.8085632324218,46.264705201749706,-173.17290017925626,143212426
sw,-85.0538330078125,-82.3821792602539,38.331129662578284,-170.41544809929297,143229093
sw,-85.4536056518554,-80.2357025146484,31.1698403292817,-166.39218645195933,143245760
sw,-85.8267440795898,-77.6868896484375,25.433870717211732,-160.99076408321486,143262427
sw,-86.1735229492187,-75.0044479370117,21.647374637379716,-153.74679667078584,143279094
sw,-86.4612197875976,-72.4549255371093,20.078221704327667,-144.13511351921176,143295761
sw,-86.6583633422851,-70.4108810424804,20.652894448390136,-131.76903589022402,143312428
sw,-86.7232589721679,-68.9126358032226,22.94457522048615,-116.4440843954895,143329095
sw,-86.6712799072265,-67.7867660522461,26.240591555864277,-98.07213793012919,143345762
sw,-86.574234008789,-66.7098693847656,29.672802318623408,-76.62004134259205,143362429
sw,-86.4735870361328,-65.6649703979492,32.38055018077943,-52.156592622192164,143379096
sw,-86.3240127563476,-65.0752182006836,33.67012041668799,-25.0334543316061,143395763
sw,-86.093147277832,-65.2199401855468,33.136563937398364,3.871095235254733,143412430
sw,-85.7775192260742,-65.658088684082,30.723855153286163,32.97576481966844,143429097
sw,-85.4534301757812,-66.6115264892578,26.715466330838378,60.013416797968915,143445764
sw,-85.1591186523437,-68.2929077148437,21.66359127004402,82.30959069670857,143462431
sw,-84.8827438354492,-70.2419281005859,16.27570565496795,97.30037963881516,143479098
sw,-84.6645812988281,-72.5677108764648,11.279519666423253,103.17415282940124,143495765
sw,-84.5244979858398,-74.8146209716796,7.283051149796254,99.4571073035167,143512432
sw,-84.4054260253906,-77.1301574707031,4.640356020003993,87.35273516611662,143529099
sw,-84.2798156738281,-78.8180465698242,3.331778457615826,69.69398143681408,143545766
sw,-84.2595672607421,-79.826187133789,2.8745190375350873,50.4615536938397,143562433
sw,-84.4145050048828,-80.2239685058593,2.2932960104172047,33.9450497385825,143579100
sw,-84.7266845703125,-79.9340515136718,0.19293625300741704,23.74905689067673,143595767
sw,-85.0173645019531,-79.5358200073242,-5.030137809914839,21.93001091121853,143612434
sw,-85.1605834960937,-79.8194122314453,-14.835099445577589,28.540339938342285,143629101
sw,-85.2355651855468,-81.2892303466796,-30.10138121733053,41.73118705789482,143645768
sw,-85.3375549316406,-83.340087890625,-50.73250707899693,58.36256491085022,143662435
sw,-85.6374053955078,-84.6846694946289,-75.44893193598561,74.88718294150765,143679102
sw,-85.8517379760742,-85.4975509643554,-101.88666841079566,88.2087202421832,143695769
sw,-85.0807571411132,-86.2462081909179,-127.02538411736055,96.28824878718639,143712436
sw,-83.0639877319336,-86.7044982910156,-147.849388000376,98.4111554219411,143729103
sw,-80.3229370117187,-86.4443817138671,-162.0491512487563,95.13537992526618,143745770
sw,-76.7804946899414,-85.527099609375,-168.54342090368397,87.98555636762968,143762437
sw,-73.1199722290039,-84.5518417358398,-167.65539898644525,78.97072369654579,143779104
sw,-71.7611236572265,-84.0143127441406,-160.89251041229272,70.02795877370163,143795771
sw,-70.16015625,-83.5993957519531,-150.41934196308785,62.530968059064,143812438
sw,-68.216438293457,-82.8448410034179,-138.42065440523527,57.01162091802696,143829105
sw,-66.2541198730468,-81.7163925170898,-126.56892416631946,53.18517521101757,143845772
sw,-64.4566421508789,-80.5077743530273,-115.73187256803278,50.253853476399584,143862439
sw,-62.7523231506347,-79.346321105957,-105.94073420075915,47.34787698612295,143879106
sw,-61.2066574096679,-78.530044555664,-96.5592241837054,43.91584167352896,143895773
sw,-59.924331665039,-77.9006423950195,-86.56673285305116,39.92046554810867,143912440
sw,-58.790916442871,-77.3793640136718,-74.87769499227251,35.797254582748124,143929107
sw,-57.7184715270996,-77.0307388305664,-60.63848459066206,32.233631518054594,143945774
sw,-57.0964965820312,-76.6653060913086,-43.46046879467519,29.881256583866914,143962441
sw,-56.9265480041503,-76.1815948486328,-23.56104319045178,29.114296070917874,143979108
sw,-56.9590797424316,-75.5571823120117,-1.7967613666421367,29.905935977816526,143995775
sw,-57.2019691467285,-74.8572616577148,20.41726691223742,31.839250541205725,144012442
sw,-57.4997024536132,-74.1699142456054,41.303269688970616,34.2213455744842,144029109
sw,-58.5863189697265,-73.5560226440429,59.026187628802575,36.24794411240339,144045776
sw,-60.6632194519043,-72.9744491577148,72.0728710705367,37.17034482324666,144062443
sw,-61.9824295043945,-72.3228912353515,79.61750188316769,36.434767611197195,144079110
sw,-63.7090835571289,-71.6785659790039,81.75011807054106,33.77909929607577,144095777
sw,-65.0384445190429,-71.1579055786132,79.46938820907448,29.276765942977203,144112444
sw,-65.7821578979492,-70.6979904174804,74.42370182039976,23.31661079711628,144129111
sw,-66.8854827880859,-70.231575012207,68.48086485202566,16.50956782682907,144145778
sw,-67.8188781738281,-69.855972290039,63.267788024882236,9.521870069173737,144162445
sw,-68.3517303466796,-69.7934341430664,59.825465647853356,2.8523607231950305,144179112
sw,-69.0633850097656,-70.0913772583007,58.47827568790424,-3.400422801337261,144195779
sw,-70.4274139404296,-70.5889434814453,58.939920286382055,-9.703931162465546,144212446
sw,-72.2994918823242,-71.1813278198242,60.58949860626586,-17.098226032987817,144229113
sw,-73.5459518432617,-71.6841278076171,62.7797916475475,-26.979632382019062,144245780
sw,-74.1388473510742,-72.1033935546875,65.03323138788551,-40.673949452207545,144262447
sw,-74.8732147216796,-72.4456481933593,67.06043173989454,-58.91223729669179,144279114
sw,-75.8509902954101,-73.0167160034179,68.65218599137997,-81.39972541806924,144295781
sw,-76.8403015136718,-74.3741149902343,69.56340589131369,-106.67477174119367,144312448
sw,-78.1227340698242,-76.8512115478515,69.48630430031835,-132.365869764498,144329115
sw,-79.579605102539,-80.3158645629882,68.13098558813897,-155.79228129881434,144345782
sw,-80.7538452148437,-84.0842056274414,65.35519422132359,-174.6899289696246,144362449
sw,-81.5988235473632,-87.0728378295898,61.2570238847275,-187.77017027900334,144379116
sw,-82.1625595092773,-86.6977920532226,56.17529768825311,-194.88797912761677,144395783
sw,-82.5373077392578,-84.2687225341796,50.60375353419387,-196.77944181311534,144412450
sw,-82.8542556762695,-82.2633590698242,45.07047564624532,-194.5287195251033,144429117
sw,-83.2169036865234,-80.1173858642578,40.036221580958056,-189.03506817438466,144445784
sw,-83.6259994506836,-77.2333221435546,35.835810548778106,-180.71730989644976,144462451
sw,-84.0850753784179,-74.1386413574218,32.65700450883538,-169.54293853277056,144479118
sw,-84.5685577392578,-71.2452011108398,30.541429350919476,-155.29272305231655,144495785
sw,-85.0021362304687,-68.7188339233398,29.398042707408706,-137.86934451140553,144512452
sw,-85.2234878540039,-66.6904907226562,29.02592123609021,-117.47575562638485,144529119
sw,-85.1673889160156,-65.3055953979492,29.142363876369632,-94.59504861316607,144545786
sw,-84.9784774780273,-64.5037765502929,29.410749939061752,-69.82714610432184,144562453
sw,-84.8216552734375,-63.9513206481933,29.46819465226566,-43.71479429470262,144579120
sw,-84.7505874633789,-63.5149002075195,28.962418622490045,-16.6904033051076,144595787
sw,-84.7211074829101,-63.5391197204589,27.60794129855283,10.798590030430402,144612454
sw,-84.6499099731445,-63.9877548217773,25.257514734016375,38.03646058954968,144629121
sw,-84.4959106445312,-64.6104888916015,21.96515094795575,63.7971572209062,144645788
sw,-84.2663269042968,-66.0825881958007,18.008717905294155,86.27788730399995,144662455
sw,-84.0413284301757,-68.0951232910156,13.850252365817001,103.31865471183687,144679122
sw,-83.9348907470703,-70.7254333496093,10.034269453968237,112.90133523795684,144695789
sw,-83.9688339233398,-73.2087478637695,7.046190981625286,113.79131266917845,144712456
sw,-84.0122756958007,-76.0050735473632,5.164801125805167,106.10071220530827,144729123
sw,-83.9674606323242,-78.2139816284179,4.340205028489477,91.5505548698818,144745790
sw,-83.8431167602539,-79.4148559570312,4.1168169529132905,73.28791511680419,144762457
sw,-83.843521118164,-80.0909118652343,3.6129643376458187,55.251542161423835,144779124
sw,-84.0370178222656,-80.0054244995117,1.5751649114658497,41.24125451139038,144795791
sw,-84.325698852539,-79.7452011108398,-3.4623893049419725,33.97631615529199,144812458
sw,-84.53955078125,-80.0045013427734,-12.889938421717702,34.45804856093665,144829125
sw,-84.6097335815429,-81.4744262695312,-27.62899414337599,41.8464494356888,144845792
sw,-84.680061340332,-83.3780670166015,-47.72933061810781,53.85705069938941,144862459
sw,-84.8666076660156,-84.3750686645507,-72.10508336175981,67.48805190643516,144879126
sw,-84.8791046142578,-85.0331573486328,-98.54910392390521,79.80543657580529,144895793
sw,-84.1192398071289,-85.7005386352539,-124.08207081191944,88.56837601929917,144912460
sw,-82.3111190795898,-86.1031799316406,-145.57086055196558,92.5938455882291,144929127
sw,-79.5716400146484,-85.9542160034179,-160.44389746919768,91.84678360349616,144945794
sw,-76.020278930664,-85.041763305664,-167.2846731361525,87.27663842389947,144962461
sw,-72.5205078125,-84.1301116943359,-166.11610021326862,80.44130185750245,144979128
sw,-70.9883270263671,-83.6751327514648,-158.28872234933468,73.00209012823264,144995795
sw,-69.4878387451171,-83.3782424926757,-146.02313250839384,66.23111108764002,145012462
sw,-67.7201690673828,-82.6023559570312,-131.77603281901818,60.6977052734223,145029129
sw,-66.010627746582,-81.4202041625976,-117.64123978213527,56.24772073117036,145045796
sw,-64.4403076171875,-80.1369400024414,-104.94587026518005,52.26456433735432,145062463
sw,-62.9010162353515,-78.9573211669921,-94.10296551789864,48.07299098896544,145079130
sw,-61.5608367919921,-78.1921463012695,-84.69581731893265,43.294297275119284,145095797
sw,-60.490493774414,-77.6694564819336,-75.72460632640151,38.01039859616477,145112464
sw,-59.4846153259277,-77.2643585205078,-65.93729665181513,32.70335830713257,145129131
sw,-58.4821548461914,-76.9781188964843,-54.176102211929745,28.03858679300577,145145798
sw,-57.8049926757812,-76.6399459838867,-39.682553989017855,24.607269768187667,145162465
sw,-57.6019020080566,-76.2148513793945,-22.314294605775572,22.73060266227161,145179132
sw,-57.6884765625,-75.6734390258789,-2.640949778004563,22.37872590052244,145195799
sw,-57.9350929260253,-75.1274108886718,18.094688283566295,23.20230949651545,145212466
sw,-58.4535865783691,-74.6933364868164,38.14894153039982,24.638711880194407,145229133
sw,-59.2916221618652,-74.2898406982421,55.57220086176676,26.046893617421468,145245800
sw,-60.607566833496,-73.8280258178711,68.59792911876447,26.838181493756387,145262467
sw,-62.1764488220214,-73.3564682006836,76.05969017790436,26.586089959256793,145279134
sw,-64.3619232177734,-72.880989074707,77.72583172942113,25.104704698083992,145295801
sw,-65.7023620605468,-72.367561340332,74.42565902206755,22.481718088119674,145312468
sw,-66.3702392578125,-71.8714065551757,67.88706247960997,19.04810700000237,145329135
sw,-67.2411804199218,-71.4991455078125,60.309972743158426,15.270782089951997,145345802
sw,-68.1176223754882,-71.2236785888671,53.80896099633854,11.572010112929426,145362469
sw,-68.5387573242187,-71.1776123046875,49.907486229189644,8.108595235205941,145379136
sw,-68.9998092651367,-71.3566207885742,49.23795856676714,4.575791990582834,145395803
sw,-69.8398971557617,-71.6410369873046,51.52431181906585,0.12042828289263288,145412470
sw,-71.501235961914,-71.9467620849609,55.82701217884499,-6.561900396998416,145429137
sw,-73.0813598632812,-72.188735961914,60.936987070809145,-16.9188818303183,145445804
sw,-74.0415573120117,-72.375991821289,65.75365023534239,-32.07552219653646,145462471
sw,-74.8878784179687,-72.6531600952148,69.51157958140216,-52.34602732433532,145479138
sw,-75.8848266601562,-73.3416519165039,71.81789376535629,-76.90659743702743,145495805
sw,-76.889289855957,-74.7975769042968,72.56045719542371,-103.78955249489884,145512472
sw,-78.1073226928711,-77.1688842773437,71.78465723693611,-130.25855321422537,145529139
sw,-79.4508743286132,-80.4073638916015,69.60868972772752,-153.476070400697,145545806
sw,-80.610855102539,-84.0557785034179,66.19279853922664,-171.24012916686416,145562473
sw,-81.5567855834961,-87.0275115966796,61.73890050613881,-182.51611019495672,145579140
sw,-82.2905502319336,-86.568977355957,56.49269313482022,-187.55878065585242,145595807
sw,-82.774658203125,-84.2820053100586,50.74026988433844,-187.58935578366857,145612474
sw,-83.2647171020507,-82.4303970336914,44.80797360725337,-184.18475022621774,145629141
sw,-83.7419204711914,-80.4990005493164,39.069261731578656,-178.65351670019663,145645808
sw,-84.1656112670898,-77.9107818603515,33.943211590250996,-171.65329106948226,145662475
sw,-84.5181655883789,-74.991714477539,29.86021197478773,-163.161921841309,145679142
sw,-84.9026870727539,-72.2006149291992,27.186285157701494,-152.73352047809706,145695809
sw,-85.3228683471679,-69.6502227783203,26.127237112295344,-139.85295357438736,145712476
sw,-85.6580123901367,-67.4838104248046,26.65168003924441,-124.20044160425218,145729143
sw,-85.8148422241211,-65.9076309204101,28.464574896977698,-105.73070790299381,145745810
sw,-85.8255233764648,-64.9650573730468,31.04027237141056,-84.59338527568892,145762477
sw,-85.7654342651367,-64.2797927856445,33.704407762023386,-61.009134502465464,145779144
sw,-85.7113037109375,-63.6121215820312,35.74576645133027,-35.23071060147158,145795811
sw,-85.6637878417968,-63.3942222595214,36.538638410600875,-7.656563367282534,145812478
sw,-85.5342788696289,-63.6994094848632,35.6566537099371,20.938623210023184,145829145
sw,-85.279426574707,-64.2196731567382,32.95848145623106,49.18015320899513,145845812
sw,-84.9606781005859,-65.3921661376953,28.62683148414824,75.02885644928095,145862479
sw,-84.6439361572265,-67.1370620727539,23.148386125956193,95.98587608299306,145879146
sw,-84.3520889282226,-69.4610595703125,17.232890829266196,109.57790359975398,145895813
sw,-84.2087097167968,-71.9771575927734,11.67951588971882,114.01539372291586,145912480
sw,-84.2133178710937,-74.4557571411132,7.204351231121041,108.8261939522256,145929147
sw,-84.2368698120117,-77.0297622680664,4.2476474780764555,95.24298063882969,145945814
sw,-84.2312240600586,-78.6761474609375,2.7886585303947204,76.17278479285672,145962481
sw,-84.3054275512695,-79.4746627807617,2.2098779415335352,55.68817175839479,145979148
sw,-84.540771484375,-79.4175643920898,1.2649050575080638,38.1322747792069,145995815
sw,-84.9073791503906,-79.0049591064453,-1.7945021601201443,27.083279580596432,146012482
sw,-85.2837448120117,-78.8258361816406,-8.898792139755221,24.50696938304881,146029149
sw,-85.47216796875,-79.6395568847656,-21.67098506342161,30.37467965998328,146045816
sw,-85.5782775878906,-81.4707336425781,-40.872097634867416,42.84407236301149,146062483
sw,-85.8820648193359,-82.7893905639648,-65.95879293837898,58.88330054785567,146079150
sw,-86.2497024536132,-83.3525924682617,-94.94118462991749,75.08503178156825,146095817
sw,-85.9507827758789,-84.0551223754882,-124.6514677799034,88.42246461121628,146112484
sw,-84.1561508178711,-84.7892532348632,-151.3920103108504,96.79857951111642,146129151
sw,-81.2249755859375,-85.3058090209961,-171.78641233475753,99.33720394536527,146145818
sw,-77.7910003662109,-85.0335159301757,-183.57310948731495,96.40852539819157,146162485
sw,-73.2015838623046,-84.2458572387695,-186.09263460410483,89.39476240466396,146179152
sw,-70.6930313110351,-83.6366577148437,-180.32047483537067,80.23326421889088,146195819
sw,-68.9360809326171,-83.3982391357421,-168.45172254974668,70.84271622697956,146212486
sw,-66.9223861694336,-82.9401702880859,-153.1962217787093,62.607755470223516,146229153
sw,-64.8004074096679,-82.0739974975586,-137.028122155029,56.10325005874558,146245820
sw,-62.9338493347168,-81.0588150024414,-121.61257302537692,51.148183930426576,146262487
sw,-61.1964111328125,-79.9381942749023,-107.53180875620716,47.13111365255217,146279154
sw,-59.6236038208007,-79.0681610107421,-94.32268842544508,43.43297689383105,146295821
sw,-58.4019775390625,-78.5034942626953,-80.76555277361676,39.75374378811002,146312488
sw,-57.4518508911132,-78.0347366333007,-65.33312877655476,36.22472106937582,146329155
sw,-56.601879119873,-77.653076171875,-46.70046749566881,33.30255990755417,146345822
sw,-56.0326385498046,-77.2809143066406,-24.216623464397717,31.53064205074735,146362489
sw,-55.9817810058593,-76.8155441284179,1.7588216575859967,31.2849151183609,146379156
sw,-56.4169692993164,-76.2620849609375,29.73833264330193,32.598960176981116,146395823
sw,-57.3004188537597,-75.5938415527343,57.25913521151484,35.113136301404076,146412490
sw,-58.2714385986328,-74.8587799072265,81.30663607003194,38.14226754764466,146429157
sw,-59.7032051086425,-74.1306533813476,98.95020428461973,40.82308782849237,146445824
sw,-62.5499382019043,-73.3939895629882,108.06815675244796,42.2917730613928,146462491
sw,-65.028823852539,-72.6469650268554,107.9736906756278,41.848137599289075,146479158
sw,-67.1287307739257,-71.9344863891601,99.72400232365065,39.076320184512525,146495825
sw,-68.1963806152343,-71.3438110351562,85.95557840937009,33.904059603652726,146512492
sw,-68.8582153320312,-70.8589782714843,70.24863810790961,26.591775131074307,146529159
sw,-69.3581314086914,-70.3799209594726,56.21071859828261,17.65018233045818,146545826
sw,-69.2504653930664,-70.0927505493164,46.58265772486715,7.693636204088951,146562493
sw,-69.4198608398437,-70.1843795776367,42.65761532061138,-2.750196443497209,146579160
sw,-70.4784240722656,-70.6451263427734,44.178835686031086,-13.432055754735472,146595827
sw,-72.306770324707,-71.3636169433593,49.69593538282993,-24.50819208539984,146612494
sw,-73.8173141479492,-72.165054321289,57.186935248697125,-36.53078531950483,146629161
sw,-74.6574554443359,-72.950439453125,64.67804315469347,-50.261363171345934,146645828
sw,-75.4856719970703,-73.6983871459961,70.6563036924513,-66.33658533266359,146662495
sw,-76.5269012451171,-74.4756164550781,74.22065953593389,-84.89602956118455,146679162
sw,-77.5831298828125,-75.6706924438476,75.04665158755148,-105.32930162591093,146695829
sw,-78.8809509277343,-77.6683120727539,73.27725377313399,-126.27793644645287,146712496
sw,-80.1540603637695,-80.7787628173828,69.40887987001297,-145.92889241873004,146729163
sw,-81.1041107177734,-84.2236251831054,64.1786880997335,-162.49927462794176,146745830
sw,-81.8830337524414,-87.2516326904296,58.430091924396436,-174.7111858733772,146762497
sw,-82.482421875,-87.5762634277343,52.950280723132664,-182.05769592895282,146779164
sw,-82.9264373779296,-84.9112319946289,48.310082521617275,-184.76944636959817,146795831
sw,-83.2372894287109,-82.3756332397461,44.756345175380304,-183.53895822463195,146812498
sw,-83.6047821044921,-80.1248703002929,42.19471832779316,-179.15963987075594,146829165
sw,-83.9751434326171,-77.508918762207,40.26704965453277,-172.24236444663418,146845832
sw,-84.3736724853515,-74.6859741210937,38.49393156344999,-163.09689015575483,146862499
sw,-84.7275695800781,-72.084243774414,36.43524806669649,-151.76280958152455,146879166
sw,-85.0113983154296,-69.7714767456054,33.82293958797247,-138.10813108286092,146895833
sw,-85.0853805541992,-67.7372436523437,30.633008055341797,-121.9156901384751,146912500
sw,-84.9199447631836,-66.0832366943359,27.079989754372818,-102.9309545649534,146929167
sw,-84.6780776977539,-64.9856491088867,23.53580607095247,-80.90270935039115,146945834
sw,-84.5527038574218,-64.2493667602539,20.39800545561561,-55.67291319777116,146962501
sw,-84.5808029174804,-63.737678527832,17.95480617023359,-27.351804509276242,146979168
sw,-84.6738739013671,-63.6010971069335,16.301853864201775,3.441860937661843,146995835
sw,-84.7076873779296,-63.8912162780761,15.345865038268663,35.3620415854135,147012502
sw,-84.6069030761718,-64.6624374389648,14.887509785690066,66.26447346905822,147029169
sw,-84.4142990112304,-66.2895812988281,14.733675911956261,93.39229203260285,147045836
sw,-84.1941757202148,-68.6172256469726,14.77495228927834,113.84757061469658,147062503
sw,-84.0155563354492,-71.3945388793945,14.986272364640582,125.26477856474622,147079170
sw,-83.9298858642578,-74.0685501098632,15.35023163305811,126.5026959792675,147095837
sw,-83.8993453979492,-77.0958404541015,15.737181095945655,118.12943622707607,147112504
sw,-83.7640762329101,-79.1155242919921,15.78896345798637,102.50921886834882,147129171
sw,-83.6235809326171,-80.0026931762695,14.84766017416581,83.40236970159614,147145838
sw,-83.5493469238281,-80.4677200317382,11.960044609827174,65.14004785566813,147162505
sw,-83.5783767700195,-80.4200820922851,5.981054236923418,51.59163165451187,147179172
sw,-83.7497863769531,-80.4534454345703,-4.210093259240531,45.24009372449217,147195839
sw,-83.9338226318359,-81.1565170288086,-19.394695301081484,46.65800242675512,147212506
sw,-84.041748046875,-82.533447265625,-39.66408830897835,54.52915137446393,147229173
sw,-84.3588562011718,-83.5052032470703,-64.150406176709,66.16050111875839,147245840
sw,-84.8639373779296,-84.1910705566406,-90.97013521736795,78.28089655989636,147262507
sw,-84.873908996582,-84.610610961914,-117.46073528305396,87.88334873757891,147279174
sw,-83.7906341552734,-84.5658874511718,-140.68501118345907,92.9096541691098,147295841
sw,-81.5571517944336,-83.9156951904296,-158.068887946563,92.64000531893764,147312508
sw,-78.7604293823242,-82.7833023071289,-167.9805975809077,87.71205542372228,147329175
sw,-75.1349334716796,-81.9883499145507,-170.0762221701069,79.77088567154628,147345842
sw,-72.3093185424804,-81.5864181518554,-165.312970373238,70.85487378320406,147362509
sw,-70.8107528686523,-81.4052505493164,-155.6347661201944,62.72228969060967,147379176
sw,-69.026985168457,-80.9312210083007,-143.43321786427003,56.35858645101747,147395843
sw,-66.9656372070312,-80.0282363891601,-130.9493179921457,51.83285745793606,147412510
sw,-65.1351165771484,-78.9025573730468,-119.78049485749553,48.51685999828115,147429177
sw,-63.608657836914,-77.8608932495117,-110.59948682675672,45.52399270027064,147445844
sw,-62.0823554992675,-77.1541595458984,-103.11754714898885,42.15292792160766,147462511
sw,-60.5599975585937,-76.6188354492187,-96.2693482706953,38.15866878809662,147479178
sw,-59.0783653259277,-76.1946945190429,-88.56094028665174,33.78291913209002,147495845
sw,-57.6277351379394,-75.9187850952148,-78.49448162391656,29.587214622517976,147512512
sw,-56.3479347229003,-75.630630493164,-64.96810367836298,26.196254634157057,147529179
sw,-55.672435760498,-75.2503662109375,-47.559005971951876,24.063692346493475,147545846
sw,-55.7553977966308,-74.767837524414,-26.636892477985743,23.334797218200393,147562513
sw,-55.8291435241699,-74.2591857910156,-3.3084769463367327,23.826640269639043,147579180
sw,-55.9484634399414,-73.7655258178711,20.76737311029562,25.10182950582385,147595847
sw,-56.5534477233886,-73.2646713256836,43.64881428632978,26.591244574230828,147612514
sw,-58.0576553344726,-72.8079528808593,63.43097408936235,27.72451774987802,147629181
sw,-59.4859771728515,-72.36328125,78.57891243314373,28.04260353907629,147645848
sw,-61.086555480957,-71.888427734375,88.2124515085441,27.281252582652215,147662515
sw,-62.8351745605468,-71.3739242553711,92.26939746697138,25.41974231362068,147679182
sw,-64.3128585815429,-70.8710327148437,91.49499524262514,22.68611507627937,147695849
sw,-65.4661178588867,-70.4140319824218,87.25287376184191,19.50562605052615,147712516
sw,-66.8858337402343,-70.0262222290039,81.20475025042185,16.382426248211935,147729183
sw,-68.0021286010742,-69.7657318115234,74.94413444569678,13.720736787452873,147745850
sw,-68.6964797973632,-69.664810180664,69.68254483945523,11.618157956272812,147762517
sw,-69.4494171142578,-69.6779251098632,66.07365712175445,9.690638971890525,147779184
sw,-70.7644729614257,-69.7544937133789,64.22066862135185,7.0026324278388605,147795851
sw,-72.6176223754882,-69.8785324096679,63.84417412481192,2.1648183624928565,147812518
sw,-73.9449157714843,-70.0244979858398,64.5141372304993,-6.379328379534338,147829185
sw,-74.6788330078125,-70.1553268432617,65.82217665552125,-19.92086982906272,147845852
sw,-75.3859252929687,-70.336929321289,67.42353714620684,-39.017447762417035,147862519
sw,-76.3363952636718,-70.826431274414,68.97764214344419,-63.146101392438354,147879186
sw,-77.3843994140625,-71.9180374145507,70.08372514715936,-90.62767679553943,147895853
sw,-78.7346878051757,-73.889045715332,70.29650096496935,-118.90222024179809,147912520
sw,-80.1394500732421,-76.9047775268554,69.23581912768594,-145.10881882086068,147929187
sw,-81.3097076416015,-80.5706176757812,66.73083362621578,-166.7887989823325,147945854
sw,-82.2246627807617,-83.9986114501953,62.91189569999113,-182.45545733825915,147962521
sw,-82.822525024414,-86.1476593017578,58.19453250744068,-191.81107614768482,147979188
sw,-83.1571350097656,-85.9553298950195,53.162495124651144,-195.54244976812492,147995855
sw,-83.4630737304687,-84.7459945678711,48.40672552070661,-194.81831218375143,148012522
sw,-83.7766036987304,-83.118293762207,44.386186412820614,-190.74007650605262,148029189
sw,-84.1245040893554,-80.5637283325195,41.34936913700503,-183.98949129375936,148045856
sw,-84.5447235107421,-77.4591522216796,39.31833290949211,-174.7835961151283,148062523
sw,-84.9439468383789,-74.4324417114257,38.115001866171596,-163.07294674163305,148079190
sw,-85.2490692138671,-71.6289596557617,37.40876445078706,-148.8054870037877,148095857
sw,-85.3058090209961,-69.3715209960937,36.775047165569916,-132.08151883279288,148112524
sw,-85.089370727539,-67.7411422729492,35.76286917406527,-113.1269792043933,148129191
sw,-84.7953414916992,-66.5710220336914,33.96982776844414,-92.1430135201179,148145858
sw,-84.5422821044921,-65.5038833618164,31.119033943269393,-69.17369278026973,148162525
sw,-84.3528823852539,-64.5199966430664,27.129105865770075,-44.126406903521506,148179192
sw,-84.2051239013671,-64.0141830444336,22.165221142332612,-16.988436484337154,148195859
sw,-84.0992050170898,-64.0900802612304,16.65446487952925,11.83757798785609,148212526
sw,-84.0023040771484,-64.4234619140625,11.245910358688272,41.24085276690233,148229193
sw,-83.8893585205078,-65.4880599975586,6.702763287162528,69.32233794624327,148245860
sw,-83.8191223144531,-67.4536437988281,3.7330795958426597,93.62813328935765,148262527
sw,-83.8547439575195,-70.030029296875,2.7903303991836044,111.67623634785903,148279194
sw,-83.9498748779296,-72.8073272705078,3.894139266621923,121.62928628798858,148295861
sw,-84.0119247436523,-75.6610870361328,6.524904552347374,122.8884403009053,148312528
sw,-83.9866027832031,-78.4308929443359,9.629505247839909,116.39137540200554,148329195
sw,-83.8328704833984,-79.8169403076171,11.744879169669208,104.4862257924212,148345862
sw,-83.6735229492187,-80.922622680664,11.217159551373472,90.39076262306875,148362529
sw,-83.6320037841796,-81.2932891845703,6.479354650044484,77.38997753491225,148379196
sw,-83.7862472534179,-81.6010437011718,-3.6499772384017755,68.0254567055335,148395863
sw,-84.0910415649414,-82.3715667724609,-19.68313149345931,63.5380277119705,148412530
sw,-84.4244079589843,-83.6270217895507,-41.23946406974255,63.72521133383887,148429197
sw,-84.8619537353515,-84.601089477539,-66.94409635360657,67.21184970767283,148445864
sw,-85.5147628784179,-85.4729461669921,-94.51984375121977,71.99356569965362,148462531
sw,-85.6797180175781,-85.8620910644531,-121.11409702010515,76.06009008017031,148479198
sw,-84.5289077758789,-85.6293334960937,-143.8276652535231,77.92813106454021,148495865
sw,-81.9572143554687,-85.0774612426757,-160.32062573614965,76.96438916285292,148512532
sw,-78.8108825683593,-84.1007385253906,-169.31327205008415,73.43583016807968,148529199
sw,-74.8468780517578,-83.3189239501953,-170.8169974420774,68.29085503802082,148545866
sw,-72.3760833740234,-82.8376312255859,-166.01868526523242,62.75052142757092,148562533
sw,-70.7878112792968,-82.5004653930664,-156.86453356469423,57.85309875914751,148579200
sw,-68.8042678833007,-81.861587524414,-145.49149833921285,54.115822797410026,148595867
sw,-66.6184768676757,-80.91455078125,-133.69031363304234,51.43122495995706,148612534
sw,-64.7478332519531,-79.9199752807617,-122.54117755410888,49.21393352111655,148629201
sw,-63.0758056640625,-78.8756027221679,-112.27849968788625,46.70866490658896,148645868
sw,-61.5037231445312,-78.0581588745117,-102.36948785533156,43.316441026957506,148662535
sw,-60.0696411132812,-77.3804397583007,-91.75602017395522,38.813325643705895,148679202
sw,-58.852195739746,-76.8997268676757,-79.19675615845625,33.40198964492831,148695869
sw,-57.7744522094726,-76.5505447387695,-63.64024172842518,27.61088571258231,148712536
sw,-56.9330558776855,-76.2357559204101,-44.55786922911232,22.105971659501748,148729203
sw,-56.6344718933105,-75.9434814453125,-22.172840592784116,17.492944145896743,148745870
sw,-56.9254493713378,-75.6669692993164,2.459549872651762,14.170053969785723,148762537
sw,-57.3544731140136,-75.3539505004882,27.537925420287387,12.259420910267723,148779204
sw,-57.9005165100097,-75.0829010009765,50.76060425759788,11.615186382356885,148795871
sw,-58.8792572021484,-74.9163665771484,69.70881124034159,11.889762504228162,148812538
sw,-60.6953353881835,-74.7630157470703,82.32476230667918,12.635425619197855,148829205
sw,-62.5815391540527,-74.4692611694336,87.40191965056938,13.420095732404018,148845872
sw,-64.4025573730468,-74.0533294677734,84.95890247589905,13.933854804987256,148862539
sw,-65.8259811401367,-73.6159591674804,76.36009628164352,14.054940195332746,148879206
sw,-66.6943283081054,-73.2195663452148,64.10318150437988,13.840965973684645,148895873
sw,-67.6503448486328,-72.9420623779296,51.297940941702755,13.426043254703881,148912540
sw,-68.0897064208984,-72.8011093139648,40.963199183082615,12.83904282016281,148929207
sw,-68.0709075927734,-72.7692108154296,35.33068760574342,11.799146188325613,148945874
sw,-68.2006912231445,-72.7476425170898,35.35290059192833,9.572090404660772,148962541
sw,-68.5929183959961,-72.8450851440429,40.5642498288167,4.968952811010483,148979208
sw,-69.8415832519531,-73.0570068359375,49.339980765802565,-3.4646516542388275,148995875
sw,-71.9623260498046,-73.2826690673828,59.45559946343965,-17.079971206362888,149012542
sw,-73.4399948120117,-73.5313415527343,68.73102004303269,-36.65769007882007,149029209
sw,-74.1122512817382,-73.9992446899414,75.52308022155849,-61.982621830863216,149045876
sw,-74.829360961914,-75.0015258789062,78.93329337563601,-91.62581572447468,149062543
sw,-75.8426437377929,-76.8562393188476,78.7597188779175,-123.06160761650035,149079210
sw,-77.1092910766601,-79.6626586914062,75.32949022061925,-153.141705679947,149095877
sw,-78.5662841796875,-83.3355026245117,69.3393978813667,-178.8059986767338,149112544
sw,-79.9018402099609,-86.9006042480468,61.74247709057854,-197.79209218655615,149129211
sw,-80.696044921875,-85.9937133789062,53.63776274817989,-209.0783364788591,149145878
sw,-80.9541244506836,-82.9279327392578,46.11122577627476,-212.89179477347042,149162545
sw,-81.0954971313476,-80.7568283081054,40.03349204739424,-210.30442955731158,149179212
sw,-81.4581756591796,-78.8467559814453,35.88439828090719,-202.63380314191616,149195879
sw,-81.9145889282226,-76.0416107177734,33.68501698875438,-190.94433402934513,149212546
sw,-82.3466567993164,-72.7835311889648,33.06626164129725,-175.8568094810686,149229213
sw,-82.7426147460937,-69.7467956542968,33.43567358073595,-157.67490204767333,149245880
sw,-83.2043685913086,-67.0249328613281,34.170562762389686,-136.66095620126916,149262547
sw,-83.7899398803711,-64.8962783813476,34.775833517185305,-113.24509061884459,149279214
sw,-84.2560119628906,-63.6814460754394,34.97310507664304,-88.03948015686552,149295881
sw,-84.4503021240234,-63.134521484375,34.71065683717199,-61.68045447472959,149312548
sw,-84.3861312866211,-62.7386360168457,34.10067304586159,-34.641843635403205,149329215
sw,-84.2584686279296,-62.4773254394531,33.31020188904289,-7.187792215394125,149345882
sw,-84.2044448852539,-62.6723327636718,32.451320455349375,20.450603345176052,149362549
sw,-84.2316360473632,-62.964988708496,31.517447397227834,47.735169765773165,149379216
sw,-84.2109146118164,-63.534912109375,30.388186592611607,73.50060076577962,149395883
sw,-84.0689849853515,-65.6415939331054,28.888632984755564,95.8684643292107,149412550
sw,-83.8797760009765,-68.1127243041992,26.86594097833683,112.52226253266006,149429217
sw,-83.7897186279296,-70.7015991210937,24.248752752542405,121.30566671724459,149445884
sw,-83.769546508789,-73.6806259155273,21.073782320656353,120.95053128422303,149462551
sw,-83.6836395263671,-76.6455459594726,17.477613362971056,111.67001194393285,149479218
sw,-83.5269165039062,-78.1940460205078,13.64979808434147,95.382921434887,149495885
sw,-83.3595275878906,-79.2424926757812,9.736697568741283,75.44722953266864,149512552
sw,-83.3755569458007,-79.671401977539,5.697227917119822,55.94193130229737,149529219
sw,-83.654426574707,-79.5052108764648,1.1503814120979998,40.700347845508595,149545886
sw,-84.0575637817382,-79.4035186767578,-4.702518776000808,32.400133796112534,149562553
sw,-84.5017471313476,-79.7283325195312,-12.990547360251004,32.00215280133796,149579220
sw,-84.8778381347656,-81.3283233642578,-24.882771378013224,38.694572590889734,149595887
sw,-85.1278610229492,-82.983901977539,-41.152127527377885,50.2996996436248,149612554
sw,-85.31884765625,-83.8861236572265,-61.7413603064792,63.94408825527494,149629221
sw,-85.337043762207,-84.4276123046875,-85.51236146776705,76.75567626430319,149645888
sw,-84.7324829101562,-84.8142776489257,-110.31135994198428,86.42387030159351,149662555
sw,-83.362922668457,-85.064224243164,-133.36736864998576,91.55707995846826,149679222
sw,-81.1380920410156,-84.944839477539,-151.91276952215264,91.82742029511643,149695889
sw,-78.3017578125,-84.2232818603515,-163.83143414042394,87.90201077649095,149712556
sw,-74.48291015625,-83.4269027709961,-168.13186523425185,81.16766181404438,149729223
sw,-72.0105895996093,-82.9315872192382,-165.10585829242683,73.29535883225002,149745890
sw,-70.4540405273437,-82.4666519165039,-156.1426202421536,65.75556659467588,149762557
sw,-68.6085815429687,-81.730484008789,-143.2867562545719,59.438425934858444,149779224
sw,-66.6163787841796,-80.9819946289062,-128.7050907249123,54.5077033972407,149795891
sw,-64.779052734375,-80.1079177856445,-114.2240125480271,50.524082372815045,149812558
sw,-63.1870040893554,-79.0736389160156,-101.03101484993277,46.762851892525475,149829225
sw,-61.8462295532226,-78.2019653320312,-89.55858107584046,42.58174646762421,149845892
sw,-60.6897277832031,-77.6067581176757,-79.5272192569955,37.69442642050995,149862559
sw,-59.6795845031738,-77.2008438110351,-70.11458474115398,32.26483940542306,149879226
sw,-58.6403503417968,-76.9272842407226,-60.21556511625793,26.822551630324767,149895893
sw,-57.7739067077636,-76.6307601928711,-48.74953498337589,22.06620803582388,149912560
sw,-57.1343841552734,-76.3075408935546,-34.95873622669191,18.64443046559707,149929227
sw,-56.8799858093261,-75.9390563964843,-18.637943467047304,16.983206921029453,149945894
sw,-57.0137939453125,-75.5513076782226,-0.24770301826709873,17.19015077021764,149962561
sw,-57.1901512145996,-75.2193908691406,19.11364956784347,19.034298625449356,149979228
sw,-57.5323028564453,-74.8993072509765,37.88145063083403,21.987366586618798,149995895
sw,-58.5583610534668,-74.5108413696289,54.32138858714024,25.31450508461585,150012562
sw,-60.1947593688964,-74.0242156982421,66.90409117010171,28.206603602102806,150029229
sw,-61.5838623046875,-73.5047836303711,74.67136261244417,29.94158174520641,150045896
sw,-63.1336059570312,-72.9258651733398,77.48417174240059,30.048262437213197,150062563
sw,-64.2973403930664,-72.2282409667968,76.06484925981799,28.430999315840808,150079230
sw,-65.2441940307617,-71.5150070190429,71.81349117700181,25.40587642218264,150095897
sw,-66.3575897216796,-70.9806823730468,66.456408712069,21.608740742564375,150112564
sw,-67.253791809082,-70.7080383300781,61.63506341951448,17.767708832221825,150129231
sw,-67.853271484375,-70.6698913574218,58.55307347136113,14.384995531116273,150145898
sw,-68.4779205322265,-70.7713623046875,57.7746488755071,11.42640308068367,150162565
sw,-69.6982192993164,-70.9381713867187,59.220344298874075,8.143615274250902,150179232
sw,-71.3923187255859,-71.0866775512695,62.338922549061884,3.133608427737398,150195899
sw,-72.6930999755859,-71.1512832641601,66.36495627146867,-5.330241635438905,150212566
sw,-73.4652252197265,-71.108413696289,70.54329758771219,-18.759943443875354,150229233
sw,-74.3345413208007,-71.1015167236328,74.24370576017098,-37.866979029835505,150245900
sw,-75.4955596923828,-71.4961395263671,76.9736103727338,-62.139334400795605,150262567
sw,-76.7553100585937,-72.6103286743164,78.35661839899245,-89.76743361875432,150279234
sw,-78.2354354858398,-74.7169723510742,78.13853989750177,-117.99617836644859,150295901
sw,-79.5899276733398,-77.9176406860351,76.23063045380873,-143.8172997795247,150312568
sw,-80.6379623413086,-81.5041427612304,72.75181228464268,-164.76495105555125,150329235
sw,-81.4499740600586,-84.6074066162109,68.02435294040097,-179.5151653089726,150345902
sw,-82.056411743164,-86.1638641357421,62.50989518298068,-188.06213164918938,150362569
sw,-82.4744186401367,-85.4610214233398,56.712901326639255,-191.42708512210808,150379236
sw,-82.818862915039,-84.0460586547851,51.093534157752636,-191.05773061606712,150395903
sw,-83.1700820922851,-82.3244857788086,46.0152885093994,-188.19326045791993,150412570
sw,-83.5173568725586,-79.8278427124023,41.72423414191822,-183.44939472282087,150429237
sw,-83.8514251708984,-76.8511657714843,38.340858998065926,-176.7436707877031,150445904
sw,-84.152961730957,-73.8004837036132,35.85099187285232,-167.5130426664349,150462571
sw,-84.3559036254882,-70.9158554077148,34.09901763590568,-155.06115023600412,150479238
sw,-84.4178390502929,-68.5213088989257,32.79784797682831,-138.85892902021203,150495905
sw,-84.3190078735351,-66.6565017700195,31.567688420596163,-118.69677966171037,150512572
sw,-84.1353607177734,-65.2929077148437,30.004225277418634,-94.6937538531522,150529239
sw,-83.9576568603515,-64.2219619750976,27.76609070625762,-67.24742037840143,150545906
sw,-83.8297805786132,-63.4025039672851,24.66592154147627,-37.02032615255749,150562573
sw,-83.7291488647461,-63.1390266418457,20.746291011278647,-5.007676208841541,150579240
sw,-83.6349334716796,-63.4636459350585,16.317851129222298,27.347934145541696,150595907
sw,-83.5501022338867,-64.1762237548828,11.935085823216998,58.08954180495404,150612574
sw,-83.4649353027343,-65.5160064697265,8.293074052874696,84.83409999260775,150629241
sw,-83.3846435546875,-67.5300369262695,6.050787712590578,105.08216223465773,150645908
sw,-83.380142211914,-70.1900177001953,5.616387250766264,116.73160890249162,150662575
sw,-83.462532043457,-72.8782653808593,6.953314631777274,118.67969619151111,150679242
sw,-83.4816665649414,-75.8606338500976,9.469091937962235,111.32320231986196,150695909
sw,-83.352912902832,-78.2753601074218,12.027191142029025,96.75105674492792,150712576
sw,-83.1225662231445,-79.3478393554687,13.085336218031419,78.4857453049797,150729243
sw,-82.9555282592773,-79.8433685302734,10.931101356853553,60.765854866293886,150745910
sw,-82.9398727416992,-79.7007369995117,3.974788130293081,47.538079396939885,150762577
sw,-83.0887985229492,-79.4023742675781,-8.932180428187195,41.469436870643946,150779244
sw,-83.2451248168945,-79.8292694091796,-28.180846716302653,43.31513826556497,150795911
sw,-83.4256286621093,-81.5935134887695,-53.13900499100947,51.85056417765397,150812578
sw,-83.788459777832,-82.9092559814453,-82.02397867095388,64.35445957896289,150829245
sw,-84.1276473999023,-83.6628341674804,-112.01897807000809,77.43635109235541,150845912
sw,-83.8555068969726,-84.40966796875,-139.69352935407895,87.92998805109066,150862579
sw,-82.1035537719726,-84.8869476318359,-161.68066713076803,93.62227368919802,150879246
sw,-79.2214126586914,-84.8385925292968,-175.4401735797052,93.67682888222808,150895913
sw,-75.4550094604492,-83.9611587524414,-179.8663857636559,88.68563721164037,150912580
sw,-71.9865417480468,-83.0997085571289,-175.52697208270374,80.34643367043553,150929247
sw,-70.6476974487304,-82.7039489746093,-164.44299976822828,70.84755634303933,150945914
sw,-69.0647964477539,-82.6800537109375,-149.489893148266,62.1440080960987,150962581
sw,-67.1118927001953,-82.4942855834961,-133.63335168105743,55.37577205180934,150979248
sw,-65.3143081665039,-81.6193695068359,-119.24521901387479,50.644761182216584,150995915
sw,-63.5748062133789,-80.5487213134765,-107.66792439119907,47.216987072086546,151012582
sw,-61.9519538879394,-79.4858856201171,-99.07835950749633,44.025342407719904,151029249
sw,-60.4649314880371,-78.667495727539,-92.61360052975903,40.22713283158749,151045916
sw,-59.173282623291,-78.0384750366211,-86.6833521996461,35.58048699371543,151062583
sw,-57.9505958557128,-77.6690902709961,-79.39026097473408,30.5182088863176,151079250
sw,-56.7337112426757,-77.4983139038086,-68.9858127549271,25.9392879718699,151095917
sw,-55.7036781311035,-77.3196258544921,-54.2922974386223,22.839690865175996,151112584
sw,-55.2574348449707,-77.0308761596679,-35.020685243200475,21.93668861082427,151129251
sw,-55.1924629211425,-76.6229858398437,-11.921178925272352,23.41169368982871,151145918
sw,-55.1212615966796,-76.1204681396484,13.27577051420281,26.833080293029546,151162585
sw,-55.4674263000488,-75.5247116088867,38.13919512280264,31.255159423615844,151179252
sw,-56.9333038330078,-74.8644561767578,60.009384056456,35.444630183451295,151195919
sw,-58.6984977722168,-74.1769790649414,76.57783101781618,38.166897621831346,151212586
sw,-60.5835342407226,-73.4745101928711,86.43206369283965,38.465016998532505,151229253
sw,-62.4014472961425,-72.7823486328125,89.39876964208595,35.87411302956845,151245920
sw,-63.8155975341796,-72.1282730102539,86.56582539782293,30.527540202402452,151262587
sw,-64.6418380737304,-71.6051940917968,79.97035081701095,23.12656477505287,151279254
sw,-65.7092361450195,-71.2279663085937,72.05523606403865,14.76571140662475,151295921
sw,-66.6924972534179,-71.0600814819336,65.06708622680719,6.634112124107911,151312588
sw,-67.4448928833007,-71.1619110107421,60.56952561942965,-0.3518918384488803,151329255
sw,-68.1175231933593,-71.4995651245117,59.19160736626148,-5.895506438150633,151345922
sw,-69.1111450195312,-71.9951095581054,60.65318671465343,-10.536164287966205,151362589
sw,-70.8048706054687,-72.5583877563476,64.02695546150511,-15.63621837138326,151379256
sw,-72.4774780273437,-73.0591659545898,68.12286720731431,-23.087183347003233,151395923
sw,-73.4443969726562,-73.3907318115234,71.844415894516,-34.77103823822601,151412590
sw,-74.2394866943359,-73.592170715332,74.40022805165819,-51.912400140901994,151429257
sw,-75.3041763305664,-74.0293045043945,75.3468317500772,-74.53271750083174,151445924
sw,-76.4618072509765,-75.2418594360351,74.52569742055373,-101.22354899564436,151462591
sw,-77.6532897949218,-77.5119857788086,71.98259609720894,-129.36659815522725,151479258
sw,-78.9329223632812,-80.6872406005859,67.92037957460732,-155.76246119140285,151495925
sw,-80.0034713745117,-83.9896697998046,62.68108634149438,-177.4574944030379,151512592
sw,-80.7888717651367,-85.9953231811523,56.72202362156951,-192.46706566004917,151529259
sw,-81.3251113891601,-84.7622833251953,50.55900314007942,-200.13683685859652,151545926
sw,-81.6954650878906,-82.4826354980468,44.68434863758746,-201.04361381229594,151562593
sw,-82.1086273193359,-80.650650024414,39.49494526372097,-196.53371740311636,151579260
sw,-82.5768890380859,-78.637092590332,35.260921530233176,-188.13288600697598,151595927
sw,-82.9707794189453,-76.0554580688476,32.133692654191464,-177.07503889562193,151612594
sw,-83.3040237426757,-73.3004455566406,30.164232641407636,-164.09262345440015,151629261
sw,-83.645751953125,-70.4367446899414,29.30461511724757,-149.4574526784495,151645928
sw,-84.0904083251953,-67.8626022338867,29.393090633781544,-133.1477279291671,151662595
sw,-84.4921646118164,-65.9240646362304,30.146469263911527,-114.99971195061805,151679262
sw,-84.7260818481445,-64.7394104003906,31.18202214520429,-94.77461194823111,151695929
sw,-84.796401977539,-63.8801040649414,32.07030697735707,-72.17575370321673,151712596
sw,-84.7832336425781,-63.0824241638183,32.40225008176433,-46.91544262662889,151729263
sw,-84.7805404663086,-62.7530403137207,31.852068402494684,-18.90955062465601,151745930
sw,-84.7957992553711,-62.8819732666015,30.22682814022256,11.415862058587111,151762597
sw,-84.7748336791992,-63.2065849304199,27.499901500959897,42.82529913584356,151779264
sw,-84.7007980346679,-64.3084716796875,23.823636931562138,73.15013960070003,151795931
sw,-84.5692825317382,-66.4222793579101,19.512943072969417,99.47310310953578,151812598
sw,-84.4432144165039,-68.6262893676757,14.994985732294206,118.64721453857784,151829265
sw,-84.4161605834961,-71.4645080566406,10.730374654208225,128.04573864104438,151845932
sw,-84.4934844970703,-74.3020248413086,7.119495573532764,126.34100209204809,151862599
sw,-84.5370712280273,-77.3380584716796,4.407335215945963,114.07335515712481,151879266
sw,-84.4772796630859,-79.5974884033203,2.5932024915412155,93.79974228363437,151895933
sw,-84.4396591186523,-80.6666641235351,1.3477622806130498,69.70465913332002,151912600
sw,-84.5233917236328,-80.7214431762695,-0.05063725026941,46.7141123998846,151929267
sw,-84.8308563232421,-80.2440643310546,-2.724395051526455,29.34038771063204,151945934
sw,-85.2936019897461,-79.8870315551757,-8.092793571924705,20.616630215731064,151962601
sw,-85.6936569213867,-80.0907897949218,-17.609401206335363,21.46760915272888,151979268
sw,-85.9515609741211,-81.4811553955078,-32.35303850156421,30.69335895798832,151995935
sw,-86.1059036254882,-83.142219543457,-52.57274770965401,45.50239865766006,152012602
sw,-86.0891418457031,-84.2537689208984,-77.35446111147434,62.34954920695682,152029269
sw,-85.4767608642578,-84.9906234741211,-104.57387135405112,77.79100789301127,152045936
sw,-83.8520965576171,-85.625747680664,-131.21332222680587,89.15144409828963,152062603
sw,-81.3814010620117,-86.2300720214843,-153.9854239842149,94.91950286193727,152079270
sw,-78.3236618041992,-86.2464752197265,-170.08506866349018,94.8691709145667,152095937
sw,-74.404312133789,-85.3369674682617,-177.8368845308396,89.9278555851896,152112604
sw,-70.6063232421875,-84.3304061889648,-177.03485603011185,81.81837728868113,152129271
sw,-69.0638427734375,-83.8108444213867,-168.87359520535125,72.53744705157801,152145938
sw,-67.2165451049804,-83.4283065795898,-155.51546557052637,63.79896326314358,152162605
sw,-65.0968017578125,-82.7126083374023,-139.46624500347733,56.61609413794346,152179272
sw,-63.1665802001953,-81.8908996582031,-122.97563998318017,51.16508736629774,152195939
sw,-61.4135589599609,-80.9263687133789,-107.61972625725932,46.962567442728925,152212606
sw,-59.824951171875,-79.8050537109375,-94.1176403486421,43.25588814161198,152229273
sw,-58.6058654785156,-78.9047088623046,-82.35634353443523,39.44587415421692,152245940
sw,-57.6650695800781,-78.1916809082031,-71.56867717802594,35.3683518325839,152262607
sw,-56.7357215881347,-77.8193893432617,-60.61188722159548,31.34110762685622,152279274
sw,-55.825870513916,-77.5786819458007,-48.298784437854906,27.99081757582381,152295941
sw,-55.216567993164,-77.2998504638671,-33.72805153183219,25.959290352293706,152312608
sw,-54.9588508605957,-76.9189376831054,-16.550952678765125,25.618006207799944,152329275
sw,-55.0599021911621,-76.4281845092773,2.8842962622724904,26.893574296438985,152345942
sw,-55.4452857971191,-75.8225326538086,23.546132049760246,29.248908395108028,152362609
sw,-55.9648399353027,-75.2094192504882,43.89439889209814,31.806934957633167,152379276
sw,-57.1676063537597,-74.6301116943359,62.18683879739674,33.566234583719535,152395943
sw,-59.1016197204589,-74.0050964355468,76.85411148411984,33.64519596164047,152412610
sw,-60.675796508789,-73.3326339721679,86.84781614732024,31.495083699135353,152429277
sw,-62.490062713623,-72.7663497924804,91.85656637845032,27.03320486809305,152445944
sw,-63.8169250488281,-72.3498229980468,92.32185854746294,20.661931094594642,152462611
sw,-64.973159790039,-72.0375747680664,89.260068878619,13.160046123410446,152479278
sw,-66.5083847045898,-71.8254470825195,83.96855780302194,5.460063320153057,152495945
sw,-67.7242050170898,-71.8567886352539,77.72410457862614,-1.6455631077221362,152512612
sw,-68.5125198364257,-72.1688003540039,71.56470664258357,-7.800045895162617,152529279
sw,-69.4161148071289,-72.6362152099609,66.20236436505836,-13.292269132994843,152545946
sw,-70.9293518066406,-73.2259826660156,62.063180505870264,-19.093983246388852,152562613
sw,-72.709114074707,-73.8089599609375,59.397172980087916,-26.668367144748007,152579280
sw,-73.6621398925781,-74.274787902832,58.36243794875949,-37.56055749970791,152595947
sw,-74.0599212646484,-74.6182098388671,59.00590285204065,-52.8673163579664,152612614
sw,-74.7339096069336,-75.1340866088867,61.14516475274577,-72.75639888875534,152629281
sw,-75.6181716918945,-76.2945785522461,64.24572985201272,-96.22538437750408,152645948
sw,-76.6140060424804,-78.4039535522461,67.41070025414109,-121.22686646203711,152662615
sw,-77.926773071289,-81.2974395751953,69.53953119000622,-145.15147002188542,152679282
sw,-79.3726806640625,-84.860122680664,69.61690291086,-165.50705768830488,152695949
sw,-80.7280578613281,-87.9038925170898,67.02126380307168,-180.5384237868855,152712616
sw,-81.7813110351562,-86.4416351318359,61.728876211725485,-189.5517195264656,152729283
sw,-82.3640670776367,-83.3135833740234,54.33533771665424,-192.84059512722175,152745950
sw,-82.6697692871093,-80.8339614868164,45.895266168959964,-191.29439906055907,152762617
sw,-82.9426498413086,-78.8608856201171,37.648599502853884,-185.90834703164148,152779284
sw,-83.234130859375,-76.2806167602539,30.727336752369382,-177.43580788455773,152795951
sw,-83.583755493164,-73.2605514526367,25.92049251955361,-166.31349087314035,152812618
