Label,Left_Hip_q,Right_Hip_q,Left_Hip_qd,Right_Hip_qd,SampleTimeFine
sq,37.4045280456543,26.0542549133301,-134.036779403686,-122.479438781738,1811071490
sq,35.2599395751953,24.0945838928223,-93.16843813421995,-73.15316563607345,1811088157
sq,33.7676834106445,22.925318145752,-88.27502071869316,-65.87795449050145,1811104824
sq,32.6362861633301,22.1010459899902,-84.43018516945709,-60.20522311794319,1811121491
sq,31.4098686218262,21.5668243408203,-82.41980762765331,-57.244057991978266,1811138158
sq,30.272730255127,21.1577362060547,-82.61202976846171,-57.39332119130815,1811154825
sq,29.0028022766113,20.228800201416,-84.9151422696212,-60.32925378671829,1811171492
sq,27.428736114502,18.8932060241699,-88.85483960318656,-65.21824224637143,1811188159
sq,25.9366363525391,17.5674880981445,-93.72428916974087,-71.04372761641889,1811204826
sq,24.4190467834473,16.4669174194336,-98.75155206561202,-76.91454593707657,1811221493
sq,22.8507141113281,15.1592697143555,-103.2455975569123,-82.26213597098818,1811238160
sq,21.3085731506348,13.7432846069336,-106.7050754444581,-86.89563863854404,1811254827
sq,19.5652450561523,12.5079330444336,-108.88624290896458,-90.93223821850204,1811271494
sq,17.6560195922852,11.0442527770996,-109.82639154184204,-94.64607909917629,1811288161
sq,15.9599060058594,9.44638290405273,-109.81767975982781,-98.28739128500656,1811304828
sq,14.2201141357422,8.02592697143555,-109.33255047610754,-101.92088154927337,1811321495
sq,12.4598869323731,6.44848861694336,-108.91307598171727,-105.32442394098639,1811338162
sq,10.7393135070801,4.89472808837891,-109.04383866630606,-107.9757245546793,1811354829
sq,8.97608032226563,3.02137603759766,-110.02859312434508,-109.13395130716331,1811371496
sq,7.19752349853516,1.36462249755859,-111.88913465471816,-107.99998196372617,1811388163
sq,5.38972320556641,-0.301942443847656,-114.30450401993735,-103.92133764906599,1811404830
sq,3.68600311279297,-1.97593841552734,-116.60958311769795,-96.59736067146997,1811421497
sq,1.93697967529297,-3.61403045654297,-117.86933682206038,-86.23264971694772,1811438164
sq,0.0404571533203129,-5.18942413330078,-117.03235733421762,-73.58465130519276,1811454831
sq,-1.840478515625,-6.63742218017578,-113.1452250320804,-59.865889429781326,1811471498
sq,-3.63376770019531,-7.67144165039062,-105.5863113621777,-46.500877763335524,1811488165
sq,-5.37144622802734,-8.27471313476562,-94.26336353345846,-34.79486610069753,1811504832
sq,-7.03625640869141,-8.44234619140625,-79.71730508148637,-25.620432780574625,1811521499
sq,-8.58154449462891,-8.53907928466797,-63.08762206868497,-19.236752256919363,1811538166
sq,-9.61507568359375,-8.71980438232422,-45.926357010925365,-15.310153151897168,1811554833
sq,-10.2612319946289,-9.06286010742187,-29.89455223595264,-13.120569243888353,1811571500
sq,-10.5885711669922,-9.62088165283203,-16.418780759028863,-11.858740565407972,1811588167
sq,-10.6815277099609,-10.1497970581055,-6.4034812615157914,-10.88541269403163,1811604834
sq,-10.6678024291992,-10.51064453125,-0.07785747294659653,-9.853821316795244,1811621501
sq,-10.5952850341797,-10.5444122314453,2.98683822648815,-8.67365486673951,1811638168
sq,-10.5826889038086,-10.3544631958008,3.7046132778815055,-7.375622475071794,1811654835
sq,-10.5831848144531,-10.198991394043,3.2033638784034095,-5.975719516858899,1811671502
sq,-10.6091094970703,-10.2238021850586,2.533651940114861,-4.417845498167285,1811688169
sq,-10.7187210083008,-10.4594512939453,2.4357097147745708,-2.611289656464598,1811704836
sq,-10.85,-10.7224670410156,3.221313811021471,-0.5187411072278542,1811721503
sq,-10.8288284301758,-10.85,4.790092607922969,1.7726073832702998,1811738170
sq,-10.6312271118164,-10.8129440307617,6.756668394214616,4.043110430600778,1811754837
sq,-10.3827529907227,-10.673616027832,8.631637505169975,5.998987473346751,1811771504
sq,-10.1639419555664,-10.4902893066406,9.99081582385577,7.364843478730728,1811788171
sq,-9.97641906738281,-10.3136306762695,10.585504562605896,7.967718588896959,1811804838
sq,-9.8340087890625,-10.1595703125,10.378514639536018,7.781907585028878,1811821505
sq,-9.7248779296875,-10.0493865966797,9.518573534207924,6.925776574905224,1811838172
sq,-9.60432586669922,-9.98512420654297,8.278972556838099,5.621297065952462,1811854839
sq,-9.4695068359375,-9.92136535644531,6.984863093475317,4.136775458002895,1811871506
sq,-9.33873901367187,-9.8701416015625,5.9445295747239895,2.7323246001946138,1811888173
sq,-9.21824035644531,-9.83344421386719,5.391670542477025,1.61984815598594,1811904840
sq,-9.13212738037109,-9.78964385986328,5.4429577510773415,0.940278643444242,1811921507
sq,-9.08722076416016,-9.751123046875,6.076973804128686,0.7548215436183575,1811938174
sq,-9.058984375,-9.73523864746094,7.142005205278384,1.0456669853133926,1811954841
sq,-8.97096405029297,-9.73581085205078,8.395949680579974,1.724026977621458,1811971508
sq,-8.80272827148437,-9.73173675537109,9.571036788760674,2.646388676776843,1811988175
sq,-8.58455047607422,-9.70635375976562,10.444566735210566,3.6402916568186,1812004842
sq,-8.36399993896484,-9.64457855224609,10.892399817048803,4.53771134119981,1812021509
sq,-8.17163238525391,-9.54657135009766,10.908405434926879,5.209279485136,1812038176
sq,-8.01405487060547,-9.43436584472656,10.587117719262794,5.589628932928751,1812054843
sq,-7.87716064453125,-9.32304534912109,10.080631366210536,5.685657719442598,1812071510
sq,-7.74572143554687,-9.23435363769531,9.547767815193989,5.565311592160033,1812088177
sq,-7.60649261474609,-9.15677795410156,9.11206607136995,5.331817262562918,1812104844
sq,-7.46175537109375,-9.10816345214844,8.838047784382164,5.0934681117958425,1812121511
sq,-7.31377563476562,-9.0422607421875,8.727052760884565,4.939528969823857,1812138178
sq,-7.16251525878906,-8.96970520019531,8.728266820209472,4.928539724203722,1812154845
sq,-7.01078186035156,-8.86746368408203,8.758639183895834,5.088778785525143,1812171512
sq,-6.87512359619141,-8.77302703857422,8.726537846864366,5.425562523953278,1812188179
sq,-6.74639282226562,-8.68039093017578,8.556431287832723,5.92885165458041,1812204846
sq,-6.61847076416016,-8.58375701904297,8.213583744383769,6.577027292211775,1812221513
sq,-6.49516448974609,-8.47720489501953,7.727438173346461,7.3364442564028804,1812238180
sq,-6.373681640625,-8.36927185058594,7.210184372019036,8.159315099185633,1812254847
sq,-6.24610290527344,-8.24964294433594,6.864280382677182,8.983649038577552,1812271514
sq,-6.10699615478516,-8.11834106445312,6.971187958583065,9.738219298393275,1812288181
sq,-5.959130859375,-7.96238861083984,7.855024369635627,10.353168184247968,1812304848
sq,-5.81170043945312,-7.78334197998047,9.820237919506146,10.773858918950875,1812321515
sq,-5.65516052246094,-7.59559020996094,13.07108917000401,10.973545507464873,1812338182
sq,-5.46057281494141,-7.41861877441406,17.629903191514675,10.960621942955388,1812354849
sq,-5.23317108154297,-7.25388488769531,23.276947431955616,10.778377951894544,1812371516
sq,-4.90918121337891,-7.09251556396484,29.534246166154308,10.497549527219917,1812388183
sq,-4.47142181396484,-6.9140869140625,35.70755092320753,10.202826834940861,1812404850
sq,-3.95353851318359,-6.72424468994141,40.98646210418713,9.974100713839505,1812421517
sq,-3.30029449462891,-6.55067596435547,44.58576783703815,9.86363214509992,1812438184
sq,-2.47289428710937,-6.39673767089844,45.89641135233817,9.873063701286764,1812454851
sq,-1.61560974121094,-6.28276977539062,44.60859357307655,9.93806582944464,1812471518
sq,-0.994294738769531,-6.16748199462891,40.77701132643082,9.929853536611555,1812488185
sq,-0.331582641601562,-6.00284729003906,34.81567698884102,9.678992546985093,1812504852
sq,0.3342041015625,-5.83270416259766,27.427003887243426,9.018898647306152,1812521519
sq,0.71292724609375,-5.6672607421875,19.480990503675816,7.838762467997343,1812538186
sq,1.06414642333984,-5.58578643798828,11.867864492594995,6.131983094179438,1812554853
sq,1.16860809326172,-5.48634490966797,5.353624360360919,4.026010443869483,1812571520
sq,1.15931549072266,-5.30830535888672,0.46894186947722843,1.780593894818284,1812588187
sq,1.16933288574219,-5.20712432861328,-2.5464215135484887,-0.2546389498761256,1812604854
sq,1.11222686767578,-5.22223052978516,-3.737958146459675,-1.721362660726637,1812621521
sq,1.10780181884766,-5.29620513916016,-3.381236591074509,-2.3534708990459734,1812638188
sq,1.11947479248047,-5.40239868164062,-1.8991531210576285,-2.064472377602995,1812654855
sq,1.04479827880859,-5.55592498779297,0.22683432411300794,-0.9866035978913693,1812671522
sq,1.00584259033203,-5.62898406982422,2.5370985475986885,0.5588543835085944,1812688189
sq,1.07080688476562,-5.60772857666016,4.657726262385573,2.1553636384815085,1812704856
sq,1.2172607421875,-5.48535308837891,6.341263751117226,3.4183553019836617,1812721523
sq,1.34801330566406,-5.32330474853516,7.478361135257624,4.110356428462991,1812738190
sq,1.44743957519531,-5.16301879882812,8.079877331009856,4.202455111997449,1812754857
sq,1.55505218505859,-5.07243499755859,8.238604118582266,3.862139586567451,1812771524
sq,1.64562835693359,-5.05619201660156,8.086880314330601,3.376941721770757,1812788191
sq,1.75114288330078,-5.08744201660156,7.7661029287036865,3.0472436076116347,1812804858
sq,1.88452758789062,-5.11045227050781,7.417277708982463,3.09008759806519,1812821525
sq,2.00414123535156,-5.08956298828125,7.192697341963585,3.587038874537679,1812838192
sq,2.10158386230469,-5.0241943359375,7.281611511775409,4.489643488759243,1812854859
sq,2.19189300537109,-4.93990478515625,7.938351211939934,5.67601756455102,1812871526
sq,2.36586608886719,-4.82687530517578,9.498496526208646,7.039188171370685,1812888193
sq,2.57686462402344,-4.71766052246094,12.367368524289073,8.583679922061421,1812904860
sq,2.82580413818359,-4.57936248779297,16.968413777908726,10.508505402934585,1812921527
sq,3.13246002197266,-4.424951171875,23.649654222681665,13.257910410327032,1812938194
sq,3.53700103759766,-4.191796875,32.5628237897457,17.523339610350646,1812954861
sq,4.02173461914063,-3.86483154296875,43.54685550154993,24.181577394851676,1812971528
sq,4.60219421386719,-3.37980804443359,56.058520772372994,34.15829230349861,1812988195
sq,5.36470642089844,-2.7146240234375,69.19179919302455,48.21793672762363,1813004862
sq,6.34964599609375,-1.91478881835938,81.80937084367955,66.70275392953421,1813021529
sq,7.58379211425781,-0.823213195800781,92.77536192384717,89.27267178179022,1813038196
sq,9.09084930419922,0.49356689453125,101.23662888315462,114.72505881418066,1813054863
sq,10.9592918395996,2.06977691650391,106.86533317018485,140.98566632266488,1813071530
sq,13.0377258300781,3.82787170410156,109.96667646092219,165.3446472184281,1813088197
sq,15.0751976013184,6.02466049194336,111.38766492156296,184.9506981492511,1813104864
sq,16.8706535339355,9.00469436645508,112.2352639574164,197.47239622658134,1813121531
sq,18.3179840087891,13.2030662536621,113.49907982158338,201.72416590957738,1813138198
sq,19.5934204101563,17.709440612793,115.72931769031,198.00926561840396,1813154865
sq,21.1005157470703,20.6821846008301,118.90653884725215,188.01829223207633,1813171532
sq,23.0121940612793,22.9165405273437,122.55302834551709,174.3151166161967,1813188199
sq,25.2724555969238,25.1420539855957,126.018325140405,159.62007569597998,1813204866
sq,27.712671661377,27.7616828918457,128.78700253326699,146.14736735967875,1813221533
sq,30.3880180358887,30.3286727905273,130.65189542378386,135.17295731470088,1813238200
sq,32.5417045593262,32.8057998657227,131.6755102688657,126.8998667274493,1813254867
sq,33.9320816040039,33.3308280944824,131.98479097468214,120.62224402767731,1813271534
sq,35.9013160705567,35.191374206543,131.53875478578175,115.14605539803624,1813288201
sq,37.5857414245606,38.3822864532471,130.01789590933933,109.35143034288562,1813304868
sq,39.6601776123047,40.3862976074219,126.90919948329815,102.70627719770867,1813321535
sq,41.9941390991211,42.1146053314209,121.754349195302,95.54820150513996,1813338202
sq,44.2097667694092,43.2495178222656,114.45249129178436,89.05876325523127,1813354869
sq,46.1709331512451,44.5241512298584,105.4953012290425,84.97499511179043,1813371536
sq,47.7367614746094,46.4893688201904,96.05353330611594,85.14018956202067,1813388203
sq,49.2891506195068,47.749515914917,87.89391033400884,91.0001312670193,1813404870
sq,50.5956024169922,48.9597515106201,83.14690451582119,103.15426935452005,1813421537
sq,52.1264003753662,50.3323215484619,83.96018361278723,121.0852670183958,1813438204
sq,53.7141918182373,51.6047157287598,92.07655918342286,143.1765477936354,1813454871
sq,55.3257392883301,52.9455331802368,108.39231399045336,167.04822395505133,1813471538
sq,56.3765567779541,57.249645614624,132.58442313850088,190.10672439562055,1813488205
sq,58.0292638778687,61.128569984436,162.91411074982233,210.08703668836782,1813504872
sq,61.6313737869263,64.4267572402954,196.287786269908,225.36752488034327,1813521539
sq,64.1088069915772,67.9596906840801,228.59669586087162,234.97648241683552,1813538206
sq,67.2373980522156,71.1003147602081,255.3033043089205,238.38689775654342,1813554873
sq,71.3191339015961,74.4571846961975,272.1992939286991,235.28711611169004,1813571540
sq,76.0238055229187,78.344149017334,276.2013033723528,225.48248295443778,1813588207
sq,81.0981067657471,81.9162878036499,265.99183783917704,208.97770335566366,1813604874
sq,85.885258102417,85.1470092773438,242.31474168569594,186.1847980112809,1813621541
sq,89.6919483184815,88.4234794616699,207.82756765536078,158.13955098825429,1813638208
sq,92.816166305542,91.4263385772705,166.55655846560103,126.59700860764579,1813654875
sq,95.1988929748535,93.7041439056397,123.11806535903891,93.91156063948053,1813671542
sq,97.0068916320801,95.1006969451904,81.91224458812138,62.68441381231127,1813688209
sq,98.1082061767578,95.927027130127,46.46233390366557,35.2542595952595,1813704876
sq,98.812618637085,96.3208164215088,19.000869632470593,13.172063965291823,1813721543
sq,99.1092323303223,96.4758266448975,0.32839217558734396,-3.18795157378634,1813738210
sq,99.1292671203613,96.0334686279297,-10.08874051560855,-14.76476993737359,1813754877
sq,99.0517353057861,95.6866249084473,-13.849204828212915,-23.640063284833577,1813771544
sq,98.8902019500732,95.2573265075684,-13.254674157832067,-32.580025397413834,1813788211
sq,98.733345413208,94.7347911834717,-10.925759683238454,-44.38247660777959,1813804878
sq,98.6081451416016,94.1420902252197,-9.448094238884087,-61.17925490062747,1813821545
sq,98.4409412384033,93.5004657745361,-11.078278394280506,-83.86882503238924,1813838212
sq,98.2090915679932,92.5808815002441,-17.52023904476533,-111.83649042987234,1813854879
sq,97.8906177520752,91.1911834716797,-29.772266357142065,-143.05423997733362,1813871546
sq,97.4063877105713,88.9028038024902,-48.04559341894783,-174.5456562774225,1813888213
sq,96.699617767334,85.8287986755371,-71.76285830303306,-203.08299001217446,1813904880
sq,95.7401546478272,82.0059970855713,-99.649215019165,-225.90182273406066,1813921547
sq,94.4011367797852,78.0035432815552,-129.91813036919854,-241.21582008095376,1813938214
sq,92.2805885314941,73.7585748672485,-160.52242975264775,-248.39800140797908,1813954881
sq,88.9037975311279,70.0681209802628,-189.403609510778,-247.83086503210654,1813971548
sq,85.7184471130371,66.7770718574524,-214.6656300623499,-240.5521548392513,1813988215
sq,82.5204986572266,62.9871477127075,-234.64929870583373,-227.87560586337028,1814004882
sq,79.2947229385376,59.4704488754272,-247.96229485329815,-211.12804617632204,1814021549
sq,75.8212329387665,55.9568904876709,-253.55842885611435,-191.55347193734005,1814038216
sq,71.6059392929077,53.0830911636353,-250.91501060562967,-170.34989315545047,1814054883
sq,67.1717757225037,50.0964588165283,-240.25945935224127,-148.7576971995391,1814071550
sq,62.9035943984985,47.2593730926514,-222.72215319776862,-128.11028326536857,1814088217
sq,59.2298873901367,45.2054542541504,-200.29765601364142,-109.78527006702424,1814104884
sq,56.0643505096436,43.7548564910889,-175.57357748846601,-95.05038356879795,1814121551
sq,53.274942779541,42.1642765045166,-151.2828586188339,-84.85524311878308,1814138218
sq,50.7671340942383,40.8514656066895,-129.8035894403145,-79.6467237212622,1814154885
sq,49.4791797637939,39.9020389556885,-112.75294341604214,-79.27478552536309,1814171552
sq,47.9761089324951,38.6874393463135,-100.79516427862424,-83.02239339591368,1814188219
sq,46.1159767150879,37.1333831787109,-93.708506445943,-89.75149636687102,1814204886
sq,44.3813346862793,35.571558380127,-90.658033558037,-98.12123314501585,1814221553
sq,42.8015293121338,34.1266159057617,-90.55249714127585,-106.821490677009,1814238220
sq,41.1868156433106,32.464868927002,-92.35891878126056,-114.77604275229143,1814254887
sq,39.6551879882813,30.5096534729004,-95.29494099743032,-121.2861045520557,1814271554
sq,38.1559318542481,28.4861206054687,-98.87974975775431,-126.09388786041782,1814288221
sq,36.5522560119629,26.3956436157227,-102.87329495032346,-129.3531039865887,1814304888
sq,35.0422882080078,24.4086669921875,-107.16126377621809,-131.50909361778994,1814321555
sq,33.5323852539063,22.2527603149414,-111.64806393145216,-133.11202104319307,1814338222
sq,31.7677520751953,20.067667388916,-116.20279264530897,-134.60282036925395,1814354889
sq,29.8440231323242,17.9670204162598,-120.67010322345868,-136.12053717245954,1814371556
sq,27.8414253234863,15.9446662902832,-124.92417488430617,-137.38318485356274,1814388223
sq,25.8130744934082,13.8412078857422,-128.92611010153234,-137.68890774967713,1814404890
sq,23.7334655761719,11.8861450195313,-132.74784546493473,-136.0623569636578,1814421557
sq,21.4329742431641,9.788916015625,-136.54181153402783,-131.53007427932292,1814438224
sq,19.3223709106445,7.57797088623047,-140.45674629641314,-123.45688849062974,1814454891
sq,17.1402381896973,5.19174041748047,-144.52095673811758,-111.83331372405382,1814471558
sq,14.8770202636719,3.11903228759766,-148.52836694015326,-97.3982288957077,1814488225
sq,12.4429878234863,1.31593933105469,-151.9642205041352,-81.52750805445751,1814504892
sq,10.0055679321289,0.111082458496094,-153.999248401278,-65.905667646782,1814521559
sq,7.69911804199219,-0.627351379394531,-153.5714458451079,-52.08569503033832,1814538226
sq,5.46221008300781,-1.17830047607422,-149.563286669899,-41.08926491291319,1814554893
sq,3.08417358398437,-1.57042083740234,-141.06008110637188,-33.183443330149736,1814571560
sq,0.712782287597657,-2.07015380859375,-127.63996669326387,-27.90104683756992,1814588227
sq,-1.49933013916016,-2.67401275634766,-109.61333981865768,-24.28444551853668,1814604894
sq,-3.50866088867187,-2.93505249023437,-88.12235491909658,-21.262424723089143,1814621561
sq,-5.07332763671875,-3.16833648681641,-65.04038366856297,-18.032725783811564,1814638228
sq,-6.08031616210937,-4.36686096191406,-42.66827006277073,-14.31766089959512,1814654895
sq,-6.71923980712891,-5.03437194824219,-23.286853691482403,-10.392385470513391,1814671562
sq,-7.17371520996094,-4.969873046875,-8.671876002518534,-6.868744149811274,1814688229
sq,-7.05772552490234,-4.59961853027344,0.30230345771147177,-4.332415322987868,1814704896
sq,-6.5443359375,-4.18030700683594,3.852568895843996,-3.009583202639651,1814721563
sq,-6.19306335449219,-3.982568359375,3.197634446951355,-2.6232637087960713,1814738230
sq,-6.18126068115234,-3.97084197998047,0.20033465552432062,-2.497385989318963,1814754897
sq,-6.55807647705078,-4.34056243896484,-3.148561564230567,-1.8416611344513452,1814771564
sq,-7.12527618408203,-4.83220062255859,-5.2320224526013055,-0.06839279712497995,1814788231
sq,-7.46567687988281,-5.03589019775391,-5.134208705253283,3.011133195282104,1814804898
sq,-7.40389404296875,-5.12384948730469,-2.718861863974605,7.194464415315228,1814821565
sq,-7.18925628662109,-4.857568359375,1.5101819447358327,12.083206029101522,1814838232
sq,-7.00359497070312,-4.42112884521484,6.6671885382046705,17.366030069629318,1814854899
sq,-6.82982025146484,-3.94981536865234,11.758312246764245,23.057693629012917,1814871566
sq,-6.68824157714844,-3.36142883300781,15.909186075361323,29.585826942644832,1814888233
sq,-6.52305755615234,-2.76025543212891,18.532465971907857,37.67957704111719,1814904900
sq,-6.32116088867187,-2.21820220947266,19.44797930142882,48.089434506502,1814921567
sq,-6.05079040527344,-1.621240234375,18.966918965816433,61.23054854552933,1814938234
sq,-5.72474822998047,-0.870301818847656,17.93229000407925,76.8725628631163,1814954901
sq,-5.32567749023437,0.178160095214844,17.68648251238845,93.98771855349398,1814971568
sq,-4.89967498779297,1.56612243652344,19.928145922411858,110.82111906419905,1814988235
sq,-4.40504608154297,3.2958740234375,26.433332123946396,125.18080975306053,1815004902
sq,-3.85506591796875,5.29769744873047,38.65089073858984,134.8814864611669,1815021569
sq,-3.22543487548828,7.42939987182617,57.23170326208846,138.22843225175478,1815038236
sq,-2.43492279052734,9.9998649597168,81.60075729117253,134.40516921583963,1815054903
sq,-1.39544067382813,12.7706893920898,109.71137873281232,123.63926296717456,1815071570
sq,-0.0398956298828121,15.2406829833984,138.11427485373966,107.08114631528717,1815088237
sq,1.73998107910156,16.1748336791992,162.419384506201,86.43874446038747,1815104904
sq,3.99488677978516,17.1179946899414,178.12654528970143,63.5185224548925,1815121571
sq,6.74806823730469,18.1385711669922,181.66811277836973,39.86063354225968,1815138238
sq,10.3042167663574,18.0074714660645,171.38073321152163,16.59414034106153,1815154905
sq,14.914533996582,18.5677322387695,148.0678575862882,-5.4833239406932375,1815171572
sq,17.6821617126465,19.5184577941895,114.89818384904673,-25.710241479620112,1815188239
sq,19.5262359619141,19.061922454834,76.61918160381526,-43.40282071737782,1815204906
sq,19.2360595703125,18.4162315368652,38.34899481426642,-57.83593589849792,1815221573
sq,19.3406242370605,17.0259574890137,4.380644989858155,-68.36226601050453,1815238240
sq,18.7709869384766,15.8932250976563,-22.607943205721064,-74.59096695250636,1815254907
sq,18.2266105651855,14.8884529113769,-41.75421726826035,-76.53770047325884,1815271574
sq,18.2525466918945,13.4563011169434,-53.68697393874946,-74.69282694932421,1815288241
sq,17.9952568054199,12.2288497924805,-59.91177884453639,-69.99146301109262,1815304908
sq,16.9466079711914,11.1152214050293,-62.172494701645476,-63.69247349413571,1815321575
sq,16.1204551696777,10.1489547729492,-61.97699214369738,-57.18999576643974,1815338242
sq,15.0787452697754,9.21953811645508,-60.359568582918705,-51.79380372484138,1815354909
sq,14.1706298828125,8.40673675537109,-57.86421096683985,-48.51967962617804,1815371576
sq,13.2448715209961,7.73818435668945,-54.68688120634727,-47.927319380349516,1815388243
sq,12.2564834594727,6.99437942504883,-50.89655845922081,-50.03378981932055,1815404910
sq,11.3035148620606,6.16725387573242,-46.65234248019125,-54.31676711370678,1815421577
sq,10.4680503845215,5.33029022216797,-42.34700989822671,-59.80633180291728,1815438244
sq,9.76465835571288,4.41654815673828,-38.63570542124376,-65.25114189026586,1815454911
sq,9.12630310058594,3.38732757568359,-36.344202013402054,-69.33543357516159,1815471578
sq,8.52840270996094,2.23745574951172,-36.28315629553896,-70.91538711698976,1815488245
sq,7.93905487060547,1.07833709716797,-39.01665006642657,-69.23702473881404,1815504912
sq,7.39185180664063,-0.0588470458984371,-44.6449257908175,-64.09620994430331,1815521579
sq,6.80590667724609,-1.09584197998047,-52.662935807893916,-55.90623005186658,1815538246
sq,6.09367218017578,-2.09530029296875,-61.945345724210206,-45.64865450541586,1815554913
sq,5.15679779052734,-2.97802886962891,-70.88275957847475,-34.69863579165578,1815571580
sq,4.07416381835938,-3.65131530761719,-77.65720739702277,-24.539887458057976,1815588247
sq,2.81127014160156,-4.00550231933594,-80.60735026798534,-16.418355428572568,1815604914
sq,1.45082702636719,-4.03074798583984,-78.6056922620096,-11.017546727271245,1815621581
sq,0.105360412597657,-3.88816223144531,-71.35781103657867,-8.252341927462906,1815638248
sq,-1.21669921875,-3.86092529296875,-59.540166474996084,-7.254188239907377,1815654915
sq,-2.3982177734375,-4.02818450927734,-44.7197570135438,-6.56099109746326,1815671582
sq,-3.31550750732422,-4.30849609375,-29.0459444047081,-4.456122880732746,1815688249
sq,-3.78098449707031,-4.57300720214844,-14.767590964277836,0.6429776156294997,1815704916
sq,-3.74258575439453,-4.62338409423828,-3.691475033149935,9.846951849582492,1815721583
sq,-3.34274444580078,-4.46593627929687,3.2668657119027955,23.573905364454628,1815738250
sq,-3.03348693847656,-4.05725250244141,6.306994758568934,41.46883636410529,1815754917
sq,-2.92170104980469,-3.36534271240234,6.682830673851085,62.454179416271344,1815771584
sq,-3.02868804931641,-2.35382995605469,6.394885603037687,84.88978086966222,1815788251
sq,-3.20375213623047,-1.06439361572266,7.745214303141113,106.82062518558519,1815804918
sq,-3.21579132080078,0.483305358886719,12.880448801455714,126.29134156881709,1815821585
sq,-2.95169982910156,2.39244689941406,23.411797913664913,141.6966708360074,1815838252
sq,-2.45320281982422,4.72521820068359,40.14537232123732,152.11287610356476,1815854919
sq,-1.66594085693359,7.30993118286133,62.91838230844925,157.52621076335691,1815871586
sq,-0.609284973144531,10.1980842590332,90.53386471391664,158.86261539249654,1815888253
sq,0.722700500488282,13.3535102844238,120.80983683114515,157.75116659941602,1815904920
sq,2.38540496826172,16.0024208068848,150.7826645804424,156.0335089568779,1815921587
sq,4.46722259521484,17.9653839111328,177.10171459009877,155.14390342481272,1815938254
sq,6.99304809570313,19.5626396179199,196.6073604889867,155.57254498942268,1815954921
sq,10.1526130676269,21.8929313659668,207.00272686411873,156.62306232872055,1815971588
sq,14.0671028137207,24.6087631225586,207.44302182568842,156.57156792867772,1815988255
sq,18.3132385253906,27.179239654541,198.82805388399024,153.19230506375698,1816004922
sq,21.9141983032227,29.4894889831543,183.6416682676299,144.51285359627175,1816021589
sq,24.6146987915039,31.887907409668,165.33593443847437,129.62419375118296,1816038256
sq,26.8716796875,34.0096458435059,147.43941613538112,109.36981399750962,1816054923
sq,28.5554870605469,35.9164985656738,132.6818638525867,86.74664436026418,1816071590
sq,30.3516754150391,37.5387596130371,122.41775923804566,66.86846115745948,1816088257
sq,31.9620307922363,38.9251026153564,116.5140075844414,56.38088328959885,1816104924
sq,33.7742294311523,40.1535209655762,113.70160917884591,62.28485121992762,1816121591
sq,35.8136810302734,42.3529914855957,112.23959848896176,90.23229690029704,1816138258
sq,38.6013130187988,44.558203125,110.65064491692753,142.52056780212123,1816154925
sq,40.5872863769531,46.7175773620606,108.29315660764205,216.2350444375969,1816171592
sq,41.859379196167,48.2357677459717,105.62908791732073,302.21108450676326,1816188259
sq,43.0153450012207,49.468244934082,104.16744804367826,385.5534123913396,1816204926
sq,45.3286804199219,53.361971282959,106.13217823269535,448.18507265210104,1816221593
sq,47.9190658569336,57.3872817993164,113.91036469384755,473.2236307162959,1816238260
sq,49.492321395874,60.8947037696838,129.3525400546654,450.02607516419744,1816254927
sq,50.8554462432861,97.329162979126,153.06687301817365,377.94853513892997,1816271594
sq,52.97253074646,96.1385692596436,183.92077941324482,266.97198847536384,1816288261
sq,55.2611946105957,94.7517951965332,218.95024593772308,134.72324446997504,1816304928
sq,58.9954875946045,92.660576248169,253.7620990717049,1.2630108673893123,1816321595
sq,62.6248516082764,90.9610847473145,283.35614767250485,-116.0919439847432,1816338262
sq,67.4404863357544,88.4520133972168,303.1590567433756,-206.1595811534869,1816354929
sq,73.0862201988697,85.3046955108643,309.98761922389605,-264.90541206889884,1816371596
sq,78.8919352531433,81.6850666046143,302.66921009709324,-294.4358165636839,1816388263
sq,83.899174118042,77.9108366012573,282.15588347129574,-300.7939052638059,1816404930
sq,87.8050378799439,73.9941348075867,251.14664987792386,-291.45393927659813,1816421597
sq,91.3590759277344,70.4274140834808,213.39359272935536,-273.24041120087526,1816438264
sq,94.9110206604004,66.5072101593018,172.9286592970568,-251.0963732634719,1816454931
sq,97.5193542480469,62.0245560646057,133.40364109702048,-227.78800358016218,1816471598
sq,99.4431957244873,58.2652105331421,97.64790617790119,-204.35094974325818,1816488265
sq,100.876453781128,54.8542531967163,67.47065333259668,-180.9260235231941,1816504932
sq,102.166693115234,51.2448524475098,43.676888849985176,-157.60719872358646,1816521599
sq,103.018003845215,48.1064552307129,26.226236296333084,-135.00046874567283,1816538266
sq,103.497520828247,45.0421890258789,14.450285869451092,-114.33821479220549,1816554933
sq,103.743250274658,44.393522644043,7.26212632744981,-97.18331992640293,1816571600
sq,103.835819625854,43.5069965362549,3.3258844163470163,-84.92458829264989,1816588267
sq,103.884693527222,42.1504348754883,1.1832192000918171,-78.32191086508891,1816604934
sq,103.934294128418,40.8772605895996,-0.6514292716254033,-77.28236304529817,1816621601
sq,103.869087600708,39.9383625030518,-3.611039929071749,-80.90988374513427,1816638268
sq,103.773685836792,38.1740345001221,-8.997068817902829,-87.76140779661313,1816654935
sq,103.609125518799,36.6209014892578,-17.891588963750003,-96.19515333972541,1816671602
sq,103.291983032227,35.1830657958984,-31.059609570067924,-104.70245500871494,1816688269
sq,102.795988464356,33.4470161437988,-48.85204027231422,-112.15140318454013,1816704936
sq,102.081255340576,31.5351470947266,-71.12955596771506,-117.9129436661536,1816721603
sq,101.057819747925,29.6496528625488,-97.23061545264446,-121.87099265839774,1816738270
sq,99.6295780181885,27.8218978881836,-125.99828190954189,-124.33769194371506,1816754937
sq,97.4141258239746,25.8327774047852,-155.86095022604306,-125.90651009501629,1816771604
sq,94.6260475158691,23.811190032959,-184.94446299508863,-127.27713796878373,1816788271
sq,91.55114402771,21.7737411499023,-211.1975528858202,-129.0783450374354,1816804938
sq,88.6355709075928,19.6435188293457,-232.5432283483048,-131.70676435572042,1816821605
sq,85.5364727020264,17.5251792907715,-247.09488499631763,-135.19800323870527,1816838272
sq,81.5783142089844,15.4394859313965,-253.45330492996152,-139.15103297834023,1816854939
sq,76.8528300762177,13.2780975341797,-251.0260563820523,-142.73106648747492,1816871606
sq,72.2110274076462,11.0387023925781,-240.244706967057,-144.77249359248842,1816888273
sq,68.5213402748108,8.89509811401367,-222.567404225274,-143.9879013996753,1816904940
sq,65.2156843185425,6.71476974487305,-200.24511831857035,-139.26203043522986,1816921607
sq,62.2108692169189,4.48407974243164,-175.92738224384675,-129.97375343717513,1816938274
sq,59.2846836090088,2.06896820068359,-152.22257069625127,-116.25491466393905,1816954941
sq,56.6613697052002,-0.332215881347656,-131.3101394481841,-99.08455496100846,1816971608
sq,55.0004524230957,-2.00023040771484,-114.67054848997023,-80.15402306952679,1816988275
sq,53.3388275146484,-2.94165191650391,-102.97484561734836,-61.51898176170668,1817004942
sq,51.6822189331055,-3.77200469970703,-96.14649298047188,-45.13644907864672,1817021609
sq,50.0316165924072,-4.52455291748047,-93.56254571293789,-32.4218009575435,1817038276
sq,48.3531707763672,-4.98027954101562,-94.31884715114992,-23.944107820059127,1817054943
sq,46.6902145385742,-5.07711944580078,-97.47202919999388,-19.335733593150042,1817071610
sq,45.1085380554199,-5.07940063476562,-102.19575054563856,-17.444099867632357,1817088277
sq,43.4631256103516,-5.28399047851562,-107.8329569499616,-16.696059047212497,1817104944
sq,41.7644294738769,-5.84559020996094,-113.86763884628701,-15.577618675535556,1817121611
sq,40.1252922058106,-6.54676971435547,-119.86356977508746,-13.079890475908474,1817138278
sq,38.2711662292481,-7.03894958496094,-125.41873108850834,-8.963119341815332,1817154945
sq,36.2413047790527,-7.26853332519531,-130.1656942090574,-3.75585240507854,1817171612
sq,34.1701644897461,-7.18438873291016,-133.8205059451384,1.4936193216144498,1817188279
sq,32.0488952636719,-7.0208984375,-136.25863587291133,5.610207457478924,1817204946
sq,29.7945617675781,-6.71634063720703,-137.58364779881222,7.68804487515132,1817221613
sq,27.486971282959,-6.3550048828125,-138.152710436868,7.363753911179353,1817238280
sq,25.2427200317383,-6.08561859130859,-138.53201150722998,4.8952574862452725,1817254947
sq,22.9595664978027,-6.05673370361328,-139.37401239083056,1.0457208406823573,1817271614
sq,20.6761077880859,-6.22433624267578,-141.23349776763374,-3.162830687975334,1817288281
sq,18.5069679260254,-6.47747955322266,-144.36368772712032,-6.725871818088065,1817304948
sq,16.2853759765625,-6.70889434814453,-148.5498035934625,-8.868121930088629,1817321615
sq,14.0587219238281,-6.88853607177734,-153.03828235949666,-9.136554986129902,1817338282
sq,11.727278137207,-6.98881683349609,-156.60113450553402,-7.37363458672199,1817354949
sq,9.29527893066406,-7.0114990234375,-157.73954851139777,-3.6118984671649006,1817371616
sq,6.619482421875,-6.97847137451172,-154.98981757687142,2.051129252266075,1817388283
sq,3.94425048828125,-6.89115295410156,-147.26426572024096,9.54562261610927,1817404950
sq,1.83622589111328,-6.72551116943359,-134.15181913642965,18.86041176426595,1817421617
sq,-0.194001770019531,-6.43021545410156,-116.1119292386477,30.009307487298695,1817438284
sq,-2.50003967285156,-5.95855102539062,-94.50531718376226,42.950446846461034,1817454951
sq,-4.41936645507812,-5.26314697265625,-71.41626514087244,57.4875912483354,1817471618
sq,-5.92114410400391,-4.32566223144531,-49.26036369838527,73.1864211271238,1817488285
sq,-6.34662017822266,-3.19200286865234,-30.252772554152287,89.33956751752373,1817504952
sq,-6.09855804443359,-1.93103942871094,-15.898637650139335,105.01151789791037,1817521619
sq,-5.82689819335937,-0.490892028808593,-6.691021699797037,119.18211491410753,1817538286
sq,-5.91412506103516,1.24525299072266,-2.125475564092771,130.9759924848337,1817554953
sq,-6.33783111572266,3.43782653808594,-1.0005011083329973,139.91520672767652,1817571620
sq,-6.82023010253906,6.29553833007812,-1.8553129452334,146.08532557158057,1817588287
sq,-7.05484924316406,9.36397018432617,-3.367396825919653,150.10242701872954,1817604954
sq,-7.06700286865234,11.8530906677246,-4.593103734889561,152.84205245633495,1817621621
sq,-6.9734130859375,13.6587928771973,-5.0305667934685605,155.02277921641365,1817638288
sq,-6.94243011474609,15.2268394470215,-4.555261056652918,156.84691678109837,1817654955
sq,-7.00381622314453,17.2380279541016,-3.2987515446016498,157.90026572033574,1817671622
sq,-7.09247741699219,19.780729675293,-1.5237778732864762,157.3822373078218,1817688289
sq,-7.09186706542969,22.9132293701172,0.47795189450062153,154.55104818833237,1817704956
sq,-7.02243194580078,26.345068359375,2.457238757228299,149.14267784607807,1817721623
sq,-6.97093353271484,29.5154022216797,4.249739731199637,141.53857631300693,1817738290
sq,-6.97060546875,31.4072937011719,5.797945159042283,132.6122646589219,1817754957
sq,-6.94549713134766,32.2508605957031,7.166776203713073,123.38347103343246,1817771624
sq,-6.85193786621094,33.411848449707,8.564925450436967,114.71305326131237,1817788291
sq,-6.72342834472656,35.9811386108398,10.373105257797599,107.20786969565002,1817804958
sq,-6.54732666015625,37.9833606719971,13.165485972301322,101.33418160832362,1817821625
sq,-6.29312286376953,39.693062210083,17.699385802067084,97.60295894574618,1817838292
sq,-5.91870269775391,41.706734085083,24.84568185706356,96.67358554555096,1817854959
sq,-5.39613494873047,43.0883354187012,35.440946611328734,99.29560478543668,1817871626
sq,-4.71540985107422,44.6242870330811,50.063412095974556,106.10024381036219,1817888293
sq,-3.87056121826172,46.495157623291,68.76714774208503,117.32031883552506,1817904960
sq,-2.88598785400391,48.2951892852783,90.84468355651207,132.54997561492334,1817921627
sq,-1.66897735595703,49.6641983032226,114.71296997408298,150.65748630114396,1817938294
sq,-0.179925537109375,50.9026969909668,138.01346539517797,169.9231862160605,1817954961
sq,1.72319641113281,55.3414644241333,157.97244935223566,188.3767014789314,1817971628
sq,4.09213104248047,58.583648109436,171.98491630632944,204.19441328934016,1817988295
sq,7.00107421875,62.0114935874939,178.2861050396456,215.98303331888167,1818004962
sq,10.5944122314453,65.3221723079681,176.49844390896033,222.85676129644506,1818021629
sq,14.3021224975586,68.6309094667435,167.83664003037387,224.341932402445,1818038296
sq,17.2265075683594,72.086644077301,154.85051711177462,220.2188498611611,1818054963
sq,19.3286804199219,75.5730237007141,140.76085905184712,210.40887881354297,1818071630
sq,20.7442764282227,78.5724824905396,128.61271173207268,194.96590561079526,1818088297
sq,22.3317817687988,81.7340272903442,120.53672056063091,174.1680729091524,1818104964
sq,24.2289375305176,84.7886909484863,117.3394436753645,148.64749639229885,1818121631
sq,26.5113204956055,87.6364902496338,118.49482956063125,119.4625140614933,1818138298
sq,27.8970054626465,89.6881107330322,122.4728346658044,88.03203392129303,1818154965
sq,29.8256973266602,90.8417304992676,127.26542520938976,55.915476118836885,1818171632
sq,32.842497253418,91.6497253417969,130.94514822664712,24.49836442437683,1818188299
sq,35.0914100646973,92.0469573974609,132.10543645036057,-5.311277706138563,1818204966
sq,37.1839012145996,92.2001441955566,130.09567203400562,-33.26867455279154,1818221633
sq,38.788313293457,90.2698863983154,125.0630449174203,-59.78013949409307,1818238300
sq,40.3747619628906,89.6646389007568,117.88513987013131,-85.66699276253074,1818254967
sq,42.2818435668945,88.7848094940186,110.07057800817074,-111.76510365715494,1818271634
sq,44.3960098266601,87.3571723937988,103.63537272488355,-138.5008367612583,1818288301
sq,46.3762134552002,85.2511867523193,100.8962439793513,-165.5987300448747,1818304968
sq,48.4861930847168,82.4522651672363,104.11794780448041,-192.01148791000125,1818321635
sq,50.00471534729,79.4900278091431,115.01906632616338,-216.07198083100693,1818338302
sq,51.2512077331543,76.2844728469849,134.23676344975644,-235.80188103093056,1818354969
sq,53.2569087982178,71.9090296268463,160.9121312867838,-249.28160113869933,1818371636
sq,56.283659362793,67.4989336967468,192.54931769438573,-254.9864653787076,1818388303
sq,58.5976909637451,63.6279357910156,225.24254495013085,-252.0310360503922,1818404970
sq,61.0693239212036,60.3727559089661,254.28581498023172,-240.32558777709647,1818421637
sq,65.6241854667664,56.7968734741211,275.07509362577105,-220.68271451022977,1818438304
sq,71.1655112743378,52.6688112258911,284.08443763968705,-194.87525711429421,1818454971
sq,76.3358205795288,49.1587337493896,279.61952982296003,-165.5728062638407,1818471638
sq,80.9541219711304,46.0717796325684,262.1103070429233,-136.05821433991454,1818488305
sq,85.0631288528442,43.1096939086914,233.88304602489308,-109.69700003756847,1818504972
sq,88.3779291152954,42.5306247711182,198.54035992113523,-89.27026802082601,1818521639
sq,91.1313957214356,42.172102355957,160.17665301806713,-76.3959342303574,1818538306
sq,93.6739448547363,41.0732425689697,122.64564626212902,-71.26110278739468,1818554973
sq,95.7348197937012,39.2639717102051,89.01687060802604,-72.75452081406299,1818571640
sq,97.1129764556885,38.359997177124,61.26994129051674,-78.91414855865476,1818588307
sq,97.9453796386719,36.6747020721436,40.21791941922479,-87.50374688016531,1818604974
sq,98.5338691711426,34.9770454406738,25.62344409832878,-96.53390658965878,1818621641
sq,99.0644763946533,33.509748840332,16.453335244835408,-104.60534379516415,1818638308
sq,99.4474681854248,31.7172492980957,11.201711003840819,-111.03050098456418,1818654975
sq,99.7062019348145,29.9950965881348,8.208546886467591,-115.75743485811203,1818671642
sq,99.8728507995606,28.2466339111328,5.917440447518508,-119.16303218917689,1818688309
sq,99.9392150878906,26.3957275390625,3.0455140884455063,-121.7974112081105,1818704976
sq,99.9694370269775,24.579874420166,-1.3348660502321883,-124.15304329737988,1818721643
sq,99.9554294586182,22.6679100036621,-7.787667038672667,-126.50788542880139,1818738310
sq,99.8475593566895,20.5135368347168,-16.558832920202814,-128.8605500232121,1818754977
sq,99.593021774292,18.4387344360352,-27.657063769875247,-130.9487428574804,1818771644
sq,99.1445430755615,16.4177574157715,-40.950425045721026,-132.3288136140583,1818788311
sq,98.4862674713135,14.3261131286621,-56.257397392530805,-132.4928799165737,1818804978
sq,97.5769866943359,12.1622566223144,-73.4091396646413,-131.0008438527277,1818821645
sq,96.3073905944824,10.0303215026856,-92.26079008571806,-127.60217161421788,1818838312
sq,94.712650680542,8.00078430175781,-112.63682719226078,-122.32035356466922,1818854979
sq,92.8164028167725,5.97510757446289,-134.21260663084055,-115.47637745184704,1818871646
sq,90.6511405944824,4.09243621826172,-156.36173080039632,-107.6364046975965,1818888313
sq,88.2718795776367,2.23829498291016,-178.02947396784546,-99.48232713521969,1818904980
sq,85.7152227401733,0.517927551269532,-197.71023576308446,-91.6239647917925,1818921647
sq,83.060195350647,-0.901177978515625,-213.59294870907388,-84.39922718664931,1818938314
sq,79.6091422080994,-1.94598541259766,-223.88201557479303,-77.7352347349709,1818954981
sq,75.7517992496491,-2.74577484130859,-227.21745099078797,-71.14836601489006,1818971648
sq,71.3944732189179,-3.69661102294922,-223.0520596472169,-63.9231897570515,1818988315
sq,67.7140292167664,-4.91108093261719,-211.84526542986495,-55.4313789177451,1819004982
sq,64.5185960769653,-6.21488342285156,-195.0098672412909,-45.46922141073985,1819021649
sq,61.688423538208,-7.41732940673828,-174.6490129353265,-34.45857573302096,1819038316
sq,59.0873760223389,-8.22142944335937,-153.1799952841784,-23.400392897801954,1819054983
sq,56.0892967224121,-8.59385070800781,-132.93802093911162,-13.576393137322945,1819071650
sq,53.8774188995361,-8.45179901123047,-115.82393635468539,-6.111782055059022,1819088317
sq,52.7676872253418,-7.93844757080078,-103.04885349593783,-1.5814110630369531,1819104984
sq,51.2466053009033,-7.57563171386719,-95.030228692756,0.17390691896979485,1819121651
sq,49.5871929168701,-7.61815032958984,-91.46847706450703,-0.04891542155912518,1819138318
sq,48.0200637817383,-7.9851318359375,-91.57318633030665,-1.1325281125033357,1819154985
sq,46.4586280822754,-8.40305480957031,-94.3542669211628,-2.0269865022345193,1819171652
sq,44.7405036926269,-8.62594757080078,-98.88209878731752,-2.048864114300752,1819188319
sq,43.0983623504639,-8.64835510253906,-104.44933080408767,-0.9980599453472652,1819204986
sq,41.5123962402344,-8.53621063232422,-110.61248286130997,0.9094664195008307,1819221653
sq,39.6880439758301,-8.40792236328125,-117.13339225608448,3.227059782999712,1819238320
sq,37.8691200256348,-8.27371368408203,-123.86656388531294,5.49321172911249,1819254987
sq,36.0729316711426,-8.133203125,-130.64530669260114,7.4065152339622315,1819271654
sq,34.0042976379395,-7.97906646728516,-137.20968049254273,8.921355332879658,1819288321
sq,31.771696472168,-7.85772857666016,-143.19728918979095,10.258118789478026,1819304988
sq,29.5059265136719,-7.73160705566406,-148.19220008376647,11.844263613509003,1819321655
sq,27.0855506896973,-7.57853088378906,-151.80849402037336,14.212976843418346,1819338322
sq,24.6202491760254,-7.33307800292969,-153.77840809902514,17.885748637972533,1819354989
sq,22.1558174133301,-7.02861175537109,-154.0182938015492,23.258974371620848,1819371656
sq,19.6994842529297,-6.65307006835937,-152.65369069180147,30.509040759628366,1819388323
sq,17.1905807495117,-6.18007049560547,-149.9938370472066,39.528666387470565,1819404990
sq,14.7619041442871,-5.58422241210937,-146.45465195720544,49.90786967513298,1819421657
sq,12.3464073181152,-4.84172210693359,-142.4394101475512,60.97137271539635,1819438324
sq,10.0906890869141,-3.92501220703125,-138.19976556840408,71.87694160272866,1819454991
sq,7.89392700195313,-2.836083984375,-133.71424008694103,81.76525097673829,1819471658
sq,5.90402069091797,-1.48053131103516,-128.63016471845168,89.93389184165031,1819488325
sq,4.06616821289063,0.116262817382813,-122.30986560987878,95.99293609298675,1819504992
sq,2.22261657714844,1.72901000976562,-113.99642174143827,99.95660760375094,1819521659
sq,0.288511657714844,3.36855163574219,-103.07143444232761,102.24059806093463,1819538326
sq,-1.48453674316406,4.95812835693359,-89.33328456919044,103.5620125967157,1819554993
sq,-3.02377471923828,6.62013092041016,-73.20134031588708,104.76561599807944,1819571660
sq,-4.41696319580078,8.37047805786133,-55.761544078575206,106.61660761067617,1819588327
sq,-5.53444061279297,10.0465492248535,-38.608824306298345,109.60760371366885,1819604994
sq,-6.32063446044922,11.6933731079102,-23.50248485031231,113.83047455195951,1819621661
sq,-6.57566223144531,13.1832679748535,-11.920122299003138,118.9586745133039,1819638328
sq,-6.25934753417969,14.8129257202148,-4.65178871313211,124.36021051015884,1819654995
sq,-5.78623352050781,17.0325225830078,-1.5861902165950976,129.31027229085893,1819671662
sq,-5.60476837158203,19.7842811584473,-1.7810188690083937,133.21815127579038,1819688329
sq,-5.91311798095703,22.0095390319824,-3.794502964829974,135.76907756509442,1819704996
sq,-6.46332702636719,23.8876747131348,-6.142349626628292,136.92973118283413,1819721663
sq,-6.94162139892578,25.9507431030273,-7.698365404894124,136.84283117434418,1819738330
sq,-7.1538330078125,28.0561584472656,-7.902090325049539,135.68291498175367,1819754997
sq,-7.14412841796875,30.3624786376953,-6.7392976795323705,133.54070557896142,1819771664
sq,-7.03941497802734,32.7457412719727,-4.559114295574453,130.37542656941656,1819788331
sq,-6.94320831298828,33.9956077575684,-1.838413244690788,126.05448736273267,1819804998
sq,-6.88816223144531,36.0547660827637,1.0075568072049557,120.48364392561521,1819821665
sq,-6.85588989257812,38.4895137786865,3.7165160126336434,113.79716030325311,1819838332
sq,-6.83616790771484,40.4996074676514,6.172617327684638,106.53759221372962,1819854999
sq,-6.79149780273437,41.826233291626,8.338097420649213,99.74619313673116,1819871666
sq,-6.72314605712891,43.5205501556396,10.17266252368475,94.91465618666265,1819888333
sq,-6.615625,45.5688575744629,11.584703387031682,93.78576067119441,1819905000
sq,-6.47477111816406,47.0487140655518,12.441313474320767,98.02038014891089,1819921667
sq,-6.32350311279297,48.5964855194092,12.642137633459765,108.78756657038679,1819938334
sq,-6.13221893310547,49.9390453338623,12.240109946866875,126.38209159923765,1819955001
sq,-5.91989288330078,51.5585369110107,11.573387475248111,149.99403663189105,1819971668
sq,-5.67114410400391,53.5135177612305,11.360343968313943,177.71594161341298,1819988335
sq,-5.37745056152344,57.3064559936523,12.707074532083869,206.78530741323172,1820005002
sq,-5.02705535888672,60.46480884552,16.988157586067675,233.97724551436565,1820021669
sq,-4.61364135742187,64.4472059249878,25.588399645916496,256.03803901404024,1820038336
sq,-4.11673126220703,68.2210276514292,39.534125458425464,270.0878447576039,1820055003
sq,-3.51687774658203,72.3413180351257,59.08974185447496,273.96967365688664,1820071670
sq,-2.75363311767578,76.871025466919,83.4351447654212,266.5359759137565,1820088337
sq,-1.76334533691406,81.2926525115967,110.55448760783261,247.84411569794528,1820105004
sq,-0.435426330566406,85.3819812774658,137.4404155126784,219.2118796947616,1820121671
sq,1.37520446777344,88.9083255767822,160.64203572355873,183.09142438993777,1820138338
sq,3.8925537109375,92.1031879425049,177.06864168038916,142.75451386807333,1820155005
sq,7.12085571289063,94.3356307983398,184.83748156009935,101.82766189913556,1820171672
sq,11.0923179626465,95.8164257049561,183.87759859054276,63.758289787465195,1820188339
sq,14.9218544006348,96.5703758239746,176.03046397391932,31.318256233810526,1820205006
sq,18.133039855957,96.9406455993652,164.54465370300818,6.244633065687152,1820221673
sq,20.2720664978027,97.0233100891113,153.09992141246207,-10.922653759889107,1820238340
sq,21.2052597045898,96.8927520751953,144.70363748335836,-20.80251315544778,1820255007
sq,23.2218650817871,96.656160736084,140.8623331135043,-24.97519460963481,1820271674
sq,25.1289657592773,96.3108123779297,141.30611516975702,-25.686399688941073,1820288341
sq,27.2902435302734,95.8984073638916,144.30893088206005,-25.508697998538953,1820305008
sq,30.0821136474609,95.470348739624,147.42634737274275,-26.998984911782475,1820321675
sq,33.1215423583984,94.9953464508057,148.35131522254875,-32.37555087093974,1820338342
sq,36.137232208252,94.4352458953857,145.59434729112195,-43.23285199083005,1820355009
sq,38.1948875427246,93.7300170898438,138.8080756751749,-60.31671592890931,1820371676
sq,40.248087310791,92.80478515625,128.73560810359055,-83.39248930887736,1820388343
sq,42.4978488922119,91.63903465271,116.889414141536,-111.2450715417095,1820405010
sq,43.9896778106689,90.1450542449951,105.12102203071156,-141.8419184814614,1820421677
sq,45.2701343536377,88.0398029327393,95.23148114189682,-172.65846758468106,1820438344
sq,46.8029178619385,85.076736831665,88.72213243371421,-201.11248192878915,1820455011
sq,48.1143096923828,81.4684795379639,86.71066631114316,-225.0027243199054,1820471678
sq,49.7757152557373,77.7531007766724,89.96160039274622,-242.8318655353714,1820488345
sq,51.4601501464844,73.7585176467896,98.93519882910886,-253.92925954000222,1820505012
sq,53.39391746521,69.5974135637283,113.76518135886884,-258.3588919188726,1820521679
sq,55.1514305114746,65.3221057891846,134.1298062030453,-256.67018497143954,1820538346
sq,57.1225513458252,61.5905670166016,159.05638082516626,-249.60295556987995,1820555013
sq,59.4802507400513,58.2586893081665,186.75778264925125,-237.8766903784266,1820571680
sq,62.524153137207,54.7688611984253,214.6144036962375,-222.1577929911562,1820588347
sq,65.2824577331543,50.9127716064453,239.3844554355699,-203.20288411859687,1820605014
sq,68.7892955780029,47.1152462005615,257.6596871097427,-182.06512456040096,1820621681
sq,73.2251268565655,43.7389835357666,266.4915128046722,-160.19746787896096,1820638348
sq,78.0615467071533,40.5490840911865,264.02102822295006,-139.33681120107235,1820655015
sq,82.801762008667,38.7641395568848,249.90886746832518,-121.1840296782866,1820671682
sq,87.0715745925903,38.4718250274658,225.41664018001228,-107.0248520033999,1820688349
sq,90.425899887085,36.2471431732178,193.1201883683935,-97.47122263398622,1820705016
sq,93.203503036499,34.1083206176758,156.36610826648877,-92.41697769306475,1820721683
sq,95.3988517761231,32.7001022338867,118.65058899726563,-91.17830170403323,1820738350
sq,97.2416023254395,31.5136131286621,83.08357206347182,-92.73108599478833,1820755017
sq,98.5596698760986,30.132364654541,52.03061127033143,-95.97108542115885,1820771684
sq,99.3775295257568,28.1139167785645,26.947211163839494,-99.9461607596022,1820788351
sq,99.9559215545654,26.4071487426758,8.368394164498566,-104.01656510308976,1820805018
sq,100.177412414551,25.0321067810059,-4.002422078773094,-107.91333520401635,1820821685
sq,100.106964492798,23.3065856933594,-11.153469661342246,-111.69556207466971,1820838352
sq,99.8879093170166,21.4019226074219,-14.600573610584732,-115.63099884202623,1820855019
sq,99.6327671051025,19.4631523132324,-16.205838368075057,-120.02820394122786,1820871686
sq,99.341535949707,17.4409851074219,-17.977163143554524,-125.04861409514899,1820888353
sq,99.0093101501465,15.7019943237305,-21.85004531636292,-130.53850734085736,1820905020
sq,98.670076751709,13.7805236816406,-29.4631658255165,-135.93338476150802,1820921687
sq,98.2227615356445,11.6188682556152,-41.95012181666072,-140.2800613673905,1820938354
sq,97.5614723205566,9.36532821655273,-59.77707335337601,-142.3902172393489,1820955021
sq,96.6577304840088,7.21188583374023,-82.65723002446242,-141.0990234030269,1820971688
sq,95.4673980712891,4.9486946105957,-109.56645379582447,-135.5699768668702,1820988355
sq,93.8886817932129,2.67767181396484,-138.8676002272098,-125.56624962705654,1821005022
sq,91.7035678863525,0.412275695800782,-168.52317396958054,-111.60128008206401,1821021689
sq,88.3604043960571,-1.79284820556641,-196.3456547916516,-94.89770072714464,1821038356
sq,85.112649345398,-3.54164276123047,-220.22706207836177,-77.13633732467834,1821055023
sq,81.9943927764893,-4.51714477539062,-238.32109109986726,-60.06007182536316,1821071690
sq,78.5358604431152,-4.79784545898437,-249.19923864221204,-45.073838031084016,1821088357
sq,74.5808251142502,-4.85656890869141,-252.01622590760851,-32.99686225957219,1821105024
sq,70.397008562088,-5.53467712402344,-246.68011039288888,-24.046837546968028,1821121691
sq,66.1536592483521,-6.64819488525391,-233.96564336916205,-18.005439312549708,1821138358
sq,62.0363334655762,-7.59149322509766,-215.48908169744502,-14.422520665339322,1821155025
sq,58.6576389312744,-7.77364501953125,-193.49938462872623,-12.733987150707275,1821171692
sq,55.7101348876953,-7.31700286865234,-170.51218184334934,-12.27632938364101,1821188359
sq,52.8662818908691,-7.31134185791016,-148.87777129448844,-12.283009398865731,1821205026
sq,50.7233318328857,-6.98666534423828,-130.4038617844168,-11.9609024846759,1821221693
sq,49.4896148681641,-7.58548126220703,-116.14042871777885,-10.667541232630294,1821238360
sq,47.3545879364014,-8.39075622558594,-106.3784000300522,-8.11190336046967,1821255027
sq,45.2434772491455,-8.72761688232422,-100.82898783947721,-4.461750936313227,1821271694
sq,43.4251655578613,-8.65693054199219,-98.87991732913851,-0.2874742538143014,1821288361
sq,41.8264335632324,-8.38746032714844,-99.81568286770136,3.6351979669097516,1821305028
sq,40.2065910339356,-8.17963562011719,-102.93973667502704,6.574507825947023,1821321695
sq,38.5764945983887,-8.02766571044922,-107.60170050618089,8.051061131955079,1821338362
sq,36.9885391235351,-7.95494995117187,-113.1742776916802,7.95401737969903,1821355029
sq,35.3326095581055,-7.84974060058594,-119.03422382367148,6.56092226159007,1821371696
sq,33.4870208740234,-7.74794158935547,-124.58573819090574,4.484312910696014,1821388363
sq,31.4386276245117,-7.72120056152344,-129.33292390422915,2.57402961974391,1821405030
sq,29.253832244873,-7.71901092529297,-132.97576181029086,1.7981346252268104,1821421697
sq,27.0785659790039,-7.66867218017578,-135.48745548340617,3.1155829273031985,1821438364
sq,24.9398178100586,-7.54902801513672,-137.13561911688947,7.344983696585555,1821455031
sq,22.662622833252,-7.36483917236328,-138.42751524946263,15.0307207401921,1821471698
sq,20.4286979675293,-7.09687957763672,-139.97881213035106,26.314322481709244,1821488365
sq,18.1566299438477,-6.70186004638672,-142.32174930960133,40.83362999025545,1821505032
sq,15.6854232788086,-6.15513000488281,-145.68501249926695,57.686602686021956,1821521699
sq,13.4983810424805,-5.40622863769531,-149.79667835894728,75.49946599782824,1821538366
sq,11.3906959533691,-4.38311157226562,-153.77796429873877,92.62196281008222,1821555033
sq,9.07274475097656,-2.94374237060547,-156.19407136322695,107.43474269618636,1821571700
sq,6.72027435302734,-1.12967071533203,-155.295965672416,118.70557717453283,1821588367
sq,4.35634460449219,1.04065551757812,-149.42801823722317,125.89284691933543,1821605034
sq,1.81347503662109,3.43619384765625,-137.5121243129642,129.28986052256909,1821621701
sq,-0.65462646484375,5.68396606445313,-119.47337143257643,129.94458520186024,1821638368
sq,-2.79782257080078,7.57954635620117,-96.46414004535693,129.36612671210315,1821655035
sq,-4.65924224853516,9.51674118041992,-70.78129569013947,129.1082172842821,1821671702
sq,-6.16398010253906,11.2698463439941,-45.449808815525486,130.3624181560192,1821688369
sq,-6.84503326416016,13.2117828369141,-23.54900846019029,133.68156710707524,1821705036
sq,-6.94342193603516,15.2297615051269,-7.458013923227226,138.89811993653552,1821721703
sq,-6.32737884521484,17.5335144042969,1.7438460192847134,145.2300314453845,1821738370
sq,-5.60296020507812,19.9295333862305,4.507925882465632,151.50711819923418,1821755037
sq,-5.33074340820312,22.8992446899414,2.5824772310485873,156.42536832864045,1821771704
sq,-5.56888732910156,25.6330207824707,-1.6047154468843647,158.75755626759374,1821788371
sq,-6.39364776611328,27.3149627685547,-5.710207816254766,157.50640375334333,1821805038
sq,-7.28628692626953,29.7623542785645,-8.096231038688368,152.0394153954148,1821821705
sq,-7.55815277099609,32.3067077636719,-8.104556017732154,142.24499637634344,1821838372
sq,-7.31949768066406,34.7943672180176,-5.952430973952332,128.69887454956165,1821855039
sq,-6.88965759277344,36.8449481964111,-2.385346266787886,112.77989007830139,1821871706
sq,-6.58546600341797,38.693966293335,1.7103398996951502,96.66450043704036,1821888373
sq,-6.49548492431641,40.3045372009277,5.57838202644607,83.15240940618263,1821905040
sq,-6.60224304199219,41.836056137085,8.699156197705168,75.30771778362801,1821921707
sq,-6.70218048095703,43.46614112854,10.77944923537677,75.93639357055524,1821938374
sq,-6.67418823242187,44.6011528015137,11.710212980157957,86.97173455282771,1821955041
sq,-6.48151550292969,45.5668510437012,11.554759985077778,108.90057431347776,1821971708
sq,-6.21609649658203,46.8777565002441,10.580179621687964,140.40056538886276,1821988375
sq,-5.975732421875,48.4487060546875,9.30324736749265,178.3320359448022,1822005042
sq,-5.79125366210937,52.0780281066895,8.507014484649508,218.1318051481891,1822021709
sq,-5.60438690185547,55.2750696182251,9.19298703583835,254.53751691736548,1822038376
sq,-5.37059936523437,58.9292568206787,12.454418944997482,282.4860784218934,1822055043
sq,-5.10728607177734,63.9642871856689,19.280110955485842,297.9929446490858,1822071710
sq,-4.83715209960937,69.6253997325897,30.32205923477806,298.81655540675376,1822088377
sq,-4.45894775390625,74.647447013855,45.68038129294336,284.75491835155503,1822105044
sq,-3.84968719482422,78.9226354598999,64.76706213693302,257.5275832988838,1822121711
sq,-2.92720947265625,82.5375551223755,86.29908303693205,220.3283484351864,1822138378
sq,-1.62458953857422,85.9214672088623,108.44213666854476,177.2118911912802,1822155045
sq,0.151327514648438,88.9741405487061,129.08773201524824,132.46443821655265,1822171712
sq,2.30620422363281,91.2004302978516,146.2122806902077,90.04565468450676,1822188379
sq,4.57709350585938,92.4298385620117,158.24709900835336,53.13943031799793,1822205046
sq,7.17168273925781,93.2498706817627,164.38480929505846,23.836244106898963,1822221713
sq,9.91504516601563,93.6424278259277,164.7548000325154,2.9676327999097745,1822238380
sq,12.7194465637207,93.6160034179688,160.4152600377912,-9.897287510912793,1822255047
sq,15.5878852844238,93.4197277069092,153.13739168303144,-16.30159540889528,1822271714
sq,18.183332824707,93.2466625213623,145.00551776842104,-18.62215063121189,1822288381
sq,20.1635040283203,92.8630146026611,137.91886542829204,-19.700602918334667,1822305048
sq,22.0789627075195,92.5945896148682,133.13090298011835,-22.428136063072262,1822321715
sq,23.9315093994141,92.2432331085205,130.96729230207805,-29.33069084916418,1822338382
sq,25.8113464355469,91.7295402526856,130.81162612516312,-42.20175372619949,1822355049
sq,28.2134117126465,91.0989097595215,131.36172931321465,-61.82937834246516,1822371716
sq,30.1764587402344,90.2730792999268,131.07856729331556,-87.86128870475943,1822388383
sq,31.982447052002,89.0853618621826,128.70083598991116,-118.84049453023007,1822405050
sq,34.8281806945801,87.2173370361328,123.68248271839191,-152.4164385485154,1822421717
sq,37.7925437927246,84.6244205474854,116.42989305959495,-185.69599575711538,1822438384
sq,38.7464164733887,81.4453224182129,108.28490592699264,-215.6630599510096,1822455051
sq,39.4253715515137,78.2148670196533,101.29823963577677,-239.58487792351013,1822471718
sq,41.8880466461182,74.0092019081116,97.88900958187389,-255.3398313811935,1822488385
sq,43.8226875305176,69.8927227497101,100.45074595813843,-261.63210797052085,1822505052
sq,45.5640205383301,65.8919767379761,110.91021448978141,-258.09222054251745,1822521719
sq,47.2873405456543,61.8842109680176,130.25639068600452,-245.28886355433687,1822538386
sq,48.8975109100342,58.315657043457,158.1222470928084,-224.68157506662186,1822555053
sq,51.3201164245606,54.3632520675659,192.54725724445177,-198.5172613110419,1822571720
sq,54.3876613616943,50.7987789154053,230.03230713754823,-169.6370764932993,1822588387
sq,58.0363496780395,48.0045322418213,265.93848824151274,-141.15310035570855,1822605054
sq,61.1685775756836,45.2110599517822,295.2071848335849,-116.00041306164249,1822621721
sq,65.9578470230103,44.0479873657226,313.29249725557383,-96.4517575147279,1822638388
sq,72.1377859354019,43.3604835510254,317.0962025500676,-83.74513034065298,1822655055
sq,77.9987048149109,42.0903324127197,305.63071492420454,-77.96203953013213,1822671722
sq,83.3110546112061,40.4171718597412,280.1871666767633,-78.19580070481129,1822688389
sq,87.4720682144165,39.0890144348145,243.96231537682107,-82.92654197658858,1822705056
sq,90.6688331604004,37.5812362670898,201.30049221200053,-90.45276793500312,1822721723
sq,93.5356868743897,35.9697898864746,156.81496688440765,-99.24239381536754,1822738390
sq,96.0817264556885,34.139143371582,114.62572938193416,-108.12643612480215,1822755057
sq,98.0596794128418,32.5303672790527,77.84120048931335,-116.32864817444295,1822771724
sq,99.216873550415,30.9680923461914,48.305276811142,-123.38230411612409,1822788391
sq,99.900581741333,29.0495590209961,26.57428790073484,-129.0128399625808,1822805058
sq,100.401857757568,27.1151794433594,12.070974104400825,-133.05185384222423,1822821725
sq,100.645086669922,24.8304313659668,3.357496418689257,-135.40680474989884,1822838392
sq,100.712271118164,22.5229286193848,-1.5328057120486613,-136.07135629328977,1822855059
sq,100.747156524658,20.3668350219727,-4.76065234310761,-135.14647303303073,1822871726
sq,100.698080444336,18.3512901306152,-8.386566356248263,-132.8518091187433,1822888393
sq,100.587986373901,16.2526840209961,-14.145074393268589,-129.5216887937035,1822905060
sq,100.374603652954,14.0097564697266,-23.300111706719886,-125.58348653453618,1822921727
sq,100.027744674683,11.9690765380859,-36.58107276110861,-121.51140202876384,1822938394
sq,99.4573215484619,10.0472282409668,-54.18797287691465,-117.75005998231298,1822955061
sq,98.6048759460449,8.13294830322266,-75.84512123614797,-114.61499270669911,1822971728
sq,97.3618301391602,6.35701217651367,-100.87545782598694,-112.19182126947892,1822988395
sq,95.6162532806397,4.60399475097656,-128.26474050599703,-110.2631666722126,1823005062
sq,93.3378871917725,2.83796539306641,-156.69247394468084,-108.29011036172236,1823021729
sq,90.6309951782227,1.11592712402344,-184.53239054033608,-105.46663557937283,1823038396
sq,87.9841732025147,-0.471337890625,-209.86741100968388,-100.85460212794557,1823055063
sq,85.3884586334229,-2.01674041748047,-230.59749444643364,-93.59381730283746,1823071730
sq,81.9628395080566,-3.26708374023437,-244.70267629182666,-83.16238858857452,1823088397
sq,77.7335852622986,-4.68076477050781,-250.6409801232365,-69.63309805106267,1823105064
sq,73.1130212783814,-6.09456787109375,-247.75561891683404,-53.83931805687969,1823121731
sq,68.4957708358765,-7.38650665283203,-236.51925387141375,-37.35212748221406,1823138398
sq,64.8066677093506,-8.36772308349609,-218.50071463709654,-22.205584401071807,1823155065
sq,61.9235176086426,-8.82097778320312,-196.06470027556725,-10.39568498550769,1823171732
sq,58.9701770782471,-8.62588653564453,-171.91881953337477,-3.2908359910183007,1823188399
sq,55.5492729187012,-7.76744232177734,-148.6465727619311,-1.170216635682426,1823205066
sq,53.7200645446777,-7.23850402832031,-128.3298937814188,-3.0942239385922083,1823221733
sq,52.071106338501,-7.21158752441406,-112.32346663186782,-7.191692095112806,1823238400
sq,50.1166843414307,-7.66517028808594,-101.20764978728819,-11.27072247321435,1823255067
sq,48.3467067718506,-8.62687072753906,-94.90032895162986,-13.51666145025463,1823271734
sq,46.7513641357422,-9.41694793701172,-92.860564820483,-13.009435787544888,1823288401
sq,45.1090282440186,-9.65861663818359,-94.30045940501016,-9.885946140660444,1823305068
sq,43.5120491027832,-9.58866271972656,-98.34429835054323,-5.134647686081687,1823321735
sq,42.0152648925781,-9.40665588378906,-104.11554667141998,-0.15126749589397334,1823338402
sq,40.4126724243164,-9.18665466308594,-110.76966122804187,3.754252837905558,1823355069
sq,38.7521118164063,-8.90243682861328,-117.50969724951044,5.733380186357928,1823371736
sq,36.9175247192383,-8.68179473876953,-123.61782055578136,5.565131561099892,1823388403
sq,34.9482368469238,-8.65563354492187,-128.51502615330645,3.6060758745472037,1823405070
sq,32.8940643310547,-8.74884185791016,-131.83600260245137,0.5863044646598714,1823421737
sq,30.5952743530273,-8.91670379638672,-133.4883942255735,-2.651840377509564,1823438404
sq,28.3409561157227,-9.05698547363281,-133.6643824043809,-5.380618122835498,1823455071
sq,26.2739852905273,-9.17174682617187,-132.7897028479589,-7.12304899458592,1823471738
sq,24.2877258300781,-9.2385498046875,-131.42177837598138,-7.687285677777897,1823488405
sq,22.1393341064453,-9.29910430908203,-130.1272965213242,-7.1231781963622876,1823505072
sq,20.035368347168,-9.37250671386719,-129.37049997568118,-5.6399310131863665,1823521739
sq,18.0031150817871,-9.4404541015625,-129.43337403157537,-3.520098833850128,1823538406
sq,16.0048889160156,-9.49569854736328,-130.37919935721487,-1.0516277218424792,1823555073
sq,13.9375823974609,-9.51355133056641,-132.06350149396124,1.5146209191460465,1823571740
sq,11.7687515258789,-9.49752960205078,-134.18737521289503,3.984201784833125,1823588407
