Label,Left_Hip_q,Right_Hip_q,Left_Hip_qd,Right_Hip_qd,SampleTimeFine
iw,-58.2104110717773,-62.4948921203613,-87.1566696166992,66.5073623657226,3470078962
iw,-57.2803993225097,-63.61226272583,-60.96348213775622,68.07390484480091,3470095629
iw,-56.6602249145507,-64.7254943847656,-61.584335752842065,68.42181357768825,3470112296
iw,-55.2784957885742,-65.8386840820312,-60.735720602011774,68.78090825053243,3470128963
iw,-54.2723541259765,-66.9207000732421,-57.36612650974661,69.32923416494317,3470145630
iw,-53.4007110595703,-67.9974899291992,-50.99501892483515,70.13347509532402,3470162297
iw,-52.5807189941406,-69.0984268188476,-41.83156557358512,71.10042374625452,3470178964
iw,-52.0303344726562,-70.2601318359375,-30.73033711883835,71.96407943572584,3470195631
iw,-51.8460006713867,-71.4877014160156,-18.988453367554275,72.30821178089636,3470212298
iw,-51.8857307434082,-72.7410354614257,-8.03066815107688,71.61472829357103,3470228965
iw,-52.0401878356933,-73.9929122924804,0.939428605751466,69.32175456341297,3470245632
iw,-52.3075485229492,-74.916259765625,7.232827358338262,64.87674299559609,3470262299
iw,-52.6156120300293,-75.7146377563476,10.838742396921017,57.780470472050915,3470278966
iw,-52.8833465576171,-76.4106292724609,12.41971632447,47.63106125080582,3470295633
iw,-53.0507888793945,-77.0137481689453,13.143460463407505,34.18131704736208,3470312300
iw,-53.1500587463378,-77.5153427124023,14.397097880597501,17.411025806948096,3470328967
iw,-53.4329185485839,-77.80810546875,17.455959788773995,-2.404460682103252,3470345634
iw,-53.9497337341308,-77.72216796875,23.18405378974212,-24.661214502293085,3470362301
iw,-54.5111236572265,-77.0910873413086,31.827950954550754,-48.45439041042047,3470378968
iw,-55.0275650024414,-75.8451538085937,42.9426007943381,-72.66541572527076,3470395635
iw,-55.8145408630371,-74.1719284057617,55.46826704891393,-96.077532917725,3470412302
iw,-56.9149055480957,-72.5632858276367,67.95803636450789,-117.47891987131925,3470428969
iw,-58.6419486999511,-71.0536270141601,78.92034367077437,-135.73768249795788,3470445636
iw,-60.689769744873,-69.0922088623046,87.19141084072429,-149.87641530733964,3470462303
iw,-62.41060256958,-66.2350311279296,92.21836212911127,-159.1914491723321,3470478970
iw,-63.7391281127929,-62.7140312194824,94.15213221049085,-163.42077436874928,3470495637
iw,-65.1273117065429,-59.5909347534179,93.7242036837116,-162.88884881106827,3470512304
iw,-66.6003341674804,-57.0813789367675,91.97019072881558,-158.51808076993981,3470528971
iw,-68.0497817993164,-55.0815315246582,89.91239931235553,-151.6465429702299,3470545638
iw,-69.4533767700195,-53.147891998291,88.30485683896968,-143.7009287605323,3470562305
iw,-70.8767623901367,-50.8964538574218,87.5011957809631,-135.85772544875573,3470578972
iw,-72.3816909790039,-48.6009826660156,87.45861696115045,-128.82229051209555,3470595639
iw,-73.9412460327148,-46.3335914611816,87.85358943339963,-122.77787660698932,3470612306
iw,-75.5286865234375,-44.2926712036132,88.2592857618313,-117.46995032018607,3470628973
iw,-77.1161193847656,-42.6321601867675,88.32351121303978,-112.35219954234165,3470645640
iw,-78.7229309082031,-41.3021812438964,87.89176945772267,-106.73841333970917,3470662307
iw,-80.2532501220703,-39.8641700744628,87.04131984702443,-99.94561241615389,3470678974
iw,-81.6525421142578,-38.3730888366699,86.02230814581083,-91.43614712881605,3470695641
iw,-82.961685180664,-37.0258560180664,85.13321072268624,-80.95347658471667,3470712308
iw,-84.2253189086914,-36.0569267272949,84.58095276984375,-68.61883680753263,3470728975
iw,-85.4822616577148,-35.2324829101562,84.38221645006621,-54.94792962365774,3470745642
iw,-86.8091125488281,-34.5685386657714,84.34687444949094,-40.768967073988556,3470762309
iw,-88.0715713500976,-34.1663513183593,84.15104209317703,-27.057912873753597,3470778976
iw,-88.5359420776367,-34.2104377746582,83.46872051607076,-14.73305291145917,3470795643
iw,-87.69921875,-34.4085540771484,82.10401306930811,-4.463536640193714,3470812310
iw,-86.3621292114257,-34.5556373596191,80.06235205439532,3.454783433934774,3470828977
iw,-85.029296875,-34.6559791564941,77.52028882690061,9.122153085433814,3470845644
iw,-83.9298858642578,-34.8300628662109,74.69172707640652,12.958011608556061,3470862311
iw,-82.9707794189453,-35.1502151489257,71.63274660884144,15.561782097098048,3470878978
iw,-82.0435714721679,-35.4280319213867,68.06219628467272,17.564955728077585,3470895645
iw,-81.1512298583984,-35.8330383300781,63.283510244274396,19.519620552377454,3470912312
iw,-80.2628555297851,-36.4245300292968,56.26574664314048,21.84456615283266,3470928979
iw,-79.4478454589843,-37.2556648254394,45.887300727060406,24.82182594791011,3470945646
iw,-78.7642364501953,-37.9679222106933,31.285144301952926,28.614422371917282,3470962313
iw,-78.2822875976562,-38.5088920593261,12.206987223753316,33.27207116698278,3470978980
iw,-78.1152420043945,-39.5437316894531,-10.751926134983187,38.71052794509299,3470995647
iw,-78.4636688232421,-40.7136497497558,-36.124165583806146,44.678977007802644,3471012314
iw,-79.5308227539062,-41.2088165283203,-61.796149162413556,50.74743930301305,3471028981
iw,-81.3587341308593,-41.7938156127929,-85.44066280511188,56.34475482606081,3471045648
iw,-83.5403900146484,-43.0061416625976,-105.03230644835793,60.86107394731957,3471062315
iw,-85.8787841796875,-44.4169006347656,-119.28424175292571,63.79910922084839,3471078982
iw,-87.3838653564453,-45.5846214294433,-127.87523369770393,64.92463512427496,3471095649
iw,-87.6533126831054,-46.7017555236816,-131.42693483209794,64.35383353885369,3471112316
iw,-87.2949905395507,-47.8680915832519,-131.29068561638812,62.53882792436205,3471128983
iw,-85.2758636474609,-48.9517402648925,-129.24441497135413,60.155781845563546,3471145650
iw,-83.0850830078125,-49.9601516723632,-127.1634036499179,57.93241560506534,3471162317
iw,-81.4063720703125,-50.8908882141113,-126.67253062862937,56.46353749219273,3471178984
iw,-79.7704162597656,-51.7691116333007,-128.79130321982012,56.06209207262014,3471195651
iw,-77.9027633666992,-52.649169921875,-133.64867935433125,56.68543277265067,3471212318
iw,-75.6499938964843,-53.5893859863281,-140.39249661297282,57.96073874078671,3471228985
iw,-73.1654968261718,-54.6495018005371,-147.38138198479865,59.30845925353492,3471245652
iw,-70.2906417846679,-55.8303756713867,-152.63772916109744,60.13279413155954,3471262319
iw,-67.1485595703125,-57.0212059020996,-154.4236200162395,60.02342887616866,3471278986
iw,-64.5551528930664,-58.144287109375,-151.73914494579626,58.904425686808196,3471295653
iw,-62.2878837585449,-59.1468925476074,-144.56531445912387,57.08069686507378,3471312320
iw,-60.0375938415527,-59.9924430847168,-133.77320098566037,55.16594279097474,3471328987
iw,-58.7530632019043,-60.7935485839843,-120.75207180673289,53.91488222734056,3471345654
iw,-57.5209579467773,-61.6409950256347,-106.91491801378429,54.01122602804231,3471362321
iw,-56.4612350463867,-62.5000343322753,-93.27903202517346,55.87165886188553,3471378988
iw,-54.8921470642089,-63.3989219665527,-80.2764535581077,59.516212396150124,3471395655
iw,-53.3252792358398,-64.4095001220703,-67.83853313883218,64.53515022168601,3471412322
iw,-52.1222114562988,-65.5177459716796,-55.671859444958216,70.15949040426908,3471428989
iw,-51.3171806335449,-66.768310546875,-43.567055156310204,75.41943046449873,3471445656
iw,-50.6935195922851,-68.2645034790039,-31.593639693037492,79.35299072529801,3471462323
iw,-50.5232925415039,-69.8582916259765,-20.11282230954001,81.20947637081933,3471478990
iw,-50.7527618408203,-71.3471221923828,-9.633535320833767,80.58649403564111,3471495657
iw,-50.9641952514648,-72.6098480224609,-0.6013364578112881,77.45383544421645,3471512324
iw,-51.1316909790039,-73.6678771972656,6.775552936433419,72.05393611414574,3471528991
iw,-51.2660980224609,-74.445816040039,12.593094904468954,64.71514323742605,3471545658
iw,-51.4457206726074,-75.1104049682617,17.202706897193817,55.65056276042246,3471562325
iw,-51.6329460144043,-75.7255325317382,21.092919907945372,44.82475304366138,3471578992
iw,-51.8806762695312,-76.3412857055664,24.76858470333005,31.94730339912079,3471595659
iw,-52.4385681152343,-76.9268951416015,28.677794900212856,16.603931496976394,3471612326
iw,-53.4844589233398,-77.4402618408203,33.193853495486174,-1.5196436536550118,3471628993
iw,-54.5831871032714,-77.6439666748046,38.61465282079893,-22.405449729301907,3471645660
iw,-55.225658416748,-77.2754211425781,45.125908903964806,-45.55241173742586,3471662327
iw,-55.650047302246,-76.1780471801757,52.70859975474905,-69.96277327605183,3471678994
iw,-56.3935050964355,-74.4899826049804,61.037287831828735,-94.26374926089579,3471695661
iw,-57.4022827148437,-72.6745147705078,69.45964880451822,-116.91257482819456,3471712328
iw,-58.9453926086425,-70.83935546875,77.12211514090988,-136.42052464240763,3471728995
iw,-61.0394668579101,-68.6871643066406,83.22102376676983,-151.5567170856529,3471745662
iw,-62.8278045654296,-65.907485961914,87.27264254016676,-161.52303679466877,3471762329
iw,-64.0820388793945,-62.6142845153808,89.2718568344906,-166.09175016255568,3471778996
iw,-65.3861846923828,-59.5324745178222,89.6663674651729,-165.66868631011863,3471795663
iw,-66.8129043579101,-56.931900024414,89.16965307858248,-161.22880306517698,3471812330
iw,-68.2368087768554,-54.7655639648437,88.5056256459389,-154.10491669268967,3471828997
iw,-69.6008758544921,-52.7444267272949,88.18727549881176,-145.68200112996635,3471845664
iw,-71.0138931274414,-50.4654922485351,88.39713907157773,-137.10354716964784,3471862331
iw,-72.5385055541992,-48.1639022827148,88.99155510189361,-129.08809132124898,3471878998
iw,-74.1413497924804,-45.9203033447265,89.61036856328546,-121.8907375278641,3471895665
iw,-75.7832412719726,-44.0664749145507,89.84369157636071,-115.37645269501587,3471912332
iw,-77.4053878784179,-42.5483856201171,89.39311152985316,-109.14471880368652,3471928999
iw,-78.9874877929687,-41.1868133544921,88.17189754781887,-102.66303617224045,3471945666
iw,-80.4407653808593,-39.7462730407714,86.31535473753658,-95.39742839363616,3471962333
iw,-81.7404861450195,-38.3551025390625,84.10821496727256,-86.93852118730095,3471979000
iw,-82.9494857788086,-37.3758506774902,81.8671307769463,-77.10909934700258,3471995667
iw,-84.1615142822265,-36.515769958496,79.8308212783107,-66.02676616323116,3472012334
iw,-85.4023666381836,-35.7143630981445,78.10204990556907,-54.101842688556765,3472029001
iw,-86.577033996582,-35.0114822387695,76.65830551693222,-41.969486916587435,3472045668
iw,-87.5310592651367,-34.5794258117675,75.41526411005724,-30.369713472635457,3472062335
iw,-87.9539718627929,-34.378490447998,74.30412384992283,-19.99649121794237,3472079002
iw,-87.519905090332,-34.4710960388183,73.31909275160429,-11.345579830919453,3472095669
iw,-86.5946426391601,-34.5437355041503,72.50425216719552,-4.600700627306531,3472112336
iw,-85.5444717407226,-34.5638313293457,71.87445562616318,0.4030704509915558,3472129003
iw,-84.5375823974609,-34.7427024841308,71.29507699114927,4.120745906239545,3472145670
iw,-83.5498580932617,-34.7260131835937,70.3695583764346,7.160641490114773,3472162337
iw,-82.5454406738281,-34.8311500549316,68.39052825284429,10.117329686241705,3472179004
iw,-81.5521697998046,-35.0311660766601,64.39454142323018,13.433854514315232,3472195671
iw,-80.6286239624023,-35.4950332641601,57.32764383566985,17.338475156300074,3472212338
iw,-79.8348083496093,-36.1946067810058,46.291898264716096,21.865634749797593,3472229005
iw,-79.2077102661132,-37.047607421875,30.813905243497615,26.93036420659635,3472245672
iw,-78.8410415649414,-37.791088104248,11.061658961037244,32.402755833846165,3472262339
iw,-78.8173599243164,-38.7847328186035,-12.061410008214756,38.138906277849806,3472279006
iw,-79.2971115112304,-39.8646125793457,-36.993887702939986,43.960570243721236,3472295673
iw,-80.426040649414,-40.251953125,-61.77084943475742,49.61470263028063,3472312340
iw,-82.1434783935546,-40.9066200256347,-84.40489761418564,54.76266252280426,3472329007
iw,-84.1285095214843,-42.2661170959472,-103.29459398734299,59.03452465699801,3472345674
iw,-86.3448410034179,-43.5734100341796,-117.54504593598726,62.1406876644442,3472362341
iw,-88.0044326782226,-44.6896209716796,-127.11579292303978,63.98787133154392,3472379008
iw,-88.4400329589843,-45.8201522827148,-132.77495317421867,64.73632609050586,3472395675
iw,-87.0243530273437,-47.002098083496,-135.89722231378207,64.76823814036028,3472412342
iw,-84.3083953857421,-48.1518020629882,-138.1596208468309,64.58344937172895,3472429009
iw,-82.002700805664,-49.2616081237793,-141.16824703690975,64.66495946910767,3472445676
iw,-80.2852172851562,-50.3742446899414,-146.04508712777337,65.35846324666635,3472462343
iw,-78.5320892333984,-51.4676628112793,-153.05388122963436,66.79949511785827,3472479010
iw,-76.1018829345703,-52.6473770141601,-161.40627618825272,68.90623636248802,3472495677
iw,-73.0977325439453,-53.9315719604492,-169.3783270281503,71.43672096633621,3472512344
iw,-69.7960662841796,-55.2793426513671,-174.75444992658882,74.08870416364209,3472529011
iw,-66.400520324707,-56.6525917053222,-175.46622247052787,76.60597389094205,3472545678
iw,-63.3366165161132,-58.0398063659668,-170.20152572283916,78.8535606212235,3472562345
iw,-60.7162780761718,-59.4039916992187,-158.77278408075927,80.83737839033927,3472579012
iw,-58.3598556518554,-60.761131286621,-142.13294328958915,82.66518124424343,3472595679
iw,-56.5493850708007,-62.1399612426757,-122.05951579215144,84.46592437378683,3472612346
iw,-55.4757347106933,-63.5464057922363,-100.63743672959977,86.29629163976765,3472629013
iw,-54.8061370849609,-64.9545364379882,-79.72828617939548,88.06381261301377,3472645680
iw,-53.4253692626953,-66.3964233398437,-60.601657588782196,89.48775776369052,3472662347
iw,-52.6184616088867,-67.9028549194336,-43.82525857833157,90.1059199168634,3472679014
iw,-51.8262672424316,-69.4540939331054,-29.395633213521723,89.32126229280023,3472695681
iw,-51.3597908020019,-70.939453125,-16.99988387504627,86.47148711199694,3472712348
iw,-51.2594490051269,-72.2153549194336,-6.273739791283885,80.9023052459983,3472729015
iw,-51.3000526428222,-73.2886123657226,3.0409769506529765,72.03434750381139,3472745682
iw,-51.6704711914062,-74.1599502563476,11.070733899389605,59.42854559274215,3472762349
iw,-52.0737113952636,-74.8215866088867,17.888072606407032,42.862338912674836,3472779016
iw,-52.4881286621093,-75.3208236694336,23.630276949959608,22.419199570521663,3472795683
iw,-53.1007270812988,-75.5791549682617,28.59209707253066,-1.4297029203531102,3472812350
iw,-53.9667701721191,-75.432388305664,33.242876052689176,-27.792891928807997,3472829017
iw,-54.7548294067382,-74.7364349365234,38.14622669693113,-55.41282221455823,3472845684
iw,-55.2522964477539,-73.4295501708984,43.7955591595169,-82.81200229846591,3472862351
iw,-55.8571853637695,-71.4869766235351,50.42039733866746,-108.49046794766089,3472879018
iw,-56.4960403442382,-69.3859405517578,57.85187409689495,-131.10680330666813,3472895685
iw,-57.2539024353027,-67.3814468383789,65.53304378642724,-149.58979630345902,3472912352
iw,-59.1383247375488,-65.2767028808593,72.70357077241663,-163.17948563227984,3472929019
iw,-61.3065643310546,-62.5740737915039,78.69594303812926,-171.44585344071095,3472945686
iw,-62.7864265441894,-59.0236206054687,83.20474338052519,-174.33466824227585,3472962353
iw,-63.8983039855957,-55.7197456359863,86.3914721211233,-172.23519768501862,3472979020
iw,-65.2162170410156,-52.947166442871,88.77621941596719,-166.0029060686583,3472995687
iw,-66.6209869384765,-50.6034469604492,90.98278009235115,-156.86538305703604,3473012354
iw,-68.0006256103515,-48.4404716491699,93.46632812596849,-146.20254964200552,3473029021
iw,-69.5915145874023,-46.341739654541,96.33806669958419,-135.26917423002226,3473045688
iw,-71.3121566772461,-44.1957893371582,99.34150598944728,-124.95848055988684,3473062355
iw,-73.0928497314453,-42.1503219604492,101.97032481089677,-115.67766049757499,3473079022
iw,-75.007339477539,-40.5107536315918,103.67002273184232,-107.35260630254783,3473095689
iw,-76.9520416259765,-39.2334823608398,104.04352463862486,-99.53929298704304,3473112356
iw,-78.8171310424804,-37.9168281555175,102.98667619731346,-91.60549784848548,3473129023
iw,-80.5185241699218,-36.498680114746,100.70932357087077,-82.94354923229189,3473145690
iw,-82.0469284057617,-35.4169960021972,97.6417892607363,-73.16653809502323,3473162357
iw,-83.4462966918945,-34.5133781433105,94.27003907479418,-62.23420629944275,3473179024
iw,-84.7417068481445,-33.700927734375,90.96885203570103,-50.4696756957913,3473195691
iw,-86.0385971069336,-33.2786140441894,87.89995309012033,-38.46569601662087,3473212358
iw,-87.3674545288086,-33.0913963317871,85.01212892667057,-26.918952240409766,3473229025
iw,-88.2988891601562,-33.0276565551757,82.13493165373835,-16.452945794062202,3473245692
iw,-87.9975814819336,-33.0512008666992,79.11581533602609,-7.486744474905364,3473262359
iw,-86.9806594848632,-32.973533630371,75.93141587241458,-0.18184669994627303,3473279026
iw,-85.8438110351562,-33.0160865783691,72.71610897445979,5.535666810248721,3473295693
iw,-84.786994934082,-33.220100402832,69.68800453041564,9.907785688889156,3473312360
iw,-83.8472213745117,-33.6211891174316,66.99654488222805,13.267884387244647,3473329027
iw,-82.9542770385742,-33.9553642272949,64.5496021654964,15.97683983214195,3473345694
iw,-82.0436477661132,-34.3088569641113,61.8906523626287,18.377087130658435,3473362361
iw,-81.1595840454101,-34.6671104431152,58.184891600206086,20.763045848411984,3473379028
iw,-80.3736724853515,-35.2278404235839,52.34155069797324,23.36736282124386,3473395695
iw,-79.6584548950195,-36.1183395385742,43.25872366939732,26.359415386187816,3473412362
iw,-78.9944686889648,-36.69575881958,30.137685619165826,29.8437012964853,3473429029
iw,-78.547248840332,-37.0607070922851,12.783940356970223,33.84430810742653,3473445696
iw,-78.3738555908203,-38.2062873840332,-8.199903207221125,38.27636312022029,3473462363
iw,-78.701919555664,-39.5260200500488,-31.409305980245236,42.92313658842762,3473479030
iw,-79.6191024780273,-39.7956352233886,-54.853889564291435,47.44028583687714,3473495697
iw,-81.1340560913086,-40.2761039733886,-76.35697398003067,51.40008290289282,3473512364
iw,-83.122802734375,-41.3908767700195,-94.03155452501174,54.37978173138371,3473529031
iw,-85.2874069213867,-42.6941795349121,-106.68863920158448,56.08302015418076,3473545698
iw,-86.9424591064453,-43.7246894836425,-114.05348600044181,56.45643745541759,3473562365
iw,-87.4899368286132,-44.6353073120117,-116.74107972511152,55.74858965267721,3473579032
iw,-87.3614425659179,-45.6606521606445,-116.03812211249698,54.47753765371215,3473595699
iw,-86.4501724243164,-46.6538963317871,-113.59596413284689,53.31336523262095,3473612366
iw,-84.694595336914,-47.583740234375,-111.12122218385777,52.91131660114344,3473629033
iw,-82.9965515136718,-48.4743728637695,-110.08852006205333,53.740167016495995,3473645700
iw,-81.6074981689453,-49.328872680664,-111.46775422437305,55.94910766991278,3473662367
iw,-80.0939254760742,-50.2537574768066,-115.4941302528637,59.31131420074433,3473679034
iw,-78.145263671875,-51.2644844055175,-121.56752774636266,63.26899676739986,3473695701
iw,-75.8278427124023,-52.4949302673339,-128.37099171508538,67.0786103285055,3473712368
iw,-73.3154525756836,-53.8885459899902,-134.22070070296851,70.02079143201259,3473729035
iw,-70.750015258789,-55.2827377319335,-137.5493631820986,71.61135732670857,3473745702
iw,-68.7061004638671,-56.5763511657714,-137.3549159922182,71.74316318978838,3473762369
iw,-66.8308486938476,-57.7695960998535,-133.45837942433246,70.71083081849426,3473779036
iw,-64.7479553222656,-58.8423194885253,-126.49541209250336,69.11272214650235,3473795703
iw,-62.9391021728515,-59.8815383911132,-117.66526726749957,67.66714890167215,3473812370
iw,-61.7458801269531,-60.9316520690918,-108.33471780720225,67.0044537984144,3473829037
iw,-60.4767570495605,-62.0091438293457,-99.6300705278646,67.49662456166854,3473845704
iw,-59.0763969421386,-63.1222953796386,-92.14749258315852,69.16694380399625,3473862371
iw,-57.5074119567871,-64.3138198852539,-85.86604388435325,71.69510151726202,3473879038
iw,-56.0616569519043,-65.5393905639648,-80.26818439895472,74.50808560496874,3473895705
iw,-54.6767082214355,-66.8334045410156,-74.5954699125608,76.92876109807908,3473912372
iw,-53.4131050109863,-68.2470321655273,-68.13060773305178,78.34267202601352,3473929039
iw,-52.4736328125,-69.7185440063476,-60.409953411933635,78.33847071776711,3473945706
iw,-51.6067237854003,-71.1374588012695,-51.31463088854157,76.78009732740729,3473962373
iw,-50.9650382995605,-72.3704299926757,-41.038883514046134,73.78364440634947,3473979040
iw,-50.6969718933105,-73.4226455688476,-29.973399283896526,69.60032841962742,3473995707
iw,-50.617618560791,-74.3275451660156,-18.561458286630874,64.44179926609104,3474012374
iw,-50.5802268981933,-75.101821899414,-7.1845106734218955,58.310144900553325,3474029041
iw,-50.5042152404785,-75.7904968261718,3.889379456261353,50.8991725270048,3474045708
iw,-50.4904136657714,-76.4221878051757,14.499109821504135,41.6129354351579,3474062375
iw,-50.754768371582,-76.9997406005859,24.563798777910364,29.709685509381277,3474079042
iw,-51.4797973632812,-77.4967346191406,34.0759880017602,14.537119953372786,3474095709
iw,-52.6816520690918,-77.9261703491211,43.121437923898974,-4.209363065401452,3474112376
iw,-53.9479827880859,-78.0292358398437,51.88694451753283,-26.28856790971706,3474129043
iw,-54.9351043701171,-77.5491561889648,60.60208895085232,-50.84577538672034,3474145710
iw,-55.6224250793457,-76.2655334472656,69.39926291038803,-76.50364049762825,3474162377
iw,-56.6273651123046,-74.4197463989257,78.14828066653838,-101.58292386856698,3474179044
iw,-57.8151016235351,-72.4672622680664,86.3708189730297,-124.38090715386504,3474195711
iw,-59.5328788757324,-70.5088806152343,93.31848673076944,-143.43135001854387,3474212378
iw,-61.9524726867675,-68.0609817504882,98.21065418371012,-157.70240687853246,3474229045
iw,-64.0321655273437,-65.1338348388671,100.53002671645747,-166.72387441395895,3474245712
iw,-65.4488372802734,-61.8631553649902,100.23332866544399,-170.64053052704415,3474262379
iw,-66.9251937866211,-58.889045715332,97.78093663923394,-170.17098151668796,3474279046
iw,-68.4482727050781,-56.3072395324707,93.98755563175936,-166.44969067071474,3474295713
iw,-69.8621063232421,-54.0413932800293,89.77574531575715,-160.76724055650246,3474312380
iw,-71.1987228393554,-51.7415504455566,85.93405201888477,-154.27846692806284,3474329047
iw,-72.5644607543945,-49.1829566955566,82.95418764836995,-147.7728339376434,3474345714
iw,-73.9740371704101,-46.5548210144043,80.97938305774174,-141.57160939980497,3474362381
iw,-75.3781356811523,-44.1378135681152,79.85758249425407,-135.55443456490158,3474379048
iw,-76.7588424682617,-42.2909660339355,79.2652764142061,-129.27190498383575,3474395715
iw,-78.1381759643554,-40.7257347106933,78.85476035082723,-122.0990216851902,3474412382
iw,-79.5635681152343,-38.9791183471679,78.37989963746814,-113.40948434656606,3474429049
iw,-80.9779663085937,-37.1866798400878,77.76798651105669,-102.761267280351,3474445716
iw,-82.2914657592773,-35.65132522583,77.12245047606632,-90.06250141600304,3474462383
iw,-83.5094909667968,-34.7269439697265,76.66078061325736,-75.66122662490538,3474479050
iw,-84.6904602050781,-33.9508934020996,76.61190709598871,-60.311924427761674,3474495717
iw,-85.8746032714843,-33.2554321289062,77.11135988629186,-45.01853659816267,3474512384
iw,-87.0689544677734,-32.9662551879882,78.13310803451596,-30.803865552968393,3474529051
iw,-88.1851196289062,-32.9338645935058,79.48141004227436,-18.47865976901575,3474545718
iw,-88.588752746582,-32.9588356018066,80.8396881373871,-8.477504093500768,3474562385
iw,-87.6455764770507,-33.0455131530761,81.84731398835432,-0.8035298791176759,3474579052
iw,-86.2361068725586,-33.1382255554199,82.16102925527584,4.911510553556962,3474595719
iw,-84.9011154174804,-33.2643661499023,81.46399256526526,9.26180316506675,3474612386
iw,-83.7796859741211,-33.4192466735839,79.41333211884483,12.891444451258598,3474629053
iw,-82.8130264282226,-33.7372016906738,75.55664869891342,16.346211308041887,3474645720
iw,-81.858642578125,-34.1886749267578,69.27872016156282,19.99350211308238,3474662387
iw,-80.9392471313476,-34.7760124206543,59.840945076812474,24.01914996246581,3474679054
iw,-80.1713714599609,-35.5802536010742,46.541829506672684,28.47776923167048,3474695721
iw,-79.5625,-36.3436088562011,28.97150395145172,33.35468743916556,3474712388
iw,-79.1182861328125,-37.0138664245605,7.28165361132803,38.60058712022705,3474729055
iw,-79.025032043457,-38.1426467895507,-17.634362195838737,44.122455026509186,3474745722
iw,-79.5329971313476,-39.5311813354492,-44.14507270309281,49.74333624760426,3474762389
iw,-80.8712310791015,-39.9131393432617,-70.10893369786176,55.1643243723169,3474779056
iw,-82.8096923828125,-40.5164794921875,-93.28538508829615,59.96871990173493,3474795723
iw,-84.9293975830078,-41.9372215270996,-111.81032134923653,63.696043725688384,3474812390
iw,-86.9986724853515,-43.3760871887207,-124.58762400312293,65.97754449108473,3474829057
iw,-87.6220779418945,-44.5307159423828,-131.48661370493045,66.679629916851,3474845724
iw,-87.1305084228515,-45.6075172424316,-133.31965644588104,65.98515102039427,3474862391
iw,-85.7577667236328,-46.7781562805175,-131.64907631054405,64.37288990567797,3474879058
iw,-83.2764434814453,-47.9570274353027,-128.48836325355555,62.50479245221763,3474895725
iw,-81.3154754638671,-49.0169639587402,-125.92694332229722,61.06062333632924,3474912392
iw,-79.8434753417968,-50.051155090332,-125.68952837428456,60.56496699813194,3474929059
iw,-78.3684997558593,-50.9825019836425,-128.69261008534068,61.248218671381544,3474945726
iw,-76.4122467041015,-51.9346275329589,-134.7408262703078,62.97935069691349,3474962393
iw,-73.8422317504882,-53.0029411315918,-142.518251184825,65.29721681586587,3474979060
iw,-71.1498260498046,-54.223159790039,-149.93282512070226,67.54220359328484,3474995727
iw,-68.1821365356445,-55.6294822692871,-154.7209476758028,69.05534790666913,3475012394
iw,-65.278938293457,-57.0095100402832,-155.10490124824238,69.38253859230332,3475029061
iw,-62.952823638916,-58.2421569824218,-150.27478319871187,68.41423088448956,3475045728
iw,-60.5882873535156,-59.3261375427246,-140.54008506244972,66.41372963494283,3475062395
iw,-58.7764434814453,-60.3027153015136,-127.12438867037918,63.930092121725885,3475079062
iw,-57.5192489624023,-61.242862701416,-111.70460706394854,61.633320667952454,3475095729
iw,-56.4606437683105,-62.2198753356933,-95.87788942355576,60.13031357786306,3475112396
iw,-55.521686553955,-63.2230720520019,-80.74999263684091,59.814951876973176,3475129063
iw,-53.9577598571777,-64.1773300170898,-66.77501698663619,60.784082049371854,3475145730
iw,-52.8970413208007,-65.1511154174804,-53.86192784835474,62.82712412591184,3475162397
iw,-52.1491508483886,-66.2503280639648,-41.65263718781604,65.47907575103284,3475179064
iw,-51.5302200317382,-67.4660568237304,-29.825321318471136,68.1149121126362,3475195731
iw,-51.1145629882812,-68.6921691894531,-18.29928424438733,70.05575865576373,3475212398
iw,-51.1128959655761,-69.9586868286132,-7.282960149735093,70.65587504238515,3475229065
iw,-51.412181854248,-71.1651916503906,2.824205856612627,69.3486455861039,3475245732
iw,-51.7639732360839,-72.1873321533203,11.61413290363048,65.6491904521468,3475262399
iw,-52.1745796203613,-73.0018310546875,18.85330346497314,59.133957073322904,3475279066
iw,-52.6082572937011,-73.7084350585937,24.596584898855294,49.432575155214245,3475295733
iw,-53.0240898132324,-74.3325424194336,29.200117119965277,36.263837692782374,3475312400
iw,-53.4668769836425,-74.8448715209961,33.24374253882728,19.523472557877938,3475329067
iw,-54.1341400146484,-75.0965499877929,37.39888924663458,-0.6025426935160089,3475345734
iw,-55.152545928955,-75.0557098388671,42.279607893539705,-23.549259154530674,3475362401
iw,-56.0658950805664,-74.5262603759765,48.301225697844934,-48.357220284438185,3475379068
iw,-56.7979469299316,-73.3021774291992,55.56239579054428,-73.75045930462366,3475395735
iw,-57.6458358764648,-71.496337890625,63.77564828035713,-98.28736595251777,3475412402
iw,-58.497013092041,-69.5635681152343,72.28736445819892,-120.53397009685469,3475429069
iw,-59.964111328125,-67.7792587280273,80.21986725821417,-139.21244037749156,3475445736
iw,-62.0616340637207,-65.6850280761718,86.71898133570183,-153.3134371897038,3475462403
iw,-64.1001205444336,-63.0671615600585,91.22229296526343,-162.1968325949933,3475479070
iw,-65.5487899780273,-59.7579689025878,93.62874017296092,-165.70106555271042,3475495737
iw,-66.8557586669921,-56.5924224853515,94.2876041254441,-164.23401508533846,3475512404
iw,-68.2703857421875,-53.9767913818359,93.81703118699465,-158.77448876252242,3475529071
iw,-69.7069778442382,-51.7703170776367,92.84508144230202,-150.72548802755165,3475545738
iw,-71.1617965698242,-49.6705322265625,91.78886197117863,-141.629497105409,3475562405
iw,-72.672004699707,-47.4680824279785,90.75122149397691,-132.82918473268916,3475579072
iw,-74.2455825805664,-45.3826522827148,89.55518577366296,-125.18154657459067,3475595739
iw,-75.8366470336914,-43.5214157104492,87.88451967479241,-118.90492180178886,3475612406
iw,-77.4002532958984,-41.8855171203613,85.46796308941605,-113.59006745987847,3475629073
iw,-78.8627548217773,-40.3779754638671,82.23818864975443,-108.36711822586608,3475645740
iw,-80.2401275634765,-38.7606582641601,78.41221785813975,-102.19075560118344,3475662407
iw,-81.5222854614257,-37.0162925720214,74.47007786163022,-94.17540200563957,3475679074
iw,-82.6542816162109,-35.572582244873,71.04175006246304,-83.88496687465475,3475695741
iw,-83.707046508789,-34.6919021606445,68.73920820526551,-71.48138227711789,3475712408
iw,-84.7509613037109,-33.9697799682617,67.9845836171867,-57.6807571998671,3475729075
iw,-85.8142776489257,-33.4733276367187,68.88468014368829,-43.540052883982526,3475745742
iw,-86.8303451538086,-33.283821105957,71.18724401634603,-30.159536352015614,3475762409
iw,-87.7754211425781,-33.2380638122558,74.33046235538893,-18.40618707592725,3475779076
iw,-88.3190231323242,-33.1416358947753,77.570403722287,-8.740363076413104,3475795743
iw,-87.7284088134765,-33.1308288574218,80.14674979503587,-1.1805498887325343,3475812410
iw,-86.4182205200195,-33.1956367492675,81.43108286220726,4.609944570517333,3475829077
iw,-84.9689254760742,-33.2731742858886,81.00287115248808,9.166360210015794,3475845744
iw,-83.8287734985351,-33.5085754394531,78.62344291210867,13.058402939372908,3475862411
iw,-82.8952178955078,-33.7953033447265,74.12439896029652,16.768402355278862,3475879078
iw,-82.0438919067382,-34.2553405761718,67.2747550874007,20.63514146548352,3475895745
iw,-81.2535400390625,-34.9115142822265,57.712517034732876,24.857334072117848,3475912412
iw,-80.5323638916015,-35.8029594421386,45.00375714739039,29.52729840072211,3475929079
iw,-79.9031677246093,-36.3863716125488,28.83302508174652,34.65751588028374,3475945746
iw,-79.4173049926757,-37.0315704345703,9.260667662714058,40.176831695376094,3475962413
iw,-79.2404098510742,-38.3229598999023,-13.063437273310802,45.90243664093405,3475979080
iw,-79.642219543457,-39.5377922058105,-36.84163035358484,51.517581615167984,3475995747
iw,-80.7270965576171,-40.1448211669921,-60.28757599663676,56.58709662230119,3476012414
iw,-82.4307861328125,-41.0228729248046,-81.47833815762232,60.62719094224311,3476029081
iw,-84.5624618530273,-42.4229545593261,-98.78949098186536,63.22331728582288,3476045748
iw,-86.8143310546875,-43.7245407104492,-111.26238173070168,64.16366672546518,3476062415
iw,-88.1190414428711,-44.8391189575195,-118.78250287358777,63.53588948795861,3476079082
iw,-88.0969009399414,-45.8825187683105,-122.03650906977782,61.7407661147325,3476095749
iw,-87.286750793457,-46.9515342712402,-122.30946429158652,59.41153248189636,3476112416
iw,-85.1079940795898,-47.9856529235839,-121.21842989782932,57.266247037556184,3476129083
iw,-82.9223022460937,-48.9331588745117,-120.43591734312058,55.939091473808375,3476145750
iw,-81.221076965332,-49.8263893127441,-121.39733676102396,55.83515067200523,3476162417
iw,-79.6794967651367,-50.726219177246,-124.98940278304168,57.04419525089603,3476179084
iw,-77.9445571899414,-51.7000732421875,-131.2844798812113,59.33665551306911,3476195751
iw,-75.7115859985351,-52.8068618774414,-139.44005978720463,62.24597481636808,3476212418
iw,-73.0193786621093,-54.0146751403808,-147.85323636542074,65.21613839712724,3476229085
iw,-70.1707153320312,-55.2956085205078,-154.55647458351478,67.76993134825094,3476245752
iw,-67.2562484741211,-56.589298248291,-157.73180512629565,69.64382679632288,3476262419
iw,-64.6963119506836,-57.8111228942871,-156.17095809403034,70.84567266805847,3476279086
iw,-62.4248962402343,-58.9661712646484,-149.53893741791845,71.61853040728845,3476295753
iw,-60.1038398742675,-60.1362152099609,-138.38127380652256,72.32702270427133,3476312420
iw,-58.1559257507324,-61.3032112121582,-123.90353543248747,73.30778978420419,3476329087
iw,-56.6189880371093,-62.4684257507324,-107.61224813241782,74.73431676439928,3476345754
iw,-55.6687126159668,-63.6550903320312,-90.93349074841228,76.53817729034321,3476362421
iw,-54.7106285095214,-64.9465560913086,-74.92355993236313,78.40891481004397,3476379088
iw,-53.3115272521972,-66.3118438720703,-60.15050218921852,79.86907068348621,3476395755
iw,-52.3478546142578,-67.8233871459961,-46.75515779096485,80.39472338604082,3476412422
iw,-51.6348114013671,-69.418701171875,-34.62441043151346,79.53310913407876,3476429089
iw,-51.2688179016113,-70.7467193603515,-23.574037468384457,76.96743625684948,3476445756
iw,-51.1749534606933,-71.8838653564453,-13.462799688057867,72.5013811320684,3476462423
iw,-51.2310180664062,-72.7807998657226,-4.216409994086409,65.9764578145382,3476479090
iw,-51.4068603515625,-73.5308532714843,4.211943060861671,57.17452263118527,3476495757
iw,-51.6296997070312,-74.1476440429687,11.900437891130672,45.771659557798095,3476512424
iw,-51.8650169372558,-74.6390075683593,19.00218004708158,31.388438393569892,3476529091
iw,-52.2942390441894,-74.996841430664,25.758337904052038,13.735002127426847,3476545758
iw,-53.1122550964355,-75.1646728515625,32.47860652885745,-7.199307518328135,3476562425
iw,-54.0750885009765,-74.9800643920898,39.48734212917649,-30.989226455721482,3476579092
iw,-54.8811416625976,-74.2558135986328,47.03291251534067,-56.71869649915787,3476595759
iw,-55.4986534118652,-72.8917083740234,55.17306874445681,-83.05518465560472,3476612426
iw,-56.4371871948242,-70.917007446289,63.68079747815508,-108.42655926022869,3476629093
iw,-57.3274993896484,-68.8809127807617,72.03642357083193,-131.23892506377632,3476645760
iw,-58.7203941345214,-67.0764007568359,79.55137562872886,-150.08026598518106,3476662427
iw,-60.9982833862304,-64.6575469970703,85.60357305136718,-163.89307086135352,3476679094
iw,-62.9582138061523,-61.4015998840332,89.88852427570139,-172.12641849243636,3476695761
iw,-64.3495864868164,-57.7091369628906,92.55881890955754,-174.85746006887098,3476712428
iw,-65.6315536499023,-54.6543045043945,94.17235087284892,-172.82262929899497,3476729095
iw,-67.1203002929687,-52.1277160644531,95.47130545410793,-167.2860279540292,3476745762
iw,-68.6521530151367,-49.9391021728515,97.09806783808261,-159.735370690791,3476762429
iw,-70.2688064575195,-47.7975349426269,99.3693229858779,-151.4957807822329,3476779096
iw,-71.9930801391601,-45.5270690917968,102.18512003997432,-143.40895275452888,3476795763
iw,-73.7617034912109,-43.1205406188964,105.08740218308633,-135.69656992324687,3476812430
iw,-75.6852188110351,-40.6695213317871,107.43220425286736,-128.0366498725294,3476829097
iw,-77.7311477661132,-38.5595588684082,108.60967712737599,-119.79083928516638,3476845764
iw,-79.7237548828125,-37.1175689697265,108.23698368132426,-110.27966475136604,3476862431
iw,-81.5287551879882,-35.7660789489746,106.26256596321704,-99.0201327645747,3476879098
iw,-83.1666946411132,-34.3373413085937,102.95510357046003,-85.88348666131407,3476895765
iw,-84.7133178710937,-33.1083450317382,98.79522511957563,-71.15977003328716,3476912432
iw,-86.1272811889648,-32.4195480346679,94.3226190364879,-55.52195421844159,3476929099
iw,-87.3825912475586,-32.046142578125,89.99957596331562,-39.89126693166154,3476945766
iw,-88.3804550170898,-31.832592010498,86.1327591210148,-25.23396839447866,3476962433
iw,-88.2505645751953,-31.8155193328857,82.8600367196038,-12.35014653741837,3476979100
iw,-87.1802673339843,-31.8412399291992,80.1760982392274,-1.718926027039756,3476995767
iw,-85.8949737548828,-32.1868438720703,77.95545406358312,6.561578605611439,3477012434
iw,-84.6703109741211,-32.4690170288085,75.94192129332619,12.737170248705041,3477029101
iw,-83.6607971191406,-32.6829223632812,73.70412807115017,17.288977489351783,3477045768
iw,-82.7147903442382,-32.915298461914,70.59034431162168,20.795277293151692,3477062435
iw,-81.7010955810546,-33.3884963989257,65.73381011535086,23.80970133762752,3477079102
iw,-80.7419281005859,-34.1120948791503,58.149579247409925,26.78855354550454,3477095769
iw,-79.9736938476562,-34.9872856140136,46.928962052066,30.070019531112457,3477112436
iw,-79.4076461791992,-35.7838020324707,31.49513006064846,33.87828510547208,3477129103
iw,-78.9806823730468,-36.4677429199218,11.85119873571302,38.31828464642178,3477145770
iw,-78.8075256347656,-37.3662986755371,-11.261398728167503,43.34737251230511,3477162437
iw,-79.1938934326171,-38.6692390441894,-36.36740217995586,48.74085322653361,3477179104
iw,-80.2753067016601,-39.3687858581543,-61.46123629248077,54.08581470860108,3477195771
iw,-81.9124526977539,-39.9600639343261,-84.3821250951279,58.83363863339375,3477212438
iw,-84.0451126098632,-41.1836471557617,-103.26435847776672,62.42030782812955,3477229105
iw,-86.40283203125,-42.6699638366699,-116.927497420403,64.43024906265687,3477245772
iw,-87.971076965332,-43.8563804626464,-125.09004056677486,64.7456317189466,3477262439
iw,-87.9811325073242,-44.9000854492187,-128.36315483822483,63.61441968657566,3477279106
iw,-86.9727630615234,-46.0207939147949,-128.06795454469784,61.6021011572249,3477295773
iw,-84.9529037475586,-47.1161918640136,-125.96200635919018,59.44308689970641,3477312440
iw,-82.5405960083007,-48.08638381958,-123.9324794344342,57.84297818085653,3477329107
iw,-80.7093124389648,-49.0117950439453,-123.6601404576306,57.290477353101224,3477345774
iw,-79.3551559448242,-49.9198188781738,-126.25762263399504,57.92932819515754,3477362441
iw,-77.7194213867187,-50.8695068359375,-131.95345804117687,59.52596751591974,3477379108
iw,-75.3042678833007,-51.9122848510742,-139.95568066294135,61.54671159720605,3477395775
iw,-72.5513458251953,-53.053783416748,-148.60102729537567,63.32871953960107,3477412442
iw,-69.6010513305664,-54.286994934082,-155.77814703895552,64.29850432457127,3477429109
iw,-66.8408813476562,-55.5860519409179,-159.48828841657314,64.17152874280214,3477445776
iw,-64.6364669799804,-56.8085327148437,-158.35653419749897,63.06598701321975,3477462443
iw,-62.2712326049804,-57.852180480957,-151.94604592139032,61.48707380050953,3477479110
iw,-59.4728698730468,-58.7615165710449,-140.81076361674263,60.18002617642298,3477495777
iw,-57.5265502929687,-59.6204833984375,-126.29610588244354,59.89651271068395,3477512444
iw,-56.1431465148925,-60.531322479248,-110.15019811038937,61.150369376258666,3477529111
iw,-55.2484130859375,-61.5092506408691,-94.05539439103099,64.04195422382665,3477545778
iw,-54.0539855957031,-62.5933570861816,-79.22394406438504,68.20585353432527,3477562445
iw,-52.8204917907714,-63.8039245605468,-66.1862271841396,72.89594435674353,3477579112
iw,-51.8526039123535,-65.2001495361328,-54.82259879797594,77.17911865710724,3477595779
iw,-50.9513893127441,-66.7443237304687,-44.591079025447954,80.17547484435593,3477612446
iw,-50.1041221618652,-68.2767868041992,-34.83822152338598,81.26685318833142,3477629113
iw,-49.5853004455566,-69.8490142822265,-25.07210141381167,80.20352651239291,3477645780
iw,-49.4778709411621,-71.0631332397461,-15.113129858133478,77.07192734285834,3477662447
iw,-49.6006431579589,-72.0860900878906,-5.097898129061953,72.13675843145737,3477679114
iw,-49.7729568481445,-72.9097671508789,4.631289647478889,65.62130136427184,3477695781
iw,-50.0400161743164,-73.6265029907226,13.687074329442677,57.51829648126484,3477712448
iw,-50.3860092163085,-74.3174362182617,21.787430458594333,47.515007880183866,3477729115
iw,-50.756175994873,-74.9967041015625,28.86041538810637,35.07135056925337,3477745782
iw,-51.4342422485351,-75.6550064086914,35.090853087645044,19.62763837682404,3477762449
iw,-52.5157012939453,-76.1084899902343,40.90328720920546,0.8651095122758146,3477779116
iw,-53.6247596740722,-76.1361770629882,46.8712109593046,-21.078672212376087,3477795783
iw,-54.4239845275878,-75.6075210571289,53.54811709720186,-45.51617901419752,3477812450
iw,-55.0396347045898,-74.3533020019531,61.249169291259996,-71.26130879352816,3477829117
iw,-55.9023246765136,-72.5746994018554,69.86207693416532,-96.79127567525347,3477845784
iw,-56.8646812438964,-70.7256088256836,78.78987060906887,-120.45395406496401,3477862451
iw,-58.7035026550293,-68.9785766601562,87.08923153611782,-140.6688567948322,3477879118
iw,-61.103172302246,-66.7786788940429,93.77283783000351,-156.1119135361354,3477895785
iw,-63.0339469909668,-63.8991813659668,98.14877755406062,-165.90187735809468,3477912452
iw,-64.4557266235351,-60.3232154846191,100.04249085560684,-169.78381482368272,3477929119
iw,-65.9273986816406,-57.0775337219238,99.81140590762193,-168.2471728349377,3477945786
iw,-67.4875793457031,-54.4413986206054,98.1728187956485,-162.48454716709512,3477962453
iw,-69.0165252685546,-52.3682136535644,95.94439950124696,-154.14269829285251,3477979120
iw,-70.541145324707,-50.3509902954101,93.80661329986667,-144.92082715942806,3477995787
iw,-72.0468215942382,-48.1927986145019,92.15808570209875,-136.15723277192444,3478012454
iw,-73.600830078125,-46.054271697998,91.08636393919559,-128.55237979229454,3478029121
iw,-75.2194290161132,-43.87158203125,90.43761878201747,-122.10730662326644,3478045788
iw,-76.840347290039,-41.8721961975097,89.94354730035117,-116.26454593509418,3478062455
iw,-78.4440841674804,-40.2404174804687,89.35355461522441,-110.17615839836273,3478079122
iw,-80.0024719238281,-38.7090873718261,88.52706831113872,-103.00687320430784,3478095789
iw,-81.4387893676757,-37.1426734924316,87.46228417673194,-94.19417341589093,3478112456
iw,-82.8154754638671,-35.7356071472168,86.26520775287938,-83.60841181929841,3478129123
iw,-84.2083053588867,-34.8802452087402,85.08478867820115,-71.57817119527189,3478145790
iw,-85.5900726318359,-34.2600288391113,84.04713949799228,-58.7788678490547,3478162457
iw,-86.9338836669921,-33.6817970275878,83.21312807403793,-46.02681346070989,3478179124
iw,-88.1848983764648,-33.4052619934082,82.56625033659995,-34.05460006692648,3478195791
iw,-88.9037170410156,-33.1130447387695,82.02132648133619,-23.343349328845058,3478212458
iw,-88.1135330200195,-32.9335327148437,81.43530066966194,-14.054447300682394,3478229125
iw,-86.8042678833007,-32.8774719238281,80.6014866202534,-6.060607841374567,3478245792
iw,-85.4722061157226,-33.048240661621,79.21870085275647,0.9542933845777223,3478262459
iw,-84.3335800170898,-33.2010803222656,76.84518434738663,7.367648920382374,3478279126
iw,-83.3135528564453,-33.4158592224121,72.86722690384781,13.500879344486734,3478295793
iw,-82.3245010375976,-33.7661666870117,66.52247052556865,19.543054930245127,3478312460
iw,-81.3686904907226,-34.4315299987793,57.00757159861012,25.533977268640204,3478329127
iw,-80.5761489868164,-35.2874641418457,43.66860558130606,31.404291822986988,3478345794
iw,-80.0579833984375,-36.2998237609863,26.233027484082466,37.04463533713329,3478362461
iw,-79.7790756225586,-37.0091133117675,5.012666076712706,42.36236277728022,3478379128
iw,-79.7816390991211,-37.8930168151855,-18.999323608386614,47.296002086134145,3478395795
iw,-80.383560180664,-39.5738830566406,-44.194955481257765,51.78724257797082,3478412462
iw,-81.6730117797851,-40.3510246276855,-68.59459682886582,55.73685232617735,3478429129
iw,-83.4717788696289,-40.7642478942871,-90.22024459760621,58.981334587974374,3478445796
iw,-85.4636993408203,-41.9539413452148,-107.49916755978695,61.32086685265043,3478462463
iw,-87.4950103759765,-43.4819831848144,-119.5810205120495,62.60383362080618,3478479130
iw,-88.1658096313476,-44.635887145996,-126.4842523946699,62.8327221516255,3478495797
iw,-87.0072937011718,-45.6222076416015,-129.05349060990292,62.229333231035,3478512464
iw,-85.4231185913086,-46.7220993041992,-128.76864787237764,61.21381919195657,3478529131
iw,-83.1501770019531,-47.8022117614746,-127.46231339777057,60.29977484758552,3478545798
iw,-80.9335632324218,-48.7878341674804,-126.97553899503004,59.946546124964705,3478562465
iw,-79.2941741943359,-49.7592620849609,-128.7623796847213,60.4207394640336,3478579132
iw,-77.9243087768554,-50.7144737243652,-133.49061222583353,61.71114782024568,3478595799
iw,-76.1056137084961,-51.7423362731933,-140.7620621679671,63.52606654014613,3478612466
iw,-73.7139129638671,-52.9104881286621,-149.1071420634431,65.37985024035088,3478629133
iw,-70.845344543457,-54.1599884033203,-156.33249501123157,66.74705540956309,3478645800
iw,-67.6117553710937,-55.4960975646972,-160.14681443091723,67.23618397354275,3478662467
iw,-64.4447326660156,-56.7877311706543,-158.85179975596424,66.72365428639966,3478679134
iw,-62.0742301940918,-57.893211364746,-151.84486178726596,65.4003649206764,3478695801
iw,-59.8507919311523,-58.8672561645507,-139.75679391794006,63.71545262565983,3478712468
iw,-57.9038314819335,-59.8265571594238,-124.19550869830812,62.240586167948315,3478729135
iw,-56.7767181396484,-60.8359985351562,-107.21163253309194,61.504614293859966,3478745802
iw,-55.8062934875488,-61.908519744873,-90.6874244678128,61.85097599021945,3478762469
iw,-54.8176078796386,-62.961929321289,-75.85854944798878,63.35268212790854,3478779136
iw,-53.590518951416,-64.0080947875976,-63.113941193947255,65.7962786224234,3478795803
iw,-52.6703872680664,-65.1111221313476,-52.10555415154766,68.72870907937798,3478812470
iw,-51.6251640319824,-66.3646011352539,-42.08279283025603,71.55035378701784,3478829137
iw,-50.7996482849121,-67.7520980834961,-32.29535714942572,73.62864489266222,3478845804
iw,-50.2813873291015,-69.1777420043945,-22.306257167138376,74.39897459303958,3478862471
iw,-50.2917175292968,-70.4409561157226,-12.114512773127451,73.42048805116796,3478879138
iw,-50.5725021362304,-71.5862884521484,-2.0758755823363035,70.37096852686878,3478895805
iw,-50.9105072021484,-72.5563201904296,7.308652766105117,64.99377413827494,3478912472
iw,-51.214256286621,-73.360969543457,15.628555704130916,57.035654732752626,3478929139
iw,-51.4989891052246,-74.0332717895507,22.732885106480335,46.22164063179307,3478945806
iw,-51.8810806274414,-74.5984878540039,28.792537560515747,32.29697255266386,3478962473
iw,-52.5334205627441,-75.0364761352539,34.262670339326675,15.133764888907082,3478979140
iw,-53.4785079956054,-75.258430480957,39.77156994880383,-5.133383260277963,3478995807
iw,-54.5125503540039,-75.1728210449218,45.958438989021914,-27.997897626251373,3479012474
iw,-55.2280197143554,-74.5663833618164,53.280296260088974,-52.548011390082,3479029141
iw,-55.9346961975097,-73.2421646118164,61.826751283582,-77.53112292527831,3479045808
iw,-56.8500061035156,-71.4434432983398,71.2107413119092,-101.49772779754369,3479062475
iw,-58.0039596557617,-69.7113876342773,80.60748786268982,-122.9808398642867,3479079142
iw,-60.0619392395019,-67.9011535644531,88.96551242277921,-140.672188730481,3479095809
iw,-62.3542938232421,-65.5434646606445,95.32705973124364,-153.58418329674242,3479112476
iw,-64.0856246948242,-62.4989433288574,99.12575771734177,-161.20072597930078,3479129143
iw,-65.5016403198242,-59.1684341430664,100.33210568413135,-163.59591575679838,3479145810
iw,-67.024673461914,-56.3298950195312,99.39725115493006,-161.46097436599405,3479162477
iw,-68.5345306396484,-53.943244934082,97.04622903365762,-155.97966781914906,3479179144
iw,-70.0306701660156,-51.9678764343261,94.02728978555088,-148.55401705482714,3479195811
iw,-71.5119247436523,-49.9657440185546,90.91546491529058,-140.46642055332603,3479212478
iw,-72.9777603149414,-47.7249488830566,88.02353969778827,-132.605561927619,3479229145
iw,-74.4599227905273,-45.4448204040527,85.42494653077077,-125.3494999851001,3479245812
iw,-75.9714050292968,-43.2409172058105,83.05641530834966,-118.61709871186603,3479262479
iw,-77.4861373901367,-41.4420166015625,80.84758896513493,-112.02706405784794,3479279146
iw,-78.9185714721679,-40.022834777832,78.82198281543343,-105.08369129278843,3479295813
iw,-80.2586059570312,-38.6552963256835,77.12910190780923,-97.33600652566666,3479312480
iw,-81.5187225341796,-37.2293891906738,75.99697510222774,-88.4947829316424,3479329147
iw,-82.7171936035156,-35.9683074951171,75.62737729631644,-78.50693910521785,3479345814
iw,-83.8286743164062,-35.0437698364257,76.07988664753641,-67.57970520194986,3479362481
iw,-84.9567108154296,-34.5005493164062,77.19688160617343,-56.1435066420113,3479379148
iw,-86.1583480834961,-33.9602088928222,78.6074708312212,-44.75858858418821,3479395815
iw,-87.3143081665039,-33.3271293640136,79.81799262498144,-33.99295124273786,3479412482
iw,-88.0801162719726,-33.0561943054199,80.35962211120095,-24.30619609632168,3479429149
iw,-87.8026885986328,-32.9753990173339,79.93375647969381,-15.963612019335004,3479445816
iw,-86.6476058959961,-33.0407218933105,78.48684288237892,-8.993465464119492,3479462483
iw,-85.4486083984375,-33.0081901550293,76.16609662477033,-3.1958915323554544,3479479150
iw,-84.4919509887695,-33.0429649353027,73.15475460956729,1.7948326068296716,3479495817
iw,-83.6948547363281,-33.1121520996093,69.44537117125634,6.4085567052311445,3479512484
iw,-82.9321975708007,-33.2879219055175,64.65400532510765,11.029049416067389,3479529151
iw,-82.101089477539,-33.6094245910644,57.97879870702137,15.91124212986657,3479545818
iw,-81.2340240478515,-34.2229232788085,48.35608168905629,21.14914232252915,3479562485
iw,-80.4981689453125,-35.0690536499023,34.78701364440913,26.693109605447077,3479579152
iw,-79.986831665039,-35.8203659057617,16.734205893397366,32.39280867381939,3479595819
iw,-79.7883911132812,-36.505558013916,-5.549076434854416,38.036741819583455,3479612486
iw,-79.9734802246093,-37.604434967041,-30.88283741192704,43.37422965325434,3479629153
iw,-80.905647277832,-38.8542785644531,-57.28745928018623,48.127108492896134,3479645820
iw,-82.6250457763671,-39.4607048034668,-82.35938510428294,52.00886607257972,3479662487
iw,-84.8194961547851,-40.2197914123535,-103.79244592658456,54.76532038538213,3479679154
iw,-87.110595703125,-41.4378318786621,-119.8861763359561,56.23941943963526,3479695821
iw,-89.0077133178711,-42.5442771911621,-129.8908188709954,56.445968378737206,3479712488
iw,-87.742935180664,-43.4996376037597,-134.1110101106795,55.62586156822769,3479729155
iw,-85.7509384155273,-44.5490684509277,-133.7848319215369,54.24768140456582,3479745822
iw,-83.5598373413086,-45.611343383789,-130.81347653755515,52.94171331181003,3479762489
iw,-81.1837921142578,-46.5678329467773,-127.40944551350313,52.37429805274397,3479779156
iw,-79.2636413574218,-47.4302825927734,-125.6888025240419,53.08762605069556,3479795823
iw,-77.7013397216796,-48.3033027648925,-127.22321530486094,55.34287178313793,3479812490
iw,-76.0420608520507,-49.171516418457,-132.62070388571198,59.01379548183109,3479829157
iw,-74.0111007690429,-50.1094665527343,-141.2706988433106,63.57577477854545,3479845824
iw,-71.5793228149414,-51.2489547729492,-151.39015815506124,68.21414138482174,3479862491
iw,-68.8422546386718,-52.6201972961425,-160.41755845162018,72.03763674476193,3479879158
iw,-65.7135543823242,-54.1648139953613,-165.66721084806667,74.33992513749368,3479895825
iw,-62.5787124633789,-55.6809043884277,-165.04890874578484,74.82314830720004,3479912492
iw,-60.0269470214843,-57.0522956848144,-157.62636176248085,73.70005770142315,3479929159
iw,-57.5822639465332,-58.2107505798339,-143.84248320318605,71.63033240767555,3479945826
iw,-55.4174575805664,-59.1857566833496,-125.3538307886658,69.50819381342063,3479962493
iw,-54.3431968688964,-60.1083221435546,-104.5431305920878,68.1751803004635,3479979160
iw,-53.5588226318359,-61.095100402832,-83.87588656756454,68.15854129260029,3479995827
iw,-52.7131576538085,-62.2204971313476,-65.308132445354,69.52172365387297,3480012494
iw,-51.7975807189941,-63.4622535705566,-49.92192824991332,71.86754890084948,3480029161
iw,-51.2459754943847,-64.7532806396484,-37.87008933891002,74.4786308737068,3480045828
iw,-50.4815139770507,-66.1264114379882,-28.59380863454455,76.53577471714638,3480062495
iw,-49.7978973388671,-67.5922012329101,-21.189516329227654,77.3360955285473,3480079162
iw,-49.4176063537597,-69.0405120849609,-14.773150231427074,76.43927805407411,3480095829
iw,-49.3443260192871,-70.3527450561523,-8.72051276313527,73.69755859379521,3480112496
iw,-49.5867118835449,-71.4348754882812,-2.733609010738463,69.16588288608737,3480129163
iw,-49.8237762451171,-72.263671875,3.2377655955849245,62.933670025432114,3480145830
iw,-50.0653076171875,-72.8711013793945,9.140161546110443,54.954020036476095,3480162497
iw,-50.304084777832,-73.435302734375,14.94643923020432,44.953676338309826,3480179164
iw,-50.5132865905761,-74.0494613647461,20.72739386749226,32.47834417005985,3480195831
iw,-50.891990661621,-74.6726150512695,26.662139541028758,17.06983975928907,3480212498
iw,-51.695514678955,-75.0979843139648,33.00507449390237,-1.4913034698037733,3480229165
iw,-52.7225914001464,-75.1361541748046,40.02233059297529,-22.979481685877342,3480245832
iw,-53.5683097839355,-74.5699157714843,47.89805691323834,-46.64260029368186,3480262499
iw,-54.2586212158203,-73.2687149047851,56.617010390801106,-71.27760288417693,3480279166
iw,-55.0652694702148,-71.3900527954101,65.86134098981128,-95.42438508396167,3480295833
iw,-56.0135192871093,-69.5282135009765,74.98835181055318,-117.59513181993242,3480312500
iw,-57.6600494384765,-67.7821731567382,83.14282258914662,-136.46499995447965,3480329167
iw,-59.843521118164,-65.8394012451171,89.49247912141202,-151.0031310373048,3480345834
iw,-61.7206077575683,-63.1536712646484,93.49629967842604,-160.57302757258313,3480362501
iw,-63.0969886779785,-59.6747817993164,95.08252768889142,-165.02946193745834,3480379168
iw,-64.5483093261718,-56.5096931457519,94.65649628060055,-164.78591020050706,3480395835
iw,-66.0814514160156,-53.8996200561523,92.94640577731256,-160.78086416387066,3480412502
iw,-67.5124053955078,-51.7743873596191,90.76478219198763,-154.2931584106384,3480429169
iw,-68.8994674682617,-49.7461242675781,88.77965450007738,-146.63989782038607,3480445836
iw,-70.3461074829101,-47.4937438964843,87.36509580986613,-138.86681317627733,3480462503
iw,-71.7850189208984,-45.2226676940918,86.56318428783939,-131.5477111068004,3480479170
iw,-73.2569732666015,-42.9206848144531,86.15341438053974,-124.74789046364397,3480495837
iw,-74.80810546875,-40.9565315246582,85.7959561379056,-118.1285609205438,3480512504
iw,-76.388916015625,-39.4137687683105,85.19618795036342,-111.12720475295977,3480529171
iw,-77.9258956909179,-38.060920715332,84.23387157664821,-103.15429668487643,3480545838
iw,-79.4128799438476,-36.5346908569335,83.01313336738995,-93.77240750822847,3480562505
iw,-80.7801055908203,-35.1025276184082,81.81690653166311,-82.83555387789528,3480579172
iw,-82.0073623657226,-34.1346282958984,80.98407103987637,-70.55999783567603,3480595839
iw,-83.1726913452148,-33.5780944824218,80.75739212249769,-57.49888061152979,3480612506
iw,-84.386962890625,-32.9937362670898,81.16343646755598,-44.42177852628281,3480629173
iw,-85.6273574829101,-32.4679222106933,81.97466385441548,-32.13967139781541,3480645840
iw,-86.8304672241211,-32.1616020202636,82.77120046093938,-21.332824028228387,3480662507
iw,-87.7405090332031,-32.1183242797851,83.07815090765955,-12.425337304725984,3480679174
iw,-87.746841430664,-32.1969032287597,82.52104872905507,-5.52601180789211,3480695841
iw,-86.8805236816406,-32.2509078979492,80.93111310094265,-0.43853758404136683,3480712508
iw,-85.757209777832,-32.2023048400878,78.34907712062594,3.26709742018099,3480729175
iw,-84.6937866210937,-32.2548179626464,74.91716242233238,6.14324069755705,3480745842
iw,-83.8070449829101,-32.4240760803222,70.69895435483475,8.74610584320403,3480762509
iw,-82.9969177246093,-32.6755599975585,65.5056318236219,11.542840200553872,3480779176
iw,-82.1475753784179,-33.02587890625,58.81497110199302,14.862340888166608,3480795843
iw,-81.3190002441406,-33.5605506896972,49.83937000940768,18.8877292881978,3480812510
iw,-80.6391830444336,-34.2702903747558,37.741730916564656,23.672348262979376,3480829177
iw,-80.1278533935546,-34.8624763488769,21.938188091643003,29.15590100333475,3480845844
iw,-79.8397598266601,-35.4128684997558,2.388741348975491,35.16628999423233,3480862511
iw,-79.972183227539,-36.606575012207,-20.22672975253413,41.411984320580224,3480879178
iw,-80.6658401489257,-37.9137840270996,-44.518735592944566,47.485120468523604,3480895845
iw,-81.8824081420898,-38.5013389587402,-68.59964300063976,52.895187579758144,3480912512
iw,-83.6361007690429,-39.2086791992187,-90.4459243961998,57.14152323828499,3480929179
iw,-85.7082824707031,-40.4144058227539,-108.31107149113843,59.819470334519586,3480945846
iw,-87.964241027832,-41.6099967956543,-121.07640066236988,60.738947175323574,3480962513
iw,-89.1327285766601,-42.6532936096191,-128.45779075618543,60.01666543550593,3480979180
iw,-87.7731399536132,-43.7034759521484,-131.0440776379668,58.10016227710128,3480995847
iw,-85.52490234375,-44.7759742736816,-130.19023627369575,55.702773592351676,3481012514
iw,-82.7888717651367,-45.785400390625,-127.79310954446242,53.659771739424244,3481029181
iw,-80.7422714233398,-46.7057380676269,-125.95150743055864,52.73849599710155,3481045848
iw,-79.21484375,-47.5850715637207,-126.51420933224226,53.446444380396024,3481062515
iw,-77.604019165039,-48.4424285888671,-130.5851346409413,55.88607961085867,3481079182
iw,-75.5810089111328,-49.3259925842285,-138.13933152133094,59.702395791724314,3481095849
iw,-73.1502304077148,-50.3503227233886,-147.919622984681,64.15275240197671,3481112516
iw,-70.4010314941406,-51.6106567382812,-157.69778367762112,68.2957661248133,3481129183
iw,-67.4733352661132,-53.064712524414,-164.843823664671,71.25429039572356,3481145850
iw,-64.334358215332,-54.5663261413574,-167.0286716041513,72.47311091930611,3481162517
iw,-61.4510841369628,-55.8815765380859,-162.83831442748317,71.88429241023401,3481179184
iw,-58.7065353393554,-56.9778938293457,-152.11064976336303,69.92206158377344,3481195851
iw,-56.4664192199707,-57.9591903686523,-135.90214216140467,67.38467396658149,3481212518
iw,-55.1706008911132,-58.9433860778808,-116.11687136759147,65.19583781522986,3481229185
iw,-54.2006683349609,-59.9463577270507,-94.9445426327183,64.14654723285435,3481245852
iw,-53.4498443603515,-60.9975433349609,-74.31337112504212,64.69156711661093,3481262519
iw,-52.0550117492675,-62.1102714538574,-55.53803071774511,66.8453430842808,3481279186
iw,-51.3071060180664,-63.2522163391113,-39.23998936642225,70.18846767215807,3481295853
iw,-50.7518310546875,-64.4314651489257,-25.49349279162316,73.96990188895957,3481312520
iw,-50.3269233703613,-65.7821884155273,-14.073470287628302,77.27356773821442,3481329187
iw,-50.1886863708496,-67.318733215332,-4.679275080925268,79.20696007316464,3481345854
iw,-50.3889389038085,-68.8547821044921,2.9421321486882634,79.06271338170082,3481362521
iw,-50.7207527160644,-70.2986984252929,8.985883778754854,76.4072609079687,3481379188
iw,-51.0508232116699,-71.3922500610351,13.652950099926427,71.07195550582605,3481395855
iw,-51.4536743164062,-72.2450561523437,17.226934250670983,63.06018270008783,3481412522
iw,-51.7722549438476,-72.9143905639648,20.113470886232168,52.42260937160196,3481429189
iw,-52.0355911254882,-73.5093841552734,22.822925458834767,39.16852123628282,3481445856
iw,-52.3339500427246,-74.0410995483398,25.908392092660574,23.261734117767705,3481462523
iw,-52.9858818054199,-74.4076461791992,29.88542373752454,4.704154238417272,3481479190
iw,-53.9795951843261,-74.4630889892578,35.15199355843307,-16.335466815680533,3481495857
iw,-54.8412780761718,-74.108657836914,41.90895322349782,-39.41027994158451,3481512524
iw,-55.3793258666992,-73.0602111816406,50.07785434230392,-63.74969285138307,3481529191
iw,-56.0573654174804,-71.4278411865234,59.23778761359043,-88.289531600063,3481545858
iw,-56.9997482299804,-69.6369247436523,68.63407693689486,-111.75383937564216,3481562525
iw,-58.403751373291,-68.0072479248046,77.30724289869178,-132.75947746052518,3481579192
iw,-60.4267654418945,-66.0154037475586,84.33412670490203,-149.94210406124918,3481595859
iw,-62.3766059875488,-63.4171447753906,89.09776646591166,-162.1288391454994,3481612526
iw,-63.7931823730468,-59.9664268493652,91.46669411796603,-168.56638861381938,3481629193
iw,-65.1103363037109,-56.5052185058593,91.80096969074285,-169.1502529647739,3481645860
iw,-66.537857055664,-53.6245956420898,90.78893810093821,-164.5442552858118,3481662527
iw,-67.9796600341796,-51.4190864562988,89.19551031879051,-156.094026661269,3481679194
iw,-69.3517684936523,-49.4701080322265,87.62626015966332,-145.53039501305085,3481695861
iw,-70.698013305664,-47.3406333923339,86.38570784728905,-134.56476230191265,3481712528
iw,-72.1439819335937,-45.1879501342773,85.46257550887981,-124.52200926595134,3481729195
iw,-73.6818008422851,-43.1361389160156,84.6305647219883,-116.11742649459926,3481745862
iw,-75.2600860595703,-41.3680267333984,83.61745023651996,-109.40731541175225,3481762529
iw,-76.775894165039,-39.8945999145507,82.27431972272248,-103.88545571048957,3481779196
iw,-78.2430038452148,-38.5616912841796,80.67880143418525,-98.68004572983652,3481795863
iw,-79.6326828002929,-37.1590614318847,79.13242547414222,-92.80891675689624,3481812530
iw,-80.8588790893554,-35.6939697265625,78.05316680714509,-85.44825391208613,3481829197
iw,-82.0021286010742,-34.4831428527832,77.80440824632146,-76.1574489697497,3481845864
iw,-83.168960571289,-33.681167602539,78.52693143623034,-65.0000208958574,3481862531
iw,-84.404312133789,-33.0757064819335,80.04173085781973,-52.52648904879454,3481879198
iw,-85.6961669921875,-32.5158996582031,81.8669058717057,-39.631813639318416,3481895865
iw,-87.0372009277343,-32.2341918945312,83.35003746479688,-27.338810284732347,3481912532
iw,-88.1861953735351,-32.1581077575683,83.8735423276354,-16.57061632922325,3481929199
iw,-88.2103118896484,-32.2316055297851,83.05996584194024,-7.965306996967856,3481945866
iw,-87.1584777832031,-32.2476806640625,80.89804079688508,-1.7681357685520558,3481962533
iw,-85.8512649536132,-32.2633743286132,77.73257915400788,2.1834660775097294,3481979200
iw,-84.7387313842773,-32.3516387939453,74.10693920462073,4.389741618678606,3481995867
iw,-83.8345184326171,-32.440616607666,70.50254106194961,5.5605488689070315,3482012534
iw,-83.0001144409179,-32.4789390563964,67.06631276443387,6.466372580648717,3482029201
iw,-82.110366821289,-32.6296768188476,63.43318568242678,7.804398943687798,3482045868
iw,-81.1806259155273,-32.9027862548828,58.7248172345163,10.105876632336345,3482062535
iw,-80.2889404296875,-33.454978942871,51.74544164061307,13.693304857137754,3482079202
iw,-79.4972305297851,-34.0540390014648,41.32640505894512,18.675285783631736,3482095869
iw,-78.8646697998046,-34.3905448913574,26.719031356981045,24.955832556340987,3482112536
iw,-78.4821624755859,-35.0163993835449,7.9155087988679576,32.24364628713494,3482129203
iw,-78.4624786376953,-36.3499069213867,-14.208116039431664,40.06770423720998,3482145870
iw,-78.9222183227539,-37.1270141601562,-37.98767596964756,47.81763255995694,3482162537
iw,-80.1107788085937,-37.599323272705,-61.2980439847483,54.82150319713706,3482179204
iw,-81.9097061157226,-38.5092658996582,-82.0282909494283,60.45942864969714,3482195871
iw,-83.9722747802734,-39.8922958374023,-98.56341107007268,64.29578139936393,3482212538
iw,-86.0518646240234,-41.0825996398925,-110.12221454278075,66.19494541332723,3482229205
iw,-87.5409088134765,-42.1930656433105,-116.85650965245759,66.3754261033039,3482245872
iw,-88.2751312255859,-43.3332481384277,-119.71515827200258,65.37243369887749,3482262539
iw,-87.9385375976562,-44.4953002929687,-120.16136443411507,63.91513936934969,3482279206
iw,-86.0186691284179,-45.6238250732421,-119.84887409441163,62.75528257306375,3482295873
iw,-83.8923721313476,-46.7121353149414,-120.31290789622099,62.492654678971434,3482312540
iw,-82.1105422973632,-47.7645568847656,-122.67779991502843,63.43711448417585,3482329207
iw,-80.4947738647461,-48.8078384399414,-127.38924634356958,65.5380219736668,3482345874
iw,-78.6359100341796,-49.8951759338378,-134.0370842509442,68.40189467410978,3482362541
iw,-76.3239212036132,-51.120433807373,-141.3731933669859,71.4024701686714,3482379208
iw,-73.9509963989257,-52.510498046875,-147.5912815475117,73.86216581978341,3482395875
iw,-71.1861114501953,-53.9570693969726,-150.8314658523473,75.2566295496634,3482412542
iw,-68.1230926513671,-55.4084777832031,-149.76161289993945,75.37783765757288,3482429209
iw,-65.4232788085937,-56.7572937011718,-144.02818946588977,74.39803688334412,3482445876
iw,-63.1074523925781,-57.9240226745605,-134.39422767869013,72.80864327758444,3482462543
iw,-61.2886543273925,-58.9715194702148,-122.48997210430731,71.2537186453865,3482479210
iw,-60.4844284057617,-59.9792404174804,-110.25480741140461,70.31743242263009,3482495877
iw,-59.4531173706054,-61.062744140625,-99.28080477121624,70.34100808930204,3482512544
iw,-57.951732635498,-62.2717857360839,-90.3132004711631,71.32983036080091,3482529211
iw,-56.768310546875,-63.5957908630371,-83.0943836282515,72.97340342697024,3482545878
iw,-55.2228240966796,-64.9192581176757,-76.58957375735493,74.75825524245852,3482562545
iw,-53.5062217712402,-66.1722564697265,-69.47923547114085,76.12539938420959,3482579212
iw,-52.0553703308105,-67.4603958129882,-60.710708387445976,76.61787301321152,3482595879
iw,-51.2129554748535,-68.8525009155273,-49.897351657773235,75.97491172942807,3482612546
iw,-50.772102355957,-70.2879638671875,-37.43172508584299,74.14668680805502,3482629213
iw,-50.5422286987304,-71.4007873535156,-24.303172937305177,71.2228844736759,3482645880
iw,-50.6370277404785,-72.3452224731445,-11.721958434233429,67.29341078838624,3482662547
iw,-50.9614791870117,-73.1214904785156,-0.7064201298718079,62.289406755185034,3482679214
iw,-51.2300262451171,-73.8159637451171,8.222054474500846,55.87331874264247,3482695881
iw,-51.4463386535644,-74.5455322265625,15.150267682520685,47.43970770759508,3482712548
iw,-51.5884475708007,-75.3154602050781,20.683515709186945,36.24924448910629,3482729215
iw,-51.7758750915527,-76.0154953002929,25.71734825894927,21.662376831557474,3482745882
iw,-52.3203201293945,-76.4713897705078,31.166624502613146,3.3930947694975955,3482762549
iw,-53.3223304748535,-76.5499038696289,37.734309814759975,-18.30992633506081,3482779216
iw,-54.2455177307128,-76.0171203613281,45.75871849866761,-42.62036639328789,3482795883
iw,-54.9967231750488,-74.7645492553711,55.14007625571936,-68.23934710528961,3482812550
iw,-55.746223449707,-72.9769897460937,65.34201279536425,-93.60020698942016,3482829217
iw,-56.8427772521972,-71.0553359985351,75.48023154968682,-117.09421919701335,3482845884
iw,-58.5138778686523,-69.3603363037109,84.51052697443649,-137.25498406014603,3482862551
iw,-60.5323524475097,-67.2815551757812,91.48952100430841,-152.89145338789766,3482879218
iw,-62.4126510620117,-64.5722732543945,95.82854080046079,-163.20375032820073,3482895885
iw,-63.8633079528808,-61.1492691040039,97.44352586532194,-167.9084122994191,3482912552
iw,-65.3347396850586,-57.9382896423339,96.74528124971874,-167.3436350935737,3482929219
iw,-66.8995208740234,-55.2643585205078,94.48722019501814,-162.4772370227935,3482945886
iw,-68.4005737304687,-53.0700569152832,91.54131777966785,-154.756433191715,3482962553
iw,-69.8091430664062,-50.932762145996,88.68170228583448,-145.81430827929833,3482979220
iw,-71.2128372192382,-48.425537109375,86.43206053500332,-137.12138540490824,3482995887
iw,-72.6648635864257,-46.0560417175293,85.00231071784889,-129.68808800197345,3483012554
iw,-74.0887451171875,-44.2968635559082,84.31367020930247,-123.89006070619308,3483029221
iw,-75.5355224609375,-42.8639602661132,84.09092224898555,-119.44726947765724,3483045888
iw,-77.0226135253906,-41.1116981506347,83.98772459811089,-115.56228986079466,3483062555
iw,-78.519302368164,-38.982624053955,83.70701792496871,-111.19393184718415,3483079222
iw,-79.995491027832,-37.1285324096679,83.08379341840299,-105.39321910468394,3483095889
iw,-81.4065551757812,-35.6697235107421,82.11031633917067,-97.58846180768526,3483112556
iw,-82.7002868652343,-34.6199340820312,80.90233724482601,-87.72038048603943,3483129223
iw,-83.9234313964843,-33.7966690063476,79.62452572632417,-76.1998390261289,3483145890
iw,-85.0790100097656,-32.9471282958984,78.40754416588224,-63.740588394685375,3483162557
iw,-86.1423797607421,-31.9893550872802,77.29157223383385,-51.155157440223356,3483179224
iw,-87.0941848754882,-31.425386428833,76.21965073384774,-39.18337807234058,3483195891
iw,-87.7170639038086,-31.0780239105224,75.08238280972199,-28.380670573562906,3483212558
iw,-87.5901184082031,-30.8215904235839,73.79094239969682,-19.0627141741017,3483229225
iw,-86.7874069213867,-30.7649765014648,72.33782222350453,-11.295011134684684,3483245892
iw,-85.7466049194336,-30.8959999084472,70.803475427539,-4.918966115079171,3483262559
iw,-84.7361297607421,-31.088768005371,69.28602236568085,0.3913107199012737,3483279226
iw,-83.8407592773437,-31.2708988189697,67.76587849569718,5.04917270798967,3483295893
iw,-83.0165252685546,-31.4856433868408,65.95434889669744,9.466725509002906,3483312560
iw,-82.1612319946289,-31.7348079681396,63.1975546339727,13.978814704671832,3483329227
iw,-81.2939224243164,-32.1882972717285,58.500979469319006,18.801577345182608,3483345894
iw,-80.5269241333007,-32.9338302612304,50.704250454546454,24.034159345386396,3483362561
iw,-79.8432464599609,-33.7861976623535,38.783027253930804,29.689489267393547,3483379228
iw,-79.2351913452148,-34.422119140625,22.20334535216336,35.72331100668091,3483395895
iw,-78.8547744750976,-35.4333915710449,1.2193007926578603,42.03492648572961,3483412562
iw,-78.9080429077148,-36.8940315246582,-22.999416054815566,48.43715323885038,3483429229
iw,-79.6527481079101,-37.6204986572265,-48.48755332899137,54.620498863440766,3483445896
iw,-81.0875625610351,-37.9576873779296,-72.85366752764934,60.15206192537314,3483462563
iw,-83.0885772705078,-39.22652053833,-93.80808928542668,64.54387934539719,3483479230
iw,-85.4194412231445,-40.7851371765136,-109.69024296540572,67.39141221719514,3483495897
iw,-87.5240097045898,-42.1102485656738,-119.8296546768265,68.53143189013156,3483512564
iw,-88.4817352294921,-43.1850395202636,-124.64060598863006,68.13963358997772,3483529231
iw,-87.9653930664062,-44.3191375732421,-125.45596186974831,66.71367734540824,3483545898
iw,-86.2953567504882,-45.5109214782714,-124.18857095784016,64.94748382344311,3483562565
iw,-83.9526977539062,-46.6095390319824,-122.920786224897,63.54847252563603,3483579232
iw,-81.9803161621093,-47.6648712158203,-123.48075791639182,63.05828745495725,3483595899
iw,-80.6055221557617,-48.6731605529785,-127.03891207736169,63.72383039245239,3483612566
iw,-79.0229110717773,-49.7030563354492,-133.7915124652744,65.44802935366491,3483629233
iw,-76.7465133666992,-50.8937683105468,-142.845818063928,67.83169741735658,3483645900
iw,-74.0944290161132,-52.16743850708,-152.40203694596389,70.29517307817463,3483662567
iw,-71.1226577758789,-53.5214767456054,-160.22100903646893,72.2442669211987,3483679234
iw,-67.7963256835937,-54.8843193054199,-164.23703694823683,73.23007448208662,3483695901
iw,-65.0469665527343,-56.1439018249511,-163.10551378957868,73.0555576099794,3483712568
iw,-62.7458534240722,-57.3075218200683,-156.50292273732728,71.80309174946737,3483729235
iw,-60.34907913208,-58.4306449890136,-145.10127063975906,69.78629096696835,3483745902
iw,-58.4234504699707,-59.5068550109863,-130.26208125260905,67.45259003901863,3483762569
iw,-56.8183250427246,-60.5706100463867,-113.5818235895172,65.271081560543,3483779236
iw,-55.7344207763671,-61.6605529785156,-96.4508272226679,63.63318511737638,3483795903
iw,-54.8636436462402,-62.7317352294921,-79.76805004505846,62.77956071956202,3483812570
iw,-53.2062492370605,-63.7821998596191,-63.89152988096739,62.75436079243342,3483829237
iw,-52.0900955200195,-64.8202819824218,-48.808799108163086,63.38276621677387,3483845904
iw,-51.4586563110351,-65.9271697998046,-34.41897942018257,64.26925963835922,3483862571
iw,-51.0044059753418,-67.081184387207,-20.780552298445098,64.81758023805673,3483879238
iw,-50.7713775634765,-68.1760635375976,-8.215571757442511,64.27467926336206,3483895905
iw,-51.0478019714355,-69.1729965209961,2.7594927150420103,61.800036472241544,3483912572
iw,-51.5117759704589,-70.0728912353515,11.630477061420274,56.55997201347645,3483929239
iw,-51.9826393127441,-70.820686340332,18.118565917059623,47.84337975830628,3483945906
iw,-52.4214897155761,-71.3964080810546,22.35211859105691,35.18831001574405,3483962573
iw,-52.8167419433593,-71.7781600952148,24.910712365601945,18.498804833758683,3483979240
iw,-53.2849960327148,-71.9761962890625,26.72600675796778,-1.8763981542503303,3483995907
iw,-53.8651618957519,-71.8456573486328,28.870214962835593,-25.13096143182373,3484012574
iw,-54.5396194458007,-71.149658203125,32.289586911378514,-50.06861575229105,3484029241
iw,-54.9183845520019,-69.8747253417968,37.55086298179058,-75.24240281364169,3484045908
iw,-55.3156280517578,-68.1105804443359,44.67267252110648,-99.13126095603907,3484062575
iw,-55.9746437072753,-66.3076934814453,53.10813717053105,-120.30979088397666,3484079242
iw,-57.1989212036132,-64.5478363037109,61.911012874927096,-137.58442251622427,3484095909
iw,-59.2068824768066,-62.5816650390625,70.04662602812442,-150.1036430090893,3484112576
iw,-60.9844017028808,-59.6661148071289,76.72976381167949,-157.46731515792962,3484129243
iw,-62.1644477844238,-56.1282234191894,81.64304315178626,-159.83158465824405,3484145910
iw,-63.2296447753906,-53.1419944763183,84.94670174842857,-157.94819453044065,3484162577
iw,-64.5828247070312,-50.799144744873,87.10212341056955,-153.05288650458132,3484179244
iw,-65.9915466308593,-48.8635101318359,88.61870181953681,-146.5745735962286,3484195911
iw,-67.4461212158203,-47.1082077026367,89.84565894964003,-139.74694461371928,3484212578
iw,-68.9956893920898,-45.1602973937988,90.8813105039887,-133.28191830246678,3484229245
iw,-70.5980453491211,-42.9307327270507,91.60849027723529,-127.247365189123,3484245912
iw,-72.2600402832031,-40.5477066040039,91.81773081451524,-121.19052490899814,3484262579
iw,-73.9668960571289,-38.3674240112304,91.3566643900728,-114.43011180907826,3484279246
iw,-75.5950164794921,-36.6611557006835,90.24336916510595,-106.37466634436673,3484295913
iw,-77.0844345092773,-35.533348083496,88.70044630928106,-96.74219717917585,3484312580
iw,-78.4982147216796,-34.4275321960449,87.09943728284325,-85.6311507272167,3484329247
iw,-79.8955154418945,-33.2970237731933,85.83998710501747,-73.46752329665263,3484345914
iw,-81.262710571289,-32.4243698120117,85.21126537554909,-60.88455997480239,3484362581
iw,-82.5962829589843,-31.9014434814453,85.2869322308846,-48.5826032525894,3484379248
iw,-83.9530563354492,-31.3475742340087,85.89120503706047,-37.198253201773255,3484395915
iw,-85.396240234375,-30.8098831176757,86.64916819165101,-27.202161356549066,3484412582
iw,-86.8217697143554,-30.5702533721923,87.10620808276539,-18.837940960794477,3484429249
iw,-88.0477676391601,-30.4825172424316,86.87646362020106,-12.105117932516567,3484445916
iw,-88.4102096557617,-30.3771820068359,85.76677114627859,-6.782038712253173,3484462583
iw,-87.5746536254882,-30.3839702606201,83.82691697674974,-2.4830324406891244,3484479250
iw,-86.3765792846679,-30.3733863830566,81.29906709268163,1.2576537532933416,3484495917
iw,-85.1407089233398,-30.417947769165,78.4727062839775,4.888784106683259,3484512584
iw,-84.0254516601562,-30.4523620605468,75.48641721532506,8.753883423243655,3484529251
iw,-83.0283889770507,-30.5598163604736,72.14376911617168,13.038520875165572,3484545918
iw,-82.0789794921875,-30.9885559082031,67.81819521481003,17.77379179503189,3484562585
iw,-81.140884399414,-31.6955337524414,61.504886826857735,22.894917761644244,3484579252
iw,-80.2934799194336,-32.6241188049316,52.03659264491718,28.322988106341292,3484595919
iw,-79.5468063354492,-33.2204856872558,38.42453295458806,34.01874280820949,3484612586
iw,-78.916389465332,-33.9401054382324,20.233199957765258,39.97013912030388,3484629253
iw,-78.5462341308593,-35.3796691894531,-2.1321323037787456,46.11675006835203,3484645920
iw,-78.728515625,-36.3031997680664,-27.338826460184507,52.255615573548056,3484662587
iw,-79.5973739624023,-36.6255493164062,-53.30326429631163,57.989613572013894,3484679254
iw,-81.2512054443359,-37.6303977966308,-77.60537314600725,62.76608135837341,3484695921
iw,-83.4323043823242,-39.1509742736816,-98.02429468041531,66.01487882513075,3484712588
iw,-85.7342834472656,-40.4952888488769,-113.02459776491482,67.34155325550442,3484729255
iw,-87.1932830810546,-41.6300468444824,-122.04223556440681,66.69273406174021,3484745922
iw,-87.4460296630859,-42.669864654541,-125.51040716443127,64.42047283825418,3484762589
iw,-87.12451171875,-43.8293533325195,-124.67603162592104,61.223996616694954,3484779256
iw,-85.6356048583984,-44.9144172668457,-121.31382100969675,57.9984297314355,3484795923
iw,-83.7192459106445,-45.9424400329589,-117.41514560086438,55.639897439592595,3484812590
iw,-82.1317443847656,-46.8650398254394,-114.86339087894959,54.85176143139699,3484829257
iw,-80.5351943969726,-47.7730636596679,-115.08917548051798,55.988469728735915,3484845924
iw,-78.7838287353515,-48.6860618591308,-118.74833709311258,58.96913684255385,3484862591
iw,-76.832290649414,-49.7031517028808,-125.52270859181101,63.28562238059741,3484879258
iw,-74.7040405273437,-50.888328552246,-134.14302251538638,68.11223472834818,3484895925
iw,-72.4052658081054,-52.2114677429199,-142.66792032456732,72.49743708518946,3484912592
iw,-69.6847610473632,-53.6211280822753,-148.96194471575575,75.59145367009874,3484929259
iw,-66.9629135131836,-55.0378341674804,-151.2412817879878,76.84952959289944,3484945926
iw,-64.651741027832,-56.3599777221679,-148.5268425921821,76.15638133477908,3484962593
iw,-62.382038116455,-57.5849304199218,-140.87051477060984,73.8413355961452,3484979260
iw,-59.820026397705,-58.7560539245605,-129.29023985181638,70.58553053602175,3484995927
iw,-58.2915115356445,-59.8754348754882,-115.43571959086339,67.24971150629801,3485012594
iw,-57.3046989440918,-60.9404716491699,-101.08761603791318,64.66596579254418,3485029261
iw,-56.3544387817382,-61.9440116882324,-87.65384984635345,63.43972842886597,3485045928
iw,-54.8600769042968,-62.8631973266601,-75.83784113264254,63.80446825687586,3485062595
iw,-53.6453132629394,-63.7878608703613,-65.58784679888763,65.5631757952933,3485079262
iw,-52.4329681396484,-64.8803329467773,-56.3156003832804,68.1355265358237,3485095929
iw,-51.5042152404785,-66.1537857055664,-47.26524319553487,70.70388612410959,3485112596
iw,-50.6968078613281,-67.5964584350586,-37.874568717807,72.41839315123406,3485129263
iw,-50.1665687561035,-69.1058197021484,-28.00107662720729,72.59443278323486,3485145930
iw,-49.9945487976074,-70.4031753540039,-17.95366292650703,70.83198971505699,3485162597
iw,-50.0215301513671,-71.4716110229492,-8.345232207021725,67.01454310255342,3485179264
iw,-50.2126693725585,-72.2632369995117,0.1607376886189991,61.197000930695964,3485195931
iw,-50.4795265197753,-72.8943786621093,7.111025548294378,53.4434992576792,3485212598
iw,-50.7598800659179,-73.4695205688476,12.443082234843702,43.69964222017196,3485229265
iw,-51.0074501037597,-74.0578918457031,16.534990532841363,31.766223881144814,3485245932
iw,-51.2699966430664,-74.6658782958984,20.121307133095474,17.39052158367994,3485262599
iw,-51.7656517028808,-75.0856781005859,24.10792523854348,0.4324406622285847,3485279266
iw,-52.52925491333,-75.0768356323242,29.33614130767291,-18.97324880845343,3485295933
iw,-53.0933647155761,-74.5112991333007,36.34704067387851,-40.33117281030733,3485312600
iw,-53.6476974487304,-73.3304214477539,45.19645967868986,-62.8046385085578,3485329267
iw,-54.3079528808593,-71.6993942260742,55.37557809935683,-85.3142430711218,3485345934
iw,-55.1521453857421,-69.9991607666015,65.8880651519058,-106.66092323510563,3485362601
iw,-56.7812614440918,-68.4458389282226,75.49728334955823,-125.63381004944509,3485379268
iw,-58.938117980957,-66.6481704711914,83.08464862383393,-141.10919091929168,3485395935
iw,-60.743782043457,-64.0848007202148,87.99078696739224,-152.1799036221722,3485412602
iw,-62.0027923583984,-60.7498359680175,90.1997962119348,-158.33387214566247,3485429269
iw,-63.3045425415039,-57.5392417907714,90.295637773451,-159.6324517455327,3485445936
iw,-64.7331848144531,-54.8641967773437,89.22691763846534,-156.78454101725592,3485462603
iw,-66.1539077758789,-52.7809906005859,87.99076067804634,-151.03314070186298,3485479270
iw,-67.5476303100586,-50.8595695495605,87.3529853375413,-143.86467102173188,3485495937
iw,-68.9863204956054,-48.6096038818359,87.68099238035921,-136.64744911168142,3485512604
iw,-70.4907836914062,-46.2319145202636,88.91535496658486,-130.33251759185129,3485529271
iw,-72.0811233520507,-43.9827919006347,90.66524170971371,-125.29909855213229,3485545938
iw,-73.7577896118164,-42.0170059204101,92.38408299454981,-121.35128361468477,3485562605
iw,-75.4371719360351,-40.3451118469238,93.56621615629157,-117.82871263325713,3485579272
iw,-77.0886459350586,-38.7669525146484,93.90555605678273,-113.79327165760208,3485595939
iw,-78.724853515625,-37.139476776123,93.37381920959697,-108.26643064335025,3485612606
iw,-80.2864303588867,-35.435073852539,92.20304545112673,-100.48683348289927,3485629273
iw,-81.7724227905273,-33.8826866149902,90.78634273438216,-90.13420693948463,3485645940
iw,-83.1801071166992,-32.7779846191406,89.5339988202493,-77.45025738405599,3485662607
iw,-84.5311965942382,-31.919355392456,88.7338902360765,-63.205908209832614,3485679274
iw,-85.9441146850586,-31.1151599884033,88.46183252556267,-48.51511880136668,3485695941
iw,-87.4096527099609,-30.7746028900146,88.5682793432011,-34.55079487784527,3485712608
iw,-88.6384353637695,-30.8881034851074,88.73757965187534,-22.251600387569315,3485729275
iw,-88.4715881347656,-30.884199142456,88.58655837653468,-12.111530247569371,3485745942
iw,-87.1551818847656,-30.8744735717773,87.75391255771434,-4.117269390276498,3485762609
iw,-85.6984405517578,-30.7192363739013,85.93825725326269,2.1551832962440765,3485779276
iw,-84.4035339355468,-30.6518001556396,82.86865065228376,7.3359383933574716,3485795943
iw,-83.3196258544921,-30.728006362915,78.22750077049919,12.040325962965602,3485812610
iw,-82.3810958862304,-31.1071472167968,71.57735536199256,16.71822770114722,3485829277
iw,-81.4800262451171,-31.8332042694091,62.35385792347678,21.61363411951496,3485845944
iw,-80.6199264526367,-32.8299560546875,49.966409230114444,26.813500294067563,3485862611
iw,-79.8745880126953,-33.5335540771484,33.99997547721946,32.32352633820708,3485879278
iw,-79.3609237670898,-34.1837348937988,14.456680265472412,38.109062679794036,3485895945
iw,-79.1987762451171,-35.4187698364257,-8.058643626576185,44.07784328908961,3485912612
iw,-79.578140258789,-36.6753311157226,-32.29976321051503,50.02852286225668,3485929279
iw,-80.6040573120117,-37.0073928833007,-56.53150102023664,55.61589048098496,3485945946
iw,-82.2140426635742,-37.593578338623,-78.8461532997684,60.3812572491488,3485962613
iw,-84.1303100585937,-39.0642852783203,-97.55073511646884,63.867227194392,3485979280
iw,-86.1732635498046,-40.4950637817382,-111.50373311981538,65.78565776948425,3485995947
iw,-87.3810195922851,-41.6838989257812,-120.30635849177601,66.16176001919813,3486012614
iw,-87.3937606811523,-42.6921119689941,-124.3215892834165,65.37624191472413,3486029281
iw,-86.8365249633789,-43.8688049316406,-124.56261201380208,64.0792668285466,3486045948
iw,-85.0266571044921,-45.0222015380859,-122.5121988235431,63.012870837311105,3486062615
iw,-83.032356262207,-46.125617980957,-119.89651835940961,62.80791423673572,3486079282
iw,-81.403076171875,-47.2237968444824,-118.39442326439193,63.81459417048913,3486095949
iw,-79.8944625854492,-48.2611122131347,-119.28278587185416,66.00606696451847,3486112616
iw,-78.2666625976562,-49.3620452880859,-123.0963727624413,68.97777382599904,3486129283
iw,-76.3181610107421,-50.5969543457031,-129.43967631612318,72.04758858819115,3486145950
iw,-73.9001846313476,-51.9750862121582,-137.06132191575813,74.43779433892547,3486162617
iw,-71.0892028808593,-53.4087829589843,-144.19621954666357,75.49263789813398,3486179284
iw,-68.0695571899414,-54.8307151794433,-149.0607506052373,74.86753761761001,3486195951
iw,-65.7033615112304,-56.129783630371,-150.32156313663597,72.6302598056126,3486212618
iw,-63.8328857421875,-57.2566184997558,-147.3833736501533,69.2424759829002,3486229285
iw,-61.5881843566894,-58.2505531311035,-140.4339348735196,65.43112076920447,3486245952
iw,-59.1220512390136,-59.208381652832,-130.28084193989181,61.99498588452101,3486262619
iw,-57.4355316162109,-60.1732559204101,-118.06379440196798,59.607975069440975,3486279286
iw,-56.2583274841308,-61.1537170410156,-104.93288305107399,58.67236362652551,3486295953
iw,-55.1555557250976,-62.1331672668457,-91.78120841338365,59.25145023818942,3486312620
iw,-53.4477996826171,-63.1609992980957,-79.10885192529587,61.08465335753478,3486329287
iw,-52.1601753234863,-64.1977310180664,-67.04968113238549,63.668966583436905,3486345954
iw,-51.1912498474121,-65.2961502075195,-55.52091613610373,66.38062488155401,3486362621
iw,-50.3843154907226,-66.5272216796875,-44.406365046335225,68.60676835407544,3486379288
iw,-49.7342796325683,-67.8736114501953,-33.68898305059039,69.8557079498684,3486395955
iw,-49.4130897521972,-69.2014236450195,-23.490478504796613,69.81665396013547,3486412622
iw,-49.3918991088867,-70.4059219360351,-14.022339110276441,68.34986392019266,3486429289
iw,-49.4435195922851,-71.4573440551757,-5.486242742716935,65.40923174595513,3486445956
iw,-49.5302581787109,-72.3391799926757,2.024279446537057,60.92670957594656,3486462623
iw,-49.7031936645507,-73.0614929199218,8.57855865444223,54.70910856969497,3486479290
iw,-49.8908386230468,-73.7405624389648,14.404894347576686,46.39993981518498,3486495957
iw,-50.1006698608398,-74.4129333496093,19.84218218512219,35.53709975082465,3486512624
iw,-50.4498405456543,-75.0103912353515,25.276089067311897,21.69793205614801,3486529291
iw,-51.2052154541015,-75.4614028930664,31.082451625819694,4.6829808597897715,3486545958
iw,-52.3339347839355,-75.5849380493164,37.57765868228208,-15.331649929785213,3486562625
iw,-53.29585647583,-75.062141418457,44.95485992167456,-37.73290506969344,3486579292
iw,-53.7718963623046,-73.9231185913086,53.19164656340674,-61.51978581400719,3486595959
iw,-54.4851493835449,-72.2734298706054,61.95672479205463,-85.43284065866075,3486612626
iw,-55.4419364929199,-70.5580673217773,70.58781899020622,-108.10629287530017,3486629293
iw,-56.7028007507324,-68.8612365722656,78.20992544186335,-128.19888974299536,3486645960
iw,-58.831615447998,-66.8987884521484,83.99462003323809,-144.50451796660437,3486662627
iw,-60.9504089355468,-64.2985610961914,87.46693621008876,-156.07845207223338,3486679294
iw,-62.3968238830566,-61.0140113830566,88.71431126741318,-162.40084532059754,3486695961
iw,-63.5575866699218,-57.745792388916,88.38651763373278,-163.5395365388377,3486712628
iw,-64.9078292846679,-55.0005378723144,87.47882945261595,-160.2218967524107,3486729295
iw,-66.3104248046875,-52.8007011413574,86.9930589887168,-153.73647030524435,3486745962
iw,-67.6818313598632,-50.7828788757324,87.61097427393354,-145.66277916444017,3486762629
iw,-69.0802993774414,-48.5030975341796,89.48825594952501,-137.5145760569351,3486779296
iw,-70.5939483642578,-46.1578826904296,92.22165121106804,-130.4144186465648,3486795963
iw,-72.2241668701171,-44.0385818481445,94.98773775459586,-124.88473622322084,3486812630
iw,-73.9866714477539,-42.3763351440429,96.80723487786398,-120.78571720567254,3486829297
iw,-75.8208618164062,-40.9316673278808,96.8563515495264,-117.39758150805825,3486845964
iw,-77.6052856445312,-39.2002563476562,94.73293328224092,-113.63457799697143,3486862631
iw,-79.2703704833984,-37.3553619384765,90.59711981582164,-108.35920326439404,3486879298
iw,-80.7130813598632,-35.5879745483398,85.1436773641928,-100.7243309616544,3486895965
iw,-81.9168701171875,-34.2698974609375,79.4159894315475,-90.4369052331418,3486912632
iw,-82.9881210327148,-33.3216323852539,74.52224678487673,-77.84982825441149,3486929299
iw,-84.0620498657226,-32.4176712036132,71.34392274162137,-63.85324275400067,3486945966
iw,-85.1958465576171,-31.7900714874267,70.32365953146322,-49.61434367504263,3486962633
iw,-86.4167938232421,-31.3931827545166,71.38659942642019,-36.262645260498005,3486979300
iw,-87.6733322143554,-31.2154922485351,74.00159321224258,-24.62111462911655,3486995967
iw,-88.8193206787109,-31.1215724945068,77.34625763010172,-15.055298447545429,3487012634
iw,-88.8746490478515,-31.0548000335693,80.51535224247674,-7.46941934971115,3487029301
iw,-87.5679550170898,-30.9235515594482,82.70757300739197,-1.4317776771879913,3487045968
iw,-86.0613021850586,-30.8747978210449,83.3378112149882,3.6276218894601824,3487062635
iw,-84.7158432006836,-30.9547214508056,82.04706182187967,8.22353733047375,3487079302
iw,-83.5501632690429,-31.2153167724609,78.61826925957526,12.692582368381329,3487095969
iw,-82.5399169921875,-31.644775390625,72.84558726464371,17.17236173497345,3487112636
iw,-81.6656265258789,-32.174560546875,64.43027681454642,21.669674259397343,3487129303
iw,-80.8851470947265,-32.9577980041503,52.97227184063022,26.169658738664545,3487145970
iw,-80.1806182861328,-33.9380302429199,38.08862144275769,30.723602852543443,3487162637
iw,-79.6080093383789,-34.5868301391601,19.631872639954693,35.46438682299366,3487179304
iw,-79.3362808227539,-35.2546997070312,-2.072735423011197,40.53405089840495,3487195971
iw,-79.4677505493164,-36.5362548828125,-26.077554038372295,45.955986990348485,3487212638
iw,-80.1966857910156,-37.2403831481933,-50.83741552868477,51.52049092991225,3487229305
iw,-81.6156387329101,-37.5792922973632,-74.43554893765643,56.7556486744521,3487245972
iw,-83.5433273315429,-38.6365585327148,-94.95729470689696,61.02280789084624,3487262639
iw,-85.7340087890625,-40.2160301208496,-110.89537458159849,63.71855669078736,3487279306
iw,-87.6269454956054,-41.4419975280761,-121.45703158205114,64.50610397922158,3487295973
iw,-88.0894088745117,-42.4246292114257,-126.68976904566392,63.47460609309365,3487312640
iw,-87.4482498168945,-43.39595413208,-127.4225274151318,61.15858687224046,3487329307
iw,-85.6964416503906,-44.5390357971191,-125.07934696308865,58.417171428511494,3487345974
iw,-83.3954391479492,-45.5814552307128,-121.42328313259513,56.223548963585785,3487362641
iw,-81.6467056274414,-46.5226440429687,-118.24969506643608,55.42652103294349,3487379308
iw,-80.1571731567382,-47.3925056457519,-117.03599320199487,56.53667121559927,3487395975
iw,-78.5130920410156,-48.267406463623,-118.60132710337896,59.581877673257765,3487412642
iw,-76.4282989501953,-49.2701988220214,-122.88612553265716,64.07034238657754,3487429309
iw,-74.1521377563476,-50.4414024353027,-128.95649891426572,69.08194177777588,3487445976
iw,-71.7147369384765,-51.7349014282226,-135.2601847999184,73.47707062185025,3487462643
iw,-69.1112594604492,-53.1721153259277,-140.0598316561871,76.17638560899765,3487479310
iw,-66.9050064086914,-54.6481323242187,-141.9035960313593,76.44000659697117,3487495977
iw,-64.866958618164,-55.974380493164,-139.98797292146142,74.07127349235198,3487512644
iw,-62.5942230224609,-57.1755599975585,-134.3150286059856,69.48978630914804,3487529311
iw,-60.3414764404296,-58.2911224365234,-125.61649769674291,63.65391059837886,3487545978
iw,-58.8850631713867,-59.2697944641113,-115.08308150234542,57.85129008773295,3487562645
iw,-57.6201591491699,-60.0983963012695,-103.9894669232529,53.405978342245334,3487579312
iw,-56.5749282836914,-60.8511810302734,-93.33899278506367,51.36852607288385,3487595979
iw,-54.9267234802246,-61.5785331726074,-83.64647248571534,52.26097666469791,3487612646
iw,-53.5237388610839,-62.3176345825195,-74.91861206418398,55.94113067855625,3487629313
iw,-52.3388710021972,-63.2192268371582,-66.8037733924726,61.627199847266816,3487645980
iw,-51.2858161926269,-64.4180526733398,-58.81997239809761,68.08528325376548,3487662647
iw,-50.5102272033691,-65.9339828491211,-50.56394988236359,73.9340734058559,3487679314
iw,-49.9338073730468,-67.6129989624023,-41.84137036530837,77.97787602921257,3487695981
iw,-49.3589553833007,-69.2092208862304,-32.70376443636583,79.46046887816522,3487712648
iw,-49.0003318786621,-70.5500793457031,-23.408003376633015,78.15439438127979,3487729315
iw,-48.8081893920898,-71.6176834106445,-14.325520193341987,74.26088309565819,3487745982
iw,-48.7890586853027,-72.4539184570312,-5.829629944784438,68.17062764066591,3487762649
iw,-48.9291343688964,-73.1725387573242,1.8119509948738892,60.19088909875848,3487779316
iw,-49.0982131958007,-73.8679504394531,8.515481220515396,50.354921987315805,3487795983
iw,-49.2504196166992,-74.5501480102539,14.41490432441881,38.392059045269605,3487812650
iw,-49.6012001037597,-75.1918258666992,19.84738609020541,23.868615230084437,3487829317
iw,-50.224754333496,-75.7309188842773,25.295286762795314,6.439750739672002,3487845984
iw,-51.0449333190918,-75.9791717529296,31.288269862420137,-13.891724478972284,3487862651
iw,-51.8736991882324,-75.6461791992187,38.26709373909739,-36.61453469270927,3487879318
iw,-52.2834281921386,-74.6091003417968,46.42376976028965,-60.70768459257281,3487895985
iw,-52.9236450195312,-72.9347229003906,55.5650584889729,-84.79150246722462,3487912652
iw,-53.9461402893066,-71.1297988891601,65.07306736001475,-107.36414174172683,3487929319
iw,-55.1392784118652,-69.2429046630859,74.0214867897079,-127.03914642616147,3487945986
iw,-57.0499763488769,-67.2329483032226,81.43926938955794,-142.7294187849472,3487962653
iw,-59.1522064208984,-64.7224960327148,86.63019114189044,-153.7688423856262,3487979320
iw,-60.6506538391113,-61.5483779907226,89.4121433515404,-159.98224898831785,3487995987
iw,-61.8624038696289,-58.359016418457,90.16949603450716,-161.69467640056862,3488012654
iw,-63.2543411254882,-55.6948432922363,89.70167151925169,-159.64567901363762,3488029321
iw,-64.7136077880859,-53.5742378234863,88.94323734222016,-154.7912456326587,3488045988
iw,-66.1335067749023,-51.6876754760742,88.6704154251951,-148.04104557418276,3488062655
iw,-67.5595321655273,-49.5540580749511,89.2894696054941,-140.04123791389924,3488079322
iw,-69.0432510375976,-47.263442993164,90.75643800213132,-131.11098621546566,3488095989
iw,-70.6389617919921,-45.0081825256347,92.6337296727217,-121.36249866201858,3488112656
iw,-72.3321685791015,-42.780906677246,94.25478784069688,-110.92975918416472,3488129323
iw,-74.0184860229492,-40.8623542785644,94.94353110907811,-100.16769229883678,3488145990
iw,-75.7061691284179,-39.4574661254882,94.22436345339868,-89.69805577024569,3488162657
iw,-77.396614074707,-38.6517181396484,91.96471896612445,-80.26157628552471,3488179324
iw,-78.9852600097656,-38.1733932495117,88.4131508516277,-72.44364062990385,3488195991
iw,-80.3908233642578,-37.5985679626464,84.12560791264575,-66.4150703983839,3488212658
iw,-81.6324768066406,-36.8689231872558,79.80432445081505,-61.82675432238616,3488229325
iw,-82.742561340332,-35.7680130004882,76.1005409519634,-57.91750065580357,3488245992
iw,-83.8438110351562,-34.7006149291992,73.44473348608048,-53.78596048335107,3488262659
iw,-85.0082550048828,-33.8426475524902,71.95849746465068,-48.702610459637185,3488279326
iw,-86.2237396240234,-33.378303527832,71.47157553029524,-42.332539880834304,3488295993
iw,-87.3880538940429,-32.9971160888671,71.62743270363717,-34.79536719168714,3488312660
iw,-88.2490005493164,-32.7205734252929,72.02844394452934,-26.56582716238683,3488329327
iw,-88.2978515625,-32.6084480285644,72.36041569990878,-18.27745776543618,3488345994
iw,-87.520149230957,-32.4850807189941,72.4484527894524,-10.513140978016049,3488362661
iw,-86.4724731445312,-32.4006843566894,72.22488245992001,-3.652896860262092,3488379328
iw,-85.4209747314453,-32.3482475280761,71.62396637162045,2.1850150021898003,3488395995
iw,-84.3898315429687,-32.3310852050781,70.44707745215534,7.113424849201686,3488412662
iw,-83.4166183471679,-32.4689025878906,68.25704433242383,11.390522685328309,3488429329
iw,-82.4923248291015,-32.7161598205566,64.35556377370305,15.324852901511845,3488445996
iw,-81.5858993530273,-33.085838317871,57.87328088276897,19.206403699648757,3488462663
iw,-80.7443237304687,-33.8280143737793,47.965534688519035,23.274366848267892,3488479330
iw,-80.0796890258789,-34.5502471923828,34.06886985988788,27.706626722979333,3488495997
iw,-79.6487884521484,-35.110984802246,16.145776802880548,32.60486417313982,3488512664
iw,-79.4906005859375,-35.9950103759765,-5.162956112147275,37.960631968332216,3488529331
iw,-79.7544326782226,-37.263874053955,-28.542767448186474,43.613666275537646,3488545998
iw,-80.6417846679687,-37.7814292907714,-52.19142491513685,49.23342371480386,3488562665
iw,-82.1625595092773,-38.2554168701171,-74.15472921912439,54.354960428147955,3488579332
iw,-84.0504760742187,-39.3180694580078,-92.72333861060375,58.48176020252095,3488595999
iw,-86.1481628417968,-40.6697349548339,-106.77280517534336,61.23614201951218,3488612666
iw,-87.9375839233398,-41.793041229248,-115.94913992525193,62.50392910627242,3488629333
iw,-88.7623596191406,-42.8483390808105,-120.6689244993406,62.50863463036267,3488646000
iw,-88.2128295898437,-43.9624099731445,-121.97799305508914,61.77708859964142,3488662667
iw,-85.9885864257812,-45.0605430603027,-121.34277325887477,61.00554692147586,3488679334
iw,-83.4857940673828,-46.1363105773925,-120.41314893941103,60.8705258731755,3488696001
iw,-81.6460571289062,-47.1492576599121,-120.74199752412497,61.83961536210831,3488712668
iw,-80.2684555053711,-48.1342315673828,-123.45002399665324,64.03343716195728,3488729335
iw,-78.630012512207,-49.1989517211914,-128.89989792710784,67.17878638764662,3488746002
iw,-76.4698410034179,-50.4243049621582,-136.51613662073228,70.67299489516463,3488762669
iw,-73.9108963012695,-51.767765045166,-144.87209206279658,73.74878434007027,3488779336
iw,-71.0309753417968,-53.1727218627929,-152.057729570827,75.69488619641979,3488796003
iw,-68.0493469238281,-54.6456413269043,-156.21300891907822,76.06510583193158,3488812670
iw,-65.5442199707031,-56.0347137451171,-156.03977943521906,74.80888156783497,3488829337
iw,-63.2250747680664,-57.2421760559082,-151.1214677130345,72.28127253282962,3488846004
iw,-60.6000137329101,-58.3067092895507,-141.96206584311133,69.13120812994524,3488862671
iw,-58.5197830200195,-59.298110961914,-129.75526692969072,66.1084742072878,3488879338
iw,-57.0437202453613,-60.2683067321777,-115.97498957525424,63.855495817924016,3488896005
iw,-56.0942001342773,-61.3027305603027,-101.9305681029186,62.74939117870703,3488912672
iw,-55.0428733825683,-62.3678092956543,-88.44541061431461,62.835642700266426,3488929339
iw,-53.2099418640136,-63.4505386352539,-75.77420937459797,63.8600552110961,3488946006
iw,-51.7718658447265,-64.5875625610351,-63.767035740257235,65.3750649679836,3488962673
iw,-50.6700630187988,-65.7800674438476,-52.169548945506,66.87849055657438,3488979340
iw,-49.8006973266601,-67.0519790649414,-40.893024722152624,67.93859431795599,3488996007
iw,-49.4590606689453,-68.3027114868164,-30.127537159953594,68.26666718901363,3489012674
iw,-49.4028816223144,-69.414192199707,-20.26952931412793,67.71565984896735,3489029341
iw,-49.4625282287597,-70.4669952392578,-11.727812191217204,66.20851634769303,3489046008
iw,-49.5335388183593,-71.416763305664,-4.7167588162015415,63.62640015812105,3489062675
iw,-49.6207656860351,-72.2704391479492,0.8672862577787289,59.70465313447015,3489079342
iw,-49.6084747314453,-73.052261352539,5.443117649818095,53.98496552824424,3489096009
iw,-49.5678596496582,-73.7970657348632,9.633744043940386,45.85490582335122,3489112676
iw,-49.6463088989257,-74.4904022216796,14.107566077813948,34.67631265255168,3489129343
iw,-50.0767478942871,-75.0987777709961,19.437075016073397,19.97131483498412,3489146010
iw,-50.9111785888671,-75.5080032348632,26.010536539046786,1.609759937636538,3489162677
iw,-51.8074913024902,-75.5165634155273,33.988338542045,-20.064838852687163,3489179344
iw,-52.3986854553222,-74.9205703735351,43.27188757334472,-44.21558629460559,3489196011
iw,-53.0479087829589,-73.5942611694336,53.4704414326781,-69.60378938774083,3489212678
iw,-53.9743461608886,-71.7834854125976,63.89457384717332,-94.75302348043965,3489229345
iw,-55.0467109680175,-69.9578857421875,73.629869426584,-118.12569485278634,3489246012
iw,-56.7209167480468,-68.2449035644531,81.71874885655534,-138.27175774373282,3489262679
iw,-58.7784843444824,-66.0931701660156,87.4132106183878,-153.95618974923363,3489279346
iw,-60.4903678894043,-63.1928749084472,90.40288087842131,-164.30108652197708,3489296013
iw,-61.7832069396972,-59.6278457641601,90.91679081770361,-168.95198919236833,3489312680
iw,-63.1536178588867,-56.3809928894043,89.65314642801425,-168.2118584872689,3489329347
iw,-64.6283645629882,-53.7394561767578,87.5710535018444,-163.04567005953928,3489346014
iw,-66.0326614379882,-51.699909210205,85.62850451672067,-154.89688729820747,3489362681
iw,-67.3777160644531,-49.6632537841796,84.55144795199664,-145.3555371123455,3489379348
iw,-68.7421722412109,-47.3796653747558,84.68936706475476,-135.79969673792002,3489396015
iw,-70.1996994018554,-45.1150398254394,85.97966661532931,-127.13681443686205,3489412682
iw,-71.7678909301757,-43.0027503967285,88.01519105931737,-119.70676158903795,3489429349
iw,-73.3393936157226,-41.2973098754882,90.18621115157578,-113.33377385618729,3489446016
iw,-74.9101943969726,-39.7786903381347,91.85368498295242,-107.47729984228815,3489462683
iw,-76.5411987304687,-38.266616821289,92.509225356635,-101.43272309357852,3489479350
iw,-78.1412048339843,-36.7100448608398,91.88759340011403,-94.54257024881275,3489496017
iw,-79.6925582885742,-35.3694152832031,90.01321055147487,-86.3782984462568,3489512684
iw,-81.1670227050781,-34.4824409484863,87.17796052873831,-76.8513831280357,3489529351
iw,-82.5444946289062,-33.5697784423828,83.86163928397934,-66.22818159806384,3489546018
iw,-83.8199081420898,-32.6929855346679,80.61751643878891,-55.054044162179,3489562685
iw,-85.045913696289,-32.0125274658203,77.95111015188266,-44.01727159903294,3489579352
iw,-86.2216644287109,-31.4852333068847,76.21825520910762,-33.789734302298,3489596019
iw,-87.25048828125,-31.3225212097167,75.55935013757347,-24.876691833750247,3489612686
iw,-87.9404373168945,-31.2507495880126,75.87424476724206,-17.50626238928624,3489629353
iw,-87.9282150268554,-31.1038722991943,76.83167782514684,-11.587107807167953,3489646020
iw,-87.1431579589843,-30.9536533355712,77.90147543525858,-6.749678667453644,3489662687
iw,-86.0555801391601,-30.9062366485595,78.39755918993936,-2.459617444586601,3489679354
iw,-84.9219436645507,-30.9305896759033,77.52543721162687,1.8346155653050435,3489696021
iw,-83.8692092895507,-31.0761623382568,74.43809876804681,6.568026663138331,3489712688
iw,-82.9143524169921,-31.3827590942382,68.31375226660737,11.977285275022899,3489729355
iw,-82.0209732055664,-31.9751415252685,58.46937370797291,18.08536281354969,3489746022
iw,-81.2395858764648,-32.8010482788085,44.51021871570637,24.740340297850956,3489762689
iw,-80.6834640502929,-33.5112953186035,26.490149853481096,31.67708379062731,3489779356
iw,-80.3815231323242,-34.1957244873046,5.032443419692451,38.56973221515144,3489796023
iw,-80.4511184692382,-35.6643486022949,-18.649043557814927,45.0610109920338,3489812690
iw,-81.129409790039,-36.5801467895507,-42.87172328110584,50.7774255853741,3489829357
iw,-82.3846206665039,-36.9684295654296,-65.7490230155018,55.35218611749514,3489846024
iw,-84.108642578125,-37.8862533569335,-85.54203638366113,58.47569072695295,3489862691
iw,-86.1109313964843,-39.1554069519043,-101.00030749143684,59.97659614285377,3489879358
iw,-87.8526916503906,-40.2042427062988,-111.59192392970728,59.90857876114742,3489896025
iw,-88.0831756591796,-41.1990432739257,-117.56709397204108,58.59757485201195,3489912692
iw,-87.0942459106445,-42.2070884704589,-119.86545821169476,56.61353462595825,3489929359
iw,-85.5098800659179,-43.1859626770019,-119.92099332549634,54.664931519209404,3489946026
iw,-83.3610916137695,-44.1470260620117,-119.40993687782942,53.4461973931678,3489962693
iw,-81.471450805664,-45.0982437133789,-119.94905731398673,53.480861094927405,3489979360
iw,-79.9994430541992,-46.0315055847168,-122.74493071309826,55.000439336845595,3489996027
iw,-78.4785537719726,-46.9609107971191,-128.24991689028516,57.88995205465872,3490012694
iw,-76.4770965576171,-47.9567527770996,-135.9502989269973,61.71767180363202,3490029361
iw,-74.0502853393554,-49.1256027221679,-144.41647477447165,65.84785786463351,3490046028
iw,-71.3571319580078,-50.4214172363281,-151.65580621826126,69.6115863153601,3490062695
iw,-68.2699127197265,-51.8023490905761,-155.67508187028258,72.4889646406572,3490079362
iw,-65.3694839477539,-53.1483421325683,-155.06049731545576,74.24679252200728,3490096029
iw,-63.2058868408203,-54.4529495239257,-149.37068950995757,74.98687444489096,3490112696
iw,-61.1087799072265,-55.707592010498,-139.21476957190157,75.08937089893122,3490129363
iw,-58.8231315612793,-56.9143638610839,-126.00899735327707,75.07077532268943,3490146030
iw,-57.3984298706054,-58.0902061462402,-111.51332154016289,75.4032788243467,3490162697
iw,-56.5728645324707,-59.2799491882324,-97.308948308786,76.35275469558347,3490179364
iw,-55.5299835205078,-60.5358657836914,-84.38911736277986,77.88491100139859,3490196031
iw,-54.2157897949218,-61.8610382080078,-72.99647465878486,79.66715677870093,3490212698
iw,-52.8892440795898,-63.2302169799804,-62.74801818261302,81.1644399830049,3490229365
iw,-51.6676216125488,-64.6607055664062,-52.97053341858446,81.79899679721024,3490246032
iw,-50.5833587646484,-66.1983795166015,-43.08613621026298,81.12344081943885,3490262699
iw,-50.0534210205078,-67.8010330200195,-32.88363379019382,78.94831889141786,3490279366
iw,-49.9799728393554,-69.1802291870117,-22.58250080792186,75.3731720727803,3490296033
iw,-50.0249824523925,-70.3289184570312,-12.699008908764844,70.69795358882143,3490312700
iw,-50.1226196289062,-71.2432174682617,-3.8048881485239665,65.23612012350198,3490329367
iw,-50.2779998779296,-72.0243911743164,3.7070174895076757,59.095656409025956,3490346034
iw,-50.437759399414,-72.7089462280273,9.766572283714051,52.0170679237871,3490362701
iw,-50.5709571838378,-73.3514099121093,14.651766771539505,43.34426126358055,3490379368
iw,-50.8318405151367,-73.9964752197265,18.91530265839977,32.159206909603995,3490396035
iw,-51.3336791992187,-74.5667877197265,23.253403376667258,17.55205760649874,3490412702
iw,-52.013874053955,-74.9449844360351,28.35316170251812,-1.0529442519339964,3490429369
iw,-52.8023033142089,-74.9802627563476,34.737983858373816,-23.6202411622789,3490446036
iw,-53.4042663574218,-74.4763031005859,42.62297499406017,-49.36727999465476,3490462703
iw,-54.0097541809082,-73.1502914428711,51.8051555849331,-76.81755496240469,3490479370
iw,-54.903938293457,-71.1400604248046,61.63544601958715,-104.02585063265956,3490496037
iw,-55.9399795532226,-69.0211944580078,71.1208838655893,-128.90516394736906,3490512704
iw,-57.5901260375976,-66.8543853759765,79.16568062019672,-149.56767315317836,3490529371
iw,-59.7335548400878,-64.3910980224609,84.88988630555751,-164.61578482827127,3490546038
iw,-61.455207824707,-61.3283767700195,87.90667930452607,-173.35397658874678,3490562705
iw,-62.6887054443359,-57.6124000549316,88.43922234488683,-175.90106161878762,3490579372
iw,-63.9824790954589,-54.4578475952148,87.22696731891367,-173.165545035742,3490596039
iw,-65.3347625732421,-51.9914932250976,85.26823170663482,-166.64697966317036,3490612706
iw,-66.6524276733398,-49.8936576843261,83.5087799033821,-158.07962905090707,3490629373
iw,-67.9440460205078,-47.7633781433105,82.58711340798553,-149.01777996783676,3490646040
iw,-69.3030319213867,-45.4157447814941,82.70601997565755,-140.50640194056254,3490662707
iw,-70.7587966918945,-42.96630859375,83.64922027303491,-132.94370229234758,3490679374
iw,-72.2846908569336,-40.6566619873046,84.91888410055182,-126.14879916875259,3490696041
iw,-73.8314666748046,-38.6223602294921,85.93987137314038,-119.56363445775088,3490712708
iw,-75.3901748657226,-37.0497589111328,86.26394686343555,-112.49106669074864,3490729375
iw,-76.9158020019531,-35.7177848815918,85.7139901247385,-104.29992065255392,3490746042
iw,-78.4203720092773,-34.3361587524414,84.43059632189845,-94.57441981349008,3490762709
iw,-79.830940246582,-33.0112800598144,82.81358560197191,-83.21042723846028,3490779376
iw,-81.1020355224609,-32.1154861450195,81.38115639356839,-70.45592568428215,3490796043
iw,-82.3072357177734,-31.3408794403076,80.5934813741945,-56.88210166825774,3490812710
iw,-83.5395965576171,-30.5794773101806,80.69898591450999,-43.27872166321679,3490829377
iw,-84.8272857666015,-30.2738399505615,81.65440283282226,-30.491704501394665,3490846044
iw,-86.1415710449218,-30.2610435485839,83.14347516542473,-19.243823372554,3490862711
iw,-87.4604034423828,-30.2742748260498,84.6823243367693,-9.988679008028715,3490879378
iw,-88.2234878540039,-30.193712234497,85.76622285313508,-2.8392960002725256,3490896045
iw,-87.7542343139648,-30.1988105773925,85.99629851308474,2.4135141056842775,3490912712
iw,-86.6495819091796,-30.2536735534667,85.13318660769374,6.2110384570456585,3490929379
iw,-85.4163589477539,-30.3769664764404,83.05590395278195,9.104936756123287,3490946046
iw,-84.3215637207031,-30.6391773223876,79.64624154027065,11.645166595046854,3490962713
iw,-83.3321990966796,-30.9803581237792,74.65502067309404,14.303916001681287,3490979380
iw,-82.3644180297851,-31.4202156066894,67.62197731463678,17.44182183441202,3490996047
iw,-81.4472427368164,-32.0355720520019,57.907398562362445,21.305168264699653,3491012714
iw,-80.6655044555664,-32.8377418518066,44.85276786728107,26.031833522893233,3491029381
iw,-80.0506134033203,-33.4557800292968,28.03403469401178,31.64365539826137,3491046048
iw,-79.640396118164,-34.0576667785644,7.526051942892017,38.01714893906707,3491062715
iw,-79.6408157348632,-35.4821014404296,-15.921812641244879,44.84814065369844,3491079382
iw,-80.1786117553711,-36.3998374938964,-40.8818972845403,51.64277146285981,3491096049
iw,-81.3213119506836,-36.816608428955,-65.44838148826005,57.76512032387776,3491112716
iw,-83.0424346923828,-37.8269386291503,-87.60297910785711,62.553136589096674,3491129383
iw,-85.2314910888671,-39.3538627624511,-105.64432289151956,65.48597271579,3491146050
iw,-87.4848022460937,-40.6903266906738,-118.55198246738979,66.35236205718363,3491162717
iw,-88.5174789428711,-41.8421478271484,-126.18250352936275,65.35059516579673,3491179384
iw,-87.7377395629882,-42.8652458190918,-129.26477968459685,63.07015651928514,3491196051
iw,-86.0923461914062,-43.9884796142578,-129.23291997918406,60.35675551861929,3491212718
iw,-83.5825271606445,-45.0757293701171,-127.95725317418415,58.108668217501695,3491229385
iw,-81.3099060058593,-46.1064758300781,-127.40379661223965,57.06620637469569,3491246052
iw,-79.6098251342773,-47.0852813720703,-129.2273968329699,57.644503961302405,3491262719
iw,-78.0647354125976,-48.0416603088378,-134.34149391137086,59.842806917415245,3491279386
iw,-76.0672607421875,-49.0731964111328,-142.58691593327072,63.24937752230843,3491296053
iw,-73.5983352661132,-50.2301559448242,-152.6566544473658,67.14518253317499,3491312720
iw,-70.7614059448242,-51.5079689025878,-162.3657362708993,70.68719099189148,3491329387
iw,-67.5794525146484,-52.8815307617187,-169.21520280018893,73.12767510537658,3491346054
iw,-64.2644729614257,-54.2832717895507,-171.07030849360407,74.01030510663398,3491362721
iw,-61.4756240844726,-55.6016693115234,-166.72401830185066,73.28673741971294,3491379388
iw,-58.9692916870117,-56.7493247985839,-156.16598154308903,71.32064562546627,3491396055
iw,-56.7692565917968,-57.8444137573242,-140.4940743915407,68.78166028625763,3491412722
iw,-55.1250762939453,-58.919090270996,-121.5335282670775,66.46465253155927,3491429389
iw,-53.8166389465332,-59.985610961914,-101.31670733858532,65.08679469494245,3491446056
iw,-53.0083580017089,-61.0759010314941,-81.6015964803449,65.11235515285195,3491462723
iw,-51.5461730957031,-62.1678619384765,-63.569674558313245,66.6404594420263,3491479390
iw,-50.5684089660644,-63.22359085083,-47.759602273395124,69.37401520781366,3491496057
iw,-49.8561668395996,-64.3976135253906,-34.19656085264317,72.67302740684619,3491512724
iw,-49.5080413818359,-65.7735366821289,-22.614859993236823,75.68034109395423,3491529391
iw,-49.2551383972168,-67.3060226440429,-12.668895267244762,77.48977076377533,3491546058
iw,-49.145408630371,-68.816665649414,-4.067772737492629,77.31031431868682,3491562725
iw,-49.3512420654296,-70.1426086425781,3.383127132886639,74.5778529285008,3491579392
iw,-49.6357917785644,-71.2020034790039,9.814688083732115,68.98606800917301,3491596059
iw,-50.0193901062011,-72.0426254272461,15.361854438692738,60.44474726590151,3491612726
iw,-50.3484077453613,-72.7721176147461,20.225252992786615,49.00567800147758,3491629393
iw,-50.6156539916992,-73.3860626220703,24.69986831337133,34.804256041076265,3491646060
iw,-51.0316162109375,-73.8554000854492,29.166118155540484,18.045237229086606,3491662727
iw,-51.9135513305664,-74.1015396118164,34.05132811481284,-0.9715340275654488,3491679394
iw,-53.0040664672851,-74.0156784057617,39.76450418956774,-21.813751648373245,3491696061
iw,-53.7223014831543,-73.4068603515625,46.59797683997874,-43.89802881557841,3491712728
iw,-54.3735466003418,-72.1728057861328,54.60114214206365,-66.50144843441613,3491729395
iw,-55.2107200622558,-70.4940719604492,63.46883228329559,-88.78986499917562,3491746062
iw,-56.0661430358886,-68.8933334350586,72.51791154084364,-109.84108426345331,3491762729
iw,-57.5537719726562,-67.2105407714843,80.81009534513451,-128.66217256667085,3491779396
iw,-59.8032875061035,-65.1021881103515,87.41003190679886,-144.23631238132972,3491796063
iw,-61.7370147705078,-62.2042617797851,91.6842764394862,-155.64559961011994,3491812730
iw,-63.0831909179687,-58.6845817565918,93.50865843625412,-162.2726178272102,3491829397
iw,-64.4377059936523,-55.5482711791992,93.29293731492929,-164.00766875905828,3491846064
iw,-65.9542236328125,-53.0136260986328,91.82523725645012,-161.3464120779107,3491862731
iw,-67.4442291259765,-50.8644752502441,90.01641141719095,-155.30284790854054,3491879398
iw,-68.8662872314453,-48.7769699096679,88.64334742991026,-147.16198213026237,3491896065
iw,-70.3046493530273,-46.5499534606933,88.16344007029159,-138.17868295424088,3491912732
iw,-71.7830123901367,-44.2899322509765,88.6348669820267,-129.33687848459323,3491929399
iw,-73.3238525390625,-42.0402755737304,89.74649940306638,-121.22540326619104,3491946066
iw,-74.9063262939453,-40.2068977355957,90.93766072501339,-114.01914171749834,3491962733
iw,-76.4764404296875,-38.8928756713867,91.57089330677876,-107.52559070216344,3491979400
iw,-78.0989685058593,-37.6309661865234,91.1127924404245,-101.27338057704353,3491996067
iw,-79.7192764282226,-36.2445220947265,89.27967433512664,-94.64588527600986,3492012734
iw,-81.244514465332,-34.8283462524414,86.11472326706247,-87.06071576479881,3492029401
iw,-82.6208343505859,-33.5319023132324,81.97978180620575,-78.16105905138753,3492046068
iw,-83.8750381469726,-32.7248077392578,77.46643846605853,-67.9528603833837,3492062735
iw,-85.0751113891601,-32.0791816711425,73.25252429415303,-56.82882849101877,3492079402
iw,-86.1664123535156,-31.4721565246582,69.94375792159781,-45.466003038896766,3492096069
iw,-87.1582107543945,-31.0833721160888,67.94111732411288,-34.63576972034552,3492112736
iw,-88.0537872314453,-30.9986934661865,67.36376946457827,-24.993839675903057,3492129403
iw,-88.5608749389648,-30.9353923797607,68.03969559708663,-16.91736068061446,3492146070
iw,-88.2309951782226,-30.9596633911132,69.55618422017558,-10.436088788275711,3492162737
iw,-87.2173690795898,-30.818899154663,71.34492006962213,-5.2718239814321874,3492179404
iw,-85.984390258789,-30.7082824707031,72.7673619297086,-0.962059548027387,3492196071
iw,-84.8630218505859,-30.7822189331054,73.17113988436131,2.9861274823253274,3492212738
iw,-83.8382110595703,-30.9988079071044,71.90844289510862,6.971929765041073,3492229405
iw,-82.8289794921875,-31.2924194335937,68.33444885883517,11.244855893602079,3492246072
iw,-81.8849258422851,-31.760154724121,61.821782763067255,15.919319285988259,3492262739
iw,-81.0779495239257,-32.3429679870605,51.82370139701122,21.030412830423167,3492279406
iw,-80.4434204101562,-33.1590270996093,37.99555836509097,26.58648611251013,3492296073
iw,-80.0058975219726,-33.6545448303222,20.35241971379689,32.580054995548736,3492312740
iw,-79.7754592895507,-34.2861633300781,-0.5874916325551988,38.94470379894279,3492329407
iw,-79.8546371459961,-35.416404724121,-23.738542246608816,45.48230273325823,3492346074
iw,-80.5345687866211,-36.3249626159668,-47.519070620766776,51.8116625961674,3492362741
iw,-81.7926406860351,-36.8349647521972,-70.07709879473668,57.3892153133515,3492379408
iw,-83.5822296142578,-37.9682655334472,-89.63000493769164,61.62345734512585,3492396075
iw,-85.6707458496093,-39.5396347045898,-104.8234593761086,64.05891304262619,3492412742
iw,-87.2179412841796,-40.7903976440429,-114.99804566107602,64.56067422996333,3492429409
iw,-87.3162002563476,-41.8381233215332,-120.28899997361117,63.41494078300253,3492446076
iw,-86.6232757568359,-42.8055801391601,-121.55677000122276,61.293435344276006,3492462743
iw,-85.3425903320312,-43.8580741882324,-120.20394077320834,59.091851334016404,3492479410
iw,-83.3728561401367,-44.9109840393066,-117.93552058358203,57.701292207252436,3492496077
iw,-81.5825881958007,-45.8809967041015,-116.47825476699953,57.78327176767209,3492512744
iw,-80.1875305175781,-46.8574028015136,-117.25444259678432,59.60463496574574,3492529411
iw,-78.6679077148437,-47.829662322998,-121.04764977862774,62.96917354715538,3492546078
iw,-76.5965728759765,-48.9282608032226,-127.7634785621977,67.26377086206247,3492562745
iw,-74.1412963867187,-50.1937217712402,-136.40050292834616,71.61356247086024,3492579412
iw,-71.754768371582,-51.6179466247558,-145.27618996261623,75.11138762390851,3492596079
iw,-69.1481628417968,-53.1080741882324,-152.44741570107286,77.06028841387189,3492612746
iw,-66.3520202636718,-54.5469093322753,-156.19181319063438,77.15760539772252,3492629413
iw,-64.057746887207,-55.889835357666,-155.40445347031894,75.56408246082684,3492646080
iw,-61.8971290588378,-57.0740051269531,-149.8053621518156,72.83811091643598,3492662747
iw,-59.4438934326171,-58.1303558349609,-139.9216903424291,69.75951180469642,3492679414
iw,-57.4931449890136,-59.1509399414062,-126.87520948480251,67.10144673578102,3492696081
iw,-56.1165084838867,-60.1947364807128,-112.0527251414957,65.42087834581484,3492712748
iw,-54.962547302246,-61.2702178955078,-96.76246214046206,64.92556900455396,3492729415
iw,-53.7930564880371,-62.3471908569335,-81.98067612507975,65.44714277662175,3492746082
