Label,Left_Hip_q,Right_Hip_q,Left_Hip_qd,Right_Hip_qd,SampleTimeFine
iw,-76.5410842895507,-34.5785598754882,-98.5654296875,29.3009147644042,3743567765
iw,-77.7916641235351,-35.1294937133789,-110.22001401963338,36.56384179120713,3743584432
iw,-78.5034942626953,-36.2210464477539,-103.60267581034145,46.14329656148834,3743601099
iw,-78.9693069458007,-37.7405853271484,-97.63289135287889,54.447177356681266,3743617766
iw,-79.8604202270507,-38.9344291687011,-93.07372647585902,60.599541218242564,3743634433
iw,-81.2283706665039,-39.9520378112793,-90.69170427355154,64.33299543414743,3743651100
iw,-82.4054489135742,-41.012580871582,-91.20006793833963,65.98701897924653,3743667767
iw,-82.7836303710937,-42.1581001281738,-95.13033726268786,66.31696414616009,3743684434
iw,-82.3139495849609,-43.30611038208,-102.6392177261739,66.21309579256796,3743701101
iw,-81.4722595214843,-44.4040451049804,-113.32235161941009,66.43230051847196,3743717768
iw,-80.4862976074218,-45.4635620117187,-126.14241700329607,67.41342015660346,3743734435
iw,-79.0976104736328,-46.6002731323242,-139.5451629039209,69.20976763138727,3743751102
iw,-77.3260040283203,-47.8778457641601,-151.74776273654106,71.53935850320748,3743767769
iw,-75.3182830810546,-49.2183647155761,-161.09880327260572,73.92402043128072,3743784436
iw,-73.3887252807617,-50.5882263183593,-166.3828572459811,75.86631231979769,3743801103
iw,-71.2384948730468,-51.9262351989746,-166.9835185204375,77.00665861335311,3743817770
iw,-68.7975845336914,-53.2514610290527,-162.8887554662936,77.2162319266762,3743834437
iw,-66.3153610229492,-54.5224647521972,-154.57399139188203,76.60769064765199,3743851104
iw,-64.1748733520507,-55.7465629577636,-142.81573282813207,75.47396279222386,3743867771
iw,-62.6464157104492,-56.9836235046386,-128.4899143936255,74.18484532401231,3743884438
iw,-60.4855804443359,-58.1857681274414,-112.40974808557831,73.07783521682481,3743901105
iw,-59.1085243225097,-59.3546180725097,-95.24744870541586,72.3741864609161,3743917772
iw,-58.0048713684082,-60.5811424255371,-77.55064329989472,72.1377753152479,3743934439
iw,-56.769962310791,-61.9077911376953,-59.82150485916029,72.27761449281317,3743951106
iw,-55.9345970153808,-63.1924667358398,-42.59999560291991,72.57921705316777,3743967773
iw,-55.5555534362793,-64.5406799316406,-26.493298590338384,72.7408820749666,3743984440
iw,-55.4654884338378,-65.7844924926757,-12.120302266387931,72.39342772975937,3744001107
iw,-55.6143264770507,-66.9662170410156,0.01624918226107394,71.09614332944088,3744017774
iw,-55.971076965332,-68.0531997680664,9.677758010877001,68.32121046939831,3744034441
iw,-56.3482971191406,-69.0566253662109,16.992603910105238,63.453418221623636,3744051108
iw,-56.6924476623535,-69.948860168457,22.466856702784884,55.83317891368865,3744067775
iw,-56.9981117248535,-70.754524230957,26.892600084797426,44.8560796873541,3744084442
iw,-57.7522621154785,-71.410041809082,31.178053686788083,30.116439096969724,3744101109
iw,-58.6708068847656,-71.837287902832,36.140636389923614,11.556513486961247,3744117776
iw,-59.1033287048339,-71.8335800170898,42.305802865253256,-10.429719704152907,3744134443
iw,-59.5499114990234,-71.2643814086914,49.75778000503856,-34.97927762685079,3744151110
iw,-60.2393531799316,-70.0594100952148,58.097667719741615,-60.838731519670375,3744167777
iw,-61.5399513244628,-68.3680267333984,66.55494680269501,-86.5097730526018,3744184444
iw,-63.2239875793457,-66.5803146362304,74.24538309206017,-110.41221080212665,3744201111
iw,-65.1823272705078,-64.7466583251953,80.4893166023623,-131.02762529762515,3744217778
iw,-66.6998062133789,-62.4711570739746,85.05527550917029,-147.02404301715123,3744234445
iw,-67.9101028442382,-59.8129997253418,88.21868327195162,-157.38955702334417,3744251112
iw,-69.2044525146484,-56.6783943176269,90.61442957744654,-161.5902898958013,3744267779
iw,-70.6878356933593,-53.5392265319824,92.95814574380138,-159.72083601464337,3744284446
iw,-72.2858428955078,-50.9666175842285,95.75700699715743,-152.57528643217745,3744301113
iw,-73.8995742797851,-48.906753540039,99.11351302310862,-141.57582754452258,3744317780
iw,-75.5304107666015,-46.993106842041,102.67434803611704,-128.55437845499776,3744334447
iw,-77.2911987304687,-45.0111389160156,105.72585438900268,-115.44647050140377,3744351114
iw,-79.1507568359375,-43.0427665710449,107.40125565594647,-103.97805674957887,3744367781
iw,-80.9561691284179,-41.3304100036621,106.94032519361178,-95.40092512410263,3744384448
iw,-82.6537780761718,-39.9532852172851,103.92940295422437,-90.2994268278212,3744401115
iw,-84.1848602294921,-39.102195739746,98.45401444548423,-88.48648590302417,3744417782
iw,-85.4016799926757,-38.2327232360839,91.12037562001498,-89.02577571324758,3744434449
iw,-86.2866973876953,-36.7985076904296,82.93955006644134,-90.4200036842858,3744451116
iw,-86.7656631469726,-35.1787605285644,75.10669325604516,-90.9602918812619,3744467783
iw,-86.8304672241211,-33.7835350036621,68.73533621681352,-89.15426328941899,3744484450
iw,-86.611587524414,-32.5782737731933,64.61583117475796,-84.09771728541818,3744501117
iw,-86.1934738159179,-31.3575496673584,63.057666396534806,-75.6699904905059,3744517784
iw,-85.5556564331054,-30.4360675811767,63.85131756584832,-64.50385178020366,3744534451
iw,-84.7344131469726,-29.8179759979248,66.35220195634565,-51.760250251474496,3744551118
iw,-83.670051574707,-29.4002532958984,69.65507892429571,-38.79222674500584,3744567785
iw,-82.3903732299804,-29.1209278106689,72.80185329496467,-26.8021430772375,3744584452
iw,-81.091926574707,-28.9314594268798,74.95775792106005,-16.584125542920173,3744601119
iw,-79.8610763549804,-28.73286819458,75.50481003125957,-8.406123456331489,3744617786
iw,-78.6773300170898,-28.7725105285644,74.03530273863461,-2.038436542334419,3744634453
iw,-77.6583175659179,-28.9192543029785,70.27064334244746,3.103535399934071,3744651120
iw,-76.7929229736328,-29.0291404724121,63.96401471181335,7.755415106853933,3744667787
iw,-75.9993133544921,-29.0427875518798,54.853402177004476,12.597331336116676,3744684454
iw,-75.2641372680664,-29.2518730163574,42.708934165591245,18.098434371027345,3744701121
iw,-74.6445617675781,-29.9925556182861,27.472377041849256,24.448190011243447,3744717788
iw,-74.1605453491211,-30.8856811523437,9.435576736688896,31.575576262933712,3744734455
iw,-73.9736328125,-31.6194801330566,-10.627854987556926,39.21937605267056,3744751122
iw,-74.2056045532226,-32.6343612670898,-31.45949543806673,46.99865023921668,3744767789
iw,-75.1177062988281,-33.9911956787109,-51.48009172364475,54.45407707833194,3744784456
iw,-76.4091873168945,-35.0227928161621,-69.09085848386945,61.06916863072062,3744801123
iw,-77.5360488891601,-35.6464500427246,-83.02167807005705,66.30574925769169,3744817790
iw,-78.3574295043945,-36.7184028625488,-92.61675850573023,69.68456431969196,3744834457
iw,-79.1083221435546,-38.2267189025878,-97.9806252384157,70.91033535016294,3744851124
iw,-80.2425079345703,-39.4251518249511,-99.96289008464458,69.99805406042074,3744867791
iw,-81.4974899291992,-40.5619316101074,-99.99871557941022,67.3357600235628,3744884458
iw,-82.4687118530273,-41.6347160339355,-99.83272512612255,63.64050903800577,3744901125
iw,-82.9976196289062,-42.6717948913574,-101.1622338970736,59.81359514002399,3744917792
iw,-82.911750793457,-43.6141471862793,-105.26189948991721,56.741664619057055,3744934459
iw,-82.5442886352539,-44.525047302246,-112.68187047170026,55.10300351819597,3744951126
iw,-81.9476852416992,-45.4395065307617,-123.11209418738709,55.22966297561365,3744967793
iw,-80.7543106079101,-46.3998718261718,-135.46030610435903,57.057891540803936,3744984460
iw,-79.0076065063476,-47.4253120422363,-148.1159038548519,60.17640489389918,3745001127
iw,-76.8595199584961,-48.5626335144043,-159.30546993978712,63.95699839488484,3745017794
iw,-74.6536788940429,-49.8285102844238,-167.42674318823464,67.73000744490766,3745034461
iw,-72.2195587158203,-51.1142807006835,-171.2839269984781,70.95453383181756,3745051128
iw,-69.6073608398437,-52.4142036437988,-170.2059708504303,73.33523500595862,3745067795
iw,-66.8760452270507,-53.6881942749023,-164.06814661904954,74.85490192863189,3745084462
iw,-64.3731079101562,-54.9440460205078,-153.24207441694776,75.7199129785103,3745101129
iw,-62.473876953125,-56.1546249389648,-138.49125227267524,76.24390688631803,3745117796
iw,-60.7410507202148,-57.3320617675781,-120.83190521852963,76.71364862214136,3745134463
iw,-58.7753715515136,-58.5562629699707,-101.3894233601979,77.28400639302983,3745151130
iw,-57.480899810791,-59.9059906005859,-81.27821652533564,77.93494864951984,3745167797
iw,-56.7364692687988,-61.3456115722656,-61.51388562638884,78.49658428536833,3745184464
iw,-55.9813385009765,-62.7950325012207,-42.95072261500372,78.71884028895315,3745201131
iw,-55.4368858337402,-64.2161178588867,-26.2362915259828,78.3441107858713,3745217798
iw,-55.2630500793457,-65.6287078857421,-11.77890881670879,77.14341516058647,3745234465
iw,-55.416202545166,-66.8546142578125,0.27362417456902804,74.89820729812882,3745251132
iw,-55.7334938049316,-67.8873901367187,10.039498663464906,71.34103227049965,3745267799
iw,-56.0851593017578,-68.8859176635742,17.87979761624881,66.09490319856911,3745284466
iw,-56.3343467712402,-69.8376998901367,24.33644843922278,58.660035350905076,3745301133
iw,-56.7089004516601,-70.6868133544921,30.0376237568617,48.480270228245814,3745317800
iw,-57.4166755676269,-71.3869552612304,35.592787253680434,35.0860732552971,3745334467
iw,-58.7045822143554,-71.8761444091796,41.496975011054175,18.273510423369732,3745351134
iw,-59.4220390319824,-72.0836868286132,48.047234302600565,-1.7433906209387078,3745367801
iw,-59.993911743164,-71.8171005249023,55.269876600458886,-24.266434229636648,3745384468
iw,-60.7069206237793,-70.9032211303711,62.88069158907528,-48.164363431780174,3745401135
iw,-61.8016777038574,-69.3961334228515,70.32604124411911,-72.02846490459788,3745417802
iw,-63.5220832824707,-67.7268829345703,76.9365802675589,-94.38111600995921,3745434469
iw,-65.5611801147461,-66.0621795654296,82.15964978599337,-113.87607361300753,3745451136
iw,-67.2606658935546,-64.1266021728515,85.7689961915226,-129.4553406717085,3745467803
iw,-68.4156723022461,-61.7767944335937,87.94235173686373,-140.46512483855884,3745484470
iw,-69.6226959228515,-58.9414405822753,89.16436606909146,-146.74544361681063,3745501137
iw,-71.0085983276367,-55.9181861877441,90.00768693065382,-148.68195715535325,3745517804
iw,-72.5098724365234,-53.4244918823242,90.90137864824216,-147.17462323145196,3745534471
iw,-74.01220703125,-51.37158203125,91.985127576086,-143.48093889409347,3745551138
iw,-75.4723663330078,-49.3588714599609,93.09477768300768,-138.94430414973397,3745567805
iw,-77.0598449707031,-47.0964813232421,93.86984721288934,-134.682345572113,3745584472
iw,-78.7378005981445,-44.7892990112304,93.93613340984938,-131.33415359610532,3745601139
iw,-80.3554534912109,-42.7175598144531,93.09616348414579,-128.93676153820329,3745617806
iw,-81.8923263549804,-40.9126205444335,91.45667901819876,-126.95253591156374,3745634473
iw,-83.2205505371093,-39.1884269714355,89.44050547822002,-124.43430854404322,3745651140
iw,-84.3569412231445,-37.3080520629882,87.67044557366359,-120.29472769244906,3745667807
iw,-85.2520370483398,-35.3764266967773,86.76298281296545,-113.62275746712805,3745684474
iw,-85.9235458374023,-33.701374053955,87.1078715740046,-103.96335592641861,3745701141
iw,-86.2662963867187,-32.4343299865722,88.716409140928,-91.4706936249746,3745717808
iw,-86.1265716552734,-31.4420146942138,91.1912579227595,-76.88098406458086,3745734475
iw,-85.4523544311523,-30.5456447601318,93.81864277383679,-61.31644560959766,3745751142
iw,-84.3490676879882,-29.9388027191162,95.73576119805104,-45.99190139188085,3745767809
iw,-83.0085525512695,-29.6109981536865,96.10459861731935,-31.9226760315807,3745784476
iw,-81.5615997314453,-29.2803211212158,94.23450006339192,-19.72281851185447,3745801143
iw,-80.1735153198242,-29.1392784118652,89.62949935944938,-9.54543481200923,3745817810
iw,-79.0299987792968,-28.8471069335937,81.97489732743641,-1.1638819727853176,3745834477
iw,-78.1094741821289,-28.6463718414306,71.1061243502984,5.859126449727953,3745851144
iw,-77.3047637939453,-28.9077644348144,57.01110404406694,11.995083084036972,3745867811
iw,-76.57421875,-29.4758071899414,39.89754285336483,17.63426155225499,3745884478
iw,-75.9451293945312,-30.0894908905029,20.310599478751747,23.054165236842127,3745901145
iw,-75.4246749877929,-30.8868675231933,-0.7659231055941995,28.444913849202976,3745917812
iw,-75.3174133300781,-31.7757415771484,-21.91750007702306,33.94007242105173,3745934479
iw,-76.0251235961914,-32.7087707519531,-41.481289196562514,39.61083750598768,3745951146
iw,-77.3234558105468,-33.8050727844238,-57.889042472584705,45.41457524157667,3745967813
iw,-78.5624160766601,-34.6024131774902,-70.06325569216689,51.12918648717113,3745984480
iw,-79.1660919189453,-35.1713066101074,-77.7117550634587,56.33302967625874,3746001147
iw,-79.2554092407226,-36.3335494995117,-81.40267244488078,60.48322566634305,3746017814
iw,-79.7129287719726,-37.8242988586425,-82.40198743551908,63.09347341787976,3746034481
iw,-80.798583984375,-39.0760803222656,-82.35106498184562,63.942621660497544,3746051148
iw,-81.8654174804687,-40.0980262756347,-82.89607858033155,63.211053782975846,3746067815
iw,-82.5087585449218,-41.1051292419433,-85.35834502110296,61.474613542111385,3746084482
iw,-82.5476531982421,-42.1470260620117,-90.49794984833188,59.55869530111474,3746101149
iw,-82.1746139526367,-43.1720924377441,-98.40097592356797,58.31337457215775,3746117816
iw,-81.6429443359375,-44.1840744018554,-108.5061761596245,58.386573242752846,3746134483
iw,-80.8763122558593,-45.0921325683593,-119.76381109422358,60.05843102367307,3746151150
iw,-79.652099609375,-46.0970420837402,-130.88638239325982,63.17745738737899,3746167817
iw,-77.9555130004882,-47.2739524841308,-140.6217216927217,67.21418899307918,3746184484
iw,-76.1801071166992,-48.5629196166992,-147.9721473591674,71.41817758744948,3746201151
iw,-74.4499816894531,-49.9657859802246,-152.31031149042445,75.03242792350417,3746217818
iw,-72.4861831665039,-51.4524841308593,-153.39083270677156,77.49838407685068,3746234485
iw,-70.1110763549804,-52.8869132995605,-151.29322948835122,78.58613325167676,3746251152
iw,-67.5169830322265,-54.1743240356445,-146.33176004445454,78.41087382638048,3746267819
iw,-65.5861511230468,-55.3356018066406,-138.94585837741636,77.33910261488674,3746284486
iw,-64.0578689575195,-56.4598007202148,-129.57863421988537,75.82962100066946,3746301153
iw,-61.9963836669921,-57.6165542602539,-118.57205857544957,74.276554199664,3746317820
iw,-60.3915138244628,-58.82222366333,-106.12366059030519,72.91323123625291,3746334487
iw,-58.8895645141601,-60.1510848999023,-92.32877696409933,71.80136329128497,3746351154
iw,-57.5663375854492,-61.5777015686035,-77.28677199831588,70.88680555324703,3746367821
iw,-56.5182723999023,-62.9303588867187,-61.21656946390612,70.07223095983579,3746384488
iw,-55.8058166503906,-64.1021652221679,-44.52548794385078,69.25340640067886,3746401155
iw,-55.4266777038574,-65.213638305664,-27.799640805023916,68.29139640939034,3746417822
iw,-55.414321899414,-66.2411346435546,-11.719096436172759,66.93391328540682,3746434489
iw,-55.586627960205,-67.2193222045898,3.069293424128941,64.73255585164061,3746451156
iw,-55.7889251708984,-68.1924209594726,16.077194475807357,61.012087162920785,3746467823
iw,-56.1511802673339,-69.0930709838867,27.064013809375677,54.93093887781609,3746484490
iw,-56.7244300842285,-69.9122238159179,36.07556135170429,45.638045704109516,3746501157
iw,-57.7792205810546,-70.6138000488281,43.42900179241768,32.493143395739104,3746517824
iw,-59.1765899658203,-71.1547164916992,49.63731746152956,15.288115757738689,3746534491
iw,-59.962963104248,-71.3285140991211,55.2647248481543,-5.604042219020225,3746551158
iw,-60.4114265441894,-70.9742660522461,60.730622720657614,-29.211170335869326,3746567825
iw,-61.0062751770019,-69.8815460205078,66.13243750268437,-54.09178061448597,3746584492
iw,-62.134765625,-68.1904067993164,71.19106145937846,-78.57444565000394,3746601159
iw,-63.975227355957,-66.4065475463867,75.38400633901281,-101.02667863398337,3746617826
iw,-66.0952606201171,-64.6436691284179,78.22523121971511,-120.0727128169974,3746634493
iw,-67.669319152832,-62.570442199707,79.55021491898559,-134.7230699832329,3746651160
iw,-68.6154556274414,-60.2186584472656,79.65165928705805,-144.43369605171733,3746667827
iw,-69.6709365844726,-57.4572067260742,79.19916774455889,-149.13497907683862,3746684494
iw,-70.8903045654296,-54.5816268920898,78.99754443455366,-149.24659714832293,3746701161
iw,-72.2722015380859,-51.9341354370117,79.70717557049842,-145.651082942055,3746717828
iw,-73.6733779907226,-49.7608566284179,81.63755288606546,-139.58170551559303,3746734495
iw,-74.9870071411132,-47.8186454772949,84.66791487395587,-132.4097882544859,3746751162
iw,-76.4012298583984,-45.8372840881347,88.29612837193183,-125.37215788778016,3746767829
iw,-77.9532012939453,-43.8833999633789,91.78662348787279,-119.31797630522847,3746784496
iw,-79.5224914550781,-42.0487632751464,94.37248296178359,-114.55044317982286,3746801163
iw,-81.0790786743164,-40.3936004638671,95.45772752778807,-110.80424886689634,3746817830
iw,-82.5654983520507,-39.0174865722656,94.76671034930804,-107.36180193592384,3746834497
iw,-83.9289169311523,-37.538028717041,92.40349612950803,-103.28286722813056,3746851164
iw,-85.115852355957,-35.8055877685546,88.81173219620479,-97.69652781845373,3746867831
iw,-86.0403747558593,-34.2660331726074,84.65393851468666,-90.0773499173429,3746884498
iw,-86.5830459594726,-33.1806373596191,80.64748300575752,-80.41612810832066,3746901165
iw,-86.6557846069336,-32.3675155639648,77.39768867799569,-69.2228856056958,3746917832
iw,-86.3215560913086,-31.4285831451416,75.2593814036915,-57.36218713989461,3746934499
iw,-85.7365341186523,-30.7049217224121,74.24550657295799,-45.78291756475624,3746951166
iw,-84.9387893676757,-30.4819011688232,73.99334279592125,-35.235426740806105,3746967833
iw,-83.9973678588867,-30.2816467285156,73.79576434689838,-26.067028170336346,3746984500
iw,-82.9315872192382,-30.0967140197753,72.70029945800823,-18.162724789394918,3747001167
iw,-81.8069152832031,-29.6914024353027,69.66745499063121,-11.05224562729328,3747017834
iw,-80.7151641845703,-29.2082042694091,63.764786642920654,-4.140542431317262,3747034501
iw,-79.7490539550781,-29.0893459320068,54.36160737272894,3.03688475873856,3747051168
iw,-78.9612274169921,-29.3592586517334,41.285805831791286,10.643825275156946,3747067835
iw,-78.4475936889648,-29.9215469360351,24.909303080916448,18.522705869435963,3747084502
iw,-78.1985397338867,-30.6991691589355,6.139860059859863,26.311237553505862,3747101169
iw,-78.1269226074218,-31.5720138549804,-13.68829734649509,33.621529917224635,3747117836
iw,-78.4004516601562,-32.6374549865722,-33.01503661298403,40.188443533541154,3747134503
iw,-79.0990524291992,-33.7138328552246,-50.31498023725487,45.92083578959015,3747151170
iw,-79.7665328979492,-34.9034767150878,-64.36526035928435,50.84348022439123,3747167837
iw,-80.3174896240234,-35.5212516784668,-74.45602866725365,54.976082272054455,3747184504
iw,-80.7334671020507,-36.0122032165527,-80.49226999591933,58.234627291435416,3747201171
iw,-80.6393890380859,-37.2080459594726,-82.97197358510721,60.43376163807592,3747217838
iw,-80.7405090332031,-38.7096939086914,-82.86590502490736,61.407391840889105,3747234505
iw,-81.4788055419921,-39.9510269165039,-81.44292057033265,61.18000819914902,3747251172
iw,-81.9954147338867,-40.8463859558105,-80.07226218633136,60.077092789400645,3747267839
iw,-81.8336029052734,-41.7176895141601,-80.00979339665955,58.697201926714854,3747284506
iw,-81.3749313354492,-42.665355682373,-82.17453399191258,57.75156300440912,3747301173
iw,-80.9638214111328,-43.6056442260742,-86.95579369884626,57.84500020188637,3747317840
iw,-80.3580856323242,-44.5552368164062,-94.12227799875707,59.28878283011301,3747334507
iw,-79.306167602539,-45.5577926635742,-102.8859369947914,62.01142188958551,3747351174
iw,-78.0465850830078,-46.7186622619628,-112.10609357584241,65.59272513961852,3747367841
iw,-76.7095947265625,-48.0104598999023,-120.55519844859936,69.40490907104488,3747384508
iw,-75.2800979614257,-49.3889923095703,-127.15543569147913,72.81018570673297,3747401175
iw,-73.7945861816406,-50.7282905578613,-131.1351888170168,75.34635970347038,3747417842
iw,-72.1838455200195,-52.0656776428222,-132.10374057486757,76.83848267617715,3747434509
iw,-69.8912124633789,-53.3892021179199,-130.06201108387012,77.40369926044919,3747451176
iw,-67.8569030761718,-54.5840950012207,-125.3547786586777,77.35593446925475,3747467843
iw,-66.122314453125,-55.7481307983398,-118.5578125210522,77.05198387860128,3747484510
iw,-64.8678588867187,-56.9470787048339,-110.31134831406055,76.7394202323829,3747501177
iw,-63.2769775390625,-58.1714973449707,-101.15057642934984,76.46354887675759,3747517844
iw,-61.7403678894043,-59.4750747680664,-91.4030234875343,76.06642285905775,3747534511
iw,-60.3381233215332,-60.8328628540039,-81.19467822235792,75.27475889566036,3747551178
iw,-59.1103019714355,-62.2007026672363,-70.54922256674915,73.83929740579593,3747567845
iw,-58.0041732788085,-63.5590362548828,-59.51924935230934,71.66797643426462,3747584512
iw,-57.103157043457,-64.8573608398437,-48.279904980815175,68.89577041112227,3747601179
iw,-56.6180839538574,-66.0276336669921,-37.14104952562647,65.8550560285233,3747617846
iw,-56.3766860961914,-67.0122451782226,-26.476794147484338,62.945816383300524,3747634513
iw,-56.2315597534179,-67.9081802368164,-16.610921311100917,60.44389012983163,3747651180
iw,-56.1705818176269,-68.7451934814453,-7.714291820071271,58.31382497466433,3747667847
iw,-56.1349258422851,-69.579719543457,0.2423170145513061,56.09841281072999,3747684514
iw,-56.1673927307128,-70.4661712646484,7.469230580034104,52.9355283925889,3747701181
iw,-56.3513488769531,-71.3796997070312,14.29273571859006,47.71151502902062,3747717848
iw,-56.8543167114257,-72.1911010742187,21.073925009408562,39.31436408466059,3747734515
iw,-57.9002990722656,-72.7994537353515,28.12842139324283,26.91635517527101,3747751182
iw,-58.5407180786132,-73.1587600708007,35.64377494302886,10.206294058500779,3747767849
iw,-58.8862991333007,-73.1350326538086,43.5911656468359,-10.492157360161919,3747784516
iw,-59.4074554443359,-72.5451889038086,51.65794953589258,-34.24377957199652,3747801183
iw,-60.3462715148925,-71.2551040649414,59.25924511898594,-59.649793958526026,3747817850
iw,-61.7026252746582,-69.5283660888671,65.67511781020387,-85.06472169670879,3747834517
iw,-63.344799041748,-67.8069076538086,70.29490855973255,-108.8124941139469,3747851184
iw,-65.0884628295898,-66.0791320800781,72.87470810736474,-129.35681826885983,3747867851
iw,-66.2690887451171,-63.8672409057617,73.6858611304943,-145.4305500542323,3747884518
iw,-67.235366821289,-61.0978317260742,73.47612363870354,-156.1621144059794,3747901185
iw,-68.3473358154296,-57.81099319458,73.25399118149484,-161.21845607202886,3747917852
iw,-69.6226577758789,-54.686107635498,73.98379084858303,-160.92510342704372,3747934519
iw,-70.9098968505859,-52.0191230773925,76.30202010061745,-156.27980493019444,3747951186
iw,-72.1495208740234,-49.8516273498535,80.33761524904081,-148.7949255195446,3747967853
iw,-73.4211654663086,-47.7381324768066,85.67457092751683,-140.17976191741812,3747984520
iw,-74.9258346557617,-45.5530319213867,91.45912092524624,-131.95325293188176,3748001187
iw,-76.676155090332,-43.5792694091796,96.62462983018564,-125.10868633676814,3748017854
iw,-78.4406280517578,-41.8721809387207,100.1783381736387,-119.9276180810173,3748034521
iw,-80.1073150634765,-40.2366561889648,101.4718735904741,-115.98861221838034,3748051188
iw,-81.6379699707031,-38.44771194458,100.377547256085,-112.36258805901966,3748067855
iw,-83.0073699951171,-36.6120681762695,97.32049005273082,-107.93627230192207,3748084522
iw,-84.2154464721679,-34.8898162841796,93.1612707725234,-101.76416136806365,3748101189
iw,-85.2358474731445,-33.6742324829101,88.96651919426813,-93.33763229709878,3748117856
iw,-85.9657592773437,-32.7928848266601,85.73293926607985,-82.69436993430483,3748134523
iw,-86.3211898803711,-31.8449993133544,84.13773455993011,-70.35915268163583,3748151190
iw,-86.2673950195312,-31.0086498260498,84.37637642272054,-57.16842787293948,3748167857
iw,-85.7470245361328,-30.4754028320312,86.12106863394028,-44.05414300909282,3748184524
iw,-84.825927734375,-29.9646205902099,88.59840961696378,-31.849093226275958,3748201191
iw,-83.621826171875,-29.7886486053466,90.75398901903208,-21.150267958492783,3748217858
iw,-82.1650848388671,-29.6907958984375,91.45444170402698,-12.255100777942223,3748234525
iw,-80.676887512207,-29.5020084381103,89.6766219156285,-5.1691371106014925,3748251192
iw,-79.3539199829101,-29.4107303619384,84.64705264309673,0.33174456394984303,3748267859
iw,-78.2503509521484,-29.4967155456542,75.91913393473583,4.614143780257933,3748284526
iw,-77.3702087402343,-29.7356395721435,63.402684695854965,8.10661988349617,3748301193
iw,-76.6406173706054,-30.0390281677246,47.37536894556743,11.24461177535345,3748317860
iw,-75.9973068237304,-30.4198570251464,28.4959167240123,14.43913515213261,3748334527
iw,-75.5634155273437,-31.0431041717529,7.808295275832806,18.05232191920447,3748351194
iw,-75.4482650756836,-31.6118259429931,-13.304326106425545,22.36026840869047,3748367861
iw,-75.8258666992187,-31.9983501434326,-33.26078463779735,27.495076043508906,3748384528
iw,-76.8051834106445,-32.9014472961425,-50.528960084312125,33.38001990525276,3748401195
iw,-78.0132904052734,-33.8470840454101,-63.930811213566315,39.692640272781304,3748417862
iw,-79.0480499267578,-34.3218193054199,-72.90974964625387,45.89379423521614,3748434529
iw,-79.6166839599609,-35.1532669067382,-77.66212219615262,51.3398591362038,3748451196
iw,-79.7976837158203,-36.4228897094726,-79.08503740154038,55.45855777263104,3748467863
iw,-80.1883926391601,-37.4970321655273,-78.5666298497853,57.93245003196722,3748484530
iw,-81.1310195922851,-38.49755859375,-77.69528044309132,58.81884102138419,3748501197
iw,-82.1772766113281,-39.5237655639648,-77.96519071073764,58.55575881204679,3748517864
iw,-82.4714202880859,-40.5452194213867,-80.52354016048578,57.850718246077605,3748534531
iw,-82.0477142333984,-41.5708961486816,-85.98011440737463,57.492020095024955,3748551198
iw,-81.4715194702148,-42.5443954467773,-94.3047412687245,58.141222284421396,3748567865
iw,-80.8999252319336,-43.5190544128418,-104.84893372733372,60.16286409435174,3748584532
iw,-79.9905166625976,-44.5369720458984,-116.5077757651967,63.533859589495584,3748601199
iw,-78.6997604370117,-45.6743354797363,-127.98164990363733,67.85473295658203,3748617866
iw,-77.4972381591796,-46.9545135498046,-138.0474076517981,72.45910091932079,3748634533
iw,-76.3002166748046,-48.3053321838378,-145.7524358596938,76.59085308699974,3748651200
iw,-74.6100540161132,-49.7525520324707,-150.5008808622956,79.59869824562503,3748667867
iw,-72.327522277832,-51.2345581054687,-152.05688594492509,81.0927591905833,3748684534
iw,-70.1666183471679,-52.6564598083496,-150.5009985240678,81.02019056461583,3748701201
iw,-67.977912902832,-53.9509353637695,-146.15346631208047,79.64302262720865,3748717868
iw,-65.837158203125,-55.1557846069335,-139.46427643831825,77.43356180638268,3748734535
iw,-63.9579277038574,-56.3146743774414,-130.88360589462656,74.92915474900306,3748751202
iw,-62.1117401123046,-57.4988136291503,-120.74961949756647,72.59759087342225,3748767869
iw,-60.7322731018066,-58.7536087036132,-109.2374592404056,70.75243578494353,3748784536
iw,-59.0273284912109,-59.9964714050293,-96.39444409807352,69.53074066719492,3748801203
iw,-57.5084037780761,-61.2171554565429,-82.24901183234192,68.91807166696739,3748817870
iw,-56.3079719543457,-62.4460639953613,-66.94253064328265,68.7904932936046,3748834537
iw,-55.4600219726562,-63.7050514221191,-50.81701524163088,68.9440823584704,3748851204
iw,-55.0179786682128,-64.9214553833007,-34.41224489618918,69.09527698606091,3748867871
iw,-54.8895072937011,-66.0874786376953,-18.37253428026736,68.85301083150438,3748884538
iw,-55.0655708312988,-67.1665802001953,-3.3072674149769026,67.6809032470816,3748901205
iw,-55.2134246826171,-68.1743927001953,10.334780633751336,64.88001162658291,3748917872
iw,-55.4272727966308,-69.0999145507812,22.33417929711069,59.62422851197308,3748934539
iw,-55.8859519958496,-69.9768905639648,32.7031394756754,51.0673083385167,3748951206
iw,-56.9595756530761,-70.7719650268554,41.63634083846466,38.51420103044167,3748967873
iw,-58.2502250671386,-71.3299179077148,49.425747116655074,21.618729597605245,3748984540
iw,-58.980670928955,-71.536636352539,56.3456175764341,0.5487814218450449,3749001207
iw,-59.5495986938476,-71.2984161376953,62.52500675686672,-23.938399649147122,3749017874
iw,-60.3661613464355,-70.3734970092773,67.8603809742307,-50.541605673995846,3749034541
iw,-61.5459671020507,-68.7445602416992,72.03992478132687,-77.57095549707424,3749051208
iw,-63.4871635437011,-66.9432754516601,74.71009051028983,-103.16676722232309,3749067875
iw,-65.3677673339843,-65.2166976928711,75.72512590164446,-125.52823647797749,3749084542
iw,-66.5626983642578,-63.0496559143066,75.34941886878453,-143.12300858853519,3749101209
iw,-67.5418014526367,-60.3617706298828,74.29341812415966,-154.8791896472016,3749117876
iw,-68.7095718383789,-57.0437507629394,73.55229866728193,-160.35951797126577,3749134543
iw,-69.944839477539,-53.923225402832,74.11461845591639,-159.87859120282045,3749151210
iw,-71.2416839599609,-51.3525466918945,76.65296275834758,-154.4915026863961,3749167877
iw,-72.4969863891601,-49.2604866027832,81.29500557404825,-145.80469211164115,3749184544
iw,-73.7663192749023,-47.297019958496,87.53627499003409,-135.6359330527431,3749201211
iw,-75.2310409545898,-45.2473602294921,94.32056521801883,-125.62538501643766,3749217878
iw,-76.8776702880859,-43.1577796936035,100.28009618633807,-116.91887694899448,3749234545
iw,-78.6559829711914,-41.3641281127929,104.08814855845878,-110.00364845874184,3749251212
iw,-80.4791564941406,-39.9844665527343,104.83711003137944,-104.71592569853705,3749267879
iw,-82.2994384765625,-38.5568237304687,102.33150479903502,-100.39668327645555,3749284546
iw,-83.8824996948242,-36.9870147705078,97.19490863960466,-96.14948771425814,3749301213
iw,-85.1348571777343,-35.4041595458984,90.73712734983548,-91.13507809728601,3749317880
iw,-86.0896453857421,-34.137825012207,84.60336502078053,-84.82001190637159,3749334547
iw,-86.8170318603515,-33.2868881225585,80.30377686834869,-77.10281911181056,3749351214
iw,-87.1533889770507,-32.4575576782226,78.76648186715185,-68.28401720349929,3749367881
iw,-86.9854583740234,-31.5916366577148,80.04949322341514,-58.906949405627905,3749384548
iw,-86.2597961425781,-30.9921073913574,83.29306282983103,-49.539760396712126,3749401215
iw,-85.1069564819336,-30.5705680847167,86.91891873853024,-40.57816529031106,3749417882
iw,-83.717529296875,-30.2126007080078,89.01374502421582,-32.13238881596659,3749434549
iw,-82.1568756103515,-29.9061298370361,87.7888207397654,-24.03213746615611,3749451216
iw,-80.6835632324218,-29.5334720611572,81.99415564218125,-15.944855334618705,3749467883
iw,-79.4531784057617,-29.1890602111816,71.18477116155923,-7.560381436007465,3749484550
iw,-78.535285949707,-29.055492401123,55.78323397942073,1.2348540798053056,3749501217
iw,-77.9420700073242,-29.2639465332031,36.942080782095104,10.270635495654664,3749517884
iw,-77.7122268676757,-29.7452564239501,16.26229356132867,19.13306696130871,3749534551
iw,-77.8309173583984,-30.5245742797851,-4.547110413261025,27.31467580069406,3749551218
iw,-78.0891952514648,-31.4576015472412,-23.982546741313147,34.4060404854894,3749567885
iw,-78.5065765380859,-32.4964370727539,-40.96720739236297,40.240414075351346,3749584552
iw,-79.1542358398437,-33.5976104736328,-54.94577679634109,44.9231202896883,3749601219
iw,-79.7363204956054,-34.6463203430175,-65.84903447192173,48.73056702181504,3749617886
iw,-79.9238967895507,-35.121524810791,-73.95332949739247,51.92960706313323,3749634553
iw,-79.6265792846679,-35.48193359375,-79.68852662168192,54.6173368577174,3749651220
iw,-79.5002899169921,-36.7012062072753,-83.47249943527093,56.68092698768833,3749667887
iw,-80.0712432861328,-38.1079025268554,-85.64990851020428,57.91164241523331,3749684554
iw,-80.864387512207,-39.334659576416,-86.56622761384307,58.209446526750746,3749701221
iw,-81.0221481323242,-40.271987915039,-86.72479090951096,57.75442620588143,3749717888
iw,-80.6123886108398,-41.1014709472656,-86.90664241683848,57.04365660204169,3749734555
iw,-80.0781784057617,-42.0613098144531,-88.13595580170691,56.772747878004516,3749751222
iw,-79.6889343261718,-43.0034866333007,-91.45452179476888,57.61739077894815,3749767889
iw,-79.154541015625,-43.9880905151367,-97.57530217326615,60.00220900644374,3749784556
iw,-78.4418106079101,-44.9855995178222,-106.5526735894122,63.93584458324704,3749801223
iw,-77.8867568969726,-46.0623245239257,-117.60833414313296,68.96378258161215,3749817890
iw,-76.6642837524414,-47.2675628662109,-129.200532195192,74.25696643825442,3749834557
iw,-74.7145233154296,-48.6749458312988,-139.34411573533524,78.81780231908415,3749851224
iw,-72.6887588500976,-50.2001228332519,-146.09913225986656,81.74954315236067,3749867891
iw,-70.0582580566406,-51.7657585144043,-148.07362710214386,82.51025731707331,3749884558
iw,-67.5626373291015,-53.2916679382324,-144.76727032048876,81.07065887865964,3749901225
iw,-65.7312393188476,-54.6093788146972,-136.63519438454222,77.92188223361664,3749917892
iw,-63.9131050109863,-55.6944541931152,-124.85987911567379,73.9287201290828,3749934559
iw,-62.641918182373,-56.6971206665039,-110.93507901059081,70.07805099850198,3749951226
iw,-61.2120132446289,-57.702579498291,-96.23166667658738,67.2081468528202,3749967893
iw,-59.9239616394043,-58.7706565856933,-81.69991519024832,65.80571194907482,3749984560
iw,-58.8608016967773,-59.9436683654785,-67.78379653495195,65.92428448200826,3750001227
iw,-57.8402137756347,-61.1932220458984,-54.52790253768824,67.22750467564788,3750017894
iw,-56.8113098144531,-62.5194664001464,-41.788771515798786,69.116918571377,3750034561
iw,-56.1654396057128,-63.7924728393554,-29.43978076108179,70.88297894493513,3750051228
iw,-56.1216812133789,-65.0657272338867,-17.48438547453666,71.82404865044549,3750067895
iw,-56.3853607177734,-66.2842254638671,-6.053201427247927,71.30461722934966,3750084562
iw,-56.5026741027832,-67.3243865966796,4.676199330137327,68.75735925128913,3750101229
iw,-56.5891075134277,-68.2645416259765,14.570904581903253,63.66054230661994,3750117896
iw,-56.7507553100585,-69.1505813598632,23.600632434660206,55.53259285477961,3750134563
iw,-57.495304107666,-69.9502563476562,31.854799834244997,43.974714228620904,3750151230
iw,-58.8292121887207,-70.5701675415039,39.525759276194904,28.764290660296027,3750167897
iw,-59.7084007263183,-70.8855819702148,46.8524966575848,9.970275184056389,3750184564
iw,-60.2686424255371,-70.8680191040039,54.016134630789814,-11.95608238087744,3750201231
iw,-60.7680015563964,-70.3164749145507,61.01391547381028,-36.156351158199584,3750217898
iw,-61.7996597290039,-69.0514068603515,67.58625240852163,-61.42123855528756,3750234565
iw,-63.4517211914062,-67.4055709838867,73.27230690530492,-86.311424479866,3750251232
iw,-65.4589462280273,-65.7561111450195,77.5994733079864,-109.30835823478598,3750267899
iw,-67.0310363769531,-63.936725616455,80.31884590793531,-128.97046975399527,3750284566
iw,-68.2366027832031,-61.6669158935546,81.55930249222702,-144.09697951509148,3750301233
iw,-69.4602890014648,-58.755802154541,81.81925141084916,-153.9104072577386,3750317900
iw,-70.7505874633789,-55.4272651672363,81.80668370532464,-158.23639716071153,3750334567
iw,-72.1063461303711,-52.4219551086425,82.20682902241512,-157.60731596362422,3750351234
iw,-73.4481582641601,-49.9929809570312,83.46969458973923,-153.19980036628579,3750367901
iw,-74.7885437011718,-47.9826278686523,85.68279003194847,-146.5714236123469,3750384568
iw,-76.2074432373046,-45.9523391723632,88.55735823385582,-139.2619218316598,3750401235
iw,-77.7950973510742,-43.9834556579589,91.52429347839245,-132.40117350870256,3750417902
iw,-79.3945541381836,-42.0036544799804,93.90959705630726,-126.46828204920517,3750434569
iw,-80.9359436035156,-39.8845176696777,95.13981548617319,-121.27820879277787,3750451236
iw,-82.4427490234375,-37.9589881896972,94.92078235282352,-116.1785400736898,3750467903
iw,-83.8652191162109,-36.2272224426269,93.34084316466148,-110.36475603922024,3750484570
iw,-85.0961608886718,-34.4859542846679,90.86862696105818,-103.19275992161752,3750501237
iw,-85.9615783691406,-32.9947471618652,88.2393856493273,-94.38442861277963,3750517904
iw,-86.3522415161132,-32.2320747375488,86.24964688097556,-84.07306811526574,3750534571
iw,-86.3008041381836,-31.6005096435546,85.50508466488138,-72.70213440192431,3750551238
iw,-85.9249877929687,-30.5709495544433,86.1861104450838,-60.846293361840495,3750567905
iw,-85.2015991210937,-29.91064453125,87.90157697922793,-49.04049458140579,3750584572
iw,-84.1622619628906,-29.4185066223144,89.68549514333002,-37.674365505592945,3750601239
iw,-82.8879013061523,-28.9469776153564,90.15450870206014,-26.963254264353306,3750617906
iw,-81.561294555664,-28.6958065032959,87.79680759916714,-16.97556024888284,3750634573
iw,-80.2038345336914,-28.6482563018798,81.32456666886918,-7.686811613738344,3750651240
iw,-78.9273376464843,-28.6183853149414,70.00436967791711,0.9647840971614767,3750667907
iw,-77.8542022705078,-28.7592220306396,53.88407106748282,9.037991313197612,3750684574
iw,-77.0765533447265,-29.1766967773437,33.85496388038456,16.57090118580749,3750701241
iw,-76.7201156616211,-29.8159236907959,11.521741052363085,23.583387755785484,3750717908
iw,-76.8929061889648,-30.4839992523193,-11.101804977401171,30.086587351602542,3750734575
iw,-77.6690597534179,-31.3586692810058,-32.00197495626974,36.08146625909143,3750751242
iw,-78.6807785034179,-32.3460426330566,-49.568601586277715,41.53582516793619,3750767909
iw,-79.2589721679687,-33.2295761108398,-62.87536706256146,46.34792027415822,3750784576
iw,-79.3054656982421,-33.652416229248,-71.76433679110366,50.32673379165109,3750801243
iw,-79.3355407714843,-34.518253326416,-76.74445102440077,53.22782797081277,3750817910
iw,-79.4791183471679,-35.9452323913574,-78.78621322138387,54.86129155676106,3750834577
iw,-79.8728637695312,-37.1790771484375,-79.11004891312419,55.23608591059563,3750851244
iw,-80.7115097045898,-38.1561813354492,-79.01950959818893,54.66108604981062,3750867911
iw,-81.4718399047851,-38.977123260498,-79.7654680666698,53.73159486177584,3750884578
iw,-81.4853439331054,-39.8299446105957,-82.39631154096539,53.19017478843047,3750901245
iw,-80.995361328125,-40.764404296875,-87.57485870877531,53.714947223530835,3750917912
iw,-80.4125366210937,-41.6902542114257,-95.40374062654413,55.71521583990275,3750934579
iw,-79.8491744995117,-42.5900421142578,-105.345406478946,59.20170808425907,3750951246
iw,-78.9150772094726,-43.5710258483886,-116.30719528823575,63.76925888412334,3750967913
iw,-77.6601867675781,-44.7682456970214,-126.88880355919999,68.69877911029596,3750984580
iw,-76.2593765258789,-46.1418304443359,-135.70917441251413,73.15418968635758,3751001247
iw,-74.6879425048828,-47.573974609375,-141.6982475346373,76.42000593319418,3751017914
iw,-72.9081878662109,-49.0103569030761,-144.2705934468431,78.10704379937987,3751034581
iw,-70.9940719604492,-50.4229660034179,-143.35911431303165,78.25934615558386,3751051248
iw,-68.9230194091796,-51.7284469604492,-139.3338705093249,77.32607823541873,3751067915
iw,-66.7786026000976,-52.9270210266113,-132.84735430490835,76.00665056926096,3751084582
iw,-65.0434188842773,-54.0354843139648,-124.64629029564381,75.01966914252083,3751101249
iw,-63.5769653320312,-55.1475181579589,-115.38967626246216,74.87209119755269,3751117916
iw,-61.6720809936523,-56.3457908630371,-105.51548169892578,75.70481367817129,3751134583
iw,-60.4446334838867,-57.650821685791,-95.19102120602577,77.26381780697868,3751151250
iw,-59.1781616210937,-59.0679359436035,-84.35722717527354,79.00123724540639,3751167917
iw,-57.8547973632812,-60.5894355773925,-72.8455570614602,80.26491014645755,3751184584
iw,-56.7967224121093,-62.1305656433105,-60.52308535195516,80.50481781717232,3751201251
iw,-55.988166809082,-63.599136352539,-47.413555912672805,79.42060943231606,3751217918
iw,-55.4962654113769,-64.9601669311523,-33.75306635939332,76.99721770240232,3751234585
iw,-55.2727279663085,-66.1729125976562,-19.966676332825582,73.41733485565686,3751251252
iw,-55.31396484375,-67.2000579833984,-6.5829253432964006,68.88575071052698,3751267919
iw,-55.3153991699218,-68.0710678100586,5.880144231218915,63.43528288296466,3751284586
iw,-55.4589805603027,-68.8740921020507,17.02648335406006,56.79478074538072,3751301253
iw,-56.015037536621,-69.6579818725586,26.67069226612984,48.38091200766478,3751317920
iw,-57.0782890319824,-70.410774230957,34.88521935762417,37.43134032688869,3751334587
iw,-58.3438873291015,-71.0606842041015,41.978168950440455,23.24262272948509,3751351254
iw,-58.9064826965332,-71.4396667480468,48.37665487755195,5.433697114076978,3751367921
iw,-59.1910705566406,-71.391975402832,54.432081086880636,-15.855523747023986,3751384588
iw,-59.8064613342285,-70.6842575073242,60.231035635566755,-39.89450600386546,3751401255
iw,-61.0384521484375,-69.2456130981445,65.52951300076363,-65.43230975856166,3751417922
iw,-62.6789817810058,-67.4777221679687,69.87808971961938,-90.86574726145973,3751434589
iw,-64.6645812988281,-65.8215026855468,72.8906278668604,-114.44256841078416,3751451256
iw,-66.1249847412109,-64.0429763793945,74.51159196876111,-134.4610616614662,3751467923
iw,-66.9745254516601,-61.7305793762207,75.13186252443649,-149.47267415842578,3751484590
iw,-68.0535507202148,-58.702896118164,75.49283789774915,-158.50994895085816,3751501257
iw,-69.402603149414,-55.2433624267578,76.43424126696594,-161.31987277070647,3751517924
iw,-70.7283706665039,-52.2167472839355,78.60375597628247,-158.51460096031954,3751534591
iw,-72.0499954223632,-49.827579498291,82.23534819803193,-151.52809290500335,3751551258
iw,-73.3739013671875,-47.9227561950683,87.05574686748186,-142.32933397175043,3751567925
iw,-74.7785110473632,-45.963581085205,92.33606559284358,-132.95710999390843,3751584592
iw,-76.4750823974609,-43.9422073364257,97.07524100761236,-125.02877965272702,3751601259
iw,-78.2914047241211,-42.0191612243652,100.27245320566706,-119.38342511925889,3751617926
iw,-80.0335388183593,-40.3840026855468,101.21636562476971,-115.9593588977182,3751634593
iw,-81.6194152832031,-38.714183807373,99.70541180797157,-113.92366534524064,3751651260
iw,-83.0381317138671,-36.8019523620605,96.12962353102131,-111.99989780380317,3751667927
iw,-84.2663955688476,-34.8366508483886,91.3871778858161,-108.88722467817527,3751684594
iw,-85.2733764648437,-33.1403465270996,86.65941795583879,-103.63799763648517,3751701261
iw,-86.0631942749023,-32.0357551574707,83.1074416847353,-95.87891417849616,3751717928
iw,-86.5315246582031,-31.1636295318603,81.57094053506248,-85.82777194495885,3751734595
iw,-86.5448150634765,-29.9986152648925,82.34424508747,-74.14109839434556,3751751262
iw,-86.0933456420898,-28.9960460662841,85.08047774237522,-61.67886420096,3751767929
iw,-85.2347412109375,-28.4295024871826,88.84082307059857,-49.27123163299411,3751784596
iw,-84.099136352539,-27.9690494537353,92.27113243369995,-37.54242578395474,3751801263
iw,-82.6641998291015,-27.6779346466064,93.86029343190927,-26.81983379112605,3751817930
iw,-81.0498123168945,-27.4635276794433,92.22002986251114,-17.13766330143716,3751834597
iw,-79.6289672851562,-27.2264976501464,86.3271589038273,-8.32271273589344,3751851264
iw,-78.4433517456054,-27.0773773193359,75.68661505166624,-0.12395294461122136,3751867931
iw,-77.4643478393554,-27.1307582855224,60.40090958411538,7.668568046603709,3751884598
iw,-76.7272872924804,-27.5818824768066,41.15582188433754,15.162005235303253,3751901265
iw,-76.2543487548828,-28.4304466247558,19.14017381517815,22.369246204335266,3751917932
iw,-76.0897140502929,-29.2081127166748,-4.0898198867388995,29.259503735029526,3751934599
iw,-76.3089523315429,-29.8889636993408,-26.79917346284405,35.80159172116209,3751951266
iw,-77.0633850097656,-30.9708919525146,-47.307312107902455,41.96473823289776,3751967933
iw,-78.0168762207031,-32.409854888916,-64.23652014233184,47.67912050677933,3751984600
iw,-78.8641891479492,-32.93212890625,-76.72567011754859,52.79175370802286,3752001267
iw,-79.2558364868164,-33.3841857910156,-84.55882557702657,57.06491771862613,3752017934
iw,-79.3411865234375,-34.7128677368164,-88.1843348131358,60.24742693237325,3752034601
iw,-79.8047790527343,-36.0922927856445,-88.63444890654877,62.20423454696241,3752051268
iw,-80.9077453613281,-37.2422485351562,-87.37004045804616,63.03934324735248,3752067935
iw,-81.9283218383789,-38.2168235778808,-86.06214856989958,63.134117415250685,3752084602
iw,-82.1485214233398,-39.2821998596191,-86.30960211490621,63.06694538807164,3752101269
iw,-81.7088394165039,-40.3791198730468,-89.31500254408459,63.44596187188399,3752117936
iw,-81.0623397827148,-41.5265769958496,-95.5954206101458,64.72398885162387,3752134603
iw,-80.353271484375,-42.641357421875,-104.83801998665984,67.0601926305787,3752151270
iw,-79.3354721069336,-43.749340057373,-115.97654631177093,70.26716464861856,3752167937
iw,-78.0051651000976,-44.9820747375488,-127.47121302640717,73.85585408893674,3752184604
iw,-76.6056213378906,-46.3653526306152,-137.68532327915239,77.16756895060985,3752201271
iw,-75.0879745483398,-47.8323974609375,-145.2278590223723,79.55920774416028,3752217938
iw,-73.2749328613281,-49.2547264099121,-149.1767220152823,80.58931532694028,3752234605
iw,-71.1788177490234,-50.6441764831543,-149.1637080220252,80.14893908350359,3752251272
iw,-68.9060287475586,-52.0295143127441,-145.34176456218125,78.49758597062755,3752267939
iw,-66.9009399414062,-53.2998275756835,-138.2628097223942,76.19437104617825,3752284606
iw,-65.2099075317382,-54.4657249450683,-128.696944563429,73.94574079969583,3752301273
iw,-63.6408882141113,-55.6133460998535,-117.43748329818382,72.41448376187057,3752317940
iw,-61.6947517395019,-56.7673301696777,-105.14718043110126,72.04445604200068,3752334607
iw,-60.4968299865722,-57.9667854309082,-92.28811368039896,72.94883533941888,3752351274
iw,-59.4259376525878,-59.2562294006347,-79.14328642134723,74.8889059938436,3752367941
iw,-58.1055526733398,-60.5512886047363,-65.90390582779511,77.34294841170647,3752384608
iw,-57.0674743652343,-61.9637298583984,-52.775154110208774,79.63979565869452,3752401275
iw,-56.2263603210449,-63.45064163208,-40.04585527781204,81.11498514562842,3752417942
iw,-56.006420135498,-65.0284118652343,-28.080685304683445,81.24160701930465,3752434609
iw,-55.9605484008789,-66.4714202880859,-17.23319686797746,79.69477782471257,3752451276
iw,-56.0721817016601,-67.7329406738281,-7.72560137061712,76.3301654357614,3752467943
iw,-56.0889739990234,-68.8033370971679,0.4372896790605101,71.09043980400772,3752484610
iw,-56.089069366455,-69.7293319702148,7.474130722833913,63.886668245833455,3752501277
iw,-56.1024436950683,-70.5424270629882,13.755190861894212,54.51702266628563,3752517944
iw,-56.2800407409668,-71.2660064697265,19.694085942136553,42.67187357998753,3752534611
iw,-57.1918296813964,-71.877944946289,25.64985327717338,28.0364570423091,3752551278
iw,-57.9441719055175,-72.3136215209961,31.859375842484393,10.456815326727575,3752567945
iw,-58.3493919372558,-72.402114868164,38.39105566698108,-9.897036729119232,3752584612
iw,-58.8874397277832,-71.9220886230468,45.11055977471274,-32.438728633161624,3752601279
iw,-59.5909233093261,-70.7895965576171,51.67638337018515,-56.18154523650504,3752617946
iw,-60.6275749206543,-69.223403930664,57.60045024100354,-79.85310908626232,3752634613
iw,-61.8259658813476,-67.5835418701171,62.388099369724586,-102.06307962771261,3752651280
iw,-63.3620681762695,-65.8540878295898,65.72280258134896,-121.4762221142843,3752667947
iw,-64.814094543457,-63.6510124206543,67.61972365293026,-136.97038342879262,3752684614
iw,-65.8796920776367,-61.0573081970214,68.46984207055202,-147.78337017970267,3752701281
iw,-66.7920532226562,-58.0589981079101,68.94040951385416,-153.6458268181077,3752717948
iw,-67.8282699584961,-55.2264366149902,69.765612185526,-154.8652027644706,3752734615
iw,-69.0374221801757,-52.7131271362304,71.51204618246311,-152.30569582780487,3752751282
iw,-70.258674621582,-50.5108413696289,74.40786060019954,-147.23080233764614,3752767949
iw,-71.536880493164,-48.3039093017578,78.2885271466885,-141.0311773687202,3752784616
iw,-72.9529495239257,-46.0223426818847,82.66518313756498,-134.91287880779797,3752801283
iw,-74.4794769287109,-44.0389328002929,86.88532044124518,-129.637969962846,3752817950
iw,-76.1038513183593,-42.2952651977539,90.33482265431891,-125.39059120453283,3752834617
iw,-77.7298126220703,-40.5486831665039,92.62302635758348,-121.80539786887041,3752851284
iw,-79.3529739379882,-38.5823898315429,93.6987522423045,-118.15142788917942,3752867951
iw,-80.9401550292968,-36.519302368164,93.86494351737986,-113.61361044677506,3752884618
iw,-82.4372940063476,-34.6904678344726,93.68805924603303,-107.5709998381881,3752901285
iw,-83.8931198120117,-33.4370689392089,93.82747597701064,-99.76747479644446,3752917952
iw,-85.2863235473632,-32.6983032226562,94.83140316724142,-90.3239648742248,3752934619
iw,-86.5785751342773,-31.6570434570312,96.95348373051164,-79.62322940620527,3752951286
iw,-87.6086959838867,-30.3665294647216,100.03718528091267,-68.15138046291054,3752967953
iw,-87.7186126708984,-29.3950099945068,103.49679888878795,-56.37076534857336,3752984620
iw,-86.7697830200195,-28.688154220581,106.40017019312357,-44.64935723970267,3753001287
iw,-85.2195510864257,-28.3109474182128,107.63412975872409,-33.23376574144818,3753017954
iw,-83.4430999755859,-28.0626392364501,106.11247337064091,-22.25028251172139,3753034621
iw,-81.7062530517578,-27.9113311767578,100.97371976798371,-11.732306535353853,3753051288
iw,-80.203987121582,-27.7969093322753,91.7202837603056,-1.6750620720846188,3753067955
iw,-79.0541152954101,-27.8293952941894,78.27602148601335,7.895847549716134,3753084622
iw,-78.1984100341796,-28.1590061187744,60.974854604310835,16.870930898765415,3753101289
iw,-77.516128540039,-28.6268157958984,40.5172405838,25.046993882453418,3753117956
iw,-77.0342941284179,-29.1915874481201,17.92616231446133,32.17160123731423,3753134623
iw,-76.7697448730468,-30.1023387908935,-5.497010436377864,38.02710784094264,3753151290
iw,-76.8575286865234,-31.2624797821044,-28.24984727838257,42.519062434804546,3753167957
iw,-77.5681076049804,-32.1735038757324,-48.77888739161394,45.72645084410714,3753184624
iw,-78.5937118530273,-33.004653930664,-65.70961666168226,47.88381712362912,3753201291
iw,-79.6776657104492,-34.3598022460937,-78.10998834010852,49.29766967271149,3753217958
iw,-80.2786254882812,-34.9879760742187,-85.70306822667678,50.23634751180701,3753234625
iw,-80.3164749145507,-35.2910423278808,-88.95100589715598,50.851168095663596,3753251292
iw,-80.8695297241211,-36.2685775756835,-88.9798245247511,51.17430574889725,3753267959
iw,-81.9134979248046,-37.487003326416,-87.36814895552676,51.197665260538066,3753284626
iw,-82.5180130004882,-38.4256362915039,-85.85150771877775,50.986604475609525,3753301293
iw,-82.4115753173828,-39.3725433349609,-85.99858323257837,50.75725059629468,3753317960
iw,-81.9802169799804,-40.2346572875976,-88.91779530458793,50.86787144577574,3753334627
iw,-81.5392608642578,-41.0974388122558,-95.05504513084006,51.72523876982402,3753351294
iw,-80.9258041381836,-42.0019493103027,-104.12829500858842,53.648030974050315,3753367961
iw,-80.0137329101562,-42.9331436157226,-115.20590869740856,56.741792807553715,3753384628
iw,-78.8653411865234,-43.9371948242187,-126.89429069596123,60.829681868949486,3753401295
iw,-77.4908370971679,-45.0601844787597,-137.58239972501605,65.46231508680255,3753417962
iw,-75.7437515258789,-46.239013671875,-145.70046519880165,70.00612139084274,3753434629
iw,-73.6540451049804,-47.522403717041,-149.966845250024,73.78768096936462,3753451296
iw,-71.072639465332,-48.8792343139648,-149.59695118060623,76.25623564565453,3753467963
iw,-68.6079330444336,-50.2343368530273,-144.4323182772404,77.12130909061854,3753484630
iw,-66.6108856201171,-51.5900955200195,-134.9437097539042,76.4282942544376,3753501297
iw,-65.2650909423828,-52.8723335266113,-122.0948594075269,74.5506390170373,3753517964
iw,-63.4924201965332,-54.0824928283691,-107.11204384028908,72.09904721887521,3753534631
iw,-62.0418891906738,-55.2319679260253,-91.24372175273724,69.77005831103858,3753551298
iw,-60.7509803771972,-56.320068359375,-75.58101988100935,68.17243180959878,3753567965
iw,-59.9231491088867,-57.3966331481933,-60.960799578511676,67.67564846616678,3753584632
iw,-58.9422988891601,-58.4936866760253,-47.932007163232115,68.31894975996796,3753601299
iw,-58.3600311279296,-59.6798782348632,-36.75480752551701,69.80281921015083,3753617966
iw,-58.0795364379882,-60.938232421875,-27.412600846064738,71.56145189681494,3753634633
iw,-57.8814125061035,-62.2838401794433,-19.63539676071951,72.89089177005808,3753651300
iw,-57.7960586547851,-63.6954154968261,-12.948240858426175,73.09094749392428,3753667967
iw,-57.6776237487793,-64.9936370849609,-6.759041525995039,71.57660663987704,3753684634
iw,-57.5807075500488,-66.121711730957,-0.48167249878545937,67.9293852390479,3753701301
iw,-57.4348411560058,-67.0578842163086,6.336279396799533,61.886706838288006,3753717968
iw,-57.605125427246,-67.8736495971679,13.92552644477258,53.29565327398361,3753734635
iw,-58.523998260498,-68.5704574584961,22.276713288084117,42.071039532629214,3753751302
iw,-59.3799705505371,-69.1098251342773,31.18291583277853,28.189137645200105,3753767969
iw,-59.9735031127929,-69.4412155151367,40.30084402104493,11.723790045190182,3753784636
iw,-60.5654182434082,-69.4605102539062,49.19317569104567,-7.093291689909126,3753801303
iw,-61.3466033935546,-69.059326171875,57.35492568710513,-27.817447482181095,3753817970
iw,-62.6132736206054,-68.1636734008789,64.2608105433369,-49.76386936195757,3753834637
iw,-64.1081085205078,-66.8022537231445,69.46087305923507,-72.01418689599153,3753851304
iw,-65.5720520019531,-65.3602981567382,72.70694132127372,-93.4517900069098,3753867971
iw,-66.8143539428711,-63.9344787597656,74.05534367990307,-112.82780271403827,3753884638
iw,-68.0565567016601,-62.0047874450683,73.89285118669473,-128.87784442944636,3753901305
iw,-69.2565994262695,-59.4575080871582,72.86727767238312,-140.51164627984895,3753917972
iw,-70.4844818115234,-56.4190025329589,71.74307619554529,-147.06000866792132,3753934639
iw,-71.6713027954101,-53.4549522399902,71.22426283024383,-148.5013604235303,3753951306
iw,-72.8255157470703,-50.9979209899902,71.79022118375791,-145.55503138299832,3753967973
iw,-73.9946136474609,-49.0005645751953,73.5827972688261,-139.56268711676324,3753984640
iw,-75.2038345336914,-47.080768585205,76.3716170938544,-132.17149720372674,3754001307
iw,-76.5401611328125,-45.0790634155273,79.60920098022969,-124.92308776576076,3754017974
iw,-77.910659790039,-43.1645202636718,82.56764698748889,-118.88640074592615,3754034641
iw,-79.2880020141601,-41.4180603027343,84.52765579851621,-114.4434314049038,3754051308
iw,-80.6720962524414,-39.8216552734375,84.97516421915414,-111.27710432748184,3754067975
iw,-81.9985733032226,-38.0867652893066,83.75623088181774,-108.55136477225429,3754084642
iw,-83.3146438598632,-36.2339477539062,81.14786530770411,-105.22341848243458,3754101309
iw,-84.4935607910156,-34.4383659362793,77.81912191095412,-100.38892399585535,3754117976
iw,-85.3948287963867,-33.072021484375,74.68128282243575,-93.54767676200296,3754134643
iw,-86.0754470825195,-32.0553588867187,72.65609126345194,-84.70773041221898,3754151310
iw,-86.5760116577148,-31.0029315948486,72.41935519091675,-74.3134745522754,3754167977
iw,-86.8184432983398,-30.1654968261718,74.19074564323327,-63.05212824249781,3754184644
iw,-86.6155776977539,-29.5685997009277,77.62933416742914,-51.62762641417068,3754201311
iw,-85.911506652832,-29.0011882781982,81.86178298128817,-40.58314577253467,3754217978
iw,-84.8419723510742,-28.4822120666503,85.63192573801726,-30.21867614639993,3754234645
iw,-83.5064163208007,-28.0968475341796,87.53236435867069,-20.60645177528037,3754251312
iw,-82.0084457397461,-27.9020290374755,86.2655064373889,-11.670548786008993,3754267979
iw,-80.6426849365234,-27.9526081085205,80.88002633147715,-3.28133604475159,3754284646
iw,-79.5014495849609,-28.1447582244873,70.93758666235298,4.675215863662419,3754301313
iw,-78.6030044555664,-28.5261325836181,56.584602815755616,12.269372335137447,3754317980
iw,-77.9923248291015,-29.0436515808105,38.52939248620932,19.533259757489155,3754334647
iw,-77.6051635742187,-29.7832927703857,17.943621643542517,26.479043972719293,3754351314
iw,-77.3872604370117,-30.6248817443847,-3.689734332518813,33.105835187418556,3754367981
iw,-77.558837890625,-31.2224197387695,-24.76652335457934,39.38068779129105,3754384648
iw,-78.2416458129882,-32.0895805358886,-43.776937735853664,45.19911949279533,3754401315
iw,-79.0779647827148,-33.4052047729492,-59.52311049404417,50.3524424469371,3754417982
iw,-79.6967620849609,-34.2685241699218,-71.2995154702767,54.53706463607929,3754434649
iw,-80.0078887939453,-34.9672164916992,-78.99490677042505,57.42629521230648,3754451316
iw,-80.1071166992187,-36.2209930419921,-83.09475093737561,58.794321301811586,3754467983
iw,-80.3351593017578,-37.4257049560546,-84.59062409467441,58.64867166594831,3754484650
iw,-81.0641860961914,-38.4462547302246,-84.81623832369051,57.30885353660945,3754501317
iw,-81.7540740966796,-39.3319244384765,-85.22545499145406,55.38223207076413,3754517984
iw,-81.8005905151367,-40.2789039611816,-87.12532317296608,53.6326430371621,3754534651
iw,-81.2637634277343,-41.2235450744628,-91.39727658743796,52.78471732574915,3754551318
iw,-80.5914306640625,-42.1564750671386,-98.2759917218723,53.328345280243944,3754567985
iw,-79.9134216308593,-43.0706138610839,-107.27236464801872,55.38024171240634,3754584652
iw,-78.8150939941406,-43.9948196411132,-117.29191604005521,58.63913871237354,3754601319
iw,-77.3347930908203,-45.0364837646484,-126.92067403449569,62.44898745651868,3754617986
iw,-75.7697143554687,-46.2104873657226,-134.7771150151178,65.96067731506614,3754634653
iw,-74.2852478027343,-47.4713096618652,-139.81178988104108,68.35635757207758,3754651320
iw,-72.4999160766601,-48.7575187683105,-141.48096885687147,69.07807315274985,3754667987
iw,-70.4092712402343,-50.0032081604003,-139.78296842109438,67.99493296110143,3754684654
iw,-68.1439666748046,-51.1608352661132,-135.17974898033432,65.45680600137898,3754701321
iw,-66.3922424316406,-52.2013702392578,-128.42982026963446,62.21464633371441,3754717988
iw,-64.9717254638671,-53.1244163513183,-120.36374485609622,59.22737371256779,3754734655
iw,-63.2072830200195,-53.9875869750976,-111.65667300054896,57.409444897531245,3754751322
iw,-61.6849746704101,-54.86083984375,-102.6699121447649,57.39063227726699,3754767989
iw,-60.388385772705,-55.8281898498535,-93.4164715329414,59.35470046881696,3754784656
iw,-58.9360160827636,-56.886905670166,-83.6582126787721,62.9990929967723,3754801323
iw,-57.6903457641601,-57.998306274414,-73.09306408313783,67.62267882566088,3754817990
iw,-56.622314453125,-59.2401657104492,-61.56062778306696,72.31432697922027,3754834657
iw,-55.7078132629394,-60.6777763366699,-49.18995090032079,76.18908044764392,3754851324
iw,-55.0863761901855,-62.2526550292968,-36.43443836218965,78.60389046966249,3754867991
iw,-54.8497505187988,-63.7928733825683,-23.979724908524826,79.284578023807,3754884658
iw,-54.845905303955,-65.1863403320312,-12.557041673615629,78.31610103799453,3754901325
iw,-54.9956588745117,-66.3474349975586,-2.7297301880422293,75.9914338902273,3754917992
iw,-55.2138366699218,-67.3307342529296,5.270899263261199,72.56920499036183,3754934659
iw,-55.3803749084472,-68.2321624755859,11.60663776738529,68.03326236501069,3754951326
iw,-55.5306587219238,-69.1615982055664,16.77901328008849,61.95583400948909,3754967993
iw,-55.8707733154296,-70.0684967041015,21.49039995474288,53.53233774147435,3754984660
iw,-56.7056427001953,-70.9197082519531,26.466623827532132,41.792814473084576,3755001327
iw,-57.4705047607421,-71.6364593505859,32.28075376941122,25.928074975235447,3755017994
iw,-57.8353233337402,-72.0453720092773,39.203934813778076,5.62356812542229,3755034661
iw,-58.3606147766113,-72.0241088867187,47.11119382928377,-18.713183331183394,3755051328
iw,-59.2118949890136,-71.2547454833984,55.48301729528973,-45.9113874880702,3755067995
iw,-60.5744018554687,-69.6648788452148,63.53479946235891,-74.19632914763794,3755084662
iw,-62.0425567626953,-67.7162780761718,70.45775414608735,-101.49271393062538,3755101329
iw,-63.825080871582,-65.7542419433593,75.69187606208466,-125.77411254568844,3755117996
iw,-65.1884536743164,-63.5719604492187,79.12129061103298,-145.37023171693804,3755134663
iw,-66.2979583740234,-60.9119834899902,81.11093068137012,-159.18908549759993,3755151330
iw,-67.5744857788086,-57.72456741333,82.3753508896868,-166.84842602270678,3755167997
iw,-68.9848861694336,-54.3650856018066,83.74090417027838,-168.7110597488759,3755184664
iw,-70.4320678710937,-51.632827758789,85.89203349788487,-165.79998704771035,3755201331
iw,-71.9026107788086,-49.2407760620117,89.17689657844363,-159.57593000469646,3755217998
iw,-73.3966293334961,-47.0385627746582,93.51284622464928,-151.60883287321863,3755234665
iw,-75.0456924438476,-44.7394256591796,98.40232136961104,-143.23282894331786,3755251332
iw,-76.8319015502929,-42.4261322021484,103.04857185208684,-135.2919950091614,3755267999
iw,-78.5982513427734,-40.2766456604003,106.5432413594665,-128.04797128680136,3755284666
iw,-80.327651977539,-38.4349517822265,108.0843313149587,-121.25866938853113,3755301333
iw,-82.0361251831054,-36.6929893493652,107.17802140318089,-114.38552284181327,3755318000
iw,-83.6902465820312,-34.9140090942382,103.781587808668,-106.85770049359354,3755334667
iw,-85.2035598754882,-33.1369857788085,98.35283904420174,-98.3097784480427,3755351334
iw,-86.3469848632812,-31.964988708496,91.78254018155988,-88.71445754484007,3755368001
iw,-86.8658752441406,-31.3279361724853,85.20474835612823,-78.36530784306585,3755384668
iw,-86.8457641601562,-30.4138355255126,79.71009535254265,-67.7259314243109,3755401335
iw,-86.5962524414062,-29.8125133514404,76.0242917299853,-57.22224468223987,3755418002
iw,-86.2086334228515,-29.3970108032226,74.243262542634,-47.07676844156957,3755434669
iw,-85.5977172851562,-28.530590057373,73.71862810309648,-37.256757476004964,3755451336
iw,-84.633560180664,-27.9013729095459,73.15239774198203,-27.54999234821753,3755468003
iw,-83.3358535766601,-27.5097103118896,70.89475813001253,-17.722674869635846,3755484670
iw,-82.0328674316406,-27.2872257232666,65.36810262403431,-7.680531364284815,3755501337
iw,-81.0394973754882,-27.2593059539794,55.495301351069784,2.440052815923295,3755518004
iw,-80.2963562011718,-27.5752506256103,41.01103032327385,12.28805601210916,3755534671
iw,-79.7763671875,-28.3316650390625,22.576967115468747,21.41105378185944,3755551338
iw,-79.599983215332,-29.3591041564941,1.679551538972831,29.413487585765942,3755568005
iw,-79.7046356201171,-30.2147693634033,-19.66078874916767,36.08594128248574,3755584672
iw,-80.1669692993164,-30.9015655517578,-39.303988179187044,41.44471917048598,3755601339
iw,-80.8584899902343,-32.1328353881835,-55.437622494811045,45.6675695717974,3755618006
iw,-81.52099609375,-33.3673400878906,-66.95300466263964,48.9650750940307,3755634673
iw,-81.4267272949218,-33.7844924926757,-73.6566744688464,51.45869297264717,3755651340
iw,-80.6973037719726,-34.2165451049804,-76.2686823513557,53.134930153506836,3755668007
iw,-80.322769165039,-35.4900588989257,-76.22667683039948,53.91173516115577,3755684674
iw,-80.8974838256836,-36.8471908569335,-75.36807083615201,53.792482419992375,3755701341
iw,-81.6159286499023,-38.0085983276367,-75.56829661000842,53.02065765158177,3755718008
iw,-81.6266098022461,-38.7940788269043,-78.38277876538027,52.13222410986013,3755734675
iw,-81.0667114257812,-39.5421676635742,-84.72359905525559,51.855279474134875,3755751342
iw,-80.3641052246093,-40.4044036865234,-94.62614619502915,52.891829230779926,3755768009
iw,-79.6292343139648,-41.386604309082,-107.19103095500047,55.67385776866458,3755784676
iw,-78.4509735107421,-42.4406585693359,-120.763444823595,60.188008917177406,3755801343
iw,-76.7536849975586,-43.4948501586914,-133.32487307669547,65.92744847028267,3755818010
iw,-74.9727020263671,-44.6888198852539,-142.97572751797048,71.9860339869523,3755834677
iw,-73.3522186279296,-46.0106773376464,-148.35258242941745,77.27346379600863,3755851344
iw,-71.6129913330078,-47.502140045166,-148.8703345684757,80.80011034630924,3755868011
iw,-69.1920394897461,-49.0963859558105,-144.76079308699383,81.95652989551722,3755884678
iw,-66.9776077270507,-50.6544952392578,-136.93298578510638,80.70337731340052,3755901345
iw,-65.1571197509765,-52.0402030944824,-126.69518059970767,77.60369641019398,3755918012
iw,-63.580768585205,-53.1893730163574,-115.39211076375648,73.67422542451331,3755934679
iw,-62.5701484680175,-54.1483116149902,-104.04622437670369,70.09352294616134,3755951346
iw,-60.7737998962402,-55.0648193359375,-93.11878213861391,67.85823662071768,3755968013
iw,-59.3449745178222,-56.0574340820312,-82.47952636595447,67.50000440760799,3755984680
iw,-58.3099060058593,-57.1988487243652,-71.591100323414,68.9530980320177,3756001347
iw,-57.112979888916,-58.5264854431152,-59.82572121711623,71.60623775874903,3756018014
iw,-56.0621452331543,-59.9658851623535,-46.78662274572532,74.5057004122979,3756034681
iw,-55.3937797546386,-61.4122467041015,-32.51716563073037,76.62793045206311,3756051348
iw,-55.422622680664,-62.857795715332,-17.53185728297644,77.12510617837779,3756068015
iw,-55.6409645080566,-64.2506027221679,-2.6757886829519473,75.46736491888933,3756084682
iw,-55.8862800598144,-65.5064392089843,11.117166304492043,71.44889480538339,3756101349
iw,-56.0804786682128,-66.4177322387695,23.07406923287154,65.0759798805873,3756118016
iw,-56.5626907348632,-67.1028747558593,32.77034997196624,56.39875705133487,3756134683
iw,-57.4719772338867,-67.7055206298828,40.222547307304005,45.370875484805474,3756151350
iw,-58.8909721374511,-68.2436828613281,45.87271839737735,31.810368056279987,3756168017
iw,-59.861213684082,-68.6841506958007,50.453229206009134,15.49026526768588,3756184684
iw,-60.2862014770507,-68.9127120971679,54.74079931733465,-3.6729311286351973,3756201351
iw,-60.6502723693847,-68.7725982666015,59.265428052942646,-25.411290647730898,3756218018
iw,-61.5139427185058,-67.9600677490234,64.09891737668677,-48.96590343528552,3756234685
iw,-62.8907966613769,-66.5197677612304,68.84479186524938,-73.07341098364107,3756251352
iw,-64.9496307373046,-64.8634719848632,72.85988226533749,-96.08640862613171,3756268019
iw,-66.7671203613281,-63.1545257568359,75.6073695674118,-116.19697608306657,3756284686
iw,-67.9737854003906,-61.1014404296875,76.96258556676884,-131.7224852768824,3756301353
iw,-69.0462036132812,-58.5040397644043,77.3220690367565,-141.4167336701304,3756318020
iw,-70.2828826904296,-55.4665031433105,77.47680849764701,-144.75826580382466,3756334687
iw,-71.5836944580078,-52.7421569824218,78.32142541338581,-142.1383554435514,3756351354
iw,-72.8433456420898,-50.5647392272949,80.52173007556014,-134.86004212129112,3756368021
iw,-74.0438156127929,-48.8139762878418,84.25386466755178,-124.9039327401106,3756384688
iw,-75.3888626098632,-47.1182861328125,89.09196079846251,-114.50516146249225,3756401355
iw,-76.9360580444336,-45.391990661621,94.07843409605451,-105.66312264825768,3756418022
iw,-78.5536956787109,-43.6666412353515,97.96327666816323,-99.72412447711396,3756434689
iw,-80.1692886352539,-42.1404991149902,99.54948495394123,-97.13866270623961,3756451356
iw,-81.7514495849609,-40.8959655761718,98.04602828691036,-97.43624565332438,3756468023
iw,-83.1695327758789,-39.5380058288574,93.3231359225922,-99.41055382438621,3756484690
iw,-84.3586807250976,-37.7632751464843,85.99172262776474,-101.46672958870009,3756501357
iw,-85.2521209716796,-35.9114570617675,77.28155808027053,-102.0421008521047,3756518024
iw,-85.8330841064453,-34.475471496582,68.75423063238475,-99.98349545937073,3756534691
iw,-86.1202087402343,-33.4996719360351,61.9355508283807,-94.77703839158985,3756551358
iw,-86.1804885864257,-32.3143806457519,57.97023724662519,-86.58607652451558,3756568025
iw,-86.0814361572265,-30.9199562072753,57.38500254015938,-76.12326134199004,3756584692
iw,-85.786392211914,-29.9367713928222,60.00514052892499,-64.42056126211502,3756601359
iw,-85.2097702026367,-29.2447319030761,65.02301296846353,-52.562104244347815,3756618026
iw,-84.4078140258789,-28.6499214172363,71.180715697257,-41.43644103614039,3756634693
iw,-83.3743362426757,-28.269323348999,77.01150139954085,-31.56088378138227,3756651360
iw,-82.0655059814453,-27.8705310821533,81.08406050364766,-23.01905339807185,3756668027
iw,-80.7095718383789,-27.525291442871,82.20417658756793,-15.52304508293155,3756684694
iw,-79.4495239257812,-27.3070201873779,79.54494916076719,-8.572321493334702,3756701361
iw,-78.3383865356445,-27.2573146820068,72.69899445622829,-1.6511214005628783,3756718028
iw,-77.4388809204101,-27.3283309936523,61.67008830789157,5.60201288364452,3756734695
iw,-76.7146606445312,-27.5687274932861,46.836469935469125,13.303480071897418,3756751362
iw,-76.1487731933593,-28.1336135864257,28.91310039494957,21.331533381942794,3756768029
iw,-75.7560043334961,-29.0681686401367,8.917209069544429,29.411827112394988,3756784696
iw,-75.6259078979492,-30.0640068054199,-11.884642973468196,37.231867635056034,3756801363
iw,-76.0077819824218,-30.8732414245605,-32.079748739614836,44.526828695364955,3756818030
iw,-76.7897109985351,-32.3019104003906,-50.27767656786775,51.10220546276367,3756834697
iw,-77.5543823242187,-33.4930152893066,-65.32331917851754,56.80081170923476,3756851364
iw,-78.2680435180664,-33.9873924255371,-76.50309191817313,61.45732002189404,3756868031
iw,-78.6198348999023,-34.9163017272949,-83.6871615361408,64.89225160292709,3756884698
iw,-78.9728851318359,-36.4022102355957,-87.37025410980233,66.97136963170283,3756901365
iw,-79.993667602539,-37.7881164550781,-88.60059691575705,67.70594869071074,3756918032
iw,-81.283706665039,-38.8945770263671,-88.803910020909,67.32875897510995,3756934699
iw,-81.9394912719726,-39.9648056030273,-89.51839251101256,66.28694138734072,3756951366
iw,-81.8257675170898,-41.0719757080078,-92.07441591746901,65.1435113004161,3756968033
iw,-81.3348312377929,-42.21919631958,-97.28632658553359,64.43047629109758,3756984700
iw,-80.9144439697265,-43.3325958251953,-105.2506549163813,64.5130206876762,3757001367
iw,-80.2508316040039,-44.4144172668457,-115.32982483036274,65.50883811107975,3757018034
iw,-79.1578826904296,-45.5469284057617,-126.33413588145574,67.28147201199268,3757034701
iw,-77.7626190185546,-46.8040733337402,-136.8317646618932,69.50405054240483,3757051368
iw,-76.1942825317382,-48.1096153259277,-145.47082512556315,71.77071928205442,3757068035
iw,-74.4678039550781,-49.4367218017578,-151.21641157199394,73.71875304506027,3757084702
iw,-72.4471206665039,-50.7361373901367,-153.4653835612751,75.12127328507115,3757101369
iw,-70.0983581542968,-52.0088996887207,-152.05409254262815,75.92298505437975,3757118036
iw,-67.8838577270507,-53.2176055908203,-147.19269172074237,76.21489672160915,3757134703
iw,-65.8021163940429,-54.4310798645019,-139.35451762185104,76.16753206052455,3757151370
iw,-63.8103599548339,-55.6971130371093,-129.1437532247823,75.95493753958065,3757168037
iw,-62.0336074829101,-56.9910430908203,-117.16776766713416,75.69900204721841,3757184704
iw,-60.4221420288085,-58.3157997131347,-103.94393606707739,75.44854599306024,3757201371
iw,-59.358154296875,-59.6406784057617,-89.86525574332775,75.18955646830804,3757218038
iw,-58.0566368103027,-60.8953590393066,-75.23228307052399,74.87106290298804,3757234705
iw,-56.7557220458984,-62.169692993164,-60.332059956170575,74.42908176147975,3757251372
iw,-55.7891082763671,-63.4616241455078,-45.516223450883786,73.79588924161003,3757268039
iw,-55.4326133728027,-64.7913360595703,-31.22169595670979,72.88819120844171,3757284706
iw,-55.4022712707519,-66.0528030395507,-17.90651612409101,71.57322332871783,3757301373
iw,-55.5551834106445,-67.2338714599609,-5.927840262014459,69.61873294027181,3757318040
iw,-55.6979942321777,-68.2930068969726,4.571760069943436,66.64334663045531,3757334707
iw,-55.8537445068359,-69.2399368286132,13.709733804852005,62.09451920076159,3757351374
iw,-56.0529174804687,-70.1075592041015,21.823570167588795,55.283538343850054,3757368041
iw,-56.3896522521972,-70.9236297607421,29.372686724350896,45.49389766045653,3757384708
iw,-57.4023361206054,-71.6106872558593,36.824879561012345,32.15186785135711,3757401375
iw,-58.5944023132324,-72.0837020874023,44.5521959423992,15.01708257481296,3757418042
iw,-59.2368392944335,-72.231216430664,52.73554446197504,-5.667996063868788,3757434709
iw,-59.9837379455566,-71.8744125366211,61.27801893829524,-29.125687195016567,3757451376
iw,-60.8989372253418,-70.8263931274414,69.75791145798586,-54.11272213129401,3757468043
iw,-62.2257843017578,-69.214859008789,77.47563814619744,-79.09167273936478,3757484710
iw,-64.0106201171875,-67.420539855957,83.62386084783715,-102.44771753151278,3757501377
iw,-66.1292495727539,-65.6404342651367,87.54177337658521,-122.69017776535092,3757518044
iw,-67.6507186889648,-63.5492897033691,88.95220149257548,-138.6093883362175,3757534711
iw,-68.9498519897461,-61.0647735595703,88.07459180985195,-149.39861962550816,3757551378
iw,-70.2734146118164,-58.0761985778808,85.56629192726538,-154.76065872920327,3757568045
iw,-71.6091384887695,-55.1363525390625,82.32620659269439,-154.98957749825846,3757584712
iw,-72.8631439208984,-52.5536003112793,79.24505141631096,-150.9812880203229,3757601379
iw,-74.0610961914062,-50.3211326599121,76.9869424768555,-144.1236095070742,3757618046
iw,-75.3146362304687,-48.1797409057617,75.85795862107508,-136.05770192227195,3757634713
iw,-76.5876159667968,-45.9359817504882,75.78345276264866,-128.35720948823285,3757651380
iw,-77.8676834106445,-43.789924621582,76.3872843797237,-122.20221143970818,3757668047
iw,-79.1324081420898,-42.0863800048828,77.14398023219805,-118.1248750577854,3757684714
iw,-80.3708343505859,-40.829002380371,77.56028574153828,-115.89110837557801,3757701381
iw,-81.6298065185546,-39.2138404846191,77.33733321023057,-114.56616648358512,3757718048
iw,-82.8709869384765,-37.156135559082,76.46947279591228,-112.77540291874163,3757734715
iw,-83.9909744262695,-35.3101234436035,75.25086900415967,-109.10421227724287,3757751382
iw,-84.954345703125,-33.9040565490722,74.1852574808236,-102.51539528734484,3757768049
iw,-85.7390594482421,-32.6685600280761,73.82293457743546,-92.64831229623583,3757784716
iw,-86.3355331420898,-31.3129272460937,74.57259676616081,-79.91365158845444,3757801383
iw,-86.6269378662109,-30.1741065979003,76.54421357265689,-65.37164956732721,3757818050
iw,-86.4957504272461,-29.5591049194335,79.46884701725992,-50.440740398264644,3757834717
iw,-85.9033737182617,-29.2541618347167,82.71649879180251,-36.52189815555678,3757851384
iw,-84.9103012084961,-29.1602115631103,85.40306473722354,-24.647350795370574,3757868051
iw,-83.6455993652343,-29.0977306365966,86.55234779667775,-15.260662485679191,3757884718
iw,-82.2092590332031,-28.7842922210693,85.26627772562108,-8.193068036640039,3757901385
iw,-80.8581085205078,-28.5328521728515,80.85957689037033,-2.826295167622992,3757918052
iw,-79.7809295654296,-28.4403057098388,72.93380467738766,1.6397619573060005,3757934719
iw,-78.918960571289,-28.46480178833,61.394340078710385,5.927108785914433,3757951386
iw,-78.252197265625,-28.724754333496,46.43905412792418,10.517078429624686,3757968053
iw,-77.7856369018554,-29.3289546966552,28.55278130746983,15.616212817099916,3757984720
iw,-77.4442825317382,-30.1289482116699,8.52073715880673,21.220623511852935,3758001387
iw,-77.265754699707,-30.7828369140625,-12.5615432258726,27.213748559357434,3758018054
iw,-77.4966964721679,-31.4296894073486,-33.33041309665627,33.43655832967928,3758034721
iw,-78.1980056762695,-32.6145668029785,-52.29278603838144,39.704560143476286,3758051388
iw,-79.0965805053711,-33.8910865783691,-68.06670284794757,45.7871546932948,3758068055
iw,-79.9542160034179,-34.223331451416,-79.67521996094992,51.38967159730194,3758084722
iw,-80.4207382202148,-34.9117393493652,-86.80783410821464,56.1800675179842,3758101389
iw,-80.3764114379882,-36.4679718017578,-89.96439613475282,59.87900908099694,3758118056
iw,-80.3550872802734,-37.8637542724609,-90.43037792494555,62.385132881081496,3758134723
iw,-80.9524841308593,-38.9791793823242,-90.07555909104336,63.86330770940326,3758151390
iw,-81.9440002441406,-39.9024963378906,-91.00038962064725,64.72741488039381,3758168057
iw,-82.2217636108398,-40.9476623535156,-95.0775170100735,65.50920821714023,3758184724
iw,-81.6700592041015,-42.1100120544433,-103.46813946243557,66.67321313589224,3758201391
iw,-80.6972274780273,-43.3664436340332,-116.23595662753205,68.46187647310829,3758218058
iw,-79.4351348876953,-44.6189537048339,-132.20096844529778,70.82953322410309,3758234725
iw,-77.5795593261718,-45.8966560363769,-149.1263961109614,73.47893392217418,3758251392
iw,-75.1968612670898,-47.2613296508789,-164.21347585928015,75.97767188781127,3758268059
iw,-72.7112350463867,-48.7589378356933,-174.75242952083266,77.9112236520022,3758284726
iw,-70.2981948852539,-50.1775588989257,-178.721714451537,79.02201586952478,3758301393
iw,-67.659927368164,-51.4915161132812,-175.16939368872394,79.29023072401357,3758318060
iw,-65.3177795410156,-52.778881072998,-164.30975589613945,78.93311260370994,3758334727
iw,-63.1634712219238,-54.088882446289,-147.36252077380394,78.32868039920272,3758351394
iw,-61.3971786499023,-55.3833312988281,-126.21787111062032,77.89352271847139,3758368061
iw,-59.7026786804199,-56.6632766723632,-103.02955325696756,77.95371211156441,3758384728
iw,-58.3141555786132,-57.9428024291992,-79.83180980483067,78.64407967209065,3758401395
iw,-57.9227828979492,-59.2457427978515,-58.253326621480426,79.85989173336638,3758418062
iw,-57.5470886230468,-60.6510772705078,-39.37070343355486,81.26966170434781,3758434729
iw,-56.6129989624023,-62.1285552978515,-23.70650018114673,82.37986119429551,3758451396
iw,-56.0012550354003,-63.6502342224121,-11.330696894893892,82.62558187766992,3758468063
iw,-56.2012176513671,-65.1590576171875,-1.9874344058468045,81.4529368570512,3758484730
iw,-56.4454383850097,-66.5238952636718,4.822759969479567,78.36547787583912,3758501397
iw,-57.0046157836914,-67.6563720703125,9.815877844319148,72.92816295941513,3758518064
iw,-57.3680038452148,-68.597541809082,13.901114671517512,64.74965284616803,3758534731
iw,-57.4786109924316,-69.3823547363281,18.09773163150617,53.48171806711131,3758551398
iw,-58.0973434448242,-70.115852355957,23.369203960420055,38.869564039591175,3758568065
iw,-58.6244926452636,-70.6859893798828,30.407479266224076,20.85730031515702,3758584732
iw,-58.8921508789062,-70.893928527832,39.43624223516551,-0.28600697743165104,3758601399
iw,-59.4806671142578,-70.6669692993164,50.10971660155873,-23.877760106937597,3758618066
iw,-60.7144050598144,-69.8769378662109,61.56399653017857,-48.82035349321521,3758634733
iw,-62.1101875305175,-68.3295669555664,72.62823222410825,-73.69968581068122,3758651400
iw,-63.9770927429199,-66.5288696289062,82.13420734548718,-96.95420159898048,3758668067
iw,-65.6518096923828,-64.8535385131836,89.21319594054215,-117.06530404029435,3758684734
iw,-67.0787506103515,-62.9316749572753,93.47486915223669,-132.73574885681725,3758701401
iw,-68.5337753295898,-60.4211463928222,95.02219598013491,-143.0544586627276,3758718068
iw,-70.0067596435546,-57.4866638183593,94.3294813766682,-147.65475666158835,3758734735
iw,-71.5578308105468,-54.570556640625,92.05528190293298,-146.84185543156718,3758751402
iw,-73.0400009155273,-52.1328048706054,88.86304963105066,-141.62617251151306,3758768069
iw,-74.3965377807617,-50.1383171081543,85.29603000094222,-133.60048902319588,3758784736
iw,-75.7194900512695,-48.1934738159179,81.72363962311952,-124.65333119182812,3758801403
iw,-77.0342712402343,-46.180923461914,78.35553728650228,-116.58096279837734,3758818070
iw,-78.3071670532226,-44.2488822937011,75.30434672615918,-110.69979128852601,3758834737
iw,-79.5233612060546,-42.7326316833496,72.66546560425877,-107.55833100159639,3758851404
iw,-80.6567077636718,-41.5963897705078,70.57683346866366,-106.82383131568119,3758868071
iw,-81.6499557495117,-40.1176528930664,69.22963335221799,-107.38790726000764,3758884738
iw,-82.5302429199218,-38.2822227478027,68.82320689899655,-107.68801026088919,3758901405
iw,-83.3703155517578,-36.3504066467285,69.48504992010827,-106.1697476445086,3758918072
iw,-84.1650772094726,-34.3915824890136,71.19522766452194,-101.7461162733276,3758934739
iw,-84.8717269897461,-33.0173645019531,73.75314211374315,-94.09327567347775,3758951406
iw,-85.4500350952148,-32.4602890014648,76.80407297413724,-83.68416492450345,3758968073
iw,-85.6962509155273,-31.7835750579834,79.9149165578322,-71.5734765828511,3758984740
iw,-85.5113143920898,-30.7751998901367,82.66717474768605,-59.04469671993016,3759001407
iw,-84.897232055664,-30.1480617523193,84.72932755594826,-47.25833682876678,3759018074
iw,-83.9826278686523,-29.629337310791,85.88117156029226,-37.001581647369854,3759034741
iw,-82.9576110839843,-29.1212081909179,85.98390327469859,-28.578790044002925,3759051408
iw,-81.8734664916992,-28.7684230804443,84.9127634051013,-21.836633871412666,3759068075
iw,-80.7111587524414,-28.4463119506835,82.48501146148162,-16.291452164863017,3759084742
iw,-79.4956588745117,-28.2485523223876,78.41864221027132,-11.311684229436464,3759101409
iw,-78.3387222290039,-28.1340789794921,72.34585282903134,-6.3031160941053725,3759118076
iw,-77.3171310424804,-28.1997776031494,63.885635767039055,-0.8503904981176836,3759134743
iw,-76.4219818115234,-28.3531169891357,52.760475336024236,5.215956276608197,3759151410
iw,-75.6459884643554,-28.6742820739746,38.92792263578538,11.834682967894373,3759168077
iw,-75.0698852539062,-29.3019943237304,22.689279038224658,18.79371497212749,3759184744
iw,-74.7262725830078,-30.0787506103515,4.735885633453286,25.836313818848925,3759201411
iw,-74.7826385498046,-30.7948303222656,-13.896651920274495,32.74714738306431,3759218078
iw,-75.1991271972656,-31.919578552246,-31.97149781236751,39.383562546704646,3759234745
iw,-75.7251586914062,-33.1671142578125,-48.26354290873083,45.64702851597902,3759251412
iw,-76.143798828125,-33.7143898010253,-61.79042798531629,51.424390902929765,3759268079
iw,-76.3337478637695,-34.4077720642089,-72.00676979015414,56.5498766108027,3759284746
iw,-76.8304977416992,-35.7952423095703,-78.92247950953262,60.82966899785983,3759301413
iw,-77.8232345581054,-37.1886672973632,-83.12298726900599,64.12744985015836,3759318080
iw,-79.0803451538086,-38.3456764221191,-85.6752210695039,66.4579273982834,3759334747
iw,-79.9312362670898,-39.4506454467773,-87.91006299439036,68.02092597571159,3759351414
iw,-80.2386627197265,-40.6514358520507,-91.10367308670408,69.1466709137431,3759368081
iw,-80.2081298828125,-41.8793067932128,-96.13669449739032,70.17899838116918,3759384748
iw,-80.233772277832,-43.0587348937988,-103.25237785513521,71.3534682664914,3759401415
iw,-80.196548461914,-44.2396697998046,-112.01556599701861,72.72152575825139,3759418082
iw,-79.6146392822265,-45.4770240783691,-121.49033105025596,74.14694509210707,3759434749
iw,-78.6187438964843,-46.8331451416015,-130.55444743614444,75.37255613353976,3759451416
iw,-77.4974822998046,-48.273136138916,-138.21656327705398,76.13005278615584,3759468083
iw,-76.2234878540039,-49.6347503662109,-143.82191393402886,76.24933932127865,3759484750
iw,-74.7126541137695,-50.94868850708,-147.09915589856718,75.72429893101683,3759501417
iw,-72.9879608154296,-52.1862716674804,-148.06955381586704,74.71124248295624,3759518084
iw,-71.1028442382812,-53.3554306030273,-146.8823115833562,73.46578661194452,3759534751
iw,-68.984992980957,-54.4955940246582,-143.6520183719095,72.24887777445609,3759551418
iw,-66.9250335693359,-55.6716690063476,-138.36146172815103,71.24223034022056,3759568085
iw,-64.8284530639648,-56.8575630187988,-130.86205851188353,70.50533567554557,3759584752
iw,-62.9053535461425,-58.0680770874023,-120.96473604093507,69.98587359259969,3759601419
iw,-61.1339454650878,-59.3285522460937,-108.58011818238526,69.57221085620041,3759618086
iw,-59.7298698425293,-60.6006431579589,-93.85064388629004,69.15960132153847,3759634753
iw,-58.3419075012207,-61.8372955322265,-77.22323404811542,68.69619434584577,3759651420
iw,-57.399974822998,-63.0558891296386,-59.43459118548716,68.1824780042599,3759668087
iw,-56.978832244873,-64.2344589233398,-41.41271927053015,67.61575020096913,3759684754
iw,-56.7163314819335,-65.3579864501953,-24.12755262906653,66.89351618986389,3759701421
iw,-56.6296577453613,-66.4033889770507,-8.438719076682775,65.7090814020435,3759718088
iw,-56.5792922973632,-67.3976745605468,5.020284476923109,63.48308205144973,3759734755
iw,-56.718090057373,-68.3385391235351,15.909635987544869,59.37220703593556,3759751422
iw,-57.1938743591308,-69.1786575317382,24.214347351588344,52.37913828639713,3759768089
iw,-57.8795280456543,-69.9081039428711,30.250712449875834,41.55797433812585,3759784756
iw,-58.9440879821777,-70.5399017333984,34.63737235569634,26.27423803184155,3759801423
iw,-60.0480613708496,-70.9592056274414,38.200183896614696,6.448908930088656,3759818090
iw,-60.4043006896972,-71.0033721923828,41.791052615659865,-17.295601452311153,3759834757
iw,-60.6384048461914,-70.4580078125,46.05197433852166,-43.65197624767146,3759851424
iw,-61.301830291748,-69.0342025756836,51.21739859078255,-70.82214152976262,3759868091
iw,-62.4125137329101,-66.9532623291015,57.06429786849618,-96.83756627895521,3759884758
iw,-63.9835243225097,-64.8611831665039,63.05652796515556,-119.90292401810018,3759901425
iw,-65.8412628173828,-62.7395248413085,68.62041836120436,-138.6581798719894,3759918092
iw,-67.0526885986328,-60.3670578002929,73.41030084887333,-152.305979791094,3759934759
iw,-68.0152359008789,-57.6047286987304,77.43349009800477,-160.61934371108782,3759951426
iw,-69.306282043457,-54.4907341003418,80.99246564178566,-163.87905899195337,3759968093
iw,-70.7330474853515,-51.6617279052734,84.49935768101543,-162.77622786678558,3759984760
iw,-72.1884460449218,-49.0943717956543,88.26186088295597,-158.2847559826746,3760001427
iw,-73.634033203125,-46.801959991455,92.32419353117213,-151.50063479595607,3760018094
iw,-75.1225051879882,-44.5741004943847,96.40765634698931,-143.46533387965056,3760034761
iw,-76.8067245483398,-42.2253952026367,99.96147918221943,-135.01180308820307,3760051428
iw,-78.5622406005859,-39.9836196899414,102.30831812868621,-126.66834504491582,3760068095
iw,-80.2663955688476,-38.1367645263671,102.84475278028499,-118.6323837096055,3760084762
iw,-81.9059524536132,-36.7074470520019,101.23954890773706,-110.80679730954922,3760101429
iw,-83.4439620971679,-35.2426071166992,97.57017439155318,-102.88786447336123,3760118096
iw,-84.8414001464843,-33.7478790283203,92.35355596043935,-94.49308401570353,3760134763
iw,-86.048095703125,-32.5919876098632,86.45495250599409,-85.30424706046303,3760151430
iw,-86.815803527832,-31.5630893707275,80.89167591383892,-75.184897197946,3760168097
iw,-87.1856155395507,-30.5978775024414,76.5794458336471,-64.233587251343,3760184764
iw,-87.1465225219726,-29.9184246063232,74.08983933217532,-52.759576937844834,3760201431
iw,-86.6586532592773,-29.3018913269042,73.4874752842124,-41.19802585244057,3760218098
iw,-85.8618011474609,-28.9719715118408,74.2918134436308,-29.99966274883647,3760234765
iw,-84.825439453125,-28.7027168273925,75.57036504025724,-19.531808801405887,3760251432
iw,-83.5626983642578,-28.6825218200683,76.13369154789703,-10.018542723387801,3760268099
iw,-82.2979583740234,-28.6997013092041,74.7791327241533,-1.5327960848383242,3760284766
iw,-81.0952606201171,-28.7767524719238,70.52436443332046,5.964604099447344,3760301433
iw,-79.999755859375,-28.9808826446533,62.78340995388807,12.560991473439755,3760318100
iw,-79.1188507080078,-29.302188873291,51.460197955994204,18.33526331186377,3760334767
iw,-78.4966430664062,-29.7921962738037,36.95729889869315,23.337043890781864,3760351434
iw,-78.0994186401367,-30.6087036132812,20.111791207102613,27.609946734133295,3760368101
iw,-77.8907165527343,-31.6073703765869,2.074657474754339,31.238794614358117,3760384768
iw,-77.9344177246093,-32.3647003173828,-15.8513919764695,34.38079885260306,3760401435
iw,-78.442756652832,-32.970775604248,-32.40059471801369,37.24626256272433,3760418102
iw,-79.2240600585937,-34.1511726379394,-46.53583057583671,40.02634039975731,3760434769
iw,-79.8885879516601,-35.1849174499511,-57.60690572377872,42.803372138784916,3760451436
iw,-80.2089920043945,-35.511001586914,-65.43708696534621,45.49829128288705,3760468103
iw,-80.2190780639648,-36.0817565917968,-70.32037538595863,47.89855753761555,3760484770
iw,-80.2992324829101,-37.4051361083984,-72.9453556740872,49.77095649489271,3760501437
iw,-80.7735443115234,-38.5639877319335,-74.28034965200591,51.01019981380756,3760518104
iw,-81.5553588867187,-39.3879814147949,-75.4427128703661,51.74016195843116,3760534771
iw,-82.0102844238281,-40.1740036010742,-77.54698038734129,52.3043264548915,3760551438
iw,-81.7881927490234,-41.1273231506347,-81.51693853566043,53.14719347940286,3760568105
iw,-81.1865081787109,-42.1008567810058,-87.8759891038263,54.64721213630223,3760584772
iw,-80.5872955322265,-43.1459197998046,-96.57892414023047,56.97464985854493,3760601439
iw,-79.9159393310546,-44.1509170532226,-106.96936526538474,60.02245767705864,3760618106
iw,-78.7830047607421,-45.204849243164,-117.90894002958628,63.425085448449956,3760634773
iw,-77.3558349609375,-46.3935546875,-128.0443622700099,66.65584582726555,3760651440
iw,-75.9136428833007,-47.6215667724609,-136.1134630271843,69.17611072148709,3760668107
iw,-74.436050415039,-48.8944854736328,-141.18659682554247,70.59579562505049,3760684774
iw,-72.7042999267578,-50.2262725830078,-142.78937804172705,70.79772479485338,3760701441
iw,-70.6239395141601,-51.4813537597656,-140.90950299619672,69.984637982176,3760718108
iw,-68.4850540161132,-52.6229400634765,-135.91733181082074,68.6286699299761,3760734775
iw,-66.6807785034179,-53.6620292663574,-128.4304379766073,67.33447101260727,3760751442
iw,-64.9492797851562,-54.6770706176757,-119.15182635430003,66.65807370631562,3760768109
iw,-63.3281059265136,-55.7148475646972,-108.71922790557377,66.94079894951005,3760784776
iw,-61.5896797180175,-56.8532257080078,-97.60389556904072,68.21226860682697,3760801443
iw,-60.3846778869628,-58.0726203918457,-86.0795564835137,70.19101520474116,3760818110
iw,-59.3187103271484,-59.3200759887695,-74.25580849707065,72.37675109494073,3760834777
iw,-58.2487678527832,-60.672264099121,-62.152655274260624,74.19868658084198,3760851444
iw,-57.3718681335449,-62.0854377746582,-49.787142049724544,75.1681482635154,3760868111
iw,-56.8553924560546,-63.507209777832,-37.24360393292245,74.98362116616788,3760884778
iw,-56.4931945800781,-64.7932662963867,-24.706710732729544,73.55160362710883,3760901445
iw,-56.4076080322265,-65.944107055664,-12.453052312024388,70.91505287637585,3760918112
iw,-56.4550552368164,-67.0030899047851,-0.8136205163786774,67.11580113694568,3760934779
iw,-56.569595336914,-67.9194030761718,9.87580214311138,62.0455632274002,3760951446
iw,-56.7967567443847,-68.7312240600586,19.32738043290407,55.34964310994211,3760968113
iw,-57.1501083374023,-69.4705200195312,27.357275347025183,46.433162886193436,3760984780
iw,-58.0134201049804,-70.1408081054687,33.94171508727976,34.5856088625963,3761001447
iw,-59.3355598449707,-70.6779403686523,39.250844516910206,19.196581383805665,3761018114
iw,-60.0424728393554,-70.8916931152343,43.62139282133671,-0.0007792535750618945,3761034781
iw,-60.4911956787109,-70.6661758422851,47.44454939878947,-22.73663563209715,3761051448
iw,-60.8713493347168,-69.9402694702148,51.00126895922182,-48.124115178046736,3761068115
iw,-61.5869140625,-68.40087890625,54.33542955881293,-74.71513125035713,3761084782
iw,-62.8805313110351,-66.5438232421875,57.25781921643597,-100.67168100175829,3761101449
iw,-64.4783020019531,-64.8006057739257,59.50208566415735,-124.00684794642736,3761118116
iw,-65.9953994750976,-62.7080955505371,60.9533547380041,-142.85584032240246,3761134783
iw,-66.9687271118164,-60.0679092407226,61.815574068162704,-155.75914409981783,3761151450
iw,-67.8129043579101,-57.1240768432617,62.61582601467057,-161.94232183659963,3761168117
iw,-68.7823715209961,-53.9415283203125,64.03742484521071,-161.54386310008638,3761184784
iw,-69.8742904663086,-50.934284210205,66.66143737924685,-155.70065259472796,3761201451
iw,-71.0254745483398,-48.2348289489746,70.72824701366508,-146.3975905345779,3761218118
iw,-72.1795196533203,-46.1348533630371,76.00726921583973,-136.04954280394318,3761234785
iw,-73.4647979736328,-44.5409278869628,81.81564309507982,-126.89361316713854,3761251452
iw,-74.9620971679687,-43.2595558166503,87.18104049416293,-120.37647059231182,3761268119
iw,-76.5749435424804,-41.8236122131347,91.10595112826526,-116.76369427334738,3761284786
iw,-78.1894454956054,-39.863052368164,92.8615614599813,-115.13701144692054,3761301453
iw,-79.8017349243164,-37.5375061035156,92.22527080453114,-113.79390703847905,3761318120
iw,-81.296272277832,-35.3585014343261,89.58541766012938,-110.89234844302412,3761334787
iw,-82.599494934082,-33.5384712219238,85.87113419931136,-105.08342873189733,3761351454
iw,-83.6555099487304,-32.338768005371,82.31643631512195,-95.90051432544952,3761368121
iw,-84.5466995239257,-31.4154319763183,80.12118112381079,-83.80227086083984,3761384788
iw,-85.3813247680664,-30.4632453918457,80.1089943781904,-69.9186259414913,3761401455
iw,-86.1216278076171,-29.7128429412841,82.48716832233828,-55.645386360737476,3761418122
iw,-86.5168151855468,-29.162124633789,86.78082420572967,-42.24715219486405,3761434789
iw,-86.2370986938476,-28.6939792633056,91.95509620809409,-30.58269300286712,3761451456
iw,-85.2158279418945,-28.3447551727294,96.67764989775517,-21.001191664776936,3761468123
iw,-83.7260589599609,-28.1078472137451,99.63174802447857,-13.39755770615129,3761484790
iw,-82.0674896240234,-27.7984886169433,99.78061997003145,-7.3717011006868525,3761501457
iw,-80.5182418823242,-27.715404510498,96.5093095020653,-2.416526663814157,3761518124
iw,-79.2074508666992,-27.8836097717285,89.62175086608428,1.9340590854740833,3761534791
iw,-78.144058227539,-28.1934204101562,79.22967538153122,6.035644066863641,3761551458
iw,-77.2682037353515,-28.5442905426025,65.61153953186069,10.139976399123292,3761568125
iw,-76.5224609375,-28.9685611724853,49.123985928302055,14.44326202195334,3761584792
iw,-75.8200073242187,-29.5939769744873,30.21145710822103,19.130937450659864,3761601459
iw,-75.2578353881836,-30.331392288208,9.498305847307124,24.3837508342031,3761618126
iw,-75.1216964721679,-30.7210750579834,-12.106811679937852,30.332877953221846,3761634793
iw,-75.4254760742187,-31.4806537628173,-33.382598401216256,36.98064052910372,3761651460
iw,-76.092300415039,-33.0065193176269,-52.90209785765675,44.12749878312045,3761668127
iw,-76.8974838256836,-33.8942718505859,-69.2736431680258,51.3508159883728,3761684794
iw,-77.7342453002929,-34.3106956481933,-81.45366056261909,58.0628471566963,3761701461
iw,-78.4523162841796,-35.5501060485839,-89.03465135778471,63.64536977338898,3761718128
iw,-78.9928588867187,-37.0800857543945,-92.41191947858736,67.6253123352373,3761734795
iw,-79.7653579711914,-38.4116897583007,-92.76185966476713,69.82712557958718,3761751462
iw,-80.7210845947265,-39.502025604248,-91.81328726045707,70.43454462294812,3761768129
iw,-81.2456436157226,-40.6516151428222,-91.45308252017965,69.93281527347033,3761784796
iw,-81.1253814697265,-41.9224243164062,-93.26649924906707,68.96012468675974,3761801463
iw,-80.6427917480468,-43.1759300231933,-98.14872001279429,68.13057269873649,3761818130
iw,-80.2279663085937,-44.3486938476562,-106.1117832992431,67.88503926545955,3761834797
iw,-79.5766296386718,-45.4512596130371,-116.34263726230326,68.40161970126529,3761851464
iw,-78.4036788940429,-46.6237449645996,-127.47111901503617,69.57705732299317,3761868131
iw,-77.0158309936523,-47.8371963500976,-137.93161831826436,71.07783350552165,3761884798
iw,-75.5456161499023,-49.082836151123,-146.28990097089084,72.4471001838376,3761901465
iw,-73.8345260620117,-50.3571510314941,-151.45727350734435,73.24032203347937,3761918132
iw,-71.8753509521484,-51.6595649719238,-152.78521490165684,73.15419696153926,3761934799
iw,-69.5895843505859,-52.9361343383789,-150.07515469291357,72.11492738660014,3761951466
iw,-67.4655609130859,-54.1352081298828,-143.5364827398491,70.30319503840208,3761968133
iw,-65.5662231445312,-55.2784423828125,-133.70696968093026,68.11087754227678,3761984800
iw,-63.5774230957031,-56.375015258789,-121.34331458138428,66.04330972430553,3762001467
iw,-62.0973205566406,-57.4269180297851,-107.29901531527534,64.59462086312358,3762018134
iw,-60.8124885559082,-58.5126724243164,-92.41559386135704,64.12814815150118,3762034801
iw,-59.4263496398925,-59.5998229980468,-77.44820479394016,64.78902546334253,3762051468
iw,-58.1859741210937,-60.6898155212402,-63.02787526040569,66.46520013643759,3762068135
iw,-57.3850975036621,-61.8584403991699,-49.641847863897226,68.80059614464541,3762084802
iw,-57.011116027832,-63.1344108581543,-37.609073971450016,71.25244487162041,3762101469
iw,-56.6946601867675,-64.4684524536132,-27.047683618983026,73.17485243142025,3762118136
iw,-56.5113372802734,-65.8130645751953,-17.857787435887445,73.90441890545708,3762134803
iw,-56.3484115600585,-67.1687622070312,-9.748916946146085,72.82490754107017,3762151470
iw,-56.2712364196777,-68.3301010131836,-2.3194469581826773,69.39881776696839,3762168137
iw,-56.1959266662597,-69.2724914550781,4.8368046004342355,63.17164260686548,3762184804
iw,-56.216194152832,-70.0686645507812,12.040549460965229,53.77164634078786,3762201471
iw,-56.7080726623535,-70.7498626708984,19.489440758924825,40.93331333517364,3762218138
iw,-57.8997268676757,-71.2864456176757,27.274727708467243,24.55915045912835,3762234805
iw,-58.7134399414062,-71.592300415039,35.41339863518119,4.807262080891312,3762251472
iw,-59.101879119873,-71.4756546020507,43.84555956938392,-17.83196178539816,3762268139
iw,-59.6468620300293,-70.7843780517578,52.38536961443458,-42.510159493185334,3762284806
iw,-60.5610275268554,-69.4401168823242,60.67447777546437,-68.06519320295233,3762301473
iw,-61.9569549560546,-67.761489868164,68.20956379024834,-93.12273588472725,3762318140
iw,-63.6432380676269,-66.0748291015625,74.47145386861347,-116.22573277234815,3762334807
iw,-65.3801040649414,-64.0520858764648,79.10720835872463,-135.97297525208919,3762351474
iw,-66.6422348022461,-61.5485076904296,82.07168089996127,-151.17169991520518,3762368141
iw,-67.8917160034179,-58.5390739440918,83.6550339075345,-161.01256026452657,3762384808
iw,-69.2975997924804,-55.1858558654785,84.38756717762892,-165.24272728952218,3762401475
iw,-70.7026824951171,-52.2012939453125,84.87273497193438,-164.26930607864333,3762418142
iw,-72.0521011352539,-49.6886177062988,85.61876785246824,-159.11747191436015,3762434809
iw,-73.4743270874023,-47.5955810546875,86.92257076041813,-151.21858376089736,3762451476
iw,-74.9790344238281,-45.4868278503418,88.82984729503933,-142.08505907495115,3762468143
iw,-76.5897827148437,-43.2092742919921,91.16835993088431,-132.98334769606862,3762484810
iw,-78.2192077636718,-41.0880432128906,93.6312236337081,-124.7081743932734,3762501477
iw,-79.7769622802734,-39.2381973266601,95.87682230224314,-117.50619476707092,3762518144
iw,-81.2960433959961,-37.6739082336425,97.61410863467361,-111.14018259765213,3762534811
iw,-82.7923278808593,-36.1301307678222,98.65458765417247,-105.05362307408343,3762551478
iw,-84.2610321044921,-34.4879455566406,98.92752857890628,-98.58444639366999,3762568145
iw,-85.5870513916015,-33.1352157592773,98.46545026920806,-91.17142460475561,3762584812
iw,-86.5536575317382,-32.2413024902343,97.37092440911016,-82.50065568926081,3762601479
iw,-86.9489212036132,-31.3312263488769,95.77624640155055,-72.56355608724378,3762618146
iw,-86.6156311035156,-30.2908916473388,93.80673564849135,-61.63355920697835,3762634813
iw,-85.7662200927734,-29.4628639221191,91.55507437018842,-50.190588834608015,3762651480
iw,-84.6178817749023,-28.9061431884765,89.06684028094887,-38.81967586566408,3762668147
iw,-83.2523880004882,-28.5503559112548,86.32866202144064,-28.099504041173866,3762684814
iw,-81.918228149414,-28.3164310455322,83.24603769088692,-18.495866345026844,3762701481
iw,-80.7416076660156,-28.1889591217041,79.60418712951696,-10.280659553264519,3762718148
iw,-79.6825637817382,-28.1761016845703,75.02425088860645,-3.4958872161056713,3762734815
iw,-78.7008972167968,-28.214406967163,68.94961471010667,2.029992588063698,3762751482
iw,-77.7632217407226,-28.3426799774169,60.704840694333996,6.622746265270877,3762768149
iw,-76.8598098754882,-28.5774612426757,49.649375054971806,10.68207999708034,3762784816
iw,-76.0436935424804,-28.9275512695312,35.40438719301681,14.604951596535168,3762801483
iw,-75.3617553710937,-29.5252208709716,18.084229340233318,18.728062594013622,3762818150
iw,-74.9576110839843,-30.2239761352539,-1.5614252109615152,23.289679266869662,3762834817
iw,-75.0749435424804,-30.8914127349853,-22.17566848660997,28.399755169234886,3762851484
iw,-75.8071136474609,-31.7411022186279,-42.020064993555465,34.010086907839344,3762868151
iw,-76.836311340332,-32.8363952636718,-59.3488399879614,39.89228979477393,3762884818
iw,-77.8696594238281,-33.496898651123,-72.8173072338786,45.647828285514954,3762901485
iw,-78.3771591186523,-34.0995063781738,-81.79244037513784,50.775509678903845,3762918152
iw,-78.38623046875,-35.3498764038085,-86.47544062124676,54.800309553662764,3762934819
iw,-78.6024169921875,-36.5557670593261,-87.82314924682342,57.43000091124026,3762951486
iw,-79.4011840820312,-37.5529327392578,-87.31933554781266,58.67637333518282,3762968153
iw,-80.4482803344726,-38.5659713745117,-86.66534131286922,58.8831124079358,3762984820
iw,-81.0130767822265,-39.6378173828125,-87.44366861402585,58.644173414167135,3763001487
iw,-80.8587341308593,-40.717658996582,-90.79801561483944,58.64367597400621,3763018154
iw,-80.3304138183593,-41.7448921203613,-97.18803898470209,59.47107501045991,3763034821
iw,-79.7001800537109,-42.7640266418457,-106.29078902279316,61.46264898612805,3763051488
iw,-78.9297332763671,-43.7829551696777,-117.09566857805618,64.60762670845001,3763068155
iw,-77.8055572509765,-44.9040718078613,-128.1731138404001,68.54251679691735,3763084822
iw,-76.3649520874023,-46.1551437377929,-138.02682277126854,72.638360971629,3763101489
iw,-74.9753189086914,-47.4949493408203,-145.41083107420965,76.16201888015155,3763118156
iw,-73.5051956176757,-48.8910293579101,-149.5231126296406,78.47048324222494,3763134823
iw,-71.7240219116211,-50.3241958618164,-150.05217392142845,79.18556843154336,3763151490
iw,-69.5682373046875,-51.7561149597168,-147.10681547245937,78.30010579329833,3763168157
iw,-67.4244918823242,-53.0893058776855,-141.07609945455613,76.18494289456969,3763184824
iw,-65.7063446044921,-54.273868560791,-132.46140217582152,73.49360795218932,3763201491
iw,-64.3232040405273,-55.3846321105957,-121.72416923024478,70.9911943757908,3763218158
iw,-62.3506317138671,-56.4737548828125,-109.20142188948061,69.35637888160004,3763234825
iw,-60.8102760314941,-57.6073265075683,-95.12663858933554,69.01160915603002,3763251492
iw,-59.6849479675293,-58.7910995483398,-79.74442880234396,70.02383379657043,3763268159
iw,-58.466869354248,-60.0488777160644,-63.45400025005178,72.09308040954012,3763284826
iw,-57.4459266662597,-61.3581428527832,-46.896944420302674,74.61976730968915,3763301493
iw,-57.0601005554199,-62.7335319519043,-30.927806183337967,76.82279027868489,3763318160
iw,-57.1481628417968,-64.1799774169921,-16.457805085299988,77.87265337765187,3763334827
iw,-57.2641639709472,-65.6092834472656,-4.2229432072791795,77.0066874396326,3763351494
iw,-57.5163879394531,-66.8444366455078,5.430963017053385,73.60515314421289,3763368161
iw,-57.8275184631347,-67.8996124267578,12.65713467638312,67.2253366004604,3763384828
iw,-58.123851776123,-68.8066329956054,18.066705120818458,57.60931777807028,3763401495
iw,-58.3307991027832,-69.5484771728515,22.552998403194554,44.68972707026673,3763418162
iw,-58.8749542236328,-70.0986328125,27.041197476340876,28.60972005889672,3763434829
iw,-59.6663818359375,-70.4481582641601,32.2394836696731,9.75290913254173,3763451496
iw,-60.0005149841308,-70.4127731323242,38.45804768264335,-11.240059630483149,3763468163
iw,-60.7122421264648,-69.9501037597656,45.541103202955945,-33.49522829837756,3763484830
iw,-61.6485710144043,-68.8873443603515,52.9332137508078,-55.97967525105761,3763501497
iw,-62.9634246826171,-67.2673873901367,59.86847433829368,-77.60896887186487,3763518164
iw,-64.5141296386718,-65.6805648803711,65.62633022543027,-97.35171726083307,3763534831
iw,-65.8901214599609,-64.2122726440429,69.7626189278067,-114.30511659836425,3763551498
iw,-66.9847717285156,-62.2547492980957,72.22957043805548,-127.74997322193653,3763568165
iw,-68.166389465332,-59.6914405822753,73.34875801978491,-137.21897736404526,3763584832
iw,-69.3351821899414,-56.7924575805664,73.66575568150412,-142.59336028291565,3763601499
iw,-70.5011901855468,-54.0481719970703,73.75612902392965,-144.18883926318824,3763618166
iw,-71.738052368164,-51.710220336914,74.05498969261937,-142.75419570223227,3763634833
iw,-72.9863739013671,-49.6097373962402,74.75883791439644,-139.3288802956845,3763651500
iw,-74.2433319091796,-47.6424331665039,75.8172399306562,-134.98007820993044,3763668167
iw,-75.6130676269531,-45.7298240661621,77.00391005384573,-130.51256903324554,3763684834
iw,-77.0179901123046,-43.8427047729492,78.03609029009034,-126.26924628927856,3763701501
iw,-78.4043884277343,-41.9346580505371,78.69991729784535,-122.10554406267481,3763718168
iw,-79.7517852783203,-39.9443321228027,78.94017625952273,-117.54833391383345,3763734835
iw,-81.0578536987304,-37.9525184631347,78.88640225038739,-112.07201396775964,3763751502
iw,-82.3105316162109,-36.0843887329101,78.80987438322458,-105.37336113122814,3763768169
iw,-83.5099411010742,-34.6263694763183,79.02948931348655,-97.52658695086525,3763784836
iw,-84.7205505371093,-33.816478729248,79.80043813700269,-88.95747675177631,3763801503
iw,-85.9593505859375,-33.0440521240234,81.22302249330285,-80.26666688280632,3763818170
iw,-87.0807418823242,-31.8644008636474,83.19980344427674,-72.00506659589733,3763834837
iw,-87.9331359863281,-30.5965423583984,85.45235330840774,-64.51144732082133,3763851504
iw,-87.9701156616211,-29.5232429504394,87.59045671836984,-57.863170170103416,3763868171
iw,-87.0492553710937,-28.6191825866699,89.21079616384958,-51.917241530750616,3763884838
iw,-85.6753692626953,-27.8578052520751,89.99159846555526,-46.384149942845724,3763901505
iw,-84.1195755004882,-27.3837947845459,89.74791412203908,-40.89152995917631,3763918172
iw,-82.6032562255859,-26.9616603851318,88.42225130852565,-35.03076282442555,3763934839
iw,-81.2425842285156,-26.6279964447021,86.00721830417487,-28.40546340953307,3763951506
iw,-79.998908996582,-26.4154586791992,82.4261593766324,-20.701727230999662,3763968173
iw,-78.8644256591796,-26.164249420166,77.42418831891924,-11.779215857367076,3763984840
iw,-77.8566741943359,-26.0284194946289,70.53146640178882,-1.754138242299814,3764001507
iw,-76.9128646850586,-26.1046447753906,61.143286145456045,8.971679726974536,3764018174
iw,-75.984146118164,-26.646894454956,48.719164921475866,19.77199630069606,3764034841
iw,-75.098648071289,-27.8066673278808,33.049040193508425,29.945183211422194,3764051508
iw,-74.4541549682617,-29.0787868499755,14.490184556018828,38.89829561298415,3764068175
iw,-74.3039474487304,-29.9779014587402,-5.932863045658642,46.28597204978828,3764084842
iw,-74.6744232177734,-31.2279300689697,-26.636906270637134,52.04491412630864,3764101509
iw,-75.6733703613281,-32.5782394409179,-45.79271241682045,56.32304174446273,3764118176
iw,-76.8943557739257,-33.3256492614746,-61.75259414234911,59.35724705545559,3764134843
iw,-77.936897277832,-34.1052627563476,-73.45241484774225,61.371572531890635,3764151510
iw,-78.4620819091796,-35.4268188476562,-80.6572607463501,62.54444829345004,3764168177
iw,-78.8393783569336,-36.5260047912597,-83.98629695479293,63.04625483793005,3764184844
iw,-79.7698974609375,-37.722354888916,-84.73575295673788,63.10472145974595,3764201511
iw,-80.8923263549804,-38.8766403198242,-84.5721387175799,63.042728159077946,3764218178
iw,-81.4538040161132,-40.0170593261718,-85.17445758494628,63.25556373833686,3764234845
iw,-81.4695892333984,-41.143383026123,-87.88993488681524,64.13071146877651,3764251512
iw,-81.2254028320312,-42.2698364257812,-93.46363685398624,65.9396579572005,3764268179
iw,-81.061279296875,-43.3684425354003,-101.90504248276423,68.74149617449041,3764284846
iw,-80.8736419677734,-44.5234870910644,-112.534658089503,72.33524105978543,3764301513
iw,-80.2052993774414,-45.8401107788085,-124.19702081515614,76.28407495343642,3764318180
iw,-79.004638671875,-47.2667846679687,-135.55817442939377,80.01203278395704,3764334847
iw,-77.6605911254882,-48.7515449523925,-145.37435495198633,82.94799616715753,3764351514
iw,-76.1940002441406,-50.2484436035156,-152.6528055426819,84.67370362068542,3764368181
iw,-74.2640838623046,-51.7494735717773,-156.70134713127356,85.03022312289067,3764384848
iw,-71.9302978515625,-53.2159271240234,-157.1207195526841,84.15129082489064,3764401515
iw,-69.5487670898437,-54.6183586120605,-153.79375766104025,82.41530081238898,3764418182
iw,-67.1879730224609,-55.9089279174804,-146.88434122179507,80.33222910818702,3764434849
iw,-65.0212173461914,-57.1337242126464,-136.82312576541082,78.40074927131433,3764451516
iw,-63.2638549804687,-58.4043540954589,-124.25450173498291,76.97891857246293,3764468183
iw,-61.4572219848632,-59.6897010803222,-109.94256134344492,76.20566361959102,3764484850
iw,-60.1206016540527,-60.9627723693847,-94.65877526526388,75.99143829032289,3764501517
iw,-59.0734596252441,-62.2862319946289,-79.08363626652783,76.07222907201756,3764518184
iw,-57.9135856628418,-63.7236175537109,-63.74691081447803,76.10020991830409,3764534851
iw,-57.1108245849609,-65.1764678955078,-49.01335415375619,75.7324932379958,3764551518
iw,-56.6196250915527,-66.5410385131836,-35.10272680611244,74.68034969153065,3764568185
iw,-56.3053169250488,-67.746353149414,-22.125007647277396,72.69779779419449,3764584852
iw,-56.2008628845214,-68.8327178955078,-10.116627154238788,69.5177533300921,3764601519
iw,-56.244815826416,-69.8217163085937,0.9278526410829182,64.77362111800522,3764618186
iw,-56.3756713867187,-70.7148742675781,11.03201663711429,57.95818780166622,3764634853
iw,-56.5508232116699,-71.5013122558593,20.228403955498443,48.461245737364095,3764651520
iw,-57.1644783020019,-72.1537322998046,28.56879877691165,35.69646588751277,3764668187
iw,-58.4925117492675,-72.7127304077148,36.144596061181296,19.28915081962737,3764684854
iw,-59.3102493286132,-73.0287933349609,43.08795794975315,-0.7355301640117821,3764701521
iw,-59.8485488891601,-72.8937683105468,49.52448207050471,-23.835368674925007,3764718188
iw,-60.4012336730957,-72.0455703735351,55.4857489707214,-48.95693325281649,3764734855
iw,-61.2630424499511,-70.3969421386718,60.841435006648105,-74.66841419741803,3764751522
iw,-62.6622810363769,-68.4556655883789,65.322445292211,-99.36998994198572,3764768189
iw,-64.483772277832,-66.7200622558593,68.65405144940662,-121.50837421552525,3764784856
iw,-65.8989181518554,-64.8621597290039,70.73800849126745,-139.74785907206902,3764801523
iw,-66.9141006469726,-62.4007720947265,71.78116393542084,-153.10222467533052,3764818190
iw,-68.0127258300781,-59.330150604248,72.29853510500855,-161.05688922460158,3764834857
iw,-69.2338104248046,-55.9485816955566,72.99202455564942,-163.6789698649266,3764851524
iw,-70.5529632568359,-52.9987564086914,74.56319051306686,-161.6566956517235,3764868191
iw,-71.8301467895507,-50.6237258911132,77.52979372981156,-156.19424997900666,3764884858
iw,-73.1433486938476,-48.5786247253418,82.09603350736792,-148.74436371129306,3764901525
iw,-74.5138931274414,-46.4298934936523,88.1022786380139,-140.65179058081952,3764918192
iw,-76.1291046142578,-44.2266235351562,95.06111433826598,-132.83705398603152,3764934859
iw,-77.8954010009765,-42.2308082580566,102.26803137070227,-125.63441008264103,3764951526
iw,-79.7392883300781,-40.4244689941406,108.95548681249535,-118.83048054938948,3764968193
iw,-81.6012725830078,-38.5938110351562,114.44584067416719,-111.87462327009568,3764984860
iw,-83.4126281738281,-36.6972427368164,118.2604352885423,-104.17650009259482,3765001527
iw,-85.0033111572265,-35.0061874389648,120.15938223783255,-95.37858172494425,3765018194
iw,-86.2065658569336,-33.8333168029785,120.11156568576664,-85.49990174959362,3765034861
iw,-86.6845932006836,-33.1212081909179,118.21671959031711,-74.90033965512569,3765051528
iw,-86.2937698364257,-32.4462966918945,114.61368820373401,-64.09706786486545,3765068195
iw,-85.2623672485351,-31.8338890075683,109.40792764337293,-53.53332674664731,3765084862
iw,-83.8157882690429,-31.3570919036865,102.63763058770088,-43.4136955911699,3765101529
iw,-82.325325012207,-30.5924816131591,94.27681558296281,-33.67474444688105,3765118196
iw,-80.9683456420898,-29.9785537719726,84.25679756551094,-24.086367108242435,3765134863
iw,-79.9092636108398,-29.6917781829834,72.48734494970361,-14.418414659924306,3765151530
iw,-79.0991516113281,-29.6533584594726,58.87648260339266,-4.5873841066084315,3765168197
iw,-78.4200210571289,-29.7062072753906,43.367208769014155,5.2788169123915045,3765184864
iw,-77.9520111083984,-30.247968673706,26.01030710303137,14.874143697312743,3765201531
iw,-77.7152481079101,-31.1054153442382,7.069581165284034,23.818310906755062,3765218198
iw,-77.5629119873046,-31.9177551269531,-12.876772754237376,31.777919040882516,3765234865
iw,-77.8139343261718,-32.7293090820312,-32.89508564633115,38.55046765566691,3765251532
iw,-78.5281524658203,-34.1584434509277,-51.763479918064874,44.08101787836155,3765268199
iw,-79.2310562133789,-35.2258377075195,-68.15835679893547,48.41767754341488,3765284866
iw,-79.8517913818359,-35.9440078735351,-80.92348263237533,51.64249292252365,3765301533
iw,-79.9105529785156,-36.5382766723632,-89.35358940721879,53.82665944440596,3765318200
iw,-79.7387924194336,-37.6601524353027,-93.421145286206,55.04541268431549,3765334867
iw,-79.9237365722656,-38.9095039367675,-93.88831665067735,55.44723859933996,3765351534
iw,-80.5480728149414,-39.9484329223632,-92.2586169583502,55.32585560128862,3765368201
iw,-81.244155883789,-40.8372344970703,-90.5362452703052,55.130574364079386,3765384868
iw,-81.445556640625,-41.7575492858886,-90.79773397401773,55.386582625527794,3765401535
iw,-81.0282363891601,-42.7665138244628,-94.6520355131228,56.55203421749306,3765418202
iw,-80.3077087402343,-43.8074684143066,-102.74427229388517,58.87122920597254,3765434869
iw,-79.3629989624023,-44.8943634033203,-114.48905952370713,62.279430213777516,3765451536
iw,-77.9116821289062,-45.9548377990722,-128.1613679900843,66.3915651854945,3765468203
iw,-75.8789749145507,-47.1295928955078,-141.3395820802316,70.58224330646676,3765484870
iw,-73.6809387207031,-48.4852066040039,-151.55296204006135,74.14188117328118,3765501537
iw,-71.7118682861328,-49.93212890625,-156.91208418501,76.4708222903657,3765518204
iw,-69.3510360717773,-51.4067840576171,-156.52923654531196,77.25443584150679,3765534871
iw,-66.8228607177734,-52.8177108764648,-150.6317353308679,76.5591217992372,3765551538
iw,-64.8534164428711,-54.0876197814941,-140.37229373516905,74.81038357546944,3765568205
iw,-63.1926498413085,-55.190746307373,-127.4155558235721,72.65513910806416,3765584872
iw,-62.1665458679199,-56.2099075317382,-113.43310713702992,70.7545371084315,3765601539
iw,-60.5705490112304,-57.284439086914,-99.66705801012485,69.58072420943736,3765618206
iw,-59.0867500305175,-58.4026260375976,-86.6987705095724,69.28844936242628,3765634873
iw,-58.0444450378418,-59.6020355224609,-74.47629015653729,69.70146339535192,3765651540
iw,-56.7325057983398,-60.8726272583007,-62.549901808014994,70.40878856498581,3765668207
iw,-55.624267578125,-62.2849197387695,-50.394883781083344,70.92554537189791,3765684874
iw,-55.094985961914,-63.6720542907714,-37.69030949421934,70.85090924543394,3765701541
iw,-54.9142341613769,-64.9723663330078,-24.46479559198379,69.95866699673262,3765718208
iw,-54.8139610290527,-66.13623046875,-11.088452679532358,68.18357123909385,3765734875
iw,-54.9251556396484,-67.1662673950195,1.849976506399198,65.51043179058965,3765751542
iw,-55.1521987915039,-68.0714797973632,13.717652048713022,61.81585170320567,3765768209
iw,-55.4432907104492,-68.8654098510742,24.010439526874837,56.73701214400521,3765784876
iw,-56.0635032653808,-69.5948257446289,32.48985462311977,49.637669358258066,3765801543
iw,-57.1463966369628,-70.3008804321289,39.2578600754728,39.70898994772776,3765818210
iw,-58.5210151672363,-70.9625549316406,44.73960573268284,26.19213573839335,3765834877
iw,-59.1587219238281,-71.4349517822265,49.550971942717986,8.658253999880099,3765851544
iw,-59.4812240600585,-71.5075912475586,54.269277098254655,-12.749249201365252,3765868211
iw,-60.173542022705,-71.0311050415039,59.1928174102389,-37.19944764481047,3765884878
iw,-61.340705871582,-69.7404632568359,64.21411947638057,-63.23122814791334,3765901545
iw,-63.0130462646484,-67.9439926147461,68.8908162821027,-88.96587550769728,3765918212
iw,-64.89111328125,-66.1843490600586,72.68866515938555,-112.40807934365529,3765934879
iw,-66.2992172241211,-64.2297744750976,75.26923133908254,-131.75898000304483,3765951546
iw,-67.310920715332,-61.7688560485839,76.67395259177032,-145.69111349640616,3765968213
iw,-68.6041107177734,-58.8450927734375,77.32483732955947,-153.56189484536804,3765984880
iw,-69.9231796264648,-55.7042045593261,77.86125018092329,-155.53983169920326,3766001547
iw,-71.2020263671875,-52.9055061340332,78.89555496458902,-152.597720813427,3766018214
iw,-72.4843444824218,-50.6661949157714,80.77914635126022,-146.33114226555324,3766034881
iw,-73.7451019287109,-48.6935005187988,83.44905446032257,-138.61153663463617,3766051548
iw,-75.0759353637695,-46.6139373779296,86.39820803793171,-131.15617595537003,3766068215
iw,-76.5643844604492,-44.6009368896484,88.78323477228554,-125.14182919117968,3766084882
iw,-78.1146392822265,-42.7134552001953,89.64867370978152,-120.97638861990164,3766101549
iw,-79.6166076660156,-40.8573112487793,88.21076472778,-118.2873510277921,3766118216
iw,-80.9738311767578,-39.1589584350585,84.12160175790261,-116.1206411174423,3766134883
iw,-82.1623611450195,-37.3369560241699,77.63701247496988,-113.28811916040493,3766151550
iw,-83.2294921875,-35.4469146728515,69.63831285396574,-108.762360705693,3766168217
iw,-84.1432876586914,-33.7031745910644,61.4971517589326,-101.99890385951836,3766184884
iw,-84.9380950927734,-32.3735656738281,54.810407308852724,-93.08254819180553,3766201551
iw,-85.6537322998046,-31.6176528930664,51.06019792790225,-82.65341756006532,3766218218
iw,-86.2150421142578,-30.9939670562744,51.26947078777363,-71.65338560201126,3766234885
iw,-86.6298904418945,-29.9510555267334,55.72618845731307,-61.001439160044264,3766251552
