Label,Left_Hip_q,Right_Hip_q,Left_Hip_qd,Right_Hip_qd,SampleTimeFine
sw,-87.8073272705078,-39.2624702453613,39.6396827697753,32.3884963989257,2888600666
sw,-87.742935180664,-40.3789024353027,49.0053861519177,63.4310435599898,2888617333
sw,-87.3558807373046,-41.8463821411132,56.45047369321073,64.21222162464669,2888634000
sw,-86.653091430664,-43.2634239196777,62.825643057759756,64.05034939785457,2888650667
sw,-85.6702117919921,-44.7161979675293,67.28739403644923,62.19198168277275,2888667334
sw,-84.4957656860351,-45.911693572998,69.23217367643473,58.43272240385715,2888684001
sw,-83.3202133178711,-46.7996215820312,68.3083152401249,53.125754022267444,2888700668
sw,-82.2770690917968,-47.2531852722168,64.35409984144627,46.98811112575516,2888717335
sw,-81.5024337768554,-47.5680770874023,57.280164745996366,40.806590913842136,2888734002
sw,-81.0027694702148,-47.9772911071777,46.94717924243389,35.186978534615385,2888750669
sw,-80.6902160644531,-48.4812278747558,33.109915518111805,30.462165130767822,2888767336
sw,-80.5340957641601,-49.6090393066406,15.48732841926368,26.78402321184189,2888784003
sw,-80.4933929443359,-51.170669555664,-6.030801069045837,24.313831141684215,2888800670
sw,-80.5800704956054,-51.4688491821289,-31.1010918520814,23.360511844184163,2888817337
sw,-81.0563583374023,-51.3803367614746,-58.687838445018045,24.34531200307955,2888834004
sw,-82.2698516845703,-51.9459609985351,-87.00091234517375,27.58676933745124,2888850671
sw,-84.360107421875,-52.5807914733886,-113.68927228465475,33.02078806476144,2888867338
sw,-86.9528427124023,-53.037498474121,-136.2657802947828,40.01273135621228,2888884005
sw,-88.0252380371093,-53.622013092041,-152.63704306752652,47.370822689276125,2888900672
sw,-85.9391860961914,-54.8433990478515,-161.56900822949373,53.58219281284986,2888917339
sw,-83.6013793945312,-56.2990112304687,-162.95718177414113,57.20686925251119,2888934006
sw,-80.9774475097656,-57.5193405151367,-157.85536323887078,57.301270020487266,2888950673
sw,-78.0995635986328,-58.4737014770507,-148.28557231353685,53.72395414319235,2888967340
sw,-75.8202056884765,-59.2945327758789,-136.87191973757274,47.217461138034906,2888984007
sw,-74.1573104858398,-59.9805641174316,-126.34142089304791,39.241395702707536,2889000674
sw,-72.8143615722656,-60.4689826965332,-118.9626169606605,31.611310189989364,2889017341
sw,-71.2518539428711,-60.8120574951171,-116.04517980002437,26.04716371417929,2889034008
sw,-69.3122329711914,-61.0638580322265,-117.64394057177638,23.75117951247323,2889050675
sw,-67.2050552368164,-61.308120727539,-122.55838357396007,25.123921485764594,2889067342
sw,-65.0419998168945,-61.7579689025878,-128.617728974412,29.69254086245097,2889084009
sw,-62.750389099121,-62.4693069458007,-133.15437845259223,36.269926143594226,2889100676
sw,-60.8062782287597,-63.3785018920898,-133.53681679754004,43.299134592874694,2889117343
sw,-59.0082397460937,-64.4177856445312,-127.65462555770159,49.28348008859709,2889134010
sw,-57.210838317871,-65.5460815429687,-114.29209129262983,53.17851910690558,2889150677
sw,-55.8033599853515,-66.6402130126953,-93.36085402395734,54.63662335000016,2889167344
sw,-54.6615715026855,-67.5404739379882,-65.97350299208256,54.04193661147648,2889184011
sw,-53.9833106994628,-68.3192749023437,-34.34065563487998,52.33718786178957,2889200678
sw,-54.0734558105468,-69.0727081298828,-1.484701624036161,50.703718610234674,2889217345
sw,-54.683795928955,-69.8410873413086,29.206356111258263,50.19334392770135,2889234012
sw,-55.5742263793945,-70.5820999145507,54.52082843481328,51.4158777863622,2889250679
sw,-56.8018455505371,-71.3452072143554,71.96525523770582,54.36362269211712,2889267346
sw,-58.4782562255859,-72.2271728515625,80.20120211556328,58.415705567593875,2889284013
sw,-60.0169219970703,-73.2801208496093,79.28409933579655,62.52016163954468,2889300680
sw,-61.4217529296875,-74.5651473999023,70.64151683885495,65.50523312478231,2889317347
sw,-62.120059967041,-75.9800949096679,56.77891698572165,66.43078997278575,2889334014
sw,-62.7020797729492,-77.3931427001953,40.76813807446978,64.86939410508741,2889350681
sw,-63.117820739746,-78.5863037109375,25.634953667370063,61.01835991015947,2889367348
sw,-63.2000083923339,-79.5099563598632,13.789332326808994,55.5933826618681,2889384015
sw,-63.1662940979003,-80.225715637207,6.627495675390859,49.527882419938834,2889400682
sw,-62.9930191040039,-80.7126998901367,4.3916300280207015,43.5732755164265,2889417349
sw,-62.9964141845703,-81.0691757202148,6.314184218774831,37.93646168936141,2889434016
sw,-63.6789321899414,-81.4117813110351,11.001778355360377,32.08668364522227,2889450683
sw,-64.9261398315429,-81.8184967041015,16.93655359836306,24.815490871631006,2889467350
sw,-65.5667190551757,-82.2288055419921,22.921699109435284,14.554909488921679,2889484017
sw,-65.7561340332031,-82.5730514526367,28.31672314461729,-0.12683393793438158,2889500684
sw,-66.2167129516601,-82.6840133666992,33.006479989975986,-19.998870241561264,2889517351
sw,-66.9057312011718,-82.3646774291992,37.171647595734335,-44.78111888599372,2889534018
sw,-67.4963836669921,-81.3913192749023,41.00082076826902,-73.03734711379576,2889550685
sw,-68.1954116821289,-79.6106567382812,44.47817636167324,-102.40541035802651,2889567352
sw,-69.0436096191406,-76.9633331298828,47.324956378777365,-130.11037488797453,2889584019
sw,-70.1266632080078,-73.8902359008789,49.104159274247486,-153.60384885688376,2889600686
sw,-71.3772964477539,-70.7884140014648,49.43424714293734,-171.12496335242474,2889617353
sw,-72.4194641113281,-67.7391281127929,48.214694364093056,-182.01185266253046,2889634020
sw,-73.2433013916015,-64.6255111694336,45.76227792217382,-186.69292109042584,2889650687
sw,-73.9791259765625,-61.464298248291,42.79660340547694,-186.4030188603484,2889667354
sw,-74.6512374877929,-58.614818572998,40.276114918699605,-182.74717539780852,2889684021
sw,-75.2724838256836,-55.8866310119628,39.14033331902217,-177.25245135534325,2889700688
sw,-75.885009765625,-53.0696601867675,40.04059009251678,-171.01936082343667,2889717355
sw,-76.5572891235351,-50.3631973266601,43.13951115288742,-164.5332456339219,2889734022
sw,-77.2689437866211,-47.8859176635742,48.03799111275552,-157.64564888148064,2889750689
sw,-78.0244445800781,-45.5992050170898,53.85586778283495,-149.70151996223223,2889767356
sw,-79.0069961547851,-43.3935966491699,59.45419317262679,-139.77172396068266,2889784023
sw,-80.3374481201171,-41.1324119567871,63.746514088804794,-126.94003477304767,2889800690
sw,-81.8219223022461,-39.0673370361328,66.01088600220368,-110.58081356153286,2889817357
sw,-83.1026153564453,-37.5520248413085,66.09916666510446,-90.55796353965818,2889834024
sw,-84.0095901489257,-36.8824577331543,64.46413854493929,-67.29747010715576,2889850691
sw,-84.6974716186523,-36.7112960815429,61.989998797353245,-41.736607011424574,2889867358
sw,-85.2856140136718,-36.6749000549316,59.69006398518339,-15.201603410470407,2889884025
sw,-85.8153991699218,-36.6022338867187,58.38554997789502,10.7282451897326,2889900692
sw,-86.268814086914,-36.8594932556152,58.47689870286616,34.354244957385376,2889917359
sw,-86.5486145019531,-37.7966270446777,59.87264705940603,54.02131362212109,2889934026
sw,-86.6021194458007,-39.2186584472656,62.07805994532437,68.34167920298098,2889950693
sw,-86.3057327270507,-40.9484710693359,64.3921795371097,76.45582871941464,2889967360
sw,-85.6168899536132,-42.5369720458984,66.13127102176962,78.24544970551509,2889984027
sw,-84.7388763427734,-43.6977577209472,66.79442711880284,74.39973488967009,2890000694
sw,-83.8289260864257,-44.9002227783203,66.11402508414976,66.28490811999269,2890017361
sw,-82.9170379638671,-45.8993644714355,63.98162251989805,55.644010342505275,2890034028
sw,-82.0706558227539,-46.2888031005859,60.29006920597124,44.21696068145454,2890050695
sw,-81.348030090332,-46.4673233032226,54.765591149010824,33.399477772622554,2890067362
sw,-80.7406539916992,-46.7332534790039,46.870134619011196,24.05133307849626,2890084029
sw,-80.3013839721679,-47.0792427062988,35.83521282881549,16.51682701554836,2890100696
sw,-79.9925994873046,-47.7181243896484,20.84837309936965,10.837054130045175,2890117363
sw,-79.8064956665039,-48.8150672912597,1.3591586873504304,7.04335175704458,2890134030
sw,-79.8311920166015,-49.1938133239746,-22.583604382346326,5.372557137921353,2890150697
sw,-80.2608947753906,-49.1304397583007,-50.08641712299724,6.275691217758628,2890167364
sw,-81.3427276611328,-49.3290061950683,-79.37390957408651,10.198553473962791,2890184031
sw,-83.3159866333007,-49.5317878723144,-108.01705828806983,17.23836323191258,2890200698
sw,-86.0154266357421,-49.6701965332031,-133.38769525966543,26.85143931124101,2890217365
sw,-89.0465316772461,-50.062385559082,-153.20814756269516,37.76998410337768,2890234032
sw,-87.9791870117187,-51.0460739135742,-166.02631107455198,48.2002382589377,2890250699
sw,-85.3997268676757,-52.4460105895996,-171.484352745008,56.25888485078903,2890267366
sw,-82.5739212036132,-53.9466896057128,-170.33733712856588,60.50205965348055,2890284033
sw,-79.306900024414,-55.173095703125,-164.25680622590758,60.35578301275883,2890300700
sw,-76.5997238159179,-56.0436706542968,-155.48251917265068,56.293547645138844,2890317367
sw,-74.5198287963867,-56.784927368164,-146.37909450106153,49.707717777956546,2890334034
sw,-72.5942687988281,-57.4537544250488,-138.95943377188195,42.53217903599467,2890350701
sw,-70.5172348022461,-58.0205383300781,-134.46439063057696,36.743734002105235,2890367368
sw,-68.2824783325195,-58.5117568969726,-133.09957284733167,33.88328414346085,2890384035
sw,-65.9145202636718,-59.0147285461425,-133.9940959648728,34.710903880037314,2890400702
sw,-63.7393264770507,-59.6514320373535,-135.38115786583714,39.06443689168862,2890417369
sw,-61.7997169494628,-60.3808555603027,-134.95012468392082,45.94251797958051,2890434036
sw,-59.8346786499023,-61.259838104248,-130.30450841490253,53.785512671651816,2890450703
sw,-57.81343460083,-62.4290771484375,-119.4626973909867,60.88620872140146,2890467370
sw,-55.981876373291,-63.8620491027832,-101.33177626336803,65.831097606377,2890484037
sw,-54.6494636535644,-65.3382186889648,-76.06587852719156,67.85932279249285,2890500704
sw,-53.5917015075683,-66.6049041748046,-45.21169270520124,67.03964709835444,2890517371
sw,-53.2231140136718,-67.6349258422851,-11.56724273846807,64.21271014599793,2890534038
sw,-53.6509742736816,-68.4875717163086,21.26081705737486,60.71717319576071,2890550705
sw,-54.7830543518066,-69.2840728759765,49.534262199740105,57.986869263427934,2890567372
sw,-56.230354309082,-70.1152267456054,70.1465441776628,57.14257544067824,2890584039
sw,-58.1943588256835,-70.9878997802734,81.27588552057054,58.69453784604718,2890600706
sw,-59.8857688903808,-71.8925247192382,82.74451433535167,62.429968681877796,2890617373
sw,-61.070011138916,-72.9938659667968,75.98026055255187,67.50293374584724,2890634040
sw,-61.3656578063964,-74.3683547973632,63.60146377109322,72.6883532851257,2890650707
sw,-62.0942611694335,-75.9168853759765,48.76630363571249,76.71668715282638,2890667374
sw,-62.9600028991699,-77.6086273193359,34.48567116332205,78.58033008251034,2890684041
sw,-63.3311805725097,-79.2056655883789,23.071253988578903,77.708487919223,2890700708
sw,-63.2931098937988,-80.4366836547851,15.814954089166426,73.95157124006538,2890717375
sw,-63.0612716674804,-81.2769317626953,12.930432053000446,67.39109990180398,2890734042
sw,-63.3966064453125,-81.8473205566406,13.746055580001684,58.06979685932548,2890750709
sw,-64.6562957763671,-82.3280639648437,17.089486619510463,45.781284808620676,2890767376
sw,-65.6728134155273,-82.7897491455078,21.737572972654817,30.041536121219888,2890784043
sw,-65.8981475830078,-83.1891174316406,26.768612904189705,10.28634895140612,2890800710
sw,-66.1294326782226,-83.4621429443359,31.701079713510016,-13.766373240752939,2890817377
sw,-66.8062973022461,-83.3462142944336,36.41659301553032,-41.73668655920553,2890834044
sw,-67.6201705932617,-82.58544921875,40.962971966658,-72.35941195249744,2890850711
sw,-68.3162002563476,-80.9206771850586,45.35597735541932,-103.5445240996079,2890867378
sw,-69.0502471923828,-78.2408447265625,49.46114054565741,-132.73936295078727,2890884045
sw,-70.1111145019531,-75.0293197631836,52.98658641667427,-157.4845566421138,2890900712
sw,-71.3538131713867,-71.8186492919921,55.57506235709614,-175.97088579596198,2890917379
sw,-72.4193801879882,-68.697021484375,56.94866289914533,-187.4061694013362,2890934046
sw,-73.4212341308593,-65.4638519287109,57.040962665856156,-192.0869165195538,2890950713
sw,-74.4895629882812,-62.2527847290039,56.060028378296316,-191.18690061980604,2890967380
sw,-75.4421997070312,-59.3136520385742,54.45714909150732,-186.3626541424669,2890984047
sw,-76.2695617675781,-56.5068893432617,52.81206468521919,-179.30683535486546,2891000714
sw,-77.0808792114257,-53.7589836120605,51.67266302986736,-171.36496484128867,2891017381
sw,-77.8603744506836,-51.152286529541,51.40083644005586,-163.29197448860182,2891034048
sw,-78.6457901000976,-48.6634292602539,52.07422884303878,-155.17976269618546,2891050715
sw,-79.4356918334961,-46.1839294433593,53.47636822579227,-146.5459359065829,2891067382
sw,-80.3633422851562,-43.9898300170898,55.180394238361956,-136.5425735136591,2891084049
sw,-81.4694900512695,-41.9322624206543,56.70146931879222,-124.22469937176814,2891100716
sw,-82.6184768676757,-39.9477157592773,57.667421787058366,-108.81329515562669,2891117383
sw,-83.6483154296875,-38.5791282653808,57.94599850719772,-89.8990934916665,2891134050
sw,-84.4720306396484,-37.9507598876953,57.680038495282204,-67.56081116686451,2891150717
sw,-85.1653594970703,-37.6243362426757,57.21865101066187,-42.40647890257616,2891167384
sw,-85.781982421875,-37.3706855773925,56.976864264939195,-15.566855272119533,2891184051
sw,-86.3564834594726,-37.2613716125488,57.284411414834985,11.346144896394518,2891200718
sw,-86.7927703857421,-37.5593872070312,58.281645387053686,36.345848537817275,2891217385
sw,-86.9028167724609,-38.585277557373,59.89114163820513,57.29582201934749,2891234052
sw,-86.5864868164062,-40.1447601318359,61.85583685126078,72.27216244401791,2891250719
sw,-85.9408340454101,-42.0590286254882,63.8084768218917,79.99715103519324,2891267386
sw,-85.1462326049804,-43.8851928710937,65.33305064613398,80.20136526888425,2891284053
sw,-84.2831344604492,-45.1605644226074,65.99420512416704,73.7614806126284,2891300720
sw,-83.3679809570312,-46.261863708496,65.33353726821288,62.533621024755085,2891317387
sw,-82.4350128173828,-46.9161872863769,62.84898988246911,48.91951848819879,2891334054
sw,-81.5573806762695,-47.0263900756835,57.97941677023433,35.3057742523445,2891350721
sw,-80.8465728759765,-46.9864349365234,50.11467241666199,23.56312010847747,2891367388
sw,-80.3850173950195,-47.2195777893066,38.648882011625545,14.768323623163996,2891384055
sw,-80.1618118286132,-47.6718826293945,23.09041330828328,9.222014659126742,2891400722
sw,-80.1125259399414,-48.662425994873,3.228483758589026,6.710634466184879,2891417389
sw,-80.1820220947265,-49.2864685058593,-20.67222779404963,6.8563269785471705,2891434056
sw,-80.6092834472656,-49.3435287475585,-47.71297714132266,9.373279262960269,2891450723
sw,-81.6472930908203,-49.6414985656738,-76.32158635541676,14.119680130318176,2891467390
sw,-83.4814300537109,-50.1105041503906,-104.3947599234319,20.956163549608885,2891484057
sw,-86.0336532592773,-50.4916305541992,-129.6210552666778,29.519870792433558,2891500724
sw,-89.009292602539,-50.8912124633789,-149.90641666806397,39.05356065780157,2891517391
sw,-88.0541839599609,-51.5329360961914,-163.7787646683722,48.397143367906786,2891534058
sw,-85.3074798583984,-52.880516052246,-170.66162833505084,56.179031849955535,2891550725
sw,-82.3722381591796,-54.4501724243164,-170.96461069039006,61.15770553390367,2891567392
sw,-79.1936416625976,-55.8314895629882,-165.995696360467,62.589472663697194,2891584059
sw,-76.6092300415039,-56.9000167846679,-157.72468339361097,60.47628803937516,2891600726
sw,-74.4579010009765,-57.8055839538574,-148.42939607442858,55.59516092242724,2891617393
sw,-72.3600463867187,-58.6246681213378,-140.26881753007194,49.30044411982089,2891634060
sw,-70.0854339599609,-59.2933845520019,-134.85409846913322,43.17145583714687,2891650727
sw,-67.8456115722656,-59.8186454772949,-132.9018767595333,38.61772144534774,2891667394
sw,-65.6672897338867,-60.3898773193359,-134.03875410250402,36.5514128066975,2891684061
sw,-63.824893951416,-61.029182434082,-136.79828832311128,37.20560909796595,2891700728
sw,-62.1102561950683,-61.7384414672851,-138.83266036564464,40.13214858995822,2891717395
sw,-59.9352874755859,-62.4470329284668,-137.34208574084906,44.366614635766,2891734062
sw,-57.3489112854003,-63.3266410827636,-129.68052400411412,48.71115685926144,2891750729
sw,-54.9890327453613,-64.4113464355468,-114.02391711899689,52.06309731716908,2891767396
sw,-53.638931274414,-65.5804443359375,-89.92811800384,53.70787447498691,2891784063
sw,-52.6758918762207,-66.6322250366211,-58.60836099055904,53.50038746849256,2891800730
sw,-52.129409790039,-67.4939041137695,-22.8458099191756,51.88472008705391,2891817397
sw,-52.2863388061523,-68.2687759399414,13.473974084350308,49.74767434912038,2891834064
sw,-53.1606750488281,-69.0024795532226,46.10066413500735,48.151443463248455,2891850731
sw,-54.7598648071289,-69.7396621704101,71.28153207144027,48.024055222623424,2891867398
sw,-56.8772239685058,-70.4888610839843,86.54375864643619,49.891763533480024,2891884065
sw,-59.0039901733398,-71.2708282470703,91.18540088784715,53.719407265849746,2891900732
sw,-60.5732116699218,-72.1904144287109,86.32496049685629,58.893735259618985,2891917399
sw,-60.8890342712402,-73.3342514038086,74.49439807129838,64.34895795352172,2891934066
sw,-61.2338333129882,-74.5956573486328,58.92256294149311,68.79814041526387,2891950733
sw,-62.0935249328613,-75.9574508666992,42.76188784274366,71.00494125001983,2891967400
sw,-62.6610832214355,-77.4346618652343,28.4980343033721,70.01696122956783,2891984067
sw,-62.9513206481933,-78.7421722412109,17.667630420175225,65.29231414770038,2892000734
sw,-62.950023651123,-79.6696395874023,10.877229345295616,56.68669352724641,2892017401
sw,-63.3542518615722,-80.1112518310546,8.033348795113344,44.3222958558906,2892034068
sw,-64.3733596801757,-80.2287521362304,8.6601069040965,28.41378612368023,2892050735
sw,-64.8180389404296,-80.1832199096679,12.17578146637411,9.151966941709881,2892067402
sw,-64.8090057373046,-80.1293106079101,18.028992649440298,-13.278884037243468,2892084069
sw,-65.0868301391601,-79.9158782958984,25.6721537598781,-38.544777800013165,2892100736
sw,-65.6414718627929,-79.3150405883789,34.4428844582249,-65.94417945818535,2892117403
sw,-66.3464660644531,-78.1056747436523,43.47097259989129,-94.254248220216,2892134070
sw,-67.1726989746093,-76.1452865600586,51.702633424931264,-121.75171418189898,2892150737
sw,-68.277603149414,-73.527099609375,58.06503436609816,-146.44582683502824,2892167404
sw,-69.8730697631836,-70.3835372924804,61.72437529002572,-166.4661232990654,2892184071
sw,-71.4011077880859,-67.0583190917968,62.34249356304894,-180.47737726880015,2892200738
sw,-72.5166091918945,-63.5199317932128,60.223402059409544,-187.97857151145953,2892217405
sw,-73.4118576049804,-60.0256958007812,56.27437824874272,-189.384316232568,2892234072
sw,-74.2141952514648,-57.2234764099121,51.778188714367175,-185.8643269820656,2892250739
sw,-74.9592742919921,-54.57124710083,48.04787795179889,-178.99799376260887,2892267406
sw,-75.6666030883789,-51.7996978759765,46.075748839129055,-170.3557651777709,2892284073
sw,-76.3672790527343,-49.110050201416,46.282755340716335,-161.126721001842,2892300740
sw,-77.1609954833984,-46.6823844909668,48.43707717884648,-151.8776122848081,2892317407
sw,-77.9121551513671,-44.6495018005371,51.76004784242044,-142.4826269875325,2892334074
sw,-78.8727340698242,-42.7615623474121,55.18715445518986,-132.22961575702672,2892350741
sw,-80.1556549072265,-40.6668663024902,57.70928183610683,-120.08247559146129,2892367408
sw,-81.5185165405273,-38.5535278320312,58.691609407446414,-105.04295764333425,2892384075
sw,-82.6063842773437,-36.8469352722168,58.06587275538336,-86.51317876875669,2892400742
sw,-83.3820343017578,-35.9953956604003,56.32792297482399,-64.54597781452233,2892417409
sw,-83.9861450195312,-35.710277557373,54.34243097113088,-39.91005823868434,2892434076
sw,-84.4593505859375,-35.7984428405761,53.03086661792993,-13.973249882716367,2892450743
sw,-84.9031524658203,-36.1705703735351,53.06034956494527,11.530391347320055,2892467410
sw,-85.3590240478515,-36.6352462768554,54.64174231420733,34.77152981024236,2892484077
sw,-85.8122177124023,-37.5964736938476,57.49527213950995,54.08461648247478,2892500744
sw,-86.1334075927734,-38.7673645019531,60.97629703877081,68.19599913690146,2892517411
sw,-86.1891632080078,-40.3308143615722,64.29800649557609,76.40829913347582,2892534078
sw,-85.8509292602539,-41.9568443298339,66.75918641316233,78.71399042884762,2892550745
sw,-85.2475814819336,-43.2748680114746,67.89058788604724,75.80040032117695,2892567412
sw,-84.5263977050781,-44.63330078125,67.46972149020934,68.9210654772187,2892584079
sw,-83.7231521606445,-45.5569763183593,65.40812247110902,59.645450580719285,2892600746
sw,-82.9113616943359,-46.0490112304687,61.56697565387817,49.545561013134105,2892617413
sw,-82.2026596069336,-46.4240455627441,55.58690505317538,39.913184559806716,2892634080
sw,-81.5803985595703,-46.8471298217773,46.81645010197016,31.60374710767588,2892650747
sw,-81.1070480346679,-47.5088500976562,34.39373230391255,25.057062923814577,2892667414
sw,-80.8829650878906,-48.7290992736816,17.485851348237738,20.461314582423864,2892684081
sw,-80.7925262451171,-49.4613304138183,-4.3676030976525135,17.948156382394618,2892700748
sw,-80.9136428833007,-49.5041313171386,-30.911597593340517,17.68965503823797,2892717415
sw,-81.5150833129882,-49.6989707946777,-60.96284663893905,19.834110197503286,2892734082
sw,-82.9343719482421,-50.2512016296386,-92.43641749560923,24.326237683478787,2892750749
sw,-85.3457107543945,-50.7355804443359,-122.64810619185515,30.731058866310864,2892767416
sw,-88.4356536865234,-51.1516342163085,-148.8241716351843,38.17750693554341,2892784083
sw,-88.2957916259765,-52.0588340759277,-168.66398314380703,45.47648714058113,2892800750
sw,-85.3778915405273,-53.3557472229003,-180.78546273379706,51.390303960356256,2892817417
sw,-82.5502853393554,-54.7587394714355,-184.9466126999645,54.96398733610268,2892834084
sw,-79.0686645507812,-55.9186706542968,-182.02962862658592,55.7957791444066,2892850751
sw,-75.7781372070312,-56.7740592956543,-173.83183718740398,54.143329384652866,2892867418
sw,-73.3495864868164,-57.5018196105957,-162.71356049405213,50.829584142501105,2892884085
sw,-71.2682037353515,-58.3007888793945,-151.14889547770125,46.99131930851658,2892900752
sw,-69.057632446289,-59.0311660766601,-141.2468844923759,43.76210292872237,2892917419
sw,-66.7008590698242,-59.7077598571777,-134.33754429307427,41.9855162574575,2892934086
sw,-64.5264129638671,-60.3475761413574,-130.71051595829016,42.028586855135586,2892950753
sw,-62.5576210021972,-61.0849647521972,-129.5548179251287,43.730801510724426,2892967420
sw,-60.9601097106933,-61.9371337890625,-129.10987112757567,46.49036729593488,2892984087
sw,-59.157615661621,-62.8462448120117,-127.01500368811308,49.45779137583651,2893000754
sw,-56.6609420776367,-63.869155883789,-120.81720230941765,51.78106029005488,2893017421
sw,-54.4673080444335,-64.9404602050781,-108.54840821555348,52.83447152465019,2893034088
sw,-53.2082824707031,-65.8690719604492,-89.23717837913709,52.370252780630345,2893050755
sw,-52.201488494873,-66.6992568969726,-63.21963857486083,50.55781133397327,2893067422
sw,-51.5696105957031,-67.4505538940429,-32.17194346999099,47.91153346560977,2893084089
sw,-51.5674209594726,-68.1808776855468,1.1374430747923272,45.14052587945181,2893100756
sw,-52.0606575012207,-68.8980026245117,33.321121995473234,42.97001508593772,2893117423
sw,-53.0711936950683,-69.5752944946289,60.983034516132015,41.98142843355067,2893134090
sw,-54.6750183105468,-70.2731018066406,81.35059123838687,42.50337986201417,2893150757
sw,-56.7304649353027,-71.0285568237304,92.7958013884108,44.56776760708789,2893167424
sw,-58.4714469909668,-71.88037109375,95.11976787751804,47.92876262623561,2893184091
sw,-59.7813148498535,-72.7955322265625,89.52396924054416,52.12906513845784,2893200758
sw,-60.6515007019043,-73.8023147583007,78.2798293837477,56.588786836996654,2893217425
sw,-61.662239074707,-74.9012069702148,64.2000992550455,60.68944161770412,2893234092
sw,-62.6527519226074,-76.0565567016601,50.06334423238691,63.82942760430631,2893250759
sw,-63.1342048645019,-77.2399063110351,38.12851674500023,65.43742557395232,2893267426
sw,-63.3722839355468,-78.3612213134765,29.827781690401302,64.94544963902561,2893284093
sw,-63.5183563232421,-79.316162109375,25.678100311398193,61.74220311070418,2893300760
sw,-64.1255874633789,-80.0589065551757,25.409167050293703,55.14511164107035,2893317427
sw,-65.5010833740234,-80.6711502075195,28.250577527568577,44.43663681185129,2893334094
sw,-66.6626358032226,-81.1675643920898,33.2627083616043,28.996670648602667,2893350761
sw,-66.9580307006836,-81.5189971923828,39.579035596036285,8.524549790197721,2893367428
sw,-67.2199935913086,-81.6540222167968,46.48765542789005,-16.707311409177102,2893384095
sw,-68.2089080810546,-81.3194046020507,53.38467330611872,-45.66680491696713,2893400762
sw,-69.5855484008789,-80.3457565307617,59.69888853399494,-76.54520457960645,2893417429
sw,-70.7468643188476,-78.4869537353515,64.86953145955215,-106.96741182954483,2893434096
sw,-71.8834762573242,-75.7803268432617,68.39436684455457,-134.40336589300819,2893450763
sw,-73.3298187255859,-72.7331924438476,69.9186407544588,-156.6681577072147,2893467430
sw,-74.7554473876953,-69.6349487304687,69.3246921167958,-172.35405442617272,2893484097
sw,-75.9295425415039,-66.5061416625976,66.7877324757851,-181.06192025551533,2893500764
sw,-76.9708862304687,-63.2557296752929,62.77346613745795,-183.3780916526081,2893517431
sw,-77.9857635498046,-60.2522087097168,57.97052507552672,-180.63025304513445,2893534098
sw,-78.9030532836914,-57.511547088623,53.17115997419163,-174.5121399862382,2893550765
sw,-79.8465805053711,-54.8164520263671,49.12645776330227,-166.6815178518344,2893567432
sw,-80.7067413330078,-52.2890129089355,46.40468261818317,-158.4206439858833,2893584099
sw,-81.3962707519531,-49.947208404541,45.2792646575955,-150.41905313136377,2893600766
sw,-82.0197448730468,-47.5906829833984,45.671107569243325,-142.7061256473364,2893617433
sw,-82.7129364013671,-45.358959197998,47.16573053498801,-134.7306981417294,2893634100
sw,-83.5001602172851,-43.3528442382812,49.11303356507219,-125.55851727361403,2893650767
sw,-84.4259185791015,-41.470458984375,50.79418793374242,-114.1385495734687,2893667434
sw,-85.4027938842773,-39.8115653991699,51.61371319822139,-99.58054135033865,2893684101
sw,-86.2638854980468,-38.4652862548828,51.25886061477613,-81.39035960878046,2893700768
sw,-86.9238128662109,-37.6368751525878,49.77416663562396,-59.62490759405563,2893717435
sw,-87.3838653564453,-37.3512535095214,47.527433116824255,-34.951316284631574,2893734102
sw,-87.6353683471679,-37.3347969055175,45.083015458260626,-8.617036934551669,2893750769
sw,-87.6949691772461,-37.5350875854492,43.03075802066121,17.654756903349107,2893767436
sw,-87.5229873657226,-38.013500213623,41.82893542235903,41.84085767987403,2893784103
sw,-87.10498046875,-38.9700775146484,41.70372075648913,61.874026571166304,2893800770
sw,-86.5452117919921,-40.5227012634277,42.61701400731133,75.9760249718212,2893817437
sw,-85.9405899047851,-42.5100135803222,44.28772328229396,83.01781072333272,2893834104
sw,-85.3021392822265,-44.2703056335449,46.241843441091106,82.80424949859197,2893850771
sw,-84.6138839721679,-45.5833702087402,47.872230097746026,76.16869945428579,2893867438
sw,-83.8157272338867,-46.7209243774414,48.49825043943407,64.81563909299028,2893884105
sw,-82.9668960571289,-47.5974998474121,47.41975127061778,50.942995226749716,2893900772
sw,-82.1756210327148,-47.7639503479003,43.96018087611046,36.759498241802724,2893917439
sw,-81.5996856689453,-47.7138519287109,37.49756743015527,24.050844975775096,2893934106
sw,-81.2528686523437,-47.9379844665527,27.493300732833774,13.93162734298377,2893950773
sw,-81.152603149414,-48.3037185668945,13.541174443334517,6.848892279292459,2893967440
sw,-81.3044891357421,-49.3066368103027,-4.540125823622048,2.794877324055385,2893984107
sw,-81.6500473022461,-49.7739143371582,-26.56795234088871,1.5895118542372544,2894000774
sw,-82.1999435424804,-49.6522140502929,-51.84348098043716,3.069060891379054,2894017441
sw,-83.1405868530273,-49.6885070800781,-79.05488666392057,7.0888971995700345,2894034108
sw,-84.801528930664,-50.0209312438964,-106.31389014795494,13.370379820121128,2894050775
sw,-87.131607055664,-50.3192138671875,-131.37127461944263,21.31320584796923,2894067442
sw,-89.2430801391601,-50.6049575805664,-151.99063428758137,29.90775873409784,2894084109
sw,-86.7699584960937,-51.2524032592773,-166.3932849082144,37.82923639402079,2894100776
sw,-83.8496780395507,-52.416145324707,-173.65740671892775,43.71348965367989,2894117443
sw,-80.7059707641601,-53.7382659912109,-173.9692291116505,46.532522670130085,2894134110
sw,-77.1717987060546,-54.8572463989257,-168.65994107340083,45.93259520592582,2894150777
sw,-74.4154205322265,-55.6736221313476,-159.99615689326538,42.398585293712145,2894167444
sw,-72.4111633300781,-56.2463874816894,-150.73098280622557,37.17175567045132,2894184111
sw,-70.4298782348632,-56.7104835510253,-143.4847773208488,31.943388336054294,2894200778
sw,-68.0608749389648,-57.1815795898437,-140.093418842828,28.42474273423924,2894217445
sw,-65.6913604736328,-57.6522674560546,-141.09104497752512,27.922503277459306,2894234112
sw,-63.7008438110351,-58.1885261535644,-145.46459135135208,31.029449157071152,2894250779
sw,-61.9253501892089,-58.8615188598632,-150.75762027078173,37.495055897806374,2894267446
sw,-59.5884437561035,-59.6000671386718,-153.53813757701965,46.29307480537588,2894284113
sw,-56.5600662231445,-60.4243812561035,-150.16925628214295,55.86444296100775,2894300780
sw,-53.4854087829589,-61.4912643432617,-137.722384878384,64.48459366136179,2894317447
sw,-51.2234802246093,-62.9450492858886,-114.7901883598667,70.67935375641638,2894334114
sw,-50.3352622985839,-64.6421737670898,-81.95972758510845,73.59175982345775,2894350781
sw,-49.7931365966796,-66.2091674804687,-41.81482719523274,73.19460023713201,2894367448
sw,-49.6662216186523,-67.3839263916015,1.512131228125738,70.27057670710585,2894384115
sw,-50.1850280761718,-68.2190704345703,43.111137352509644,66.1516244361897,2894400782
sw,-51.3927841186523,-68.9380569458007,78.22241335703087,62.29787782947787,2894417449
sw,-53.6240348815918,-69.7300033569336,103.14849351461025,59.85955458039934,2894434116
sw,-56.3913383483886,-70.6420822143554,115.96654693623745,59.36707386044975,2894450783
sw,-58.987018585205,-71.6719894409179,116.85936405285008,60.6376223855232,2894467450
sw,-60.6674194335937,-72.8169250488281,107.94956649477076,62.90258839304185,2894484117
sw,-60.7630920410156,-74.0965042114257,92.67036149306333,65.08719281866206,2894500784
sw,-61.7560920715332,-75.4490890502929,74.88053661360624,66.13335662489399,2894517451
sw,-62.8436012268066,-76.8337860107421,58.023559770014735,65.25413636648172,2894534118
sw,-63.605182647705,-78.1042556762695,44.5750949150638,62.03855883154328,2894550785
sw,-64.2386703491211,-79.0382919311523,35.865345758803656,56.38146139529994,2894567452
sw,-64.9017257690429,-79.5513076782226,32.21049839436522,48.281450165322,2894584119
sw,-66.3931655883789,-79.7188034057617,33.20641362599283,37.610522781082366,2894600786
sw,-67.6231536865234,-79.8345336914062,38.025883722913,23.983817430879096,2894617453
sw,-67.8013687133789,-79.9843521118164,45.60612835801031,6.825837889785266,2894634120
sw,-67.7571334838867,-80.1666259765625,54.710744925274376,-14.356845576658895,2894650787
sw,-68.7364196777343,-80.128921508789,63.95606339008536,-39.592123940880114,2894667454
sw,-70.6817626953125,-79.4943695068359,71.92090928600041,-68.11597246920932,2894684121
sw,-72.7303237915039,-78.0045089721679,77.37488602573929,-98.26793531261312,2894700788
sw,-74.0004653930664,-75.688003540039,79.53903222624473,-127.69004406301362,2894717455
sw,-75.3136520385742,-72.6592483520507,78.24808979505704,-153.78531112358357,2894734122
sw,-76.7799301147461,-69.3654327392578,73.94321080188324,-174.28524805699757,2894750789
sw,-77.738784790039,-66.0047149658203,67.51630610376732,-187.73747037011853,2894767456
sw,-78.5467529296875,-62.4586639404296,60.07971147728066,-193.76515686386216,2894784123
sw,-79.5351409912109,-59.2648811340332,52.736557091365036,-193.04067700461917,2894800790
sw,-80.5167465209961,-56.4538192749023,46.401592375384105,-187.0108968769904,2894817457
sw,-81.2933731079101,-53.6247024536132,41.68963042152062,-177.47709722768204,2894834124
sw,-81.8709030151367,-50.905345916748,38.86562167863995,-166.1538882794716,2894850791
sw,-82.4765014648437,-48.4786224365234,37.84682843292486,-154.31314499165424,2894867458
sw,-83.1295623779296,-46.1690979003906,38.25531781836024,-142.57911606821796,2894884125
sw,-83.8179092407226,-44.1533470153808,39.51986221274348,-130.89962774104794,2894900792
sw,-84.4996795654296,-42.2254066467285,41.01455644630264,-118.68347859794858,2894917459
sw,-85.2949752807617,-40.4308471679687,42.20645398081593,-105.062948715003,2894934126
sw,-86.1733169555664,-38.8275718688964,42.77621601287717,-89.21302091843371,2894950793
sw,-86.9566955566406,-37.4750938415527,42.67760845275251,-70.64435163789463,2894967460
sw,-87.5302658081054,-36.7574157714843,42.115316666410884,-49.39644252752945,2894984127
sw,-87.9104385375976,-36.682144165039,41.44638111585851,-26.09337461647075,2895000794
sw,-88.1209106445312,-36.9169387817382,41.04077276486235,-1.8727715022386462,2895017461
sw,-88.1948547363281,-37.4183464050293,41.15462878858972,21.767609700477305,2895034128
sw,-88.0274200439453,-37.9138565063476,41.86224602133551,43.16205453575692,2895050795
sw,-87.5987319946289,-38.7256088256835,43.062733461888016,60.69104358816168,2895067462
sw,-87.0094528198242,-40.1914634704589,44.541824134082816,73.0192268509916,2895084129
sw,-86.3403930664062,-41.9792404174804,46.048145754905356,79.3416066570126,2895100796
sw,-85.5918502807617,-43.6184959411621,47.34465140308985,79.5794982060881,2895117463
sw,-84.7754287719726,-44.7535324096679,48.214458546660474,74.44387717451326,2895134130
sw,-83.985366821289,-46.2490501403808,48.42359087562427,65.31153187295519,2895150797
sw,-83.2435836791992,-47.0448760986328,47.66083369095003,53.92752436300802,2895167464
sw,-82.4864501953125,-46.9954528808593,45.483246870499045,42.018954851787335,2895184131
sw,-81.813003540039,-47.114501953125,41.29553049232168,30.950800685689654,2895200798
sw,-81.3754730224609,-47.4943618774414,34.38494322853123,21.552370567840317,2895217465
sw,-81.1219711303711,-48.0181236267089,24.023548790960223,14.17496944528386,2895234132
sw,-80.9999237060546,-49.1654968261718,9.636084208844325,8.925381413707333,2895250799
sw,-81.0142364501953,-49.7373085021972,-8.989071165210072,5.922027124736235,2895267466
sw,-81.2555389404296,-49.5605201721191,-31.496549244645554,5.4111695897655965,2895284133
sw,-81.8813858032226,-49.5887603759765,-56.842387461422604,7.672640832079881,2895300800
sw,-83.151008605957,-49.914451599121,-83.32629716464089,12.777088595861517,2895317467
sw,-85.1927490234375,-50.2862129211425,-108.80989324411135,20.34062662046326,2895334134
sw,-87.7650680541992,-50.7774658203125,-131.08513279940715,29.416080791997295,2895350801
sw,-89.4849014282226,-51.3654022216796,-148.29487789312807,38.590802967035074,2895367468
sw,-86.6151657104492,-52.4025840759277,-159.2870912811782,46.278423935084,2895384135
sw,-83.9767303466796,-53.7014389038085,-163.81662120330213,51.12214560987198,2895400802
sw,-80.9623870849609,-54.8640213012695,-162.56723961044085,52.38187064990633,2895417469
sw,-77.844253540039,-55.7995719909668,-157.00956352297717,50.17307941839599,2895434136
sw,-75.517822265625,-56.5444946289062,-149.12195440770373,45.471944507343835,2895450803
sw,-73.6414489746093,-57.214859008789,-141.00682248767032,39.88139694035387,2895467470
sw,-71.6900634765625,-57.7579193115234,-134.46132554256843,35.228934237928456,2895484137
sw,-69.4352722167968,-58.2287139892578,-130.59399076799176,33.10972914639708,2895500804
sw,-67.1885681152343,-58.714916229248,-129.57812162546554,34.49321915834827,2895517471
sw,-65.1042327880859,-59.270580291748,-130.59211752589493,39.48794933321543,2895534138
sw,-63.2485694885253,-60.0384712219238,-131.94981739184945,47.31874361136085,2895550805
sw,-61.3304214477539,-61.0249252319335,-131.39835326650032,56.52025201136387,2895567472
sw,-59.1866073608398,-62.1716117858886,-126.54847943623055,65.30016066833824,2895584139
sw,-57.1332244873046,-63.5732688903808,-115.38071600423822,71.98403148111791,2895600806
sw,-55.4963684082031,-65.207534790039,-96.73932411607726,75.43077923102317,2895617473
sw,-54.4146080017089,-66.7980346679687,-70.70828557425972,75.30949147708488,2895634140
sw,-53.6720008850097,-68.0462036132812,-38.776629051942805,72.15947971439927,2895650807
sw,-53.3586196899414,-69.0009155273437,-3.7371099908555845,67.21554920249945,2895667474
sw,-53.671646118164,-69.8655242919921,30.695047620709058,62.05361779267386,2895684141
sw,-54.5133781433105,-70.7151489257812,60.51050669996274,58.16732959077674,2895700808
sw,-56.1695518493652,-71.5568161010742,82.18834220101017,56.598757220943845,2895717475
sw,-58.7812385559082,-72.4453887939453,93.4674641461143,57.71513050667542,2895734142
sw,-61.0828895568847,-73.4759063720703,93.88925401558708,61.16958402515854,2895750809
sw,-62.7053985595703,-74.6832122802734,84.91355766734821,66.0300513994419,2895767476
sw,-63.0825271606445,-76.0427169799804,69.53245100931726,71.02001087209277,2895784143
sw,-63.4770278930664,-77.4693756103515,51.49248148984745,74.79384355828664,2895800810
sw,-63.8405494689941,-78.8773422241211,34.386222575701034,76.17106800664618,2895817477
sw,-64.0288543701171,-80.1958236694336,20.902515075316416,74.27650717150146,2895834144
sw,-64.23486328125,-81.4257431030273,12.431314717786192,68.57004231622996,2895850811
sw,-64.1697311401367,-82.3516616821289,9.073443244383535,58.78835977304171,2895867478
sw,-64.9554367065429,-82.8502731323242,9.975815274604988,44.85109618432774,2895884145
sw,-66.228157043457,-83.107925415039,13.827539912217613,26.796410927012488,2895900812
sw,-66.5131530761718,-83.2025146484375,19.324142210837074,4.798236288767586,2895917479
sw,-66.3058700561523,-83.1694183349609,25.45273784862808,-20.72421231289203,2895934146
sw,-66.8444900512695,-82.8572692871093,31.559767378588745,-48.95285083325786,2895950813
sw,-67.8499069213867,-81.9819793701171,37.268991849693975,-78.56723902674936,2895967480
sw,-68.6764984130859,-80.3526000976562,42.352419788459144,-107.78626948009139,2895984147
sw,-69.1954345703125,-77.7937927246093,46.62520668586109,-134.5950269544871,2896000814
sw,-70.0691909790039,-74.7267074584961,49.894927508588864,-157.1090444028284,2896017481
sw,-71.2958526611328,-71.6017227172851,51.97459047225818,-173.95580427359275,2896034148
sw,-72.20556640625,-68.4372406005859,52.75129333104186,-184.53921286341304,2896050815
sw,-73.0249252319336,-65.1475448608398,52.27924665981446,-189.102916179986,2896067482
sw,-74.0829238891601,-62.0372238159179,50.85227265053248,-188.58805332086965,2896084149
sw,-75.1360244750976,-59.1005744934082,49.016320870186,-184.3459419105682,2896100816
sw,-75.8852310180664,-56.2103233337402,47.500034957565,-177.7946030869478,2896117483
sw,-76.5574188232421,-53.4759635925293,47.06584342029749,-170.10439181075787,2896134150
sw,-77.3058929443359,-51.0191078186035,48.31383117799436,-161.97692589530277,2896150817
sw,-78.0613632202148,-48.607608795166,51.4946135856997,-153.55477352497027,2896167484
sw,-78.8484725952148,-46.0928039550781,56.391537184985744,-144.47058411004667,2896184151
sw,-79.7062149047851,-43.8626556396484,62.31604420165649,-134.0130427879906,2896200818
sw,-80.7747421264648,-41.9136619567871,68.23199494915346,-121.35946614553887,2896217485
sw,-82.0505294799804,-40.1541557312011,72.99067305914838,-105.81404233774211,2896234152
sw,-83.4120330810546,-38.6960792541503,75.62135979491426,-87.001534139211,2896250819
sw,-84.6886901855468,-37.7736701965332,75.59394050790195,-64.98973317513499,2896267486
sw,-85.7405319213867,-37.4454879760742,72.96789034007567,-40.33839478906328,2896284153
sw,-86.4803009033203,-37.3885650634765,68.37574235302208,-14.089260253783648,2896300820
sw,-86.9670715332031,-37.4781227111816,62.847420298028446,12.28834864764232,2896317487
sw,-87.1484375,-37.7780227661132,57.536487155008295,37.00261116760493,2896334154
sw,-87.0166625976562,-38.5694847106933,53.43424908351714,58.12486642898551,2896350821
sw,-86.5559997558593,-40.0819969177246,51.14584352263259,73.87862983248307,2896367488
sw,-85.9006958007812,-42.1970176696777,50.767928479304274,83.00051658567376,2896384155
sw,-85.2124328613281,-44.0268783569335,51.872520568660555,85.0690335552504,2896400822
sw,-84.4589309692382,-45.4601211547851,53.58078143817294,80.66541125838,2896417489
sw,-83.6361923217773,-46.7955780029296,54.704103798679924,71.2768936299408,2896434156
sw,-82.806037902832,-47.7497863769531,53.927852487185426,58.95526389685094,2896450823
sw,-81.9465560913086,-48.0291137695312,50.009048439077,45.84285856814706,2896467490
sw,-81.2656707763671,-48.0825843811035,41.95692622203247,33.72935912426924,2896484157
sw,-80.8917388916015,-48.5183525085449,29.172130222458815,23.78885587134073,2896500824
sw,-80.8064956665039,-49.2611961364746,11.536395621555172,16.568308444470894,2896517491
sw,-81.0226364135742,-50.3472137451171,-10.540621154605716,12.180013979885237,2896534158
sw,-81.4733200073242,-50.7418632507324,-36.11003721965073,10.553044768823163,2896550825
sw,-82.235855102539,-50.720905303955,-63.71644331284553,11.587084404915755,2896567492
sw,-83.5333480834961,-51.0323028564453,-91.5010266523804,15.136319607992213,2896584159
sw,-85.5955352783203,-51.453197479248,-117.39930174873167,20.869046961661486,2896600826
sw,-88.282974243164,-51.7800750732421,-139.42471274374313,28.121591849790043,2896617493
sw,-88.6913452148437,-52.2965698242187,-155.9822696395196,35.86233071428742,2896634160
sw,-85.8486709594726,-53.126594543457,-166.13062861332938,42.82444568854693,2896650827
sw,-83.1679458618164,-54.2988815307617,-169.72918248248527,47.78809345581556,2896667494
sw,-80.1090927124023,-55.5772247314453,-167.45242908927688,49.921078533781916,2896684161
sw,-77.0645370483398,-56.5958709716796,-160.68647560731293,49.04958956140312,2896700828
sw,-74.6364822387695,-57.3598670959472,-151.32346244215478,45.748737390076016,2896717495
sw,-72.6348724365234,-57.9903831481933,-141.46357317542078,41.21121496055285,2896734162
sw,-70.5754699707031,-58.5545654296875,-133.05127794322,36.93614617129431,2896750829
sw,-68.3330764770507,-59.0666770935058,-127.50336776044767,34.33857995977056,2896767496
sw,-66.0766448974609,-59.5627479553222,-125.39828567527685,34.39440055932666,2896784163
sw,-64.0954666137695,-60.1340293884277,-126.28274427652087,37.412586931815504,2896800830
sw,-62.6318664550781,-60.8827781677246,-128.63880224345084,42.98384052872651,2896817497
sw,-61.1194419860839,-61.8076133728027,-130.0567635807566,50.10612324572851,2896834164
sw,-59.0417823791503,-62.8489341735839,-127.65016545376695,57.44456388051107,2896850831
sw,-56.611343383789,-64.0183410644531,-118.69096919608404,63.65472813106581,2896867498
sw,-54.3722381591796,-65.3289337158203,-101.34155952489607,67.68946864070875,2896884165
sw,-53.1070976257324,-66.6511077880859,-75.27715094119411,69.01923226085198,2896900832
sw,-52.3321800231933,-67.8570938110351,-41.99230269813809,67.71931549150585,2896917499
sw,-52.1451568603515,-68.9105834960937,-4.674067393939706,64.41077813984515,2896934166
sw,-52.6835021972656,-69.8708038330078,32.34956825420592,60.078340130438455,2896950833
sw,-53.9425048828125,-70.7476577758789,64.46644014692741,55.818245600660894,2896967500
sw,-55.8435554504394,-71.5795059204101,87.74601649677729,52.581901121481444,2896984167
sw,-58.3001747131347,-72.3508758544921,99.77869503719785,50.974823044156636,2897000834
sw,-60.4177589416503,-73.1145858764648,100.16462294976527,51.150776142659154,2897017501
sw,-62.0909767150878,-74.0019226074218,90.51010401705904,52.81535573420643,2897034168
sw,-62.0958786010742,-75.0315551757812,73.93772179798869,55.32632542499984,2897050835
sw,-62.879165649414,-76.1160354614257,54.27922617022445,57.85360848755677,2897067502
sw,-63.6649169921875,-77.2816085815429,35.215550151299105,59.54625930342259,2897084169
sw,-63.7855377197265,-78.4793701171875,19.605268842938052,59.653970550578954,2897100836
sw,-63.7567825317382,-79.5669631958007,9.133510162725694,57.56929636575154,2897117503
sw,-63.615924835205,-80.3628311157226,4.296117836653638,52.79024350512387,2897134170
sw,-64.3640899658203,-80.8324127197265,4.65014748635486,44.84213172043076,2897150837
sw,-65.4052581787109,-81.1203308105468,9.204336456403444,33.22718340985854,2897167504
sw,-65.5392150878906,-81.3375091552734,16.79552863449505,17.47066667348102,2897184171
sw,-65.5085372924804,-81.5511779785156,26.32970730674333,-2.7079325245825996,2897200838
sw,-66.0748748779296,-81.5601501464843,36.85900697630134,-27.140266911318147,2897217505
sw,-67.1166610717773,-81.157241821289,47.55594710126567,-54.977733477324826,2897234172
sw,-68.3222732543945,-80.0909271240234,57.66917465126167,-84.61058148117569,2897250839
sw,-69.297004699707,-78.1226043701171,66.5084608407919,-113.82110203697779,2897267506
sw,-70.4911041259765,-75.404556274414,73.4665255035563,-140.1615871534429,2897284173
sw,-72.1357879638671,-72.3530883789062,78.07012926858853,-161.44978680459954,2897300840
sw,-73.8173828125,-69.2253646850586,80.04670489230966,-176.22189513094116,2897317507
sw,-75.157470703125,-66.1361236572265,79.38142793769559,-184.00184743697704,2897334174
sw,-76.3069610595703,-62.811050415039,76.33619914309901,-185.32026123236804,2897350841
sw,-77.4855117797851,-59.7653503417968,71.4190074127124,-181.50252526846376,2897367508
sw,-78.6366729736328,-57.0659675598144,65.3156452596814,-174.30525051521778,2897384175
sw,-79.7912292480468,-54.3767433166503,58.80343784745905,-165.50257894911215,2897400842
sw,-80.8464202880859,-51.8252830505371,52.65697755703007,-156.51656895734732,2897417509
sw,-81.6451797485351,-49.488353729248,47.54647125177218,-148.1606077900956,2897434176
sw,-82.2314071655273,-47.2244186401367,43.93427136070309,-140.53296688543935,2897450843
sw,-82.7661743164062,-45.1280441284179,41.991382234284984,-133.06818737877384,2897467510
sw,-83.3705444335937,-43.1371574401855,41.56735844133178,-124.72857476748206,2897484177
sw,-84.0746688842773,-41.1769218444824,42.23947008496334,-114.29406114845986,2897500844
sw,-84.8402633666992,-39.4092216491699,43.43934241329733,-100.68776820500607,2897517511
sw,-85.6182327270507,-38.0037040710449,44.621393625731336,-83.26510716131662,2897534178
sw,-86.3602981567382,-37.1329116821289,45.41614297575921,-62.005285921134444,2897550845
sw,-86.9534835815429,-36.8372840881347,45.71496055878186,-37.57595031834786,2897567512
sw,-87.3487854003906,-36.8534545898437,45.66072015660469,-11.27976616749123,2897584179
sw,-87.5865402221679,-37.0705032348632,45.55831274537416,15.08659901050338,2897600846
sw,-87.6198577880859,-37.5142173767089,45.74961770377116,39.43703435582046,2897617513
sw,-87.3143081665039,-38.3180847167968,46.50229601524703,59.66059733645716,2897634180
sw,-86.7284622192382,-39.703556060791,47.94022255453297,73.94611978405105,2897650847
sw,-86.0031585693359,-41.6639862060546,50.013423196004176,81.13283594098961,2897667514
sw,-85.2545928955078,-43.4569511413574,52.488586267047474,80.99795918072367,2897684181
sw,-84.5134887695312,-44.8650970458984,54.94557288277878,74.36378486684326,2897700848
sw,-83.7011947631836,-45.8922309875488,56.781557336711366,62.94587883877015,2897717515
sw,-82.7893142700195,-46.5532989501953,57.23593964852574,48.962288991414866,2897734182
sw,-81.8178482055664,-46.6146278381347,55.44625309519526,34.62744793318631,2897750849
sw,-81.0082931518554,-46.5573959350585,50.53302196746318,21.706895064851714,2897767516
sw,-80.4614181518554,-46.8073425292968,41.70412572187598,11.284760603625003,2897784183
sw,-80.1495056152343,-47.1199722290039,28.373747748049645,3.8034928377157455,2897800850
sw,-80.0563812255859,-48.0798072814941,10.29767378565143,-0.6883481670210506,2897817517
sw,-80.0887069702148,-48.6008148193359,-12.28114909824084,-2.2400362678722714,2897834184
sw,-80.4324645996093,-48.4388351440429,-38.5092104728757,-0.8261178015051308,2897850851
sw,-81.239517211914,-48.4769706726074,-66.88103442358302,3.614974039839403,2897867518
sw,-82.7520217895507,-48.6890029907226,-95.34102163809783,10.97299439068693,2897884185
sw,-85.0287017822265,-48.9986038208007,-121.55063877737726,20.72451918024283,2897900852
sw,-87.843147277832,-49.3481750488281,-143.2769940421367,31.8057817260734,2897917519
sw,-89.127326965332,-49.8830108642578,-158.80280268690674,42.691128376601235,2897934186
sw,-86.232307434082,-51.0337867736816,-167.24708107275043,51.683786908674,2897950853
sw,-83.5372314453125,-52.5090675354003,-168.72550061471563,57.34093842304752,2897967520
sw,-80.2632827758789,-53.8440513610839,-164.33537199839222,58.892758658103595,2897984187
sw,-77.0486907958984,-54.9585037231445,-155.9794141866329,56.50255917640118,2898000854
sw,-74.8919982910156,-55.750633239746,-146.0407548672902,51.267069125348144,2898017521
sw,-73.2618103027343,-56.3734397888183,-136.9319375357583,44.951181514640105,2898034188
sw,-71.4089584350586,-56.9639320373535,-130.59125700359442,39.54291388255149,2898050855
sw,-69.2790756225586,-57.5461349487304,-128.0523444784383,36.76264892334446,2898067522
sw,-67.0537338256836,-58.149055480957,-129.2067586728262,37.657182538432046,2898084189
sw,-64.8016510009765,-58.8155326843261,-132.81082913593693,42.37073024705399,2898100856
sw,-62.7073440551757,-59.6332893371582,-136.71213585303596,50.1348357720826,2898117523
sw,-60.7440071105957,-60.6000061035156,-138.23459407966385,59.470989433042526,2898134190
sw,-58.7434196472168,-61.7659149169921,-134.66233717283816,68.55758592064227,2898150857
sw,-56.6506385803222,-63.248291015625,-123.7689996297089,75.67777769770274,2898167524
sw,-54.7362098693847,-64.9551849365234,-104.32618954752323,79.64095258583093,2898184191
sw,-53.3930931091308,-66.580337524414,-76.49852946759479,80.0670454892124,2898200858
sw,-52.4927825927734,-67.9321212768554,-42.01980436756283,77.4507133907881,2898217525
sw,-52.253318786621,-68.9998931884765,-4.0666735425445815,72.98381010365887,2898234192
sw,-52.6368179321289,-69.8938293457031,33.19772093103192,68.19191837424943,2898250859
sw,-53.6063385009765,-70.8018112182617,65.36155636324578,64.50070762366823,2898267526
sw,-55.592300415039,-71.7640914916992,88.6506269594315,62.86308060155189,2898284193
sw,-58.3400764465332,-72.7586441040039,100.75404709067193,63.54541041421634,2898300860
sw,-60.8340454101562,-73.8322525024414,101.34539165032338,66.11099526250105,2898317527
sw,-62.4481735229492,-75.1339874267578,92.10799114878509,69.57764397154808,2898334194
sw,-62.1933822631835,-76.5880889892578,76.23171318099341,72.6815886177009,2898350861
sw,-63.0043296813964,-78.0168151855468,57.55500129867152,74.15928735675566,2898367528
sw,-63.5977897644043,-79.3948516845703,39.6602477908612,72.9654203049161,2898384195
sw,-63.864761352539,-80.6150665283203,25.208916588976756,68.37788104086404,2898400862
sw,-64.0689544677734,-81.6002426147461,15.657404296382419,59.987891997444926,2898417529
sw,-64.7559967041015,-82.2345428466796,11.32999035876615,47.61790377357008,2898434196
sw,-65.8337173461914,-82.54541015625,11.71547615414749,31.235713857596355,2898450863
sw,-66.0385589599609,-82.5970840454101,15.818394921514097,10.930705542938659,2898467530
sw,-65.7687377929687,-82.5222091674804,22.435334879521523,-13.014924438733404,2898484197
sw,-66.0936813354492,-82.2605361938476,30.32121039065428,-39.9822901200714,2898500864
sw,-67.0470733642578,-81.5855026245117,38.29399462115941,-68.87650750727747,2898517531
sw,-68.3707199096679,-80.1895523071289,45.33607728759329,-98.09220173494862,2898534198
sw,-69.2839813232421,-77.8836517333984,50.69763198949235,-125.65320735100482,2898550865
sw,-69.9575500488281,-75.0354537963867,53.964849680069214,-149.5193811862439,2898567532
sw,-70.987564086914,-72.0046768188476,55.06757771531088,-167.9726969853724,2898584199
sw,-72.1187286376953,-68.9420394897461,54.23918352996905,-179.95756297493756,2898600866
sw,-72.9519271850586,-65.6645812988281,51.957888373344026,-185.27367092382352,2898617533
sw,-73.7673873901367,-62.3252983093261,48.8847647915833,-184.57875657394635,2898634200
sw,-74.7227706909179,-59.365062713623,45.79406341155576,-179.21458237255007,2898650867
sw,-75.5658111572265,-56.597240447998,43.48419110742146,-170.90369835313544,2898667534
sw,-76.2737884521484,-53.9612693786621,42.662586579796915,-161.38172588055085,2898684201
sw,-77.0093078613281,-51.5699577331543,43.81205711390109,-152.03784362996615,2898700868
sw,-77.7302627563476,-49.3880805969238,47.06560436062998,-143.63549211289882,2898717535
sw,-78.4822311401367,-47.2483482360839,52.130444785666064,-136.17341008645283,2898734202
sw,-79.3326950073242,-45.1329078674316,58.29941341254267,-128.92155886606787,2898750869
sw,-80.3461380004882,-43.2070426940918,64.56793422449653,-120.62839407838553,2898767536
sw,-81.6131591796875,-41.3783149719238,69.84297249535308,-109.85481497080457,2898784203
sw,-83.0173110961914,-39.7648200988769,73.19587162738978,-95.36042877858942,2898800870
sw,-84.3326568603515,-38.485725402832,74.08678866534855,-76.45845234227139,2898817537
sw,-85.5141067504882,-37.7054023742675,72.48903935934571,-53.266272648228444,2898834204
sw,-86.5406799316406,-37.3584365844726,68.87257063154568,-26.80325151581316,2898850871
sw,-87.2574081420898,-37.3178672790527,64.05552534292416,1.083757834938436,2898867538
sw,-87.6449890136718,-37.6935882568359,58.97825019123037,27.962463998709016,2898884205
sw,-87.7425003051757,-38.5563621520996,54.47456834899141,51.20024532061922,2898900872
sw,-87.4836349487304,-39.9653854370117,51.103723996322394,68.44202229638195,2898917539
sw,-86.9501495361328,-41.7964134216308,49.07240008415128,78.09302411194527,2898934206
sw,-86.3013839721679,-43.6391410827636,48.23982291144937,79.68424979383896,2898950873
sw,-85.6325531005859,-45.1254005432128,48.17822514314588,73.99887828601413,2898967540
sw,-84.9061889648437,-46.1845207214355,48.25934072509025,62.89444629451004,2898984207
sw,-84.098403930664,-46.9696006774902,47.74519713944202,48.85453862659767,2899000874
sw,-83.2523880004882,-47.3917922973632,45.86794541775771,34.4006926402118,2899017541
sw,-82.4984970092773,-47.1403007507324,41.888147334119566,21.54691030355436,2899034208
sw,-81.9654464721679,-47.2069396972656,35.13003898595599,11.466907706588854,2899050875
sw,-81.7115173339843,-47.3981208801269,25.008455272600326,4.470495479351822,2899067542
sw,-81.7283477783203,-47.9224700927734,11.077530468763731,0.26814049690654784,2899084209
sw,-81.9531631469726,-48.9140243530273,-6.8689186663114805,-1.617203239512066,2899100876
sw,-82.2659378051757,-49.0834503173828,-28.641907845863045,-1.4949138420699253,2899117543
sw,-82.6765213012695,-48.7753257751464,-53.49078110290271,0.6258684340366863,2899134210
sw,-83.5811538696289,-48.8334350585937,-80.01316372410923,4.906742451223634,2899150877
sw,-85.4386825561523,-49.111946105957,-106.23314524016241,11.389497407240698,2899167544
sw,-88.0429534912109,-49.2236747741699,-129.88515492712637,19.716711258437016,2899184211
sw,-89.0018157958984,-49.5193824768066,-148.84913233789766,29.012983278785388,2899200878
sw,-85.9778137207031,-50.3518981933593,-161.60881230115865,37.99536272074787,2899217545
sw,-83.1871261596679,-51.6643714904785,-167.5950365506461,45.285627461452464,2899234212
sw,-80.2139129638671,-52.9367904663085,-167.3251185402906,49.81387896175245,2899250879
sw,-76.8648452758789,-53.98828125,-162.31174467680083,51.16042960643773,2899267546
sw,-74.4009857177734,-54.864086151123,-154.75620689592643,49.705105042880376,2899284213
sw,-72.5362548828125,-55.6009483337402,-147.07110549828604,46.53173422946598,2899300880
sw,-70.6100997924804,-56.2250442504882,-141.32201667085155,43.12847491006983,2899317547
sw,-68.3412170410156,-56.8560676574707,-138.72265556719776,40.98790719467694,2899334214
sw,-66.0348663330078,-57.5290641784668,-139.31931278243945,41.226662750385564,2899350881
sw,-63.6832160949707,-58.2919235229492,-141.94340030924772,44.32072347457429,2899367548
sw,-61.3908081054687,-59.1634330749511,-144.43273460824224,50.00889567449587,2899384215
sw,-59.3290710449218,-60.1250762939453,-144.0659075970493,57.37203853192661,2899400882
sw,-57.1571235656738,-61.1277885437011,-138.12844352773132,65.06058505365219,2899417549
sw,-54.696548461914,-62.3423957824707,-124.51606114640221,71.61935102300598,2899434216
sw,-52.9064483642578,-63.8830413818359,-102.26586508103644,75.84165227700399,2899450883
sw,-51.8807907104492,-65.5415725708007,-71.90117345991526,77.07148458248997,2899467550
sw,-51.1514816284179,-67.0282440185546,-35.49976897393324,75.37092569629482,2899484217
sw,-50.94868850708,-68.2044906616211,3.5523178764971535,71.49513474142,2899500884
sw,-51.4316864013671,-69.1539459228515,41.099662102189306,66.6733125952326,2899517551
sw,-52.6475219726562,-69.9881973266601,72.969613369015,62.26049354067012,2899534218
sw,-54.9962005615234,-70.8379287719726,95.79605371022515,59.36871024043256,2899550885
sw,-57.6886940002441,-71.7550506591796,107.71409647988865,58.585731676102434,2899567552
sw,-60.1111145019531,-72.7530670166015,108.71215911324781,59.84983603912581,2899584219
sw,-61.3164863586425,-73.8771438598632,100.50829327748784,62.49268858167528,2899600886
sw,-61.4051513671875,-75.06494140625,85.98803250669295,65.41323186415947,2899617553
sw,-62.5757293701171,-76.3224029541015,68.41917811954193,67.31729694274557,2899634220
sw,-63.5510177612304,-77.6829452514648,50.731746212595716,66.95278493830416,2899650887
sw,-64.049690246582,-78.9201202392578,35.074879089045055,63.28463828587769,2899667554
sw,-64.3991241455078,-79.8773880004882,22.705495564134438,55.582130262589615,2899684221
sw,-65.1639556884765,-80.4466323852539,14.130376584034419,43.427438032717546,2899700888
sw,-66.1328964233398,-80.6701354980468,9.36052529814652,26.688162183225145,2899717555
sw,-66.0586242675781,-80.6623458862304,8.138140963140836,5.510221217088077,2899734222
sw,-65.5740356445312,-80.5444641113281,10.054442679530377,-19.632391973780084,2899750889
sw,-65.6957397460937,-80.1768112182617,14.569458804914388,-47.8440316516354,2899767556
sw,-66.4947357177734,-79.3150024414062,21.01092933843145,-77.735615662421,2899784223
sw,-67.6891021728515,-77.6874618530273,28.615492649539277,-107.46004323608368,2899800890
sw,-68.4114303588867,-75.2367782592773,36.60752812961839,-134.90674018078755,2899817557
sw,-68.6561508178711,-72.350471496582,44.27010858646669,-158.03400982202533,2899834224
sw,-69.6691284179687,-69.2091674804687,50.98549633306288,-175.24694034058268,2899850891
sw,-70.9803390502929,-65.8950424194336,56.26467885327521,-185.70103931959574,2899867558
sw,-72.0232009887695,-62.5101509094238,59.78890644235741,-189.4383866359947,2899884225
sw,-73.0549011230468,-59.4280090332031,61.45468808139882,-187.3229096082117,2899900892
sw,-74.1521835327148,-56.5570068359375,61.392768993040626,-180.8035381491899,2899917559
sw,-75.2207336425781,-53.7618370056152,59.9412321859545,-171.57632809400195,2899934226
sw,-76.2797241210937,-51.0956115722656,57.57428524859011,-161.22994738097057,2899950893
sw,-77.2614212036132,-48.7093772888183,54.802418197219225,-150.94716530280468,2899967560
sw,-78.0883026123046,-46.4788284301757,52.0662662062819,-141.31223424152213,2899984227
sw,-78.7855148315429,-44.4075813293457,49.65134014345253,-132.25234751235197,2900000894
sw,-79.4109878540039,-42.4836692810058,47.65262176830409,-123.1209978715339,2900017561
sw,-80.2097015380859,-40.5868072509765,46.009405637682406,-112.906563940755,2900034228
sw,-81.1805572509765,-38.842544555664,44.60633945488107,-100.52155690824894,2900050895
sw,-82.1279678344726,-37.334228515625,43.4029721378327,-85.10634530373495,2900067562
sw,-82.9809951782226,-36.3150215148925,42.53112709828425,-66.27791221365041,2900084229
sw,-83.6837615966796,-35.8728256225585,42.30643080894673,-44.27442612442355,2900100896
sw,-84.2172470092773,-35.797737121582,43.13845660780506,-19.981038298789827,2900117563
sw,-84.7369842529296,-35.9127464294433,45.37297450505988,5.149679470948275,2900134230
sw,-85.3873138427734,-36.1972579956054,49.132365911111634,29.264537434821335,2900150897
sw,-86.1171798706054,-36.906494140625,54.219770177564,50.35773673333633,2900167564
sw,-86.7874069213867,-38.323631286621,60.12237301374861,66.5945309055102,2900184231
sw,-87.2560501098632,-40.1072006225585,66.1082899353207,76.6719458863663,2900200898
sw,-87.2601928710937,-41.8740310668945,71.37926820462357,80.12599563127122,2900217565
sw,-86.653091430664,-43.2657470703125,75.22639822768505,77.47012633828717,2900234232
sw,-85.6814880371093,-44.5477294921875,77.137133384665,70.08728768252168,2900250899
sw,-84.6275100708007,-45.3958168029785,76.81701571045471,59.88652605866427,2900267566
sw,-83.6234817504882,-45.8534851074218,74.1180369141348,48.82806836263851,2900284233
sw,-82.7466659545898,-45.9876289367675,68.90336470445497,38.47616067935384,2900300900
sw,-82.0116577148437,-46.2641792297363,60.912573139406526,29.735394799279618,2900317567
sw,-81.3917083740234,-46.6836128234863,49.704602148085016,22.859372538629344,2900334234
sw,-80.8986282348632,-47.7434196472168,34.734908598638384,17.70617152479809,2900350901
sw,-80.4919662475586,-48.9279327392578,15.571086490671114,14.099340539846372,2900367568
sw,-80.2713928222656,-49.1407051086425,-7.8137504464053436,12.100394548376528,2900384235
sw,-80.5397415161132,-49.1595039367675,-34.78012395483019,12.050507800111426,2900400902
sw,-81.4194946289062,-49.6115989685058,-63.9120985189973,14.371098194840817,2900417569
sw,-82.9758605957031,-50.1065444946289,-93.13198393238264,19.240595309091248,2900434236
sw,-85.2921829223632,-50.5137634277343,-120.03233333418692,26.313087332920638,2900450903
sw,-88.1086654663086,-50.8780937194824,-142.33406868043545,34.610128524434735,2900467570
sw,-88.6042251586914,-51.656925201416,-158.33288000465691,42.64416611579016,2900484237
sw,-86.0604019165039,-52.8983612060546,-167.20982771819848,48.75267417434098,2900500904
sw,-83.6183166503906,-54.2215347290039,-169.14746850034322,51.54677630325399,2900517571
sw,-80.5637664794921,-55.2690811157226,-165.26544783408028,50.327142059355445,2900534238
sw,-77.2317810058593,-56.1144866943359,-157.41933654639809,45.32354205049372,2900550905
sw,-75.0550003051757,-56.7040252685546,-147.8896381891101,37.67840695071503,2900567572
sw,-73.2825775146484,-57.1697769165039,-138.97597009536418,29.18582229659959,2900584239
sw,-71.2312774658203,-57.5340995788574,-132.54495191197583,21.87056095265537,2900600906
sw,-69.0163803100586,-57.8284187316894,-129.62960725997627,17.523351607231444,2900617573
sw,-66.7511367797851,-58.0814552307128,-130.1837483017659,17.302531494522828,2900634240
sw,-64.6303558349609,-58.3718566894531,-133.04857777232746,21.484759495828573,2900650907
sw,-62.8221359252929,-58.846752166748,-136.1351217274285,29.41154983254859,2900667574
sw,-60.9979972839355,-59.4965629577636,-136.7976189576019,39.639349555508474,2900684241
sw,-58.7115821838378,-60.3339767456054,-132.35693117510587,50.26121914152326,2900700908
sw,-56.2610549926757,-61.4482879638671,-120.70079995244036,59.33242266265097,2900717575
sw,-54.5354232788085,-62.8265724182128,-100.84036021332977,65.30657198069919,2900734242
sw,-53.4069557189941,-64.259033203125,-73.27741681167925,67.37980641402278,2900750909
sw,-52.5615158081054,-65.5104827880859,-40.06712177437562,65.65509501785422,2900767576
sw,-52.4216613769531,-66.4569320678711,-4.535594560823171,61.081760907333916,2900784243
sw,-52.9654884338378,-67.2192764282226,29.303918383227163,55.18903689984728,2900800910
sw,-54.1953125,-67.9197998046875,57.52095833553673,49.69324817682325,2900817577
sw,-55.9371643066406,-68.6133117675781,77.0544111690812,46.08947167722318,2900834244
sw,-57.8672828674316,-69.2978057861328,86.32305389580453,45.32984289175296,2900850911
sw,-59.5704803466796,-70.0477142333984,85.49676856388956,47.65333825420554,2900867578
sw,-60.6475524902343,-70.9102935791015,76.35497689050479,52.586222962332286,2900884245
sw,-60.812686920166,-71.9151611328125,61.7860496349366,59.092656355171236,2900900912
sw,-61.7053833007812,-73.1353683471679,45.09286304232925,65.82538354806678,2900917579
sw,-62.5137786865234,-74.6389846801757,29.309198738865554,71.40694958435732,2900934246
sw,-62.5581283569335,-76.2040481567382,16.686629634835892,74.664910377925,2900950913
sw,-62.4773864746093,-77.5958404541015,8.429513108262993,74.75723545515352,2900967580
sw,-62.3592987060546,-78.6877059936523,4.692547058408552,71.16256589100321,2900984247
sw,-62.4639511108398,-79.4802322387695,4.814987723898885,63.567391240776836,2901000914
sw,-63.3746070861816,-80.0500946044921,7.717358270799599,51.733595796136896,2901017581
sw,-64.5861129760742,-80.5173873901367,12.327750894301342,35.44429742015149,2901034248
sw,-64.7709579467773,-80.9054489135742,17.88011433975972,14.588480143378987,2901050915
sw,-64.5116119384765,-81.128662109375,23.982608420031053,-10.63072754970445,2901067582
sw,-64.9361953735351,-80.9837646484375,30.47593598815665,-39.45655859819886,2901084249
sw,-65.9082336425781,-80.2155990600586,37.2062688268807,-70.43854694390124,2901100916
sw,-66.7010498046875,-78.5542297363281,43.851240562366314,-101.49788237331606,2901117583
sw,-67.3670120239257,-76.0898895263671,49.87409041342078,-130.22336927132955,2901134250
sw,-68.4195022583007,-73.153335571289,54.61001138182806,-154.32337873061962,2901150917
sw,-69.8326034545898,-70.0214385986328,57.44683945512552,-172.0902374963563,2901167584
sw,-71.0730590820312,-66.8164749145507,58.03739529044875,-182.72890103041172,2901184251
sw,-72.0786361694336,-63.5249252319335,56.46534963316289,-186.45776876422383,2901200918
sw,-73.0947570800781,-60.5150184631347,53.29593373660274,-184.37144651341268,2901217585
sw,-73.9294357299804,-57.7308235168457,49.48304584668423,-178.12479252541615,2901234252
sw,-74.6411972045898,-54.9570388793945,46.15551730635432,-169.5338480828339,2901250919
sw,-75.4167938232421,-52.3299674987793,44.34327488131234,-160.19077301972746,2901267586
sw,-76.194953918457,-49.9811553955078,44.718434227444945,-151.16785785291586,2901284253
sw,-76.9587860107421,-47.7397270202636,47.41873329432884,-142.85605986516316,2901300920
sw,-77.6868286132812,-45.5028419494628,51.999131819433664,-134.95631164635606,2901317587
sw,-78.4728469848632,-43.5017471313476,57.53025348714418,-126.61638565334891,2901334254
sw,-79.5458145141601,-41.5827026367187,62.83156474524749,-116.68022794376583,2901350921
sw,-81.0178909301757,-39.7955284118652,66.78984978393771,-103.9952320923508,2901367588
sw,-82.6115341186523,-38.3048400878906,68.67478810537817,-87.71329029952253,2901384255
sw,-83.9323348999023,-37.2609062194824,68.34477262519583,-67.52730505694811,2901400922
sw,-84.8758544921875,-36.7786445617675,66.26238776502792,-43.80522698991719,2901417589
sw,-85.6026153564453,-36.6562919616699,63.31104997782234,-17.610823283342725,2901434256
sw,-86.2505950927734,-36.760986328125,60.48747855882722,9.380645847521334,2901450923
sw,-86.8583297729492,-37.0943794250488,58.59132180707935,35.06327713008318,2901467590
sw,-87.3411178588867,-37.8654327392578,58.01947139732735,57.17815104134088,2901484257
sw,-87.49072265625,-39.3278045654296,58.713070974661974,73.67981519182476,2901500924
sw,-87.1768646240234,-41.2691116333007,60.237789797589315,83.14213152967115,2901517591
sw,-86.5785217285156,-43.1641044616699,61.9362953337626,85.0982316823973,2901534258
sw,-85.8105392456054,-44.6426239013671,63.08713620429048,80.18730461903064,2901550925
sw,-84.9420852661132,-45.8216438293457,63.02444464918379,70.0273822944896,2901567592
sw,-84.0104827880859,-46.7539558410644,61.198134681207094,56.83341279941203,2901584259
sw,-83.0617218017578,-46.992862701416,57.17395758000067,42.90069991665804,2901600926
sw,-82.2914962768554,-46.9985237121582,50.58886436478849,30.12735237116517,2901617593
sw,-81.7865676879882,-47.2896003723144,41.09394430361439,19.73524407346181,2901634260
sw,-81.4870986938476,-47.834171295166,28.33072407445347,12.267426537534337,2901650927
sw,-81.3689193725586,-49.0456886291503,11.984175159357934,7.814582176124708,2901667594
sw,-81.3553695678711,-49.6555099487304,-8.072869588399993,6.312421202157848,2901684261
sw,-81.5953140258789,-49.4317245483398,-31.578516802985742,7.727129090003401,2901700928
sw,-82.2763061523437,-49.5140914916992,-57.70442687750604,12.032025169564395,2901717595
sw,-83.551284790039,-49.9400024414062,-84.99616064812854,19.018143728595103,2901734262
sw,-85.5434112548828,-50.4507827758789,-111.49163672188116,28.07761753499564,2901750929
sw,-88.1726531982421,-50.8962249755859,-135.01042267694433,38.102047736662676,2901767596
sw,-88.9339370727539,-51.5835990905761,-153.53901057923636,47.57490103080031,2901784263
sw,-86.0117492675781,-52.8997154235839,-165.6053672143319,54.855931587024166,2901800930
sw,-83.3060226440429,-54.3717422485351,-170.55326410833445,58.58132362887426,2901817597
sw,-80.2136306762695,-55.6793556213378,-168.67235188291818,58.050151540866466,2901834264
sw,-76.9034652709961,-56.65576171875,-161.1749919850147,53.4598269224063,2901850931
sw,-74.5615234375,-57.3449935913085,-150.0192151234786,45.90383704289354,2901867598
sw,-72.7188262939453,-57.9126014709472,-137.58410081702996,37.13177160748482,2901884265
sw,-70.8122634887695,-58.4139099121093,-126.23774061394278,29.149004460768012,2901900932
sw,-68.7520141601562,-58.8377571105957,-117.88189610889272,23.76931396402894,2901917599
sw,-66.7108154296875,-59.1959381103515,-113.56865975645307,22.227504818112916,2901934266
sw,-64.7335739135742,-59.5489234924316,-113.25507201726658,24.930090642687542,2901950933
sw,-63.1604690551757,-60.0204925537109,-115.7285172631626,31.387992043266756,2901967600
sw,-62.0126953125,-60.6904258728027,-118.72955810033821,40.34150963173329,2901984267
sw,-60.5506591796875,-61.5162506103515,-119.30576132648147,50.053050078403295,2902000934
sw,-58.4255409240722,-62.5501480102539,-114.40503850598601,58.708216893076596,2902017601
sw,-56.1085243225097,-63.8983993530273,-101.63348657153503,64.837138578654,2902034268
sw,-54.3840637207031,-65.3686981201171,-79.9937722947112,67.65382136221173,2902050935
sw,-53.2262229919433,-66.6848602294921,-50.36318066000186,67.22092428267547,2902067602
sw,-52.886360168457,-67.7232284545898,-15.519211406972609,64.38745102557134,2902084269
sw,-53.3659744262695,-68.5737915039062,20.342104060428625,60.51283307687651,2902100936
sw,-54.4464607238769,-69.3560485839843,52.489407401288226,57.06007843585575,2902117603
sw,-56.0889015197753,-70.120620727539,76.71170448011594,55.18250979536926,2902134270
sw,-58.3727111816406,-70.9230041503906,90.26269426530772,55.42552508728026,2902150937
sw,-60.4983406066894,-71.8399276733398,92.43267347287208,57.6220914223342,2902167604
sw,-61.9843711853027,-72.8839263916015,84.58713433918247,60.99812626967812,2902184271
sw,-62.0846443176269,-74.0881805419921,69.67482010932927,64.44220050934842,2902200938
sw,-62.2941551208496,-75.4710159301757,51.38627758734926,66.84816645897159,2902217605
sw,-63.2067832946777,-76.9429321289062,33.25323453682315,67.41911807526834,2902234272
sw,-63.4200820922851,-78.2601776123046,17.95794480559952,65.83260047166587,2902250939
sw,-63.5052337646484,-79.3584899902343,6.995926181587629,62.21132157746278,2902267606
sw,-63.3816223144531,-80.204475402832,0.6970680387599775,56.91201229774891,2902284273
sw,-63.3783493041992,-80.7360229492187,-1.47777645866703,50.21609212905824,2902300940
sw,-64.150161743164,-81.0989913940429,-0.4919427985326374,42.05160257583605,2902317607
sw,-64.9990539550781,-81.4400329589843,2.7073575736051168,31.874765583034026,2902334274
sw,-64.9100341796875,-81.7874069213867,7.477105257393894,18.786092838864292,2902350941
sw,-64.7216567993164,-82.1466445922851,13.531445620095756,1.865462651976983,2902367608
sw,-65.1054153442382,-82.2844161987304,20.787366937074577,-19.383631682235087,2902384275
sw,-65.8811416625976,-81.9403915405273,29.118810394059256,-44.64844892880093,2902400942
sw,-66.6796035766601,-80.9327545166015,38.14614307416244,-72.64075278424978,2902417609
sw,-67.095588684082,-79.0877151489257,47.14197799925705,-101.23602656387678,2902434276
sw,-67.8426971435546,-76.4976272583007,55.08654147227495,-127.88956131416106,2902450943
sw,-69.3079223632812,-73.573860168457,60.872420825073014,-150.19497961415942,2902467610
sw,-70.8727416992187,-70.6311950683593,63.61555050464373,-166.402326736158,2902484277
sw,-72.2232589721679,-67.7384033203125,62.97378270981667,-175.74315813444096,2902500944
sw,-73.270523071289,-64.5324096679687,59.346653821864265,-178.49625552570382,2902517611
sw,-74.1166000366211,-61.225715637207,53.864477347020994,-175.81704086066665,2902534278
sw,-74.927001953125,-58.4373092651367,48.155437201223144,-169.40551049984168,2902550945
sw,-75.7233200073242,-55.960220336914,43.957431725027845,-161.10049501391916,2902567612
sw,-76.404670715332,-53.5802116394043,42.683412649740774,-152.48442463576296,2902584279
sw,-77.050422668457,-51.2376976013183,45.0535889501509,-144.57371455969502,2902600946
sw,-77.7505950927734,-49.0098876953125,50.88876745855266,-137.65041996004237,2902617613
sw,-78.577407836914,-46.9060325622558,59.124564524031264,-131.2595710617878,2902634280
sw,-79.7027587890625,-44.9441604614257,68.05674382225322,-124.36295773454711,2902650947
sw,-81.2806625366211,-43.143569946289,75.76627056417037,-115.6131057343442,2902667614
sw,-83.1432266235351,-41.3298149108886,80.61252371414555,-103.6923039478327,2902684281
sw,-84.7925567626953,-39.816608428955,81.6495650009944,-87.64990847913313,2902700948
sw,-86.0439376831054,-38.8046875,78.83828913283452,-67.17053006957963,2902717615
sw,-87.0288925170898,-38.3910598754882,72.99929782202634,-42.72234611146659,2902734282
sw,-87.9023971557617,-38.3153953552246,65.5452633741042,-15.565634818727094,2902750949
sw,-88.6285552978515,-38.4889755249023,58.098777761975846,12.370537402109797,2902767616
sw,-88.9895401000976,-38.9802513122558,52.113927014429464,38.72639279301564,2902784283
sw,-88.6859741210937,-39.8987045288085,48.58637332715582,61.04998258270507,2902800950
sw,-88.0216751098632,-41.5018424987793,47.888444293487844,77.21095567354564,2902817617
sw,-87.2534790039062,-43.6574897766113,49.728706022742735,85.82446194618907,2902834284
sw,-86.417236328125,-45.492748260498,53.218272949637026,86.57154138149397,2902850951
sw,-85.542007446289,-47.0434188842773,57.022619814844184,80.2919200131523,2902867618
sw,-84.5370712280273,-48.1499252319335,59.57658669513634,68.78451358218634,2902884285
sw,-83.4326934814453,-48.8168678283691,59.333826048133204,54.36134870716446,2902900952
sw,-82.3768234252929,-49.0865287780761,55.011227346800204,39.30397357078445,2902917619
sw,-81.5374526977539,-48.9858627319335,45.783379785776205,25.413918829875257,2902934286
sw,-81.0199203491211,-49.362060546875,31.391966842325786,13.808627596326524,2902950953
sw,-80.8819503784179,-49.9920921325683,12.160309449469922,5.003407152169935,2902967620
sw,-81.2310638427734,-51.0302848815918,-11.068238503905885,-0.8169419734413871,2902984287
sw,-81.8312683105468,-51.1610221862793,-37.03404638312432,-3.524553076906702,2903000954
sw,-82.6898422241211,-50.7910614013671,-64.17977174745995,-2.9449043248052287,2903017621
sw,-83.9838638305664,-50.807689666748,-90.77891412931547,1.0247501227689157,2903034288
sw,-85.9371643066406,-50.9565124511718,-115.0882904177512,8.167140608137808,2903050955
sw,-88.4044342041015,-51.1445884704589,-135.53411965950147,17.734737142207702,2903067622
sw,-88.6444854736328,-51.5572166442871,-150.9150285299596,28.421417561260593,2903084289
sw,-85.8779220581054,-52.2831878662109,-160.58045353998125,38.57134171188735,2903100956
sw,-83.2721252441406,-53.6467361450195,-164.54219970476245,46.575850814283356,2903117623
sw,-80.3643493652343,-55.0592079162597,-163.4957819107983,51.324471413361316,2903134290
sw,-77.0659790039062,-56.125144958496,-158.7405956287279,52.54133827729367,2903150957
sw,-74.5809173583984,-56.9340057373046,-151.98381098415678,50.874887649786984,2903167624
sw,-72.6556625366211,-57.5832023620605,-145.01988680095616,47.704904978532454,2903184291
sw,-70.7675399780273,-58.3077735900878,-139.32520124883786,44.73790427395727,2903200958
sw,-68.7108078002929,-59.0075225830078,-135.67312387406992,43.5269361812296,2903217625
sw,-66.44189453125,-59.6739959716796,-133.89861708732678,45.05689440772816,2903234292
sw,-64.1751327514648,-60.4639854431152,-132.89566612553452,49.49833238595173,2903250959
sw,-62.0299606323242,-61.4432067871093,-130.84972540740338,56.17795844874269,2903267626
sw,-60.1246681213378,-62.5597190856933,-125.64321542059616,63.75894401020699,2903284293
sw,-58.3669662475585,-63.8088455200195,-115.3459149618274,70.57757963012654,2903300960
sw,-56.651626586914,-65.1954116821289,-98.699837855688,75.05166710219805,2903317627
sw,-55.2566337585449,-66.6705551147461,-75.50915814715847,76.06489381477358,2903334294
sw,-54.3240890502929,-68.0273208618164,-46.84711294368779,73.24042779534837,2903350961
sw,-53.9848289489746,-69.1876068115234,-15.008260266336123,67.04368603383713,2903367628
sw,-54.2170944213867,-70.18212890625,16.821427815767084,58.69385484651931,2903384295
sw,-54.9181175231933,-71.0496368408203,45.13681939341384,49.90661347582856,2903400962
sw,-56.4266777038574,-71.7489776611328,66.81532491182428,42.5246637609216,2903417629
sw,-58.6321754455566,-72.3427429199218,79.77689169074628,38.111424346692154,2903434296
sw,-60.5122871398925,-72.8874053955078,83.41192814301274,37.58778255348072,2903450963
sw,-61.8850860595703,-73.4335327148437,78.63480591352506,40.985546043514056,2903467630
sw,-61.9407386779785,-74.055908203125,67.54384771652974,47.374523279805096,2903484297
sw,-62.5383071899414,-74.9128723144531,52.821081028624555,54.99074768572441,2903500964
sw,-63.4614753723144,-76.0872573852539,37.09788426123089,61.55072824839206,2903517631
sw,-63.7860221862793,-77.5005264282226,22.488508248437004,64.68715539845637,2903534298
sw,-63.8296012878418,-78.9201965332031,10.384741889436093,62.4016003453971,2903550965
sw,-63.6546745300293,-80.0195999145507,1.4953652151710644,53.42088050464256,2903567632
sw,-64.1554336547851,-80.509407043457,-3.951498036261328,37.378131627798915,2903584299
sw,-65.0574645996093,-80.4789733886718,-5.958656591020898,14.806075036268505,2903600966
sw,-65.0417785644531,-80.1369171142578,-4.587005702567573,-13.005717740370692,2903617633
sw,-64.1892776489257,-79.5426483154296,0.05998924932320179,-44.21240116854771,2903634300
sw,-63.9264335632324,-78.6069641113281,7.716112114531586,-76.6215688787092,2903650967
sw,-64.6292953491211,-77.0426864624023,17.812646800385036,-107.90217326826102,2903667634
sw,-65.6569442749023,-74.6872024536132,29.440012767005154,-135.81735196004206,2903684301
sw,-66.3563537597656,-71.7233047485351,41.4490376136586,-158.48757400433018,2903700968
sw,-67.2532272338867,-68.4158782958984,52.644610197494394,-174.64598817227954,2903717635
sw,-68.6472396850586,-64.9366455078125,61.99820066076117,-183.81500742330851,2903734302
sw,-70.1645889282226,-61.4394226074218,68.82177244247931,-186.34112412621502,2903750969
sw,-71.3401260375976,-58.5313835144043,72.86378463488063,-183.27046084218028,2903767636
sw,-72.3888702392578,-55.7886505126953,74.30508025667045,-176.10211481217632,2903784303
sw,-73.5817260742187,-52.9158134460449,73.66207068911966,-166.48809549573804,2903800970
sw,-74.9070510864257,-50.1662406921386,71.635459586351,-155.94325746142093,2903817637
sw,-76.2669143676757,-47.8617706298828,68.95056854317089,-145.60112112996194,2903834304
sw,-77.4294052124023,-45.8870811462402,66.21981622553817,-136.03403330728005,2903850971
sw,-78.3230819702148,-44.0952224731445,63.84255698570993,-127.16316364465567,2903867638
sw,-79.0990753173828,-42.2629737854003,61.95759795653732,-118.2945260502205,2903884305
sw,-80.0313186645507,-40.4174003601074,60.46834522101296,-108.30154770276648,2903900972
sw,-81.3235244750976,-38.7285041809082,59.1470709284626,-95.92982806500575,2903917639
sw,-82.6844024658203,-37.3140525817871,57.787637046345566,-80.15283211136354,2903934306
sw,-83.7663421630859,-36.3865165710449,56.33929797921154,-60.48840046690246,2903950973
sw,-84.600471496582,-36.0923500061035,54.952572885861514,-37.20352911475588,2903967640
sw,-85.2360153198242,-36.0378227233886,53.91179417774556,-11.372519754807882,2903984307
sw,-85.8427276611328,-36.2376594543457,53.49024659629952,15.214724860930469,2904000974
sw,-86.5244140625,-36.6929626464843,53.80154914990473,40.28533101415259,2904017641
sw,-87.1435012817382,-37.7349586486816,54.714908783575,61.442947263350426,2904034308
sw,-87.5234603881836,-39.4388122558593,55.86427916045138,76.61575033595413,2904050975
sw,-87.5511245727539,-41.483169555664,56.74004446164104,84.50442309216413,2904067642
sw,-87.2418212890625,-43.3116912841796,56.82598920692665,84.89740978385414,2904084309
sw,-86.6542663574218,-44.5221519470214,55.73571098343025,78.7307269799461,2904100976
sw,-85.8948745727539,-45.6372108459472,53.30445545841523,67.84988717066656,2904117643
sw,-85.1041488647461,-46.5091896057128,49.60176260847819,54.54373955926928,2904134310
sw,-84.3736419677734,-46.7955055236816,44.84997980935427,41.003212955250866,2904150977
sw,-83.8366775512695,-46.9071578979492,39.264372313418455,28.877695294027493,2904167644
sw,-83.4368438720703,-47.2508239746093,32.86517614434964,19.060722960882213,2904184311
sw,-83.1814346313476,-47.4767036437988,25.336342206318584,11.752328985218059,2904200978
sw,-83.1019821166992,-48.0948791503906,16.005192206741302,6.741886317949828,2904217645
sw,-83.1475143432617,-49.0541954040527,3.9851822385212805,3.768808168808452,2904234312
sw,-83.1972122192382,-49.203685760498,-11.533065508076593,2.789112985847393,2904250979
sw,-83.2853698730468,-49.0310516357421,-30.92146609944024,4.025887866195212,2904267646
sw,-83.806282043457,-49.2248725891113,-53.809937241602526,7.793347756819378,2904284313
sw,-85.0547790527343,-49.6025314331054,-78.96414416948201,14.196630659668571,2904300980
sw,-87.0074920654296,-49.891056060791,-104.41653583626584,22.860012505501224,2904317647
sw,-89.542007446289,-50.27876663208,-127.8277558836881,32.81272600622894,2904334314
sw,-87.653564453125,-51.0064125061035,-146.96932620626322,42.596413140512915,2904350981
sw,-84.8868789672851,-52.2236175537109,-160.18400031560628,50.58068720241651,2904367648
sw,-82.3036422729492,-53.5906105041503,-166.70787015305604,55.39663063628154,2904384315
sw,-79.21875,-54.8465843200683,-166.79903434602016,56.34364913055736,2904400982
sw,-75.9633026123046,-55.7693824768066,-161.66747856984264,53.624007608584805,2904417649
sw,-73.6205825805664,-56.4837913513183,-153.22187190498408,48.321297351886,2904434316
sw,-71.6399917602539,-57.1471557617187,-143.66483625532817,42.1340221862146,2904450983
sw,-69.5837020874023,-57.7480125427246,-135.00486410383456,36.954672372334805,2904467650
sw,-67.445571899414,-58.3094139099121,-128.59355639789902,34.417254729906816,2904484317
sw,-65.3879928588867,-58.9172821044921,-124.80134782426616,35.52451431886561,2904500984
sw,-63.3199920654296,-59.584617614746,-122.90563493375423,40.430935620991896,2904517651
sw,-61.6182022094726,-60.3567161560058,-121.2129290778846,48.41745782224995,2904534318
sw,-60.0916366577148,-61.2539443969726,-117.39868359541921,58.05666017757808,2904550985
sw,-58.2939376831054,-62.4008407592773,-109.02248500028905,67.53390993391137,2904567652
sw,-56.4688987731933,-63.8397903442382,-94.14347321532841,75.0598386988301,2904584319
sw,-55.1813774108886,-65.4011306762695,-71.91602913419304,79.28499096941181,2904600986
sw,-54.1750183105468,-66.966926574707,-43.01183679776645,79.61731328587156,2904617653
sw,-53.5590095520019,-68.4062423706054,-9.722574700815896,76.35826896444196,2904634320
sw,-53.7849159240722,-69.5696792602539,24.341372675623706,70.61681212256687,2904650987
sw,-54.8132591247558,-70.5344314575195,54.93789103039799,64.02118779876625,2904667654
sw,-56.7345466613769,-71.3918762207031,78.12486783324009,58.30543160170323,2904684321
sw,-59.1039352416992,-72.1849212646484,91.18922805213298,54.880046528307986,2904700988
sw,-61.3571739196777,-72.9414672851562,93.28643207621498,54.49493124345123,2904717655
sw,-62.9084396362304,-73.8193130493164,85.57285046791966,57.07131938182187,2904734322
sw,-63.0254974365234,-74.9068069458007,70.78647470785334,61.730637050338025,2904750989
sw,-63.3250083923339,-76.1751861572265,52.439744057775926,66.99566540533841,2904767656
sw,-63.844627380371,-77.557144165039,33.92605403708839,71.09682141932588,2904784323
sw,-64.0727233886718,-79.0077362060546,17.835727338847693,72.2963114811155,2904800990
sw,-64.2011032104492,-80.2510757446289,5.647794121923566,69.15231785165425,2904817657
sw,-64.0597457885742,-81.1914978027343,-2.1986782042748585,60.68078053533728,2904834324
sw,-64.4888610839843,-81.7874221801757,-5.97007260003748,46.41911240729482,2904850991
sw,-65.3808288574218,-82.1257553100586,-6.216600379276542,26.43246675305815,2904867658
sw,-65.4473114013671,-82.1594772338867,-3.443519163014814,1.3095880738820866,2904884325
sw,-65.0614700317382,-81.9474639892578,2.004189252489519,-27.832151325230107,2904900992
sw,-65.0084762573242,-81.2849655151367,9.838362524348891,-59.35706569285778,2904917659
sw,-65.4142150878906,-80.0654220581054,19.614755392956898,-91.19240455151075,2904934326
sw,-65.9308090209961,-78.0338592529296,30.563329167274425,-121.02911155722889,2904950993
sw,-66.4454650878906,-75.2460784912109,41.571738607356124,-146.64194997013558,2904967660
sw,-67.6121292114257,-72.1465682983398,51.34880696508139,-166.26246957562694,2904984327
sw,-69.113899230957,-68.9631118774414,58.71723789410708,-178.89479484212777,2905000994
sw,-70.4832763671875,-65.8097076416015,62.93184171699448,-184.47308915057613,2905017661
sw,-71.5743179321289,-62.5243453979492,63.90363238752377,-183.8154504644886,2905034328
sw,-72.6326217651367,-59.5218276977539,62.24295231838673,-178.3969826645662,2905050995
sw,-73.5764083862304,-56.792423248291,59.10429418596711,-170.01084249435866,2905067662
sw,-74.4531707763671,-54.0867233276367,55.885187905546054,-160.39956935633313,2905084329
sw,-75.3847045898437,-51.6200828552246,53.870884628166195,-150.9290114858786,2905100996
sw,-76.3089828491211,-49.4537620544433,53.92029270983152,-142.35793247165432,2905117663
sw,-77.1460189819336,-47.3330078125,56.26838486054207,-134.737613674045,2905134330
sw,-77.9844131469726,-45.2312622070312,60.489753972826286,-127.45744509221767,2905150997
sw,-78.9935455322265,-43.3450508117675,65.63387695225393,-119.42841582716004,2905167664
sw,-80.3701019287109,-41.4383239746093,70.50358781306618,-109.36662028637754,2905184331
sw,-82.0513534545898,-39.7474327087402,74.00440228656186,-96.1142537970264,2905200998
sw,-83.6462097167968,-38.4970169067382,75.45810868978745,-78.9284365325029,2905217665
sw,-84.8930511474609,-37.8430366516113,74.77517796477606,-57.68311409677327,2905234332
sw,-85.8630294799804,-37.5067291259765,72.43061395384241,-32.95901274769119,2905250999
sw,-86.7447814941406,-37.3306465148925,69.26722406037638,-6.022951945077202,2905267666
sw,-87.617805480957,-37.5408172607421,66.21461961679007,21.294922725856157,2905284333
sw,-88.389175415039,-38.392478942871,64.02669434274948,46.823206024376425,2905301000
sw,-88.5182723999023,-39.6868057250976,63.10550766341356,68.36250896702401,2905317667
sw,-87.7923812866211,-41.2997589111328,63.42635388188235,84.05230249026476,2905334334
sw,-86.9143524169921,-43.317569732666,64.54234404489553,92.71562071128565,2905351001
sw,-86.0375595092773,-45.0938529968261,65.64230813424054,94.08839478281746,2905367668
sw,-85.1049880981445,-46.8677673339843,65.65189083557695,88.85975578212599,2905384335
sw,-84.1093139648437,-48.4418754577636,63.37977916447656,78.50240229511071,2905401002
sw,-83.0809478759765,-48.8071975708007,57.70414753335129,64.94170550802345,2905417669
sw,-82.2416000366211,-49.2256393432617,47.77482016575869,50.17462761577466,2905434336
sw,-81.6796646118164,-49.9792556762695,33.19185962484724,35.97022252573405,2905451003
sw,-81.4284286499023,-51.1086807250976,14.122263012193763,23.732398861094005,2905467670
sw,-81.5054855346679,-52.179889678955,-8.670042706319377,14.499974980781065,2905484337
sw,-81.9388122558593,-52.1838417053222,-33.889914995984995,8.976406964585095,2905501004
sw,-82.8198776245117,-51.8731346130371,-59.868591967690314,7.4950128650503425,2905517671
sw,-84.2147064208984,-52.04341506958,-84.79581496905767,9.922874989917329,2905534338
sw,-86.241096496582,-52.498550415039,-106.98983930033977,15.596173083493783,2905551005
sw,-88.655647277832,-53.0512046813964,-125.14783471241066,23.383699943065977,2905567672
sw,-88.587776184082,-53.6304626464843,-138.51287382915802,31.902308248004495,2905584339
sw,-86.3011245727539,-54.5330009460449,-146.91855930249878,39.825386490553036,2905601006
sw,-84.169448852539,-55.534870147705,-150.72423840628042,46.183969055935464,2905617673
sw,-81.5297470092773,-56.4901237487793,-150.69762364786342,50.56568339013406,2905634340
sw,-78.3530654907226,-57.3864631652832,-147.8961738234418,53.1539949476378,2905651007
sw,-75.9480514526367,-58.224063873291,-143.54573183347492,54.60252379644754,2905667674
sw,-74.149787902832,-59.1918678283691,-138.87359587464488,55.78905307802443,2905684341
sw,-72.1329574584961,-60.1935005187988,-134.87723716999994,57.524620354941774,2905701008
sw,-69.9782104492187,-61.1417655944824,-132.07816740352663,60.29826249313173,2905717675
sw,-67.812744140625,-62.1189918518066,-130.35129992636487,64.12316332471022,2905734342
sw,-65.7430191040039,-63.2493629455566,-128.89870014074,68.5233151251987,2905751009
sw,-63.8383445739746,-64.5710754394531,-126.38281833595356,72.66477929057938,2905767676
sw,-61.9161300659179,-66.0209732055664,-121.1909542612244,75.59575585761002,2905784343
sw,-60.0839462280273,-67.4278945922851,-111.78168566457333,76.52609318615673,2905801010
sw,-58.5773200988769,-68.7951889038086,-97.05458454570179,75.06427233054059,2905817677
sw,-57.422550201416,-70.1259155273437,-76.67865607507858,71.34433314771937,2905834344
sw,-56.5089607238769,-71.3076248168945,-51.31339211918451,66.00936797352675,2905851011
sw,-55.8490104675293,-72.2838287353515,-22.661341745862348,60.058980753462855,2905867678
sw,-55.7947921752929,-73.0708389282226,6.694410435289137,54.60496086314659,2905884345
sw,-56.2540397644043,-73.7814102172851,33.68165479661448,50.60431690356962,2905901012
sw,-57.4494514465332,-74.5302124023437,55.31376810960415,48.64363662957283,2905917679
sw,-59.4445304870605,-75.3657684326171,69.32578640504947,48.8290765960811,2905934346
sw,-61.1952362060546,-76.3253707885742,74.69147674833162,50.79794550138716,2905951013
sw,-62.6038131713867,-77.3760528564453,71.84566093090129,53.82652890268101,2905967680
sw,-63.2294311523437,-78.4498291015625,62.52521120527992,56.98187114714714,2905984347
sw,-63.572151184082,-79.470703125,49.28416564400138,59.262571086593184,2906001014
sw,-64.2388381958007,-80.4692306518554,34.85877575782475,59.69342798361533,2906017681
sw,-64.3233108520507,-81.4199523925781,21.59419120295804,57.36942140076988,2906034348
sw,-64.2106094360351,-82.2211074829101,11.091809430810788,51.47169386018917,2906051015
sw,-64.2585754394531,-82.7990570068359,4.137897011399801,41.29229780556582,2906067682
sw,-65.1247482299804,-83.1293334960937,0.8709468752286788,26.302349142002612,2906084349
sw,-66.0233993530273,-83.2896652221679,1.061095176162284,6.279763952048128,2906101016
sw,-65.8823089599609,-83.2201080322265,4.341813934448555,-18.52023059847598,2906117683
sw,-65.4014129638671,-82.815559387207,10.286558983514063,-47.207453625622506,2906134350
sw,-65.5434494018554,-81.8876876831054,18.34189809084538,-78.1937186433746,2906151017
sw,-66.5033340454101,-80.2474822998046,27.726915890960644,-109.2981212394633,2906167684
sw,-67.196044921875,-77.6660842895507,37.413671552317034,-138.04350214023353,2906184351
sw,-67.5391006469726,-74.5394439697265,46.23422787302006,-162.08872158654427,2906201018
sw,-68.7858734130859,-71.2175369262695,53.08916416254613,-179.67430614401363,2906217685
sw,-70.2776489257812,-67.896743774414,57.195701157617336,-189.94308011094262,2906234352
sw,-71.3839111328125,-64.4810333251953,58.29769746038208,-193.04393309978136,2906251019
sw,-72.2595291137695,-61.316234588623,56.76105608772524,-190.0075816602495,2906267686
sw,-73.1773529052734,-58.3975791931152,53.51126009830556,-182.45314437250903,2906284353
sw,-73.99072265625,-55.4672241210937,49.82650263221583,-172.21551227555977,2906301020
sw,-74.7650833129882,-52.7805252075195,47.04597777306197,-160.97724234748736,2906317687
sw,-75.5847549438476,-50.503620147705,46.26784654522782,-149.96597383848083,2906334354
sw,-76.3932113647461,-48.3823509216308,48.10258665278748,-139.7603471592653,2906351021
sw,-77.1796188354492,-46.3535919189453,52.53044285181237,-130.23757801884278,2906367688
sw,-77.95263671875,-44.4846878051757,58.89452827638153,-120.67982980029839,2906384355
sw,-78.8633575439453,-42.6080627441406,66.04233054019721,-110.02316538344479,2906401022
sw,-80.1852264404296,-40.8300170898437,72.6002713246861,-97.19038748153342,2906417689
sw,-81.9335021972656,-39.2276573181152,77.32439044542946,-81.4186513144925,2906434356
sw,-83.6106414794921,-38.3381652832031,79.42819442430019,-62.49324899031786,2906451023
sw,-84.8796768188476,-38.1289291381835,78.77662865269536,-40.83581429151359,2906467690
sw,-85.8656845092773,-38.1060791015625,75.87630483294313,-17.451590520122412,2906484357
sw,-86.6710968017578,-38.2094650268554,71.67369464023,6.2186762056362825,2906501024
sw,-87.2799072265625,-38.4887161254882,67.24865143383774,28.496209433501352,2906517691
sw,-87.5930404663086,-39.2678184509277,63.51764977480861,47.691654954554174,2906534358
sw,-87.3951110839843,-40.6658058166503,61.03250186851459,62.3566295597584,2906551025
sw,-86.7672348022461,-42.298770904541,59.902724624711304,71.53194977959022,2906567692
sw,-86.0441818237304,-43.8458251953125,59.81943611420377,74.93061307289791,2906584359
sw,-85.3299484252929,-44.8923110961914,60.138209251699394,72.98784640631638,2906601026
sw,-84.4937744140625,-46.2903442382812,59.98599628016107,66.74922044304907,2906617693
sw,-83.584243774414,-47.4814872741699,58.37429755313555,57.626448073222626,2906634360
sw,-82.7024917602539,-47.6517105102539,54.31120388566034,47.09598522543877,2906651027
sw,-81.9976959228515,-47.9936332702636,46.908226124543646,36.436051288205825,2906667694
sw,-81.5206451416015,-48.4913711547851,35.48145020196419,26.589637564435375,2906684361
sw,-81.2283325195312,-49.0535736083984,19.651616246082945,18.19257844479616,2906701028
sw,-81.2695007324218,-50.0979423522949,-0.553160772150443,11.721678693307346,2906717695
sw,-81.6361618041992,-50.7553558349609,-24.600730834425725,7.643929853532217,2906734362
sw,-82.2309036254882,-50.6835708618164,-51.39308613530914,6.441665167124939,2906751029
sw,-83.2303924560546,-50.5835494995117,-79.2840593925366,8.466802153322066,2906767696
sw,-84.9312896728515,-50.8468933105468,-106.21850160390771,13.693264890064627,2906784363
sw,-87.3392791748046,-51.308422088623,-130.00385456480797,21.511156559157197,2906801030
sw,-89.8123321533203,-51.7876892089843,-148.6726448582215,30.69358118561291,2906817697
sw,-86.9009246826171,-52.3770065307617,-160.84890711179972,39.588411673313445,2906834364
sw,-84.1376647949218,-53.4314422607421,-166.02340434365755,46.495434726570544,2906851031
sw,-81.2809829711914,-54.7094268798828,-164.67469830383507,50.119263085696865,2906867698
sw,-78.1674270629882,-55.7987480163574,-158.21621620841378,49.95409426086875,2906884365
sw,-75.5216369628906,-56.6702766418457,-148.77414843631507,46.46872726385874,2906901032
sw,-73.459846496582,-57.3499717712402,-138.8118099755749,41.02179569314857,2906917699
sw,-71.4975204467773,-57.9756164550781,-130.64029007941866,35.52555863310266,2906934366
sw,-69.4397048950195,-58.4780311584472,-125.8986169189967,31.953469326922445,2906951033
sw,-67.450439453125,-58.867618560791,-125.12068961855195,31.825927279907415,2906967700
sw,-65.5893020629882,-59.3320045471191,-127.50487635337186,35.807720739060954,2906984367
sw,-64.0112533569336,-60.014850616455,-130.96922260754832,43.519068597754945,2907001034
sw,-62.1160621643066,-60.8957481384277,-132.5245688140897,53.609250903732786,2907017701
sw,-59.6451530456543,-61.9359664916992,-128.92882267356487,64.07809142690122,2907034368
sw,-57.1495399475097,-63.2887802124023,-117.49718726098223,72.77004486402012,2907051035
sw,-55.3506698608398,-64.9201736450195,-96.86483708552048,77.92098129204523,2907067702
sw,-54.3614082336425,-66.6644592285156,-67.48224379831414,78.61725954333332,2907084369
sw,-53.70161819458,-68.2285537719726,-31.6920398826608,75.03846891601813,2907101036
sw,-53.6422691345214,-69.3182144165039,6.645009660347897,68.4066485743025,2907117703
sw,-54.3202285766601,-70.0866012573242,42.89468145720424,60.65012641353837,2907134370
sw,-55.886173248291,-70.7516555786132,72.60209367990134,53.88101938944115,2907151037
sw,-58.253978729248,-71.4092102050781,92.43301436646877,49.84224635206863,2907167704
sw,-60.6652908325195,-72.1255722045898,100.85947883776308,49.47845541355028,2907184371
sw,-62.6178436279296,-72.954963684082,98.3873905545728,52.73295955772628,2907201038
sw,-63.3924598693847,-73.9913635253906,87.25541098185754,58.598345157868145,2907217705
sw,-63.5518493652343,-75.2229614257812,70.72184919164643,65.37985628187909,2907234372
sw,-64.51513671875,-76.5987854003906,52.20693372043535,71.08374648470283,2907251039
sw,-64.9975051879882,-78.0768737792968,34.582875406330295,73.82324156962936,2907267706
sw,-65.357063293457,-79.5182952880859,19.795687638174424,72.1430653920545,2907284373
sw,-65.6299209594726,-80.7332763671875,8.840663884166903,65.19664544773268,2907301040
sw,-66.0672149658203,-81.5074462890625,1.986807291595119,52.76101472037137,2907317707
sw,-66.8941268920898,-81.8315353393554,-0.9117756143666462,35.129758608322774,2907334374
sw,-66.9605712890625,-81.776626586914,-0.1715328495871163,12.963870150863753,2907351041
sw,-66.3065338134765,-81.5414886474609,3.8116411640146595,-12.81681431210657,2907367708
sw,-66.1054153442382,-81.2031097412109,10.520276322185163,-41.06026010120677,2907384375
sw,-66.8557891845703,-80.5154571533203,19.24210186803972,-70.35310374996624,2907401042
sw,-68.0577011108398,-79.1621170043945,29.064004150934014,-99.0156816645159,2907417709
sw,-68.6973037719726,-76.948989868164,38.95499730148404,-125.20306999134807,2907434376
sw,-69.0475082397461,-74.2091903686523,47.89434534496306,-147.13744520849437,2907451043
sw,-70.1911163330078,-71.1733474731445,55.000677553096594,-163.41697992324947,2907467710
sw,-71.552490234375,-68.0118179321289,59.65044791922476,-173.29461705325633,2907484377
sw,-72.7220458984375,-64.8174133300781,61.58096716145866,-176.82546540769857,2907501044
sw,-73.7139892578125,-61.7162361145019,60.95255264827759,-174.83309890755115,2907517711
sw,-74.6597366333007,-58.9408302307128,58.33708461168974,-168.70846187055548,2907534378
sw,-75.5789566040039,-56.3051490783691,54.622652505390285,-160.10111644455117,2907551045
sw,-76.573974609375,-53.8620872497558,50.8530169246653,-150.58053780439252,2907567712
sw,-77.5471420288086,-51.689697265625,48.03394130806619,-141.33995766079866,2907584379
sw,-78.3671264648437,-49.5629119873046,46.93838929274436,-132.99753718566726,2907601046
sw,-79.0473098754882,-47.4638557434082,47.94318149282259,-125.5266321841672,2907617713
sw,-79.6632308959961,-45.6235618591308,50.93564476887439,-118.32069356156495,2907634380
sw,-80.4634933471679,-43.8781356811523,55.32904857688382,-110.3720374548375,2907651047
sw,-81.6249465942382,-42.1398429870605,60.20460097181032,-100.52338849307448,2907667714
sw,-83.0450592041015,-40.5366897583007,64.55360158153304,-87.74072080054113,2907684381
sw,-84.4137725830078,-39.6212425231933,67.5466120245186,-71.3575133795455,2907701048
sw,-85.6052856445312,-39.266975402832,68.73829827877076,-51.25619632783605,2907717715
sw,-86.6722793579101,-38.8737030029296,68.14294810288874,-27.975013463993832,2907734382
sw,-87.6339645385742,-38.6371726989746,66.17193250582505,-2.7366657437167947,2907751049
sw,-88.5174789428711,-38.7295913696289,63.47649715904331,22.621925328408764,2907767716
sw,-89.1688995361328,-39.4789237976074,60.760409093595165,45.85709381627755,2907784383
sw,-88.7298965454101,-40.8853416442871,58.61402397217936,64.67968596813135,2907801050
sw,-87.8041152954101,-42.7598114013671,57.39159638606333,77.2172905264311,2907817717
sw,-86.8888168334961,-44.5707130432128,57.130441527362265,82.44869866187585,2907834384
sw,-86.0397796630859,-46.1394271850585,57.507471623577835,80.45656990398328,2907851051
sw,-85.1953582763671,-47.2895317077636,57.84081408380171,72.3966089030596,2907867718
sw,-84.2544403076171,-48.1607780456543,57.15366746466643,60.188033793359914,2907884385
sw,-83.2423095703125,-48.6517257690429,54.30933536262316,46.03588501555313,2907901052
sw,-82.3000793457031,-48.7581672668457,48.201785326021096,31.952431008073983,2907917719
sw,-81.5939788818359,-49.0182418823242,37.961513882862135,19.433594203817194,2907934386
sw,-81.1820526123046,-49.2997970581054,23.129476472525234,9.374547432725405,2907951053
sw,-81.2002258300781,-49.9995422363281,3.7664714399572494,2.2021734594993134,2907967720
sw,-81.6569900512695,-50.852611541748,-19.510101582962086,-1.8963773917210642,2907984387
sw,-82.3286209106445,-50.8733825683593,-45.55329610173471,-2.808442355537025,2908001054
sw,-83.2661209106445,-50.3055114746093,-72.76947550873898,-0.4995540910752953,2908017721
sw,-84.7529754638671,-50.2375450134277,-99.2613169385744,4.83115153108053,2908034388
sw,-86.9291000366211,-50.6997642517089,-123.03940577569982,12.571440071589175,2908051055
sw,-89.4075164794921,-51.0756874084472,-142.29151993509305,21.639781939247793,2908067722
sw,-87.3982696533203,-51.4373321533203,-155.66529184261654,30.62650167809358,2908084389
sw,-84.6698303222656,-52.4897918701171,-162.50114766647164,38.10337991234901,2908101056
sw,-82.0155487060546,-53.693431854248,-162.96506438322356,42.997529101139385,2908117723
sw,-78.9255065917968,-54.5965538024902,-158.05863822316914,44.89663184247521,2908134390
sw,-76.1123886108398,-55.3376884460449,-149.49791739000446,44.17366627205781,2908151057
sw,-73.9982299804687,-55.9614677429199,-139.45118306759178,41.88501460659508,2908167724
sw,-72.2246170043945,-56.5915908813476,-130.14160327222487,39.47816566095138,2908184391
sw,-70.3631439208984,-57.2063941955566,-123.37140361277818,38.40413287572722,2908201058
sw,-68.3901443481445,-57.8479995727539,-120.07902391496627,39.74519834009512,2908217725
sw,-66.4989471435546,-58.561668395996,-120.0541992884843,43.94868644043188,2908234392
sw,-64.8855438232421,-59.4254455566406,-121.90074802526983,50.72062138365217,2908251059
sw,-63.1716613769531,-60.4138107299804,-123.28000069495687,59.093233634509495,2908267726
sw,-61.0142364501953,-61.5178680419921,-121.40800397663949,67.64478614327852,2908284393
sw,-58.7951965332031,-62.8123207092285,-113.71609067227455,74.82257575382884,2908301060
sw,-56.9921073913574,-64.2848281860351,-98.52549993737472,79.30091667797807,2908317727
sw,-55.8548126220703,-65.8961944580078,-75.56314087222803,80.29560111003252,2908334394
sw,-55.0053672790527,-67.4209289550781,-46.17976581031179,77.75853076218029,2908351061
sw,-54.5723304748535,-68.6599884033203,-13.207992130788169,72.39806693923333,2908367728
sw,-54.8296699523925,-69.6594161987304,19.520904106331646,65.51425092566367,2908384395
sw,-55.6245498657226,-70.5249710083007,47.914276939928776,58.69157684065375,2908401062
sw,-57.2255363464355,-71.3239517211914,68.46283287379414,53.43283830179782,2908417729
sw,-59.2355880737304,-72.1367950439453,78.99713505302711,50.82782721356851,2908434396
sw,-61.1832160949707,-72.9920501708984,79.1479747921669,51.32986833941252,2908451063
sw,-62.4171295166015,-73.9062042236328,70.36149874153864,54.67580650508187,2908467730
sw,-62.3068923950195,-74.8969573974609,55.4561537375477,59.948072122048224,2908484397
sw,-62.5913696289062,-76.0090103149414,37.87332333092054,65.75052870921488,2908501064
sw,-63.0373878479003,-77.2750701904296,20.87840191755907,70.45397250036913,2908517731
sw,-63.1611633300781,-78.678970336914,6.952430858541493,72.45951880049323,2908534398
sw,-63.0806694030761,-80.0458602905273,-2.4989452387737305,70.42797685977034,2908551065
sw,-62.7930221557617,-81.2167434692382,-7.118581185263824,63.434225762656034,2908567732
sw,-62.8897171020507,-81.9822769165039,-7.3341810344173375,51.03060728573531,2908584399
sw,-63.6391220092773,-82.2980346679687,-3.980059196193401,33.237150019486,2908601066
sw,-64.1352615356445,-82.3170471191406,2.056470360241278,10.502617219042401,2908617733
sw,-63.9840393066406,-82.1840286254882,10.044309355192922,-16.32040272865737,2908634400
sw,-63.9951362609863,-81.7754364013671,19.426991645347595,-45.976650169448725,2908651067
sw,-64.5478439331054,-80.8186340332031,29.70287812684621,-76.82276636328811,2908667734
sw,-65.4616470336914,-79.13916015625,40.27909940423675,-106.9168543065195,2908684401
sw,-66.1680145263671,-76.6471099853515,50.398019403152524,-134.221794702185,2908701068
sw,-67.1210403442382,-73.6869277954101,59.179983745846,-156.90077670881908,2908717735
sw,-68.6212005615234,-70.5373916625976,65.774047914266,-173.62521008161295,2908734402
sw,-70.2465591430664,-67.2914886474609,69.56980787744074,-183.79763498393405,2908751069
sw,-71.4925079345703,-63.7954139709472,70.3945340873525,-187.62308667719682,2908767736
sw,-72.5816574096679,-60.6058464050293,68.61503020881479,-186.0162043929363,2908784403
sw,-73.6781921386718,-57.7304382324218,65.09729854944703,-180.3766064074342,2908801070
sw,-74.726577758789,-54.9134445190429,61.03191388572317,-172.28828814684005,2908817737
sw,-75.7873458862304,-52.2998619079589,57.67486482804393,-163.20389278934442,2908834404
sw,-76.804702758789,-49.9326667785644,56.067865796590674,-154.169908152043,2908851071
sw,-77.7106094360351,-47.5846939086914,56.798888475593806,-145.6400775159455,2908867738
sw,-78.5368270874023,-45.4615211486816,59.85612490945171,-137.4127818028484,2908884405
sw,-79.4221267700195,-43.5720405578613,64.61792178551195,-128.7107945758598,2908901072
sw,-80.577651977539,-41.6159591674804,69.99852655953887,-118.39637510806739,2908917739
sw,-82.1451187133789,-39.7497100830078,74.72805878391507,-105.28332551383976,2908934406
sw,-83.8482055664062,-38.175193786621,77.69385591680263,-88.47801398235399,2908951073
sw,-85.3329315185546,-37.0864562988281,78.23607643535684,-67.66719550275386,2908967740
sw,-86.5197448730468,-36.5739402770996,76.30066150253911,-43.28398815407968,2908984407
sw,-87.5081710815429,-36.5261535644531,72.40944177946984,-16.520658249182112,2909001074
sw,-88.4302749633789,-36.76611328125,67.47889128494286,10.803850196212109,2909017741
sw,-89.0463256835937,-37.2093200683593,62.564320868675246,36.49324590976093,2909034408
sw,-88.6299819946289,-38.0976409912109,58.606788063264105,58.3093590527532,2909051075
sw,-87.7596435546875,-39.7665557861328,56.23050387520044,74.35692134007445,2909067742
sw,-86.8731918334961,-41.6914634704589,55.608284019366984,83.45337369992734,2909084409
sw,-86.106704711914,-43.5676193237304,56.40000118986192,85.38548247801792,2909101076
sw,-85.3286514282226,-44.8345375061035,57.77144405400996,80.95554786035227,2909117743
sw,-84.3358383178711,-46.1000671386718,58.50228941301118,71.78006440815409,2909134410
sw,-83.2491302490234,-46.973274230957,57.178108901842066,59.897756679400395,2909151077
sw,-82.248046875,-47.289264678955,52.43463724968892,47.319034363291834,2909167744
sw,-81.4698638916015,-47.6472358703613,43.20118552813989,35.66836943027172,2909184411
sw,-80.9935302734375,-48.1875572204589,28.891289842334594,26.02771768266996,2909201078
sw,-80.914077758789,-49.2446594238281,9.511633851587222,18.995892974129912,2909217745
sw,-81.2194900512695,-50.3481636047363,-14.311996889548114,14.872489289484783,2909234412
sw,-81.8116073608398,-50.4008483886718,-41.3779707612739,13.816631251129397,2909251079
sw,-82.7351531982421,-50.2414054870605,-70.01061988516722,15.867827144804956,2909267746
sw,-84.1932601928711,-50.7235107421875,-98.22138140397861,20.82868393308087,2909284413
sw,-86.4414672851562,-51.3128433227539,-123.9314684153846,28.112879958101377,2909301080
sw,-89.0494155883789,-51.8708038330078,-145.23891877719203,36.684582460502575,2909317747
sw,-87.6223220825195,-52.4342384338378,-160.6844806492505,45.16177610592252,2909334414
sw,-84.9372482299804,-53.5243530273437,-169.46063615244813,52.078600074907364,2909351081
sw,-82.3045578002929,-54.9602012634277,-171.52873185237885,56.23696988663114,2909367748
sw,-79.059455871582,-56.2533454895019,-167.63855035300085,57.03548355852548,2909384415
sw,-75.9339904785156,-57.2495002746582,-159.24970409517357,54.656835893115755,2909401082
sw,-73.8097686767578,-58.0113639831543,-148.338473450375,50.037776907709464,2909417749
sw,-71.9957046508789,-58.6963806152343,-137.07984507812552,44.62502570800217,2909434416
sw,-69.9550552368164,-59.3701629638671,-127.44332865256075,39.99576932969242,2909451083
sw,-67.8099212646484,-59.953685760498,-120.79277153601275,37.45758346470912,2909467750
sw,-65.6814727783203,-60.4891662597656,-117.58476555401259,37.735077083861654,2909484417
sw,-63.880069732666,-61.1355895996093,-117.22332141935162,40.81591325370611,2909501084
sw,-62.5436859130859,-61.9989318847656,-118.0967993977889,45.98374108298911,2909517751
sw,-61.1562309265136,-62.9568328857421,-117.81739851065848,52.019450186054215,2909534418
sw,-59.2388954162597,-63.9832801818847,-113.67446327104709,57.51359969667234,2909551085
sw,-57.0611572265625,-65.0910568237304,-103.26183877707165,61.21143253646875,2909567752
sw,-55.3938827514648,-66.2946472167968,-85.15305862988069,62.31117251966097,2909584419
sw,-54.2785911560058,-67.4608078002929,-59.433368137055766,60.651429819122335,2909601086
sw,-53.6778984069824,-68.5025100708007,-27.908172288212207,56.748146712723404,2909617753
sw,-53.7991409301757,-69.3846359252929,6.106852848744868,51.672879340116566,2909634420
sw,-54.4956512451171,-70.1404037475586,38.39198377834266,46.7994032051534,2909651087
sw,-55.6070556640625,-70.7990112304687,64.69802359649141,43.477007503078525,2909667754
sw,-57.849811553955,-71.4271392822265,81.68484293767564,42.70690872147251,2909684421
sw,-60.0878677368164,-72.0846405029296,87.68244114900135,44.897700854962494,2909701088
sw,-61.8101043701171,-72.7976150512695,83.05440177664094,49.75756675710734,2909717755
sw,-62.7788391113281,-73.6769027709961,70.04434974109887,56.34959794426832,2909734422
sw,-62.5641593933105,-74.8461532592773,52.152676105800026,63.29738080565376,2909751089
sw,-63.3090171813964,-76.2069244384765,33.2528390918876,69.08759491662543,2909767756
sw,-63.5739250183105,-77.6911163330078,16.726460751559223,72.3850466519419,2909784423
sw,-63.517650604248,-79.1632614135742,4.846221999233254,72.26677517820748,2909801090
sw,-63.3033561706543,-80.4609832763671,-1.4798781634382923,68.3053358333106,2909817757
sw,-62.9823417663574,-81.3664169311523,-2.596694666268412,60.4849931311273,2909834424
sw,-63.2187576293945,-81.853775024414,0.30619164292123247,49.0017930931706,2909851091
sw,-64.3473587036132,-82.0733871459961,5.761483972519859,34.05193765546933,2909867758
sw,-65.3817062377929,-82.1710586547851,12.559004122861053,15.723907050831123,2909884425
sw,-65.3191146850586,-82.208625793457,20.05827569351371,-5.935850757762546,2909901092
sw,-65.3812561035156,-82.170783996582,28.17997977992546,-30.70204917684753,2909917759
sw,-66.1027145385742,-81.7255020141601,37.12531248594429,-57.9024770574027,2909934426
sw,-66.8171768188476,-80.5564193725586,46.98557661761875,-86.252947404052,2909951093
sw,-67.3948822021484,-78.5511932373046,57.42348221598523,-113.91201942511451,2909967760
sw,-68.2998733520507,-75.7768096923828,67.55379316577957,-138.77437145233532,2909984427
sw,-69.8436050415039,-72.6686782836914,76.07260908460425,-158.90903941016288,2910001094
sw,-71.7653579711914,-69.5070419311523,81.6001980548697,-172.98183862779226,2910017761
sw,-73.5915298461914,-66.3262329101562,83.12013893294984,-180.5137077476653,2910034428
sw,-75.0867309570312,-63.1288223266601,80.3500862981905,-181.90367493139496,2910051095
sw,-76.2967376708984,-60.2203178405761,73.90140544460616,-178.23814458580873,2910067762
sw,-77.2945709228515,-57.5533256530761,65.16976138425683,-170.9725366025746,2910084429
sw,-78.1914291381836,-54.9906463623046,55.99921306848513,-161.5905187008392,2910101096
sw,-78.9497604370117,-52.4940147399902,48.23093302759185,-151.32753358221353,2910117763
sw,-79.5598754882812,-50.1674346923828,43.26738902479526,-141.00576822990996,2910134430
sw,-80.0841064453125,-47.9541358947753,41.763990404985236,-130.98553344504506,2910151097
sw,-80.6310806274414,-45.9287757873535,43.51998308501769,-121.20845101173457,2910167764
sw,-81.428840637207,-44.2983970642089,47.5895340521152,-111.29762513595517,2910184431
sw,-82.5362014770507,-42.7561531066894,52.57811260812008,-100.6858017967134,2910201098
sw,-83.7549057006836,-41.2477531433105,57.03783577646155,-88.7539055165968,2910217765
sw,-84.9130020141601,-39.9617347717285,59.845603886509565,-74.96897977548194,2910234432
sw,-86.0029602050781,-39.4012260437011,60.45584808979243,-59.012119748767546,2910251099
sw,-86.9398956298828,-39.194351196289,58.96610251151704,-40.89081542612146,2910267766
sw,-87.6473159790039,-38.8478660583496,55.99932125386008,-21.033357751537284,2910284433
sw,-88.1926879882812,-38.5500831604003,52.46444386487244,-0.3496471479243816,2910301100
sw,-88.510627746582,-38.6848793029785,49.28464227458291,19.787117938382195,2910317767
sw,-88.333755493164,-39.5482940673828,47.17376423485531,37.69537426043951,2910334434
sw,-87.7780685424804,-40.8603706359863,46.50566727044012,51.69279109564379,2910351101
sw,-87.0638885498046,-42.4272918701171,47.28002672490683,60.4896871704556,2910367768
sw,-86.2996368408203,-43.7733764648437,49.160869089275,63.53468729982867,2910384435
sw,-85.5189590454101,-44.8983345031738,51.555967295379865,61.17920511268511,2910401102
sw,-84.6693572998046,-45.8257484436035,53.71002781402637,54.5955542462284,2910417769
sw,-83.7549057006836,-46.6237716674804,54.79326887730202,45.47772240499735,2910434436
sw,-82.8666152954101,-46.9284973144531,53.97459097215055,35.62771545027389,2910451103
sw,-82.0891189575195,-47.1207122802734,50.47601713601579,26.561452030067226,2910467770
sw,-81.4690856933593,-47.4518966674804,43.61526483115303,19.254860841527382,2910484437
sw,-81.0480194091796,-47.7410354614257,32.85398676701121,14.098465423276881,2910501104
sw,-80.8218078613281,-48.1428489685058,17.871862030759974,11.050559820109875,2910517771
sw,-80.7926940917968,-48.9783973693847,-1.3260822444653364,9.901586877227464,2910534438
sw,-81.0154190063476,-49.7413902282714,-24.287917161689926,10.516983622629178,2910551105
sw,-81.6287231445312,-49.9770698547363,-50.02552904186396,12.936375618747467,2910567772
sw,-82.7144393920898,-49.9893150329589,-77.01559132261566,17.279267817281642,2910584439
sw,-84.4365921020507,-50.363109588623,-103.33207296003197,23.513236981468886,2910601106
sw,-86.7810745239257,-50.9418754577636,-126.9083313101757,31.220023616097613,2910617773
sw,-89.1008224487304,-51.5327987670898,-145.87528558500352,39.498869254235956,2910634440
sw,-87.274299621582,-52.3714447021484,-158.889852225475,47.0793264752229,2910651107
sw,-84.767707824707,-53.6040840148925,-165.3741933364771,52.622182182278564,2910667774
sw,-82.0957489013671,-54.9199447631835,-165.62397696707487,55.10898431944532,2910684441
sw,-78.9009017944336,-56.083137512207,-160.77937704226576,54.1816269222448,2910701108
sw,-76.2282104492187,-56.9793052673339,-152.65969274042556,50.306163840596184,2910717775
sw,-74.2438583374023,-57.694049835205,-143.4570238460303,44.696769263576016,2910734442
sw,-72.3028717041015,-58.3144950866699,-135.30639860838332,39.02020607138083,2910751109
sw,-70.1134262084961,-58.8262672424316,-129.80437808732597,34.9711078308717,2910767776
sw,-68.0596771240234,-59.2874145507812,-127.59279336108516,33.84019080273479,2910784443
sw,-66.2582397460937,-59.7989540100097,-128.12422687453224,36.1901332890982,2910801110
sw,-64.7053985595703,-60.468032836914,-129.69055901530058,41.718787193581306,2910817777
sw,-62.7749519348144,-61.3053321838378,-129.74617019725048,49.33935677428478,2910834444
sw,-60.2990684509277,-62.2822227478027,-125.49104770914414,57.453854140463,2910851111
sw,-57.8091087341308,-63.5004615783691,-114.59316261105984,64.35073959458222,2910867778
sw,-56.0810661315918,-64.9031600952148,-95.85738268540953,68.62878700137784,2910884445
sw,-55.2153930664062,-66.3185958862304,-69.64385324574411,69.54181799854905,2910901112
sw,-54.5872268676757,-67.5889129638671,-37.91795517788387,67.17630481914706,2910917779
sw,-54.4103507995605,-68.6196899414062,-3.9292515290261187,62.41630486013368,2910934446
sw,-54.8355484008789,-69.4379196166992,28.39472533606705,56.70894877823495,2910951113
sw,-55.7579116821289,-70.193489074707,55.21114248591835,51.69907263220301,2910967780
sw,-57.3843116760253,-70.9634704589843,73.53148408987187,48.83241603421281,2910984447
sw,-59.54487991333,-71.7343444824218,81.83256906087237,49.02398401776208,2911001114
sw,-61.3220863342285,-72.5394821166992,80.34907302307519,52.459447578311334,2911017781
sw,-62.3389244079589,-73.4786300659179,70.94819809597239,58.55907709652621,2911034448
sw,-62.5368576049804,-74.6145324707031,56.609914262841265,66.09763667918402,2911051115
sw,-63.0221633911132,-75.941780090332,40.67414721378859,73.44344011117735,2911067782
sw,-63.5668792724609,-77.4689865112304,26.09129095549289,78.85641015255622,2911084449
sw,-63.7111778259277,-79.0846710205078,14.883428343484326,80.77314936951757,2911101116
sw,-63.6432952880859,-80.5076293945312,7.924713984855131,78.01419314627668,2911117783
sw,-63.4888954162597,-81.6043319702148,5.0463055578687195,69.87864853080396,2911134450
sw,-63.9421958923339,-82.3388366699218,5.393844169515135,56.137043210018305,2911151117
sw,-65.1860733032226,-82.7730636596679,7.90418829342833,36.97381951920833,2911167784
sw,-65.9025192260742,-82.974739074707,11.726699372785037,12.942304133108378,2911184451
sw,-65.592788696289,-82.9604263305664,16.432484493199244,-15.033076187964502,2911201118
sw,-65.5031280517578,-82.6115646362304,21.957051997719898,-45.625641790447006,2911217785
sw,-66.1881561279296,-81.6301727294921,28.357518553201096,-77.10985509838659,2911234452
sw,-67.11376953125,-79.8755493164062,35.540380790042214,-107.4683587903784,2911251119
sw,-67.4766311645507,-77.3534469604492,43.091893836519795,-134.62886101525447,2911267786
sw,-68.137336730957,-74.4291076660156,50.270612184515144,-156.78845303111228,2911284453
