Label,Left_Hip_q,Right_Hip_q,Left_Hip_qd,Right_Hip_qd,SampleTimeFine
sw,-86.9876022338867,-55.6465110778808,-169.944671630859,63.5279579162597,2615111863
sw,-84.4115982055664,-56.7838439941406,-169.69436367089105,62.99927942291992,2615128530
sw,-81.4824676513671,-57.6092453002929,-169.47853047340118,53.654274049664494,2615145197
sw,-78.6844711303711,-58.4010467529296,-168.42559891001386,45.49504957922545,2615161864
sw,-76.2585144042968,-59.1580505371093,-166.27093932687958,39.48428486236577,2615178531
sw,-73.8341064453125,-59.83247756958,-163.05827735019423,36.22572062676944,2615195198
sw,-71.3550949096679,-60.5395889282226,-159.07826718800922,35.87972109902787,2615211865
sw,-68.8349533081054,-61.3320655822753,-154.70296579178657,38.16120918185083,2615228532
sw,-66.4730072021484,-62.1202697753906,-150.173288468786,42.40770051953855,2615245199
sw,-64.2579803466796,-62.8080558776855,-145.40555042542005,47.697810591895255,2615261866
sw,-62.2801780700683,-63.5755386352539,-139.87751585087383,53.00362242179128,2615278533
sw,-60.3558959960937,-64.5251846313476,-132.64070820010994,57.365347793702654,2615295200
sw,-58.4046974182128,-65.6659927368164,-122.48052792023891,60.072368322438855,2615311867
sw,-56.5325241088867,-66.9047698974609,-108.20618856333249,60.8186819225458,2615328534
sw,-54.9431648254394,-68.0398559570312,-89.00782909786389,59.78630041147448,2615345201
sw,-54.0504188537597,-69.0278625488281,-64.78819067706873,57.615417193928295,2615361868
sw,-53.4002304077148,-69.9253463745117,-36.376028687770905,55.25065075707731,2615378535
sw,-53.1187057495117,-70.7518844604492,-5.5547616145435,53.695387131619974,2615395202
sw,-53.4069633483886,-71.5305404663086,25.121983385821316,53.740314267267664,2615411869
sw,-54.4195327758789,-72.3400650024414,52.71395760379473,55.743334121613756,2615428536
sw,-55.5926322937011,-73.2763442993164,74.41572230150952,59.52357698859527,2615445203
sw,-57.3141860961914,-74.3826217651367,88.10907826257082,64.39782205740079,2615461870
sw,-59.3268127441406,-75.6750259399414,92.81359250187327,69.34335131381731,2615478537
sw,-60.9251251220703,-77.1369094848632,88.91100004713188,73.23058475329675,2615495204
sw,-62.2641334533691,-78.6294250488281,78.06824384948435,75.04620622592323,2615511871
sw,-62.93115234375,-79.9901885986328,62.86659410771369,74.03346280581792,2615528538
sw,-63.7179832458496,-81.1236953735351,46.23410270989227,69.71219565214291,2615545205
sw,-64.230972290039,-81.9709930419921,30.83624799247329,61.7954463654038,2615561872
sw,-64.2562789916992,-82.5173263549804,18.58286209136765,50.06976291194501,2615578539
sw,-64.1095733642578,-82.8459854125976,10.369361436804395,34.328129721976836,2615595206
sw,-64.0597076416015,-83.0272598266601,6.108538071809676,14.423077576778775,2615611873
sw,-64.6714935302734,-83.0916442871093,5.031273311802364,-9.553263463717602,2615628540
sw,-65.9131698608398,-82.8473587036132,6.142996296718629,-37.031419642160394,2615645207
sw,-66.5460510253906,-82.0152969360351,8.650861085175572,-66.79200997477844,2615661874
sw,-66.3797378540039,-80.4833297729492,12.182950347873447,-96.97877131256845,2615678541
sw,-66.4475479125976,-78.1329345703125,16.72821379949569,-125.35031715697639,2615695208
sw,-66.8904190063476,-75.0925903320312,22.37479564391717,-149.7182537036173,2615711875
sw,-67.3947982788086,-71.8339157104492,29.01591191031077,-168.42715435703434,2615728542
sw,-67.8462829589843,-68.6066741943359,36.181225571817436,-180.70304519020948,2615745209
sw,-68.6731033325195,-65.3831939697265,43.07165713435534,-186.74903241880364,2615761876
sw,-70.1049728393554,-62.2377624511718,48.780868908815165,-187.57077568963814,2615778543
sw,-71.4545440673828,-59.4217872619628,52.60830867522822,-184.61438130147323,2615795210
sw,-72.4647674560546,-56.656982421875,54.32845033343136,-179.34946908279522,2615811877
sw,-73.3977966308593,-53.8220062255859,54.29941116718174,-172.91977724835513,2615828544
sw,-74.3666687011718,-51.1296424865722,53.36541277673355,-165.93311247170658,2615845211
sw,-75.1968765258789,-48.6750717163085,52.59130047796097,-158.40632997713152,2615861878
sw,-75.9827728271484,-46.4469490051269,52.92324098843317,-149.84665729176857,2615878545
sw,-76.8203506469726,-44.3576354980468,54.885634639029306,-139.4403615129109,2615895212
sw,-77.7490463256836,-42.2458152770996,58.40765334177452,-126.31407032533797,2615911879
sw,-78.6635665893554,-40.1835823059082,62.83337308782137,-109.8169714296839,2615928546
sw,-79.7290802001953,-38.5209350585937,67.1167861147916,-89.75192097040906,2615945213
sw,-81.1793136596679,-37.7137413024902,70.1480638329547,-66.4868267879409,2615961880
sw,-82.8498077392578,-37.5606117248535,71.11173257190845,-40.920664021456744,2615978547
sw,-84.2510986328125,-37.8007431030273,69.75613801172814,-14.34172848021832,2615995214
sw,-85.2337951660156,-38.0235939025878,66.47518549444132,11.746880559597498,2616011881
sw,-85.9474945068359,-38.2716522216796,62.171952861463765,35.77832791330697,2616028548
sw,-86.4915618896484,-39.1858558654785,57.961730700273,56.24869721703939,2616045215
sw,-86.9464263916015,-40.5565643310546,54.83267390625062,71.85596239910794,2616061882
sw,-87.3039093017578,-42.1688957214355,53.38507143079576,81.67309732024935,2616078549
sw,-87.4085235595703,-43.8011474609375,53.72130469771693,85.32693677544927,2616095216
sw,-87.1371383666992,-45.3904800415039,55.48995739301056,83.11569509661692,2616111883
sw,-86.5426025390625,-46.8671264648437,58.03324490537783,76.00032535044457,2616128550
sw,-85.8013381958007,-48.0318984985351,60.56550568822847,65.44434616817331,2616145217
sw,-84.9588470458984,-48.4600372314453,62.3210569422044,53.134133215454995,2616161884
sw,-84.030776977539,-48.8992156982421,62.6381150154149,40.66544725498878,2616178551
sw,-83.0601425170898,-49.3577995300293,60.97501015805577,29.305460495090806,2616195218
sw,-82.1506729125976,-49.7251167297363,56.87592997253601,19.909540061870416,2616211885
sw,-81.4231185913086,-50.5160598754882,49.91608126867671,12.994479488622842,2616228552
sw,-80.9144210815429,-51.3266677856445,39.66420786682061,8.88657807876204,2616245219
sw,-80.675064086914,-51.5584030151367,25.702331990848045,7.8253949425652625,2616261886
sw,-80.6601181030273,-51.6612663269043,7.7303910109778915,9.939893343967872,2616278553
sw,-80.732063293457,-51.9883499145507,-14.249190853169997,15.105541620244498,2616295220
sw,-80.979621887207,-52.3099479675293,-39.719460149235,22.779803381110945,2616311887
sw,-81.7584609985351,-52.7853813171386,-67.5027574518539,31.940889165895243,2616328554
sw,-83.2543029785156,-53.6394996643066,-95.77837048295744,41.208000933894326,2616345221
sw,-85.5675201416015,-54.8084182739257,-122.31324706382968,49.13280174932978,2616361888
sw,-88.4336471557617,-56.1804962158203,-144.86820005866014,54.566912795218826,2616378555
sw,-88.3631515502929,-57.4197349548339,-161.66228368412723,56.967119698102415,2616395222
sw,-85.3751831054687,-58.3154792785644,-171.75069133142512,56.51995780588352,2616411889
sw,-82.4546966552734,-59.0094680786132,-175.2084982045923,54.04248587047052,2616428556
sw,-79.2312927246093,-59.7973365783691,-173.08388959993414,50.70721748340106,2616445223
sw,-76.2587890625,-60.6799621582031,-167.14581148880737,47.698508754272076,2616461890
sw,-73.8911437988281,-61.4811706542968,-159.48314842795963,45.91179501233778,2616478557
sw,-71.6812438964843,-62.2639236450195,-152.03051161324524,45.76974557498715,2616495224
sw,-69.4609985351562,-63.1081199645996,-146.11561722536615,47.181605206867324,2616511891
sw,-67.3094863891601,-64.0363845825195,-142.13469692305108,49.633702502386214,2616528558
sw,-65.2021484375,-64.9839324951171,-139.4443871928535,52.373361980950676,2616545225
sw,-62.9737091064453,-65.9881286621093,-136.5082959239501,54.63344579802467,2616561892
sw,-60.6692771911621,-67.0286636352539,-131.27027154824805,55.84116140846485,2616578559
sw,-58.4475669860839,-68.01904296875,-121.66532202987236,55.76319611043579,2616595226
sw,-56.6587181091308,-68.9480667114257,-106.14360881337075,54.55752678630588,2616611893
sw,-55.6235618591308,-69.8473205566406,-84.08821370449478,52.7258781146777,2616628560
sw,-54.8788566589355,-70.701919555664,-56.04944027275394,50.983618552810725,2616645227
sw,-54.304889678955,-71.5248184204101,-23.768642166787853,50.08008710374157,2616661894
sw,-54.1350898742675,-72.372444152832,10.007563769043701,50.60941197561103,2616678561
sw,-54.5426177978515,-73.2402420043945,41.91531821587482,52.850878772790445,2616695228
sw,-55.9177322387695,-74.1245727539062,68.53765515860586,56.671070970814434,2616711895
sw,-57.7657852172851,-75.0874938964843,87.06286059195033,61.50872649466424,2616728562
sw,-60.0947799682617,-76.2215423583984,95.88344816925758,66.44745008887149,2616745229
sw,-62.0213813781738,-77.5379486083984,94.95055812438895,70.36095218958016,2616761896
sw,-63.3742599487304,-78.9282913208007,85.75088320420983,72.09409970244076,2616778563
sw,-63.7162208557128,-80.2237319946289,70.90161719152678,70.63050428836574,2616795230
sw,-64.5269699096679,-81.3746185302734,53.50133377619475,65.20398857961635,2616811897
sw,-65.2568130493164,-82.2073669433593,36.452423911460485,55.33836253894772,2616828564
sw,-65.5464477539062,-82.6537780761718,21.947593429380838,40.83584857471992,2616845231
sw,-65.5853118896484,-82.8478012084961,11.223621439055014,21.760078682666325,2616861898
sw,-65.4026794433593,-82.7744216918945,4.5932112975822506,-1.5418639466033386,2616878565
sw,-65.9681091308593,-82.4956741333007,1.6977314399205776,-28.3667825675721,2616895232
sw,-66.9678802490234,-81.8422164916992,1.8700343981247165,-57.57044391249265,2616911899
sw,-67.1971740722656,-80.6067276000976,4.461982137400393,-87.54607663363741,2616928566
sw,-66.9712524414062,-78.6558074951171,9.011359837684617,-116.3380774001596,2616945233
sw,-67.1650085449218,-75.8902893066406,15.211573495433358,-141.91013571488662,2616961900
sw,-67.741226196289,-72.7351531982421,22.753613662775013,-162.50904772865542,2616978567
sw,-68.3940353393554,-69.3953704833984,31.15998691713211,-177.00618401669814,2616995234
sw,-68.8340988159179,-66.0681457519531,39.7077217474988,-185.09519914369574,2617011901
sw,-69.6396942138671,-62.8887367248535,47.48324522902084,-187.28091860799694,2617028568
sw,-71.0325775146484,-60.0329513549804,53.560540302841126,-184.67759041108312,2617045235
sw,-72.3207244873046,-57.2181663513183,57.24812490056904,-178.69915696763323,2617061902
sw,-73.4284057617187,-54.3835258483886,58.3146162243802,-170.74094578317087,2617078569
sw,-74.4855651855468,-51.7275772094726,57.09974533058878,-161.9243975185981,2617095236
sw,-75.4414672851562,-49.3568115234375,54.45840865358523,-152.93356722654832,2617111903
sw,-76.2395324707031,-47.0850944519043,51.54852459338638,-143.9447376642948,2617128570
sw,-77.0094985961914,-45.0494232177734,49.52722315931749,-134.64552918639356,2617145237
sw,-77.8305969238281,-43.1658859252929,49.24620594694584,-124.34167902942617,2617161904
sw,-78.610107421875,-41.3567810058593,51.033282248030794,-112.14215559204683,2617178571
sw,-79.3923416137695,-39.6767272949218,54.619424247823915,-97.19512446071262,2617195238
sw,-80.2839050292968,-38.341194152832,59.230238921697406,-78.9296122007658,2617211905
sw,-81.5133743286132,-37.8135452270507,63.817002475243605,-57.25472810651314,2617228572
sw,-83.0107116699218,-37.6135139465332,67.36127928588505,-32.68453266120734,2617245239
sw,-84.4106140136718,-37.4107208251953,69.15880465963372,-6.3769128899953476,2617261906
sw,-85.5211029052734,-37.3736381530761,68.99016227175848,19.923364301903394,2617278573
sw,-86.432014465332,-38.0323600769043,67.12754016184972,44.06155049699569,2617295240
sw,-87.2495651245117,-39.4292945861816,64.19267109617189,63.78953491212253,2617311907
sw,-87.9243469238281,-41.0586929321289,60.93544117049546,77.19281421741613,2617328574
sw,-88.3144912719726,-42.8254508972168,58.01799069131934,83.1274568248631,2617345241
sw,-88.1523132324218,-44.3977813720703,55.865278527734574,81.52792274515745,2617361908
sw,-87.561050415039,-45.8889122009277,54.601908242149996,73.47149055104587,2617378575
sw,-86.8919677734375,-47.0854415893554,54.0617240175469,60.9599713923096,2617395242
sw,-86.1412124633789,-47.5947341918945,53.844119342257784,46.46938723070413,2617411909
sw,-85.2527389526367,-47.7663269042968,53.3943249462574,32.39443818597861,2617428576
sw,-84.3438339233398,-47.8133659362793,52.09014462299791,20.555615499369463,2617445243
sw,-83.4452209472656,-47.9753341674804,49.31752971730876,11.922898862339087,2617461910
sw,-82.615364074707,-48.137954711914,44.5177816993133,6.634260574541263,2617478577
sw,-82.0040206909179,-48.8655586242675,37.198971646080864,4.272683150784636,2617495244
sw,-81.6852111816406,-49.7199592590332,26.924192392485843,4.259964318400306,2617511911
sw,-81.6438674926757,-50.005874633789,13.31037556121858,6.179671250152072,2617528578
sw,-81.8574142456054,-50.1848068237304,-3.9209604649501775,9.884624684672914,2617545245
sw,-82.2119522094726,-50.4033432006835,-24.817743310901353,15.361433864707635,2617561912
sw,-82.7233352661132,-50.5653533935546,-49.0163849208255,22.45321646227999,2617578579
sw,-83.5943069458007,-50.8893928527832,-75.57613021010158,30.611010421653948,2617595246
sw,-85.1634902954101,-51.4817161560058,-102.92440591939624,38.82531956043733,2617611913
sw,-87.4628677368164,-52.5274009704589,-128.98525281668188,45.801032655087546,2617628580
sw,-89.3541107177734,-53.8929138183593,-151.4942919936025,50.324442453529855,2617645247
sw,-86.4183807373046,-55.1970329284668,-168.42539888332382,51.67845709903484,2617661914
sw,-83.229377746582,-56.1829185485839,-178.4089190738609,49.93317779652139,2617678581
sw,-79.9753265380859,-56.8963050842285,-181.02665023514373,45.98901203831672,2617695248
sw,-76.4615249633789,-57.4520683288574,-176.90967729395885,41.352069778218734,2617711915
sw,-73.8566665649414,-57.9875564575195,-167.61581137666707,37.7229767227212,2617728582
sw,-71.7882843017578,-58.5426368713378,-155.3127846627908,36.53538217264618,2617745249
sw,-69.6788864135742,-59.1361045837402,-142.3399302757973,38.57826840719568,2617761916
sw,-67.4742889404296,-59.8367538452148,-130.75062558976475,43.794929673635366,2617778583
sw,-65.4085922241211,-60.6602897644043,-121.93027603689501,51.29690684733234,2617795250
sw,-63.3947639465332,-61.6136970520019,-116.34598120910191,59.580329699229786,2617811917
sw,-61.6733627319335,-62.7374267578125,-113.44761611449708,66.89133416072771,2617828584
sw,-60.4306602478027,-64.1091766357421,-111.73046846379818,71.65725331589431,2617845251
sw,-59.1072082519531,-65.6469116210937,-108.97736726777737,72.8821497416853,2617861918
sw,-57.2323188781738,-67.1103515625,-102.68980541811807,70.40452094980763,2617878585
sw,-55.4507637023925,-68.2582473754882,-90.66800241982305,64.94091091634556,2617895252
sw,-54.2223205566406,-69.1113128662109,-71.62486262953148,57.89491593702414,2617911919
sw,-53.3430023193359,-69.8100204467773,-45.66905426463519,50.9825969248161,2617928586
sw,-52.9467506408691,-70.4153137207031,-14.505569820241979,45.78369579093837,2617945253
sw,-53.2292518615722,-71.0043640136718,18.729981146319712,43.34806125878199,2617961920
sw,-53.9927940368652,-71.6621856689453,49.99711666347441,43.96324257612251,2617978587
sw,-55.4223937988281,-72.4498748779296,75.14175173816211,47.13630398743101,2617995254
sw,-57.4182739257812,-73.3678970336914,90.78446253666529,51.78079986963123,2618011921
sw,-59.6424293518066,-74.4528045654296,95.09276993772383,56.54524291629062,2618028588
sw,-61.3023490905761,-75.7289810180664,88.23105214870851,60.18317246400764,2618045255
sw,-62.6305694580078,-77.0732650756836,72.35479389644173,61.85361636986755,2618061922
sw,-62.7225303649902,-78.3174514770507,51.14418101478283,61.25850464623051,2618078589
sw,-63.3439254760742,-79.3695831298828,29.007668656036117,58.571427909924026,2618095256
sw,-63.6023521423339,-80.0623703002929,10.16797826972372,54.18264360992896,2618111923
sw,-63.3705787658691,-80.44189453125,-2.156595601319838,48.358133365738915,2618128590
sw,-63.0708427429199,-80.7619705200195,-6.316543116841805,40.95599828096806,2618145257
sw,-62.7290534973144,-81.1584701538086,-2.4449187467663513,31.334827422655856,2618161924
sw,-62.6938362121582,-81.6433715820312,7.717466529502174,18.51919733954495,2618178591
sw,-63.192398071289,-82.0288772583007,21.352945516275746,1.5809558616467825,2618195258
sw,-64.4966125488281,-82.1236877441406,35.33156781850275,-19.9020988367216,2618211925
sw,-66.4782333374023,-81.6613693237304,47.00276956374738,-45.4911968667646,2618228592
sw,-67.4523544311523,-80.4777069091796,54.778276168508036,-73.78447378899908,2618245259
sw,-67.9499359130859,-78.5675430297851,58.3368813758124,-102.62331516489769,2618261926
sw,-68.8915557861328,-75.9549179077148,58.430034376519785,-129.54539426256855,2618278593
sw,-69.8882141113281,-72.9428558349609,56.41662576624606,-152.32990960186197,2618295260
sw,-70.5963439941406,-69.8733673095703,53.723855887703465,-169.45170926612892,2618311927
sw,-71.3313674926757,-66.8650741577148,51.408646451992546,-180.30784522885116,2618328594
sw,-72.1945266723632,-63.7557525634765,49.927798148644854,-185.17788356746755,2618345261
sw,-73.1174545288086,-60.8581047058105,49.151606625731254,-184.9783121953264,2618361928
sw,-74.2026977539062,-58.0547561645507,48.58299390430703,-180.92703166295308,2618378595
sw,-75.379638671875,-55.1999549865722,47.68139448152732,-174.23174535248464,2618395262
sw,-76.4628601074218,-52.4564971923828,46.15921479781591,-165.87268592018953,2618411929
sw,-77.2168884277343,-49.9959526062011,44.13625985352218,-156.49677623303307,2618428596
sw,-77.7825698852539,-47.6274070739746,42.101142136208495,-146.4037409468824,2618445263
sw,-78.3140258789062,-45.3678741455078,40.711211238524065,-135.5928086654135,2618461930
sw,-78.8944396972656,-43.3972129821777,40.524965642393006,-123.84174825125903,2618478597
sw,-79.4529724121093,-41.6740989685058,41.776797466012496,-110.79715872229106,2618495264
sw,-80.0258331298828,-40.1899604797363,44.27538282235185,-96.06422625963454,2618511931
sw,-80.7856369018554,-39.008934020996,47.455798202704464,-79.2959473552099,2618528598
sw,-81.8090209960937,-38.4496040344238,50.562133768566426,-60.29193737744892,2618545265
sw,-82.9399261474609,-38.1348762512207,52.89403183865578,-39.1181174203514,2618561932
sw,-83.9510421752929,-37.7180137634277,54.0280686903452,-16.242343902546136,2618578599
sw,-84.7914733886718,-37.4404830932617,53.93479572856894,7.355090901355241,2618595266
sw,-85.5080413818359,-37.7637710571289,52.95524618435879,30.17335657362883,2618611933
sw,-86.1299667358398,-38.9904441833496,51.65817416940587,50.358207226846496,2618628600
sw,-86.7137832641601,-40.5324592590332,50.6428084136218,66.04976884911285,2618645267
sw,-87.2191314697265,-42.2424888610839,50.3622612840803,75.81863581681273,2618661934
sw,-87.4986877441406,-43.7975730895996,51.02060098872866,79.0367197401041,2618678601
sw,-87.4363937377929,-45.1148948669433,52.55856910625309,76.04644574946948,2618695268
sw,-87.0397186279296,-46.2466316223144,54.70875347714192,68.07262499423393,2618711935
sw,-86.3505783081054,-47.2181663513183,57.08208132784187,56.91673927240391,2618728602
sw,-85.5155029296875,-47.7741088867187,59.244861398260454,44.54089478723686,2618745269
sw,-84.6246566772461,-47.9793624877929,60.7561265685138,32.67250184993891,2618761936
sw,-83.6783905029296,-48.2069854736328,61.15515624068595,22.544626601729018,2618778603
sw,-82.7807998657226,-48.430923461914,59.913161435844984,14.837480946851004,2618795270
sw,-81.9718551635742,-49.1019477844238,56.38334043269334,9.810267823185985,2618811937
sw,-81.3006515502929,-50.1256866455078,49.79321020733546,7.52982041251562,2618828604
sw,-80.8157730102539,-50.5740776062011,39.318174605511906,8.053415399139473,2618845271
sw,-80.4788665771484,-50.6125335693359,24.253107150477508,11.44828627989002,2618861938
sw,-80.2119903564453,-50.7817153930664,4.260223959261381,17.631478800529653,2618878605
sw,-80.2013473510742,-51.0284309387207,-20.373717397561503,26.13382542186695,2618895272
sw,-80.698616027832,-51.5807647705078,-48.56951187466624,35.95156195848563,2618911939
sw,-81.8834686279296,-52.4140739440918,-78.47013603435123,45.61146615570948,2618928606
sw,-83.8253097534179,-53.6263732910156,-107.67893526652671,53.4686576379333,2618945273
sw,-86.428840637207,-55.0639839172363,-133.6802034559694,58.141664358890914,2618961940
sw,-89.3785018920898,-56.359764099121,-154.3273289155042,58.92165552482699,2618978607
sw,-87.4883804321289,-57.3593635559082,-168.25654971582063,55.999767632865655,2618995274
sw,-84.6730728149414,-58.0504341125488,-175.11697368768677,50.4311996174596,2619011941
sw,-81.627685546875,-58.6546478271484,-175.57764520676366,43.857661618552655,2619028608
sw,-78.3891906738281,-59.2966003417968,-171.13659533815303,38.08991267246239,2619045275
sw,-75.7362747192382,-59.9304237365722,-163.78624816286685,34.678617566498,2619061942
sw,-73.5104217529296,-60.4869804382324,-155.59529615939806,34.57951753093517,2619078609
sw,-71.3690185546875,-61.0967407226562,-148.2779694437906,37.975404986639106,2619095276
sw,-69.0718002319336,-61.8319206237793,-142.83889168582834,44.27597594470239,2619111943
sw,-66.6921463012695,-62.7032051086425,-139.37698136501334,52.283517036279335,2619128610
sw,-64.3842086791992,-63.7338905334472,-137.09055372934336,60.48442055366872,2619145277
sw,-62.3072319030761,-64.9428405761718,-134.4701515723612,67.40310996714891,2619161944
sw,-60.3090019226074,-66.3343963623046,-129.62766981828372,71.94008929705093,2619178611
sw,-58.3568572998046,-67.8029403686523,-120.69826423666548,73.61454293376428,2619195278
sw,-56.4930458068847,-69.1508712768554,-106.2511401280835,72.64874279319858,2619211945
sw,-55.2909469604492,-70.286262512207,-85.64527552608112,69.86861606094585,2619228612
sw,-54.4371147155761,-71.255126953125,-59.27021022308166,66.44647050488088,2619245279
sw,-53.864028930664,-72.1500930786132,-28.62541491539542,63.56122243622563,2619261946
sw,-53.7378234863281,-73.0663146972656,3.7913875459023334,62.07730129698854,2619278613
sw,-54.0717620849609,-74.057014465332,34.80108519286531,62.333567567940264,2619295280
sw,-54.9651641845703,-75.142951965332,61.05386955262761,64.0928259418888,2619311947
sw,-56.7282562255859,-76.3849945068359,79.67079369244775,66.64826058374567,2619328614
sw,-59.0559387207031,-77.7451095581054,88.88143541116003,69.03513680725084,2619345281
sw,-61.0269699096679,-79.0531234741211,88.46949583554162,70.26912112049396,2619361948
sw,-62.6863288879394,-80.3465499877929,79.85461204854332,69.53349645626896,2619378615
sw,-62.9335060119628,-81.5505981445312,65.74714665347743,66.26429261220687,2619395282
sw,-63.3710708618164,-82.5382080078125,49.47298769013076,60.1244922623193,2619411949
sw,-64.0727767944336,-83.2349395751953,34.190288410693846,50.901958829081515,2619428616
sw,-64.2338409423828,-83.6186294555664,22.241037919025107,38.39747538325508,2619445283
sw,-64.1937026977539,-83.7974624633789,14.803440942486828,22.377671518667373,2619461950
sw,-64.1697540283203,-83.8085327148437,11.89748459388182,2.6440436263439873,2619478617
sw,-65.0713653564453,-83.6739196777343,12.6919437323083,-20.784459891736923,2619495284
sw,-66.428726196289,-83.2134017944336,15.975578270861922,-47.442594823516686,2619511951
sw,-66.9312438964843,-82.1427764892578,20.60531091499332,-76.25433800572785,2619528618
sw,-66.8754348754882,-80.3605499267578,25.770367193706182,-105.5362401236621,2619545285
sw,-67.2654724121093,-77.8809356689453,31.020255747944983,-133.20962087607558,2619561952
sw,-68.1090011596679,-74.92919921875,36.12767696651393,-157.17267291132666,2619578619
sw,-68.8961410522461,-71.6787567138671,40.91075393376907,-175.71296778967718,2619595286
sw,-69.6674499511718,-68.4379425048828,45.11029654959885,-187.82632763776587,2619611953
sw,-70.5659027099609,-65.0482101440429,48.36160395834212,-193.35271111744325,2619628620
sw,-71.7710037231445,-61.7990188598632,50.25972007347184,-192.91371393077978,2619645287
sw,-72.8392486572265,-58.8846931457519,50.491297935607946,-187.69954596434687,2619661954
sw,-73.6277084350586,-55.962116241455,48.98530487699606,-179.1816125892614,2619678621
sw,-74.5612030029296,-53.1652641296386,46.02492435823015,-168.82038470778738,2619695288
sw,-75.4811248779296,-50.7125625610351,42.271796213971996,-157.81482199816068,2619711955
sw,-76.1723709106445,-48.470458984375,38.677305953371864,-146.92049784574021,2619728622
sw,-76.7739868164062,-46.3884391784668,36.2879047058647,-136.35759823462985,2619745289
sw,-77.3826599121093,-44.4910545349121,35.98806111030994,-125.82698545180696,2619761956
sw,-77.9760665893554,-42.5905609130859,38.25390496313927,-114.63722558802635,2619778623
sw,-78.6011352539062,-40.7569274902343,42.9971468600281,-101.91669324652288,2619795290
sw,-79.2942504882812,-39.2787742614746,49.557086058712514,-86.85824734311903,2619811957
sw,-80.2001647949218,-38.430061340332,56.85623431356307,-68.93899498197459,2619828624
sw,-81.5580825805664,-38.1189384460449,63.68376871446754,-48.080190649998585,2619845291
sw,-83.1566543579101,-37.819766998291,69.02297190641735,-24.743686225859445,2619861958
sw,-84.6125717163086,-37.6177139282226,72.31241558633225,0.02984515296799045,2619878625
sw,-85.8165740966796,-37.6852684020996,73.5467171505611,24.659469085475276,2619895292
sw,-86.7655410766601,-38.4648056030273,73.18524040247127,47.18330263038893,2619911959
sw,-87.6096038818359,-40.015640258789,71.91890448167074,65.56472765032925,2619928626
sw,-88.4337692260742,-41.8058815002441,70.40129898083438,78.1021053882444,2619945293
sw,-88.8378677368164,-43.5551109313964,69.05009475470362,83.82215072672818,2619961960
sw,-88.0860290527343,-45.1115570068359,67.97341256414592,82.71417289547668,2619978627
sw,-86.9390640258789,-46.4211463928222,67.00817458649782,75.7151054300894,2619995294
sw,-85.8677749633789,-47.3972511291503,65.8130075271175,64.45288792514737,2620011961
sw,-84.8930511474609,-47.7978248596191,63.95568865657993,50.84714628960047,2620028628
sw,-83.9344711303711,-47.9851264953613,60.96384797267508,36.71482782663458,2620045295
sw,-83.0148620605468,-48.4023513793945,56.341399224153975,23.518006339179358,2620061962
sw,-82.1925735473632,-48.9010505676269,49.57234794607516,12.319838450700177,2620078629
sw,-81.571418762207,-49.8609352111816,40.13606532805452,3.9058843348896564,2620095296
sw,-81.141731262207,-50.4144859313964,27.552052441748625,-1.0635692713547944,2620111963
sw,-80.9886398315429,-50.3023948669433,11.463564184718859,-2.0185097104213265,2620128630
sw,-81.1704330444336,-50.1751251220703,-8.242246329172394,1.3731027879644244,2620145297
sw,-81.5992431640625,-50.2537803649902,-31.296641255297278,8.941591205108114,2620161964
sw,-82.3061447143554,-50.388427734375,-56.932433537769654,19.79701464931701,2620178631
sw,-83.4337158203125,-50.7569618225097,-83.84024254788025,32.31574862378006,2620195298
sw,-85.1836700439453,-51.730728149414,-110.2461621449706,44.40286346487524,2620211965
sw,-87.4110107421875,-53.1666030883789,-134.12850152681517,53.975918722465714,2620228632
sw,-88.210090637207,-54.6090698242187,-153.5411377271273,59.5127017012156,2620245299
sw,-85.6858901977539,-55.8384361267089,-166.96633184675585,60.46898884937992,2620261966
sw,-82.7776260375976,-56.7252807617187,-173.60624526883652,57.41971282783458,2620278633
sw,-79.6712646484375,-57.4551849365234,-173.54382721355765,51.883262392381134,2620295300
sw,-76.469123840332,-58.1431617736816,-167.74026464789114,45.89909461550846,2620311967
sw,-74.1710510253906,-58.8122673034668,-157.8679078042552,41.49529171055035,2620328634
sw,-72.2183151245117,-59.4370155334472,-146.00563011412407,40.1915501112353,2620345301
sw,-70.243293762207,-60.082778930664,-134.25570993823032,42.651473241312274,2620361968
sw,-68.135009765625,-60.8545532226562,-124.3645435911856,48.55040665630795,2620378635
sw,-66.0487365722656,-61.7890968322753,-117.42098594672129,56.675788595387516,2620395302
sw,-64.1112670898437,-62.862075805664,-113.67026056308734,65.2307081355799,2620411969
sw,-62.584602355957,-64.1274032592773,-112.45168567319337,72.27128483158423,2620428636
sw,-61.3539772033691,-65.5890197753906,-112.2681218874517,76.17970601313255,2620445303
sw,-59.7079010009765,-67.1682891845703,-111.00888903452096,76.06271987872687,2620461970
sw,-57.7978591918945,-68.5475692749023,-106.33781349655104,71.97564553621922,2620478637
sw,-56.0587463378906,-69.6739654541015,-96.20589546266122,64.90906372481314,2620495304
sw,-54.7779998779296,-70.5618286132812,-79.38124570197905,56.5359875914582,2620511971
sw,-53.8033981323242,-71.2615737915039,-55.85600365349541,48.78461024685661,2620528638
sw,-53.3465728759765,-71.8175354003906,-27.01265742411416,43.35157773804063,2620545305
sw,-53.3901786804199,-72.3568878173828,4.5075332179732275,41.28606744662655,2620561972
sw,-53.8930435180664,-72.9616928100586,35.222712431820035,42.75318983761721,2620578639
sw,-54.9822120666503,-73.694953918457,61.44270922148181,47.03500022000769,2620595306
sw,-56.5988273620605,-74.6514129638671,79.99328421169707,52.762524566983835,2620611973
sw,-58.5520210266113,-75.8546829223632,88.87694032742996,58.308209543932065,2620628640
sw,-60.2062530517578,-77.2323760986328,87.70983394399673,62.220761927087146,2620645307
sw,-61.8541870117187,-78.6410598754882,77.81170552379457,63.56794542240567,2620661974
sw,-62.6282310485839,-79.865737915039,61.908154469483776,62.07769612154243,2620678641
sw,-63.1451416015625,-80.7716293334961,43.51154754573163,58.033323265883205,2620695308
sw,-63.5311965942382,-81.3279647827148,26.139775944034042,51.96752709010246,2620711975
sw,-63.5247344970703,-81.6502838134765,12.575156260559462,44.28045607550799,2620728642
sw,-63.3192481994628,-81.9267883300781,4.348286459932957,34.943715194355136,2620745309
sw,-63.0136184692382,-82.2228698730468,1.5696000984508856,23.424139571623808,2620761976
sw,-62.9825820922851,-82.4626388549804,3.1446916582398172,8.875123774905083,2620778643
sw,-63.7518577575683,-82.5879898071289,7.30689139704802,-9.466531139799248,2620795310
sw,-65.1003952026367,-82.3932647705078,12.295608694229635,-31.8283745659888,2620811977
sw,-65.8097076416015,-81.6224136352539,16.942750365591237,-57.57489703119436,2620828644
sw,-66.0301513671875,-80.1628112792968,20.95545545200018,-85.14432276318257,2620845311
sw,-66.3473739624023,-78.0636444091796,24.811897769701165,-112.29176360916856,2620861978
sw,-66.7345581054687,-75.4309310913086,29.35364699520413,-136.56566470706954,2620878645
sw,-67.0684661865234,-72.4652709960937,35.27081820823636,-155.85928231053046,2620895312
sw,-67.610969543457,-69.481086730957,42.69126387227904,-168.8594345939957,2620911979
sw,-68.4387130737304,-66.4073715209961,51.02140095332818,-175.26521199988463,2620928646
sw,-69.7502822875976,-63.3295822143554,59.08325961868696,-175.74035666188743,2620945313
sw,-71.3391189575195,-60.6499481201171,65.48351763462018,-171.65039465193738,2620961980
sw,-72.8325653076171,-58.1209411621093,69.06885660336316,-164.68673832162474,2620978647
sw,-74.1221389770507,-55.6167030334472,69.29915146735279,-156.48661231373424,2620995314
sw,-75.2007369995117,-53.2784729003906,66.41480293390039,-148.33056837608095,2621011981
sw,-76.1097259521484,-51.0483169555664,61.361834929048314,-140.95826939254084,2621028648
sw,-77.0202560424804,-48.8440017700195,55.52402038116234,-134.50717655264248,2621045315
sw,-77.9692840576171,-46.8085174560546,50.36085858360909,-128.556826013092,2621061982
sw,-78.8027572631836,-44.896556854248,47.056322380865645,-122.25206372689154,2621078649
sw,-79.4508743286132,-43.0438842773437,46.26125386522076,-114.47787283392115,2621095316
sw,-80.0633239746093,-41.4854202270507,47.98187248674333,-104.06376419281358,2621111983
sw,-80.8990325927734,-40.4063644409179,51.63542087408433,-90.00428222796447,2621128650
sw,-82.0613098144531,-39.5660018920898,56.25646045668732,-71.68816132067337,2621145317
sw,-83.4209671020507,-38.6901321411132,60.793252565832425,-49.121696849807826,2621161984
sw,-84.7026214599609,-38.0778274536132,64.3998582939255,-23.104889268956196,2621178651
sw,-85.8259963989257,-37.9140319824218,66.63006388926988,4.714501968241944,2621195318
sw,-86.8462600708007,-38.4425735473632,67.48103418442845,31.988093665768933,2621211985
sw,-87.8170852661132,-39.8097648620605,67.29684173831852,56.04213876739344,2621228652
sw,-88.7715606689453,-41.5307884216308,66.59083774218185,74.41298969994284,2621245319
sw,-89.27099609375,-43.2899093627929,65.85937514519442,85.38928197819153,2621261986
sw,-88.4478302001953,-45.0071411132812,65.4395226465161,88.38450320168984,2621278653
sw,-87.2639770507812,-46.4918899536132,65.42877361648401,84.01963851906562,2621295320
sw,-86.1370010375976,-47.5732192993164,65.65679342566196,73.90116892076381,2621311987
sw,-85.1568984985351,-48.2400741577148,65.69092559484343,60.1853241183531,2621328654
sw,-84.193130493164,-48.6446075439453,64.86695533468581,45.085066380653494,2621345321
sw,-83.1585159301757,-49.0595474243164,62.35020121883201,30.481702763865133,2621361988
sw,-82.1358337402343,-49.3900070190429,57.23404583476376,17.747177266877845,2621378655
sw,-81.2894058227539,-50.0393371582031,48.671061496556185,7.784812536542182,2621395322
sw,-80.6842803955078,-51.0643119812011,36.01743331556044,1.1941526217325562,2621411989
sw,-80.3317718505859,-51.2731132507324,18.96627948858428,-1.590572553706495,2621428656
sw,-80.3937911987304,-50.989875793457,-2.3497251431575132,-0.3090673152031372,2621445323
sw,-80.8609848022461,-50.9969367980957,-27.29918755118953,4.95968337469722,2621461990
sw,-81.6228408813476,-51.0389823913574,-54.746656359160895,13.590733540456911,2621478657
sw,-82.8043746948242,-51.2155418395996,-83.11328893848025,24.331918375415196,2621495324
sw,-84.6458435058593,-51.9288444519043,-110.51502520341924,35.45847449126818,2621511991
sw,-86.9774780273437,-53.1107063293457,-134.97792340498702,45.15097176293568,2621528658
sw,-89.0572662353515,-54.3068923950195,-154.70715218186803,51.9676420532861,2621545325
sw,-87.1830444335937,-55.4345016479492,-168.3649789220888,55.23155317940161,2621561992
sw,-84.4007034301757,-56.3402633666992,-175.30762667877036,55.18827979902763,2621578659
sw,-81.1007690429687,-57.1128883361816,-175.73736227888594,52.88553373515092,2621595326
sw,-77.7656173706054,-57.8520774841308,-170.72891680394267,49.830172429436885,2621611993
sw,-75.0141220092773,-58.5954360961914,-162.08815272974653,47.54488885730734,2621628660
sw,-72.7743759155273,-59.3213119506835,-152.02148501565827,47.1604832190224,2621645327
sw,-70.8762435913086,-60.1536903381347,-142.6558768417491,49.1496671858054,2621661994
sw,-68.8654708862304,-61.1334991455078,-135.52563488651407,53.255365464378194,2621678661
sw,-66.6341934204101,-62.1799926757812,-131.17851284262426,58.61002317654299,2621695328
sw,-64.5943145751953,-63.2615547180175,-129.0209276840747,63.997403545253675,2621711995
sw,-62.6359825134277,-64.4398574829101,-127.44465979883498,68.18345973914624,2621728662
sw,-60.6310691833496,-65.718017578125,-124.20111994629166,70.23808787968143,2621745329
sw,-58.6283836364746,-66.9872970581054,-116.93799454104028,69.77839585147868,2621761996
sw,-56.8563423156738,-68.2036056518554,-103.78454360984848,67.08106651327806,2621778663
sw,-55.6187858581543,-69.3528976440429,-83.86236084637889,63.035591187301144,2621795330
sw,-54.633731842041,-70.3998260498046,-57.61185526742752,58.94145585211206,2621811997
sw,-54.0296058654785,-71.2780609130859,-26.859166337527896,56.18749763717422,2621828664
sw,-54.0066184997558,-72.0462265014648,5.407474060458092,55.88440426082944,2621845331
sw,-54.4320602416992,-72.8075942993164,35.53504978636414,58.542990206103326,2621861998
sw,-55.5076293945312,-73.706672668457,59.90449959544526,63.89063059633612,2621878665
sw,-57.3969345092773,-74.8382720947265,75.6954858142512,70.88802727468342,2621895332
sw,-59.5435142517089,-76.2772064208984,81.52844225747047,77.95099721229927,2621911999
sw,-61.175178527832,-78.0153884887695,77.78697057858345,83.31400462381069,2621928666
sw,-62.2645301818847,-79.8028106689453,66.49400803886213,85.4198466459458,2621945333
sw,-62.2750167846679,-81.4163436889648,50.760174846123036,83.20828530562456,2621962000
sw,-62.5159645080566,-82.58544921875,33.98161135903602,76.2168487406941,2621978667
sw,-62.809326171875,-83.2593917846679,19.051430695633602,64.48734962510117,2621995334
sw,-62.9935111999511,-83.5984954833984,7.818619263107067,48.35690856700571,2622012001
sw,-62.9010314941406,-83.7472457885742,0.9129636980017873,28.259856219456573,2622028668
sw,-62.733169555664,-83.7764816284179,-2.0723427919520363,4.650050683987883,2622045335
sw,-63.0743675231933,-83.5793228149414,-2.1413728866382415,-21.921642345096554,2622062002
sw,-64.0917510986328,-82.9899444580078,-0.35945283327434074,-50.63381267519636,2622078669
sw,-64.8013076782226,-81.7568817138671,2.5901851744130915,-80.24608099781881,2622095336
sw,-64.646499633789,-79.8611221313476,6.594451030823938,-109.09302310175822,2622112003
sw,-64.5569610595703,-77.4396667480468,11.984661619623115,-135.2700922057377,2622128670
sw,-65.0437622070312,-74.5637283325195,19.18057040231498,-156.9674392814843,2622145337
sw,-65.4257431030273,-71.3185958862304,28.283080810228444,-172.8373043369137,2622162004
sw,-65.6807632446289,-68.0093231201171,38.79621856256575,-182.26654240450438,2622178671
sw,-66.4644317626953,-64.7258529663086,49.59252980563353,-185.46793304773726,2622195338
sw,-67.9409255981445,-61.7902374267578,59.14636395289468,-183.37527889274526,2622212005
sw,-69.6457977294921,-59.0455513000488,65.96547433880501,-177.39190413136055,2622228672
sw,-71.1895446777343,-56.302261352539,69.0704199469589,-169.0737488104024,2622245339
sw,-72.3885726928711,-53.6989936828613,68.34220444869366,-159.82280276311758,2622262006
sw,-73.3729019165039,-51.4375114440918,64.60786200249694,-150.64207062175623,2622278673
sw,-74.301399230957,-49.3061065673828,59.43760348790677,-141.98266432302938,2622295340
sw,-75.2396469116211,-47.2695350646972,54.72861555031292,-133.70359903185258,2622312007
sw,-76.2019958496093,-45.341625213623,52.206547248408164,-125.1534094248933,2622328674
sw,-77.0591430664062,-43.4201126098632,52.980821156717006,-115.35939527184394,2622345341
sw,-77.7560348510742,-41.5353698730468,57.26356746083465,-103.28175926976834,2622362008
sw,-78.5669326782226,-40.1126136779785,64.32196849304097,-88.07380608906541,2622378675
sw,-79.8587493896484,-39.5588455200195,72.68243656868674,-69.29888944290535,2622395342
sw,-81.6715698242187,-39.2400398254394,80.5384013810637,-47.084476367116686,2622412009
sw,-83.6045379638671,-38.6670112609863,86.24348100608314,-22.21518028390799,2622428676
sw,-85.2362213134765,-38.2630348205566,88.7332909481141,3.8477981281369034,2622445343
sw,-86.5853958129882,-38.6849899291992,87.74431249518716,29.069912102307867,2622462010
sw,-87.7887496948242,-39.9078178405761,83.78149372198071,51.121721805967894,2622478677
sw,-88.7298965454101,-41.5475234985351,77.88191118113198,67.82022987845751,2622495344
sw,-88.8591079711914,-43.3900527954101,71.2807618314709,77.62211426428387,2622512011
sw,-88.1045227050781,-45.0844573974609,65.09088675179193,80.00024947726763,2622528678
sw,-87.1985778808593,-46.310733795166,60.073501668417265,75.56312711967283,2622545345
sw,-86.3629913330078,-47.3722763061523,56.5320048738186,65.87425761236976,2622562012
sw,-85.4945068359375,-48.0308723449707,54.32139428715829,53.04148258440183,2622578679
sw,-84.5118103027343,-48.2729377746582,52.93994574212363,39.22367005524066,2622595346
sw,-83.5540008544921,-48.6752281188964,51.65748837487708,26.219393425541885,2622612013
sw,-82.6614227294921,-48.9446334838867,49.635941050144176,15.258571741453729,2622628680
sw,-81.8795776367187,-49.2076950073242,46.01381068334681,7.030900015099817,2622645347
sw,-81.3119888305664,-50.0032806396484,39.95361299063906,1.8854906235268531,2622662014
sw,-80.9679107666015,-50.8418807983398,30.678663711076172,0.06276172281927195,2622678681
sw,-80.8241195678711,-51.0433921813964,17.539309311454566,1.8070237569879257,2622695348
sw,-80.8823852539062,-50.8740425109863,0.13817630429941552,7.2748693227737435,2622712015
sw,-81.027847290039,-50.9373092651367,-21.491330715887635,16.27954163977729,2622728682
sw,-81.3938064575195,-51.176025390625,-46.706600945957476,28.026022796906528,2622745349
sw,-82.2907257080078,-51.6355857849121,-74.16535297113525,41.02100288663265,2622762016
sw,-83.939712524414,-52.7849235534668,-101.90555219836152,53.26609646722044,2622778683
sw,-86.2880706787109,-54.3946456909179,-127.62290962782143,62.706440774986255,2622795350
sw,-88.6019897460937,-56.0321006774902,-149.09024613694274,67.78210146899353,2622812017
sw,-87.1074142456054,-57.3461952209472,-164.5977827046462,67.87682396771272,2622828684
sw,-84.3281936645507,-58.3902626037597,-173.28381345058105,63.500171416019924,2622845351
sw,-81.3742065429687,-59.2811737060546,-175.2727147689057,56.147588323280566,2622862018
sw,-78.2570114135742,-59.996784210205,-171.6062949596763,47.89897441940108,2622878685
sw,-75.7152404785156,-60.6185035705566,-164.0045496329125,40.88961822461282,2622895352
sw,-73.4362030029296,-61.2002296447753,-154.5123522069248,36.80294434300955,2622912019
sw,-71.2665481567382,-61.7785148620605,-145.096484681893,36.50625091854126,2622928686
sw,-68.9505233764648,-62.437328338623,-137.26363280529247,39.900370046800205,2622945353
sw,-66.6856918334961,-63.1775093078613,-131.76629048377887,45.9995571889294,2622962020
sw,-64.6478271484375,-64.0541534423828,-128.44527162956592,53.209602351812194,2622978687
sw,-63.0013771057128,-65.1502227783203,-126.23719461182571,59.73506227172328,2622995354
sw,-61.336555480957,-66.3878173828125,-123.36244863231668,64.022383908717,2623012021
sw,-59.319580078125,-67.7092971801757,-117.69098214462267,65.13691664365543,2623028688
sw,-57.2810440063476,-68.9064331054687,-107.24063875735173,62.98310945200009,2623045355
sw,-55.6080322265625,-69.9536209106445,-90.70415366914968,58.311788054109535,2623062022
sw,-54.664451599121,-70.7925720214843,-67.86586817033839,52.51162995510525,2623078689
sw,-54.0927009582519,-71.4398956298828,-39.78920903113185,47.23951012598878,2623095356
sw,-53.8494911193847,-72.0130081176757,-8.720217155914007,43.987945505532146,2623112023
sw,-54.1826934814453,-72.6206588745117,22.27693615619744,43.703179089257375,2623128690
sw,-55.0102653503418,-73.341079711914,49.882443201897566,46.54987407212976,2623145357
sw,-56.6591796875,-74.2141036987304,71.16983574207603,51.87441080647604,2623162024
sw,-58.5202827453613,-75.2502136230468,84.19645221390097,58.363196780536924,2623178691
sw,-60.2786140441894,-76.4679412841796,88.38207719888648,64.34188101508572,2623195358
sw,-61.8103523254394,-77.8374481201171,84.56424568994723,68.12839009343097,2623212025
sw,-62.7978935241699,-79.2129440307617,74.71216891286124,68.34404829216055,2623228692
sw,-63.3421363830566,-80.3910064697265,61.392307866908006,64.10531512122492,2623245359
sw,-64.1044464111328,-81.2395629882812,47.15693430257786,55.061663082055084,2623262026
sw,-64.5249328613281,-81.6860122680664,34.03776285931811,41.30187946424818,2623278693
sw,-64.8106842041015,-81.7484970092773,23.271865075560278,23.20070549195055,2623295360
sw,-64.981330871582,-81.5903167724609,15.299940140298835,1.2964886713975468,2623312027
sw,-65.3640899658203,-81.2471847534179,9.99233943342551,-23.735027645513597,2623328694
sw,-66.4169845581054,-80.690185546875,6.991080495396785,-51.007612118281706,2623345361
sw,-67.2026443481445,-79.6755065917968,6.016784318506242,-79.31716947701827,2623362028
sw,-67.0506896972656,-78.0240783691406,7.004614283363992,-107.10070750007972,2623378695
sw,-66.5678253173828,-75.6977157592773,10.022766699299696,-132.54133276573964,2623395362
sw,-66.7858123779296,-72.8824996948242,15.053554657927632,-153.8298256568109,2623412029
sw,-67.7615280151367,-69.5677719116211,21.79134688707707,-169.51296495324098,2623428696
sw,-68.4390869140625,-66.0286636352539,29.578749503730933,-178.80943325759392,2623445363
sw,-69.0178909301757,-62.6220359802246,37.50468214451213,-181.77948827230884,2623462030
sw,-70.0389175415039,-59.7467880249023,44.61071728616927,-179.28999351718187,2623478697
sw,-71.2116775512695,-57.0962791442871,50.12861068507196,-172.7925194675124,2623495364
sw,-72.2764511108398,-54.3998413085937,53.67701955128399,-163.9891305336853,2623512031
sw,-73.2344741821289,-51.8331794738769,55.35785505538938,-154.47335780397404,2623528698
sw,-74.1557235717773,-49.6331558227539,55.71858762432875,-145.41335467251506,2623545365
sw,-75.0610046386718,-47.7126846313476,55.588410753253335,-137.32312957457307,2623562032
sw,-76.0320968627929,-45.8804244995117,55.83641264018803,-129.9625575052453,2623578699
sw,-77.0845489501953,-44.0048065185546,57.120758253139286,-122.40154700016517,2623595366
sw,-78.0768661499023,-42.0726089477539,59.69609508430942,-113.2552877704399,2623612033
sw,-78.996223449707,-40.2928123474121,63.3299299300852,-101.0477570787025,2623628700
sw,-79.9522552490234,-38.9358749389648,67.35529901908372,-84.61683167631834,2623645367
sw,-81.222915649414,-38.1263961791992,70.85698130037534,-63.46311488470038,2623662034
sw,-82.8321533203125,-37.7088279724121,72.94916155036574,-37.96856849195617,2623678701
sw,-84.3804702758789,-37.5593795776367,73.0620871526942,-9.448393833747208,2623695368
sw,-85.6428833007812,-37.759464263916,71.13786927837282,19.973522935320585,2623712035
sw,-86.7042007446289,-38.4311332702636,67.66225126463692,47.66076999884466,2623728702
sw,-87.6503982543945,-39.9310493469238,63.522646512638566,70.90517688515946,2623745369
sw,-88.4966278076171,-41.9332580566406,59.748038149836574,87.44014930084232,2623762036
sw,-89.2067260742187,-43.9709396362304,57.219805568955046,95.90247982802978,2623778703
sw,-89.1175155639648,-45.876235961914,56.43621223810291,96.10168659033774,2623795370
sw,-88.333755493164,-47.1295700073242,57.38205484533032,89.0052588769476,2623812037
sw,-87.392105102539,-48.3998222351074,59.518832274487615,76.44948901049304,2623828704
sw,-86.3655242919921,-49.031021118164,61.88197153724615,60.68690323669746,2623845371
sw,-85.2474212646484,-49.3323326110839,63.25276836963059,43.93316654394332,2623862038
sw,-84.0710067749023,-49.7948036193847,62.362227114830446,28.059403110544306,2623878705
sw,-82.9917373657226,-50.4002113342285,58.082341340595136,14.497889606361952,2623895372
sw,-82.2083511352539,-51.3606605529785,49.57067475320229,4.318375462564423,2623912039
sw,-81.7368087768554,-51.8792190551757,36.35652588282016,-1.6585902318081676,2623928706
sw,-81.5331344604492,-51.5834274291992,18.382450090232837,-2.855431451582438,2623945373
sw,-81.6147766113281,-51.3868141174316,-3.9724871617160935,0.9074379969796842,2623962040
sw,-81.9692611694336,-51.4576988220214,-29.87218591068022,9.177069962676576,2623978707
sw,-82.7037811279296,-51.7406425476074,-58.018411815473264,20.72140974815495,2623995374
sw,-83.9318542480468,-52.2822494506835,-86.6988959175862,33.61607353330152,2624012041
sw,-85.8276290893554,-53.3231010437011,-113.92719585224643,45.60123824430273,2624028708
sw,-88.2929229736328,-54.8133087158203,-137.68272229364192,54.61722591706171,2624045375
sw,-88.4643096923828,-56.2007522583007,-156.2128018690955,59.340377372967616,2624062042
sw,-85.5359497070312,-57.3576202392578,-168.32422804368943,59.52960933244724,2624078709
sw,-82.6419296264648,-58.2290496826171,-173.59135362421316,56.06222868136492,2624095376
sw,-79.4891586303711,-58.9648399353027,-172.43727262281828,50.652556497279384,2624112043
sw,-76.21826171875,-59.654441833496,-166.0772472118568,45.353848292188935,2624128710
sw,-73.7156066894531,-60.3084144592285,-156.3295666771195,42.000254125319245,2624145377
sw,-71.5919113159179,-60.9478416442871,-145.3086202730094,41.743022699944355,2624162044
sw,-69.5476837158203,-61.6161079406738,-135.03882533006325,44.79199312607854,2624178711
sw,-67.4763565063476,-62.4603729248046,-127.06063706954501,50.41236665075088,2624195378
sw,-65.364387512207,-63.5060272216796,-122.11278873927819,57.16300689129018,2624212045
sw,-63.350242614746,-64.6699447631836,-119.95599179021922,63.306001859557774,2624228712
sw,-61.6871871948242,-65.9358367919921,-119.37134630981389,67.27814474867267,2624245379
sw,-60.1837463378906,-67.295783996582,-118.34445295781201,68.10264557594165,2624262046
sw,-58.5099754333496,-68.6069869995117,-114.43220982346749,65.6368675552367,2624278713
sw,-56.6175498962402,-69.6405944824218,-105.28220081166596,60.595065594648666,2624295380
sw,-55.0639419555664,-70.4530639648437,-89.22422194489054,54.34488468587809,2624312047
sw,-53.9388084411621,-71.1479873657226,-65.80147008203697,48.538142823811846,2624328714
sw,-53.0582389831543,-71.7694625854492,-36.09093056705787,44.680794189543114,2624345381
sw,-52.8085250854492,-72.3590545654296,-2.694275436602189,43.75866534966667,2624362048
sw,-53.2359199523925,-73.0396347045898,30.648009325921784,46.01294643103003,2624378715
sw,-54.3067893981933,-73.9129486083984,59.7720357169053,50.913066243208554,2624395382
sw,-56.2295379638671,-74.9776000976562,80.98676644731925,57.318930423101534,2624412049
sw,-58.5795059204101,-76.2002716064453,91.92072228279791,63.77365979175619,2624428716
sw,-60.6423263549804,-77.5524826049804,92.066205734063,68.83508829298238,2624445383
sw,-62.1681785583496,-78.9471664428711,82.83767257438889,71.34867216229102,2624462050
sw,-62.3465347290039,-80.2447891235351,67.11858393591582,70.58799193872652,2624478717
sw,-62.6922035217285,-81.3067932128906,48.45692857440468,66.23589408458834,2624495384
sw,-63.1943321228027,-82.0296173095703,30.190069105675224,58.237404148328125,2624512051
sw,-63.4171600341796,-82.4373245239257,14.772751941559497,46.60685225304729,2624528718
sw,-63.2571144104003,-82.6842346191406,3.469574045990429,31.29472183370915,2624545385
sw,-63.0529823303222,-82.8004531860351,-3.5664425008424163,12.198112729022602,2624562052
sw,-63.3386726379394,-82.7734909057617,-6.917246978437857,-10.666803044018305,2624578719
sw,-64.3447952270507,-82.5337371826171,-7.388103316822649,-36.89690363526986,2624595386
sw,-64.9231033325195,-81.7766571044921,-5.564411058718387,-65.46941391735143,2624612053
sw,-64.6145324707031,-80.2954483032226,-1.6154460220889193,-94.68160365170563,2624628720
sw,-64.2769470214843,-78.0601806640625,4.590775171578373,-122.33806893603648,2624645387
sw,-64.506851196289,-75.2527542114257,13.154733063967171,-146.1549191030531,2624662054
sw,-64.836929321289,-72.0478134155273,23.79113051300063,-164.25237456691974,2624678721
sw,-65.2752838134765,-68.7664184570312,35.64063581535763,-175.56745187590244,2624695388
sw,-66.1946334838867,-65.4785461425781,47.34222292811099,-180.05396406569977,2624712055
sw,-67.6635665893554,-62.3385696411132,57.34697297719387,-178.62381521776436,2624728722
sw,-69.3916778564453,-59.6785545349121,64.36025275018315,-172.87441497684532,2624745389
sw,-70.8481216430664,-57.0976753234863,67.74613736006042,-164.70172332801553,2624762056
sw,-71.9545059204101,-54.5128707885742,67.736921578778,-155.90303048061358,2624778723
sw,-72.9132766723632,-52.1400032043457,65.3663403065817,-147.84246732256972,2624795390
sw,-73.8005065917968,-49.9518585205078,62.154091790619304,-141.21586829555307,2624812057
sw,-74.7538070678711,-47.9607925415039,59.656761356468806,-135.93412661737327,2624828724
sw,-75.8111190795898,-46.1745262145996,59.03116203560224,-131.14491395923272,2624845391
sw,-76.8730545043945,-44.2972221374511,60.733280241104566,-125.41009304541629,2624862058
sw,-77.7835083007812,-42.2163543701171,64.42537902931767,-117.03094852438707,2624878725
sw,-78.7503051757812,-40.3823165893554,69.10905484773093,-104.46754466555154,2624895392
sw,-80.1280136108398,-38.8973693847656,73.45008442111948,-86.75682015396332,2624912059
sw,-81.9885025024414,-38.0752944946289,76.20798026569534,-63.82515872278513,2624928726
sw,-83.8189926147461,-37.5587997436523,76.63693781455524,-36.62159018032689,2624945393
sw,-85.1437683105468,-37.3624839782714,74.71537913339205,-7.04529434176152,2624962060
sw,-86.0877380371093,-37.6604461669921,71.11651611874998,22.320710843194846,2624978727
sw,-86.8817825317382,-38.5907440185546,66.93872994276991,48.63232549688112,2624995394
sw,-87.7018585205078,-40.105613708496,63.31434077075778,69.29775579325776,2625012061
sw,-88.470947265625,-41.9263725280761,61.052032682058176,82.47879752683671,2625028728
sw,-88.8456420898437,-43.7494354248046,60.430901251354975,87.45278164072919,2625045395
sw,-88.3880844116211,-45.2734642028808,61.18609125934885,84.72598099202449,2625062062
sw,-87.4172973632812,-46.4483337402343,62.650804446280304,75.85817445376111,2625078729
sw,-86.3423767089843,-47.3988494873046,63.974427359140165,63.05239701253945,2625095396
sw,-85.1988677978515,-47.8207893371582,64.32878981569706,48.64178996532865,2625112063
sw,-84.0911407470703,-48.1376228332519,63.037583974131685,34.635244250495525,2625128730
sw,-83.1999206542968,-48.5722160339355,59.60444428056877,22.45475762219405,2625145397
sw,-82.4276504516601,-48.9623222351074,53.65844986930877,12.917917591922269,2625162064
sw,-81.7695388793945,-49.874771118164,44.86832794439041,6.4147951341742315,2625178731
sw,-81.2855377197265,-50.6218299865722,32.88735153662497,3.143870271107362,2625195398
sw,-81.0242156982421,-50.6236000061035,17.375971671146807,3.253006848743785,2625212065
sw,-81.05908203125,-50.6971130371093,-1.884406551042152,6.798417722061834,2625228732
sw,-81.3815155029296,-50.9367446899414,-24.81217462178515,13.554279136116646,2625245399
sw,-81.9862899780273,-51.0906753540039,-50.83921284386037,22.805077545220282,2625262066
sw,-83.0199508666992,-51.4568405151367,-78.79336549378206,33.27324408390582,2625278733
sw,-84.7034683227539,-52.3089141845703,-106.9189855890533,43.27327132778634,2625295400
sw,-86.9242630004882,-53.6151618957519,-133.06917205112103,51.07875284796987,2625312067
sw,-88.6898498535156,-55.0733413696289,-155.0463193985021,55.38774289583934,2625328734
sw,-86.4916152954101,-56.2808685302734,-171.0127333582505,55.71731668001975,2625345401
sw,-83.5217742919921,-57.1642837524414,-179.86615239607443,52.577276006945404,2625362068
sw,-80.2010269165039,-57.9038772583007,-181.4844703958729,47.35709388705455,2625378735
sw,-76.7405166625976,-58.5922660827636,-176.77653024233072,41.96496614174576,2625395402
sw,-74.2220001220703,-59.2270164489746,-167.5158333354942,38.33333459733507,2625412069
sw,-72.0836563110351,-59.8376007080078,-155.98082710758783,37.928908715044024,2625428736
sw,-69.8893814086914,-60.5060577392578,-144.4793209401105,41.386402035253006,2625445403
sw,-67.5944442749023,-61.2869606018066,-134.8727006501678,48.345260068309074,2625462070
sw,-65.3639526367187,-62.1268424987793,-128.20888023390359,57.52273942386454,2625478737
sw,-63.1957168579101,-63.1327857971191,-124.52609447906454,67.01063263341521,2625495404
sw,-61.3583488464355,-64.4761352539062,-122.84071380820149,74.7376490993472,2625512071
sw,-59.8270072937011,-66.1429138183593,-121.31096255439651,78.99623091051352,2625528738
sw,-58.1595993041992,-67.9451522827148,-117.56865227074742,78.90009533589162,2625545405
sw,-56.3714904785156,-69.4466094970703,-109.20226209747074,74.63646959479125,2625562072
sw,-54.6170463562011,-70.5091018676757,-94.33525048976782,67.42337922985725,2625578739
sw,-53.3863067626953,-71.2604598999023,-72.18587197641024,59.17335573538365,2625595406
sw,-52.3863182067871,-71.8727951049804,-43.457240554309564,51.96522292313273,2625612073
sw,-52.0309524536132,-72.4825973510742,-10.418899759066596,47.48839627479983,2625628740
sw,-52.3453140258789,-73.1574325561523,23.394558518536687,46.62316243491419,2625645407
sw,-53.2641983032226,-73.9254608154296,53.8435504728654,49.26414443543364,2625662074
sw,-55.2421226501464,-74.8898468017578,77.06819379780214,54.412544589744606,2625678741
sw,-57.495735168457,-76.093147277832,90.37311383557946,60.48533477721603,2625695408
sw,-59.5806083679199,-77.4240341186523,92.85514268773632,65.7348811187785,2625712075
sw,-61.2975349426269,-78.850830078125,85.5734432355327,68.65010184237659,2625728742
sw,-61.8849296569824,-80.2245101928711,71.20462003826468,68.22430745030994,2625745409
sw,-62.2901153564453,-81.3395919799804,53.301827506493325,64.02309412278927,2625762076
sw,-62.8415794372558,-82.0722885131836,35.40602677904062,56.056820565039345,2625778743
sw,-63.0866317749023,-82.4314880371093,20.281497956823415,44.535426540157395,2625795410
sw,-63.0360412597656,-82.5826950073242,9.47171443585965,29.630971395486846,2625812077
sw,-62.7509231567382,-82.6016693115234,3.2515517714553326,11.370474326859386,2625828744
sw,-63.0136680603027,-82.5093078613281,0.9371173583080774,-10.278104260281422,2625845411
sw,-64.2654113769531,-82.2826080322265,1.4174858125766983,-35.159031032757454,2625862078
sw,-65.0940017700195,-81.6184997558593,3.7010951154862304,-62.64076867884058,2625878745
sw,-64.9289779663086,-80.2491760253906,7.26293374441027,-91.44168151817536,2625895412
sw,-64.8303909301757,-78.1312026977539,12.07281816829447,-119.6854082478317,2625912079
sw,-65.2432479858398,-75.3610916137695,18.343435500556012,-145.20303283430638,2625928746
sw,-65.6020736694336,-72.0563430786132,26.160876817455584,-165.9878595333182,2625945413
sw,-65.7665786743164,-68.6330490112304,35.18558562230666,-180.6402289956206,2625962080
sw,-66.4352798461914,-65.1833114624023,44.55671453754234,-188.64664223639107,2625978747
sw,-67.7164840698242,-61.7969627380371,53.045731658979946,-190.4109906267667,2625995414
sw,-69.365234375,-58.9329032897949,59.409701061754895,-187.05445478818447,2626012081
sw,-70.9115295410156,-56.2275848388671,62.80959387067766,-180.07666995949506,2626028748
sw,-72.0572433471679,-53.4232749938964,63.12233219185531,-170.99510732314593,2626045415
sw,-73.0150146484375,-50.7321395874023,61.01638334899528,-161.05319062170133,2626062082
sw,-73.8603057861328,-48.3295173645019,57.76169576811983,-151.0373571908607,2626078749
sw,-74.6795425415039,-46.1147880554199,54.84946591697392,-141.2036128231467,2626095416
sw,-75.5595932006836,-44.2072792053222,53.55621822651278,-131.30120624109264,2626112083
sw,-76.511474609375,-42.3640060424804,54.587352252524155,-120.68325514158687,2626128750
sw,-77.3649291992187,-40.4808883666992,57.895878111202485,-108.49064584033611,2626145417
sw,-78.1602020263671,-38.8140296936035,62.718064543895736,-93.87993745853538,2626162084
sw,-79.3120193481445,-37.8786315917968,67.81370124594297,-76.25179048870375,2626178751
sw,-80.9826507568359,-37.3802604675293,71.84572362871937,-55.440647227086885,2626195418
sw,-82.7796630859375,-37.0843086242675,73.78529130279192,-31.846147051059415,2626212085
sw,-84.1556854248046,-36.9168281555175,73.20594697229384,-6.497350614372895,2626228752
sw,-85.1177749633789,-36.9730491638183,70.363051859982,18.973491826841823,2626245419
sw,-85.8984069824218,-37.6999397277832,66.04172586597694,42.4899807503542,2626262086
sw,-86.62890625,-39.1448440551757,61.253353711576814,61.850200975519925,2626278753
sw,-87.324462890625,-40.9105949401855,56.91167847860756,75.16780999687356,2626295420
sw,-87.8909530639648,-42.676040649414,53.60314951309133,81.32019098447046,2626312087
sw,-88.0882797241211,-44.3534469604492,51.50495875881406,80.25131232870213,2626328754
sw,-87.8402404785156,-45.6930694580078,50.43832708253007,73.01120134885191,2626345421
sw,-87.3406753540039,-46.6940841674804,50.003300207778004,61.50352979164312,2626362088
sw,-86.7248764038086,-47.185489654541,49.731798197782354,48.01554915651901,2626378755
sw,-86.0043334960937,-47.4343795776367,49.20836950717103,34.68045411897592,2626395422
sw,-85.1686859130859,-47.5977172851562,48.12865857569179,23.0453747185513,2626412089
sw,-84.3629608154296,-47.7838821411132,46.28518843061671,13.879563214204715,2626428756
sw,-83.6757888793945,-47.9381484985351,43.488604736905245,7.2684958505324,2626445423
sw,-83.1018676757812,-48.5546035766601,39.45323036935229,2.931227821129185,2626462090
sw,-82.6918563842773,-49.5834045410156,33.69637592152668,0.608869056305332,2626478757
sw,-82.4961929321289,-49.9376983642578,25.51117705603487,0.338269740231729,2626495424
sw,-82.4478683471679,-49.7760925292968,14.061328669632868,2.4740740317809577,2626512091
sw,-82.4144439697265,-49.8377723693847,-1.3916483495158323,7.447004763064931,2626528758
sw,-82.4123840332031,-50.0810317993164,-21.175253290439727,15.384585648086814,2626545425
sw,-82.6966934204101,-50.4712257385253,-44.90988651028183,25.790916492079276,2626562092
sw,-83.6267395019531,-50.9707221984863,-71.35704165214746,37.45132659759783,2626578759
sw,-85.3766174316406,-51.9775657653808,-98.50675633815152,48.62688145400323,2626595426
sw,-87.7544937133789,-53.4510612487793,-123.91430266379572,57.48498279206995,2626612093
sw,-89.1836318969726,-54.991584777832,-145.1975730978039,62.61717361702409,2626628760
sw,-86.3375625610351,-56.3153991699218,-160.54585793666942,63.456523168483145,2626645427
sw,-83.5773696899414,-57.3031845092773,-169.09576585232122,60.44411428328255,2626662094
sw,-80.651870727539,-58.1304550170898,-171.0871550672179,54.892827083035066,2626678761
sw,-77.2824478149414,-58.8923988342285,-167.77941746907825,48.607916069133864,2626695428
sw,-74.6595382690429,-59.565860748291,-161.15409974905432,43.39667438333996,2626712095
sw,-72.6380767822265,-60.2256507873535,-153.45868197399682,40.613336423535436,2626728762
sw,-70.6739501953125,-60.8897705078125,-146.68136589206503,40.85325241676265,2626745429
sw,-68.3995208740234,-61.6283264160156,-142.08185889630124,43.85745993988258,2626762096
sw,-66.0354766845703,-62.4233322143554,-139.9007971962155,48.63403850957865,2626778763
sw,-63.6427536010742,-63.3275184631347,-139.31442974188528,53.75543001529037,2626795430
sw,-61.3772087097168,-64.4275970458984,-138.62458031379722,57.7552702990179,2626812097
sw,-59.4746665954589,-65.7103271484375,-135.62272354551564,59.52680519714358,2626828764
sw,-57.5469818115234,-66.9070129394531,-128.0545912189595,58.62191747439032,2626845431
sw,-55.4402961730957,-67.9057464599609,-114.11626461470748,55.371382466009585,2626862098
sw,-53.9639892578125,-68.6798477172851,-92.90935521841664,50.7944961503124,2626878765
sw,-52.9547958374023,-69.3479690551757,-64.7717266574841,46.327194777008195,2626895432
sw,-52.1583061218261,-70.0054016113281,-31.400308350275417,43.44841280627603,2626912099
sw,-51.8995361328125,-70.694709777832,4.295062283759869,43.30511115456716,2626928766
sw,-52.2894096374511,-71.4172897338867,38.62513717164066,46.42479512459091,2626945433
sw,-53.6798286437988,-72.2257995605468,67.79605206655017,52.57298661554716,2626962100
sw,-55.9180946350097,-73.2231369018554,88.69372290221665,60.77659743331137,2626978767
sw,-58.2544708251953,-74.4158706665039,99.56804185784884,69.4998777120031,2626995434
sw,-60.2850456237793,-75.8123703002929,100.39266092132087,76.9293036620359,2627012101
sw,-61.6284294128418,-77.4087371826171,92.76479879540773,81.29998269052416,2627028768
sw,-61.9883804321289,-79.0702514648437,79.37842372565439,81.18535954680779,2627045435
sw,-62.8544960021972,-80.4720993041992,63.269793256271704,75.68238891702656,2627062102
sw,-63.6337127685546,-81.4066390991211,47.10600837577496,64.4600640257627,2627078769
sw,-64.0768203735351,-81.8894729614257,32.73364265940182,47.69223273742353,2627095436
sw,-64.3301239013671,-82.1063613891601,21.073952033899452,25.941788719914584,2627112103
sw,-64.6590957641601,-82.1013870239257,12.320389751981622,0.07317871149260746,2627128770
sw,-65.8583145141601,-81.8962478637695,6.303902351066084,-28.7677301330509,2627145437
sw,-66.6750411987304,-81.2816390991211,2.8477189504901324,-59.13218880832619,2627162104
sw,-66.3938522338867,-80.0380249023437,1.9508011151593276,-89.28070305365237,2627178771
sw,-65.7197036743164,-77.9779205322265,3.735650671873384,-117.30279292718107,2627195438
sw,-65.7376098632812,-75.3027648925781,8.234697292127365,-141.36322563708782,2627212105
sw,-66.7312622070312,-72.2059326171875,15.173995273019234,-160.01658423613674,2627228772
sw,-67.4869384765625,-68.9231491088867,23.882302799020522,-172.48048360664913,2627245439
sw,-67.6879959106445,-65.6158828735351,33.35475285843182,-178.7625128184725,2627262106
sw,-68.5514373779296,-62.4957885742187,42.42839211510526,-179.59293607458434,2627278773
sw,-69.7999038696289,-59.7530097961425,50.01289623736492,-176.19170118605015,2627295440
sw,-70.9881134033203,-57.0703163146972,55.32303939001668,-169.95508842104724,2627312107
sw,-71.9979095458984,-54.3184165954589,58.05284139178103,-162.1594571132974,2627328774
sw,-73.0080261230468,-51.7522010803222,58.43553255942793,-153.7492449626921,2627345441
sw,-73.9781875610351,-49.4866180419921,57.16728360516195,-145.23093088448888,2627362108
sw,-74.8697357177734,-47.3393020629882,55.21898415683005,-136.66416486214345,2627378775
sw,-75.8052368164062,-45.3614234924316,53.591932411160194,-127.73303994154954,2627395442
sw,-76.7612152099609,-43.4998054504394,53.081136909786885,-117.87938913946759,2627412109
sw,-77.5567932128906,-41.6347541809082,54.101007629330425,-106.47210373154978,2627428776
sw,-78.2982101440429,-39.9336395263671,56.61204047863073,-92.97484590994476,2627445443
sw,-79.2477111816406,-38.8507118225097,60.16709170423863,-77.07398906501483,2627462110
sw,-80.5635604858398,-38.5841674804687,64.06801735413818,-58.75015676083973,2627478777
sw,-82.029182434082,-38.315574645996,67.58689597672367,-38.310831529990665,2627495444
sw,-83.3638153076171,-37.8931312561035,70.17587361305007,-16.416154941983184,2627512111
sw,-84.4949493408203,-37.7283592224121,71.59029259241207,5.898336092437133,2627528778
sw,-85.5242080688476,-38.2799110412597,71.88937773687594,27.247330561346512,2627545445
sw,-86.4941864013671,-39.2504158020019,71.33573432494812,46.03022324547297,2627562112
sw,-87.3467178344726,-40.5830879211425,70.25469295528217,60.690160889330706,2627578779
sw,-87.9715499877929,-42.0572471618652,68.9176167430835,70.04037888107675,2627595446
sw,-87.9943618774414,-43.3780555725097,67.4857539455705,73.5527832359015,2627612113
sw,-87.4229125976562,-44.7997779846191,66.01425356016401,71.50718284028278,2627628780
sw,-86.6029281616211,-46.09859085083,64.48962807914788,64.94428804260355,2627645447
sw,-85.6127853393554,-46.8180427551269,62.86664884034325,55.42861501314036,2627662114
sw,-84.6337432861328,-47.1330490112304,61.07853180354485,44.69086104536509,2627678781
sw,-83.7207412719726,-47.4590492248535,59.00951473842421,34.26628467198924,2627695448
sw,-82.8292236328125,-47.8305587768554,56.436765587097575,25.25268304574404,2627712115
sw,-82.0042724609375,-48.1069717407226,52.96530863178581,18.26334304848016,2627728782
sw,-81.3017272949218,-48.8243217468261,47.989822946420055,13.5618139764482,2627745449
sw,-80.6986846923828,-49.9509849548339,40.71661793423293,11.277648150629396,2627762116
sw,-80.2633666992187,-50.4780807495117,30.267585996116175,11.560439371355514,2627778783
sw,-80.0731124877929,-50.2300910949707,15.86710663020883,14.565180317605384,2627795450
sw,-80.0628128051757,-50.3978996276855,-2.9149905914730994,20.2696270325767,2627812117
sw,-80.1763305664062,-51.0451393127441,-25.921470741896528,28.241178527687023,2627828784
sw,-80.7047042846679,-51.7530326843261,-52.24642819742658,37.51354258868956,2627845451
sw,-81.8831329345703,-52.5195503234863,-80.23387316615812,46.67637824010556,2627862118
sw,-83.8060302734375,-53.5981636047363,-107.6783512240358,54.17423285742778,2627878785
sw,-86.3212432861328,-55.0250663757324,-132.2014524878004,58.71888940045408,2627895452
sw,-89.1581420898437,-56.3406448364257,-151.7087478432634,59.67235563351377,2627912119
sw,-87.9317092895507,-57.4691658020019,-164.79965493373473,57.26263766537655,2627928786
sw,-85.1669387817382,-58.3052635192871,-171.024875510943,52.549562049022974,2627945453
sw,-82.1320114135742,-58.9689788818359,-170.9435790041795,47.145540033306055,2627962120
sw,-78.9867095947265,-59.6140365600585,-165.9867866532689,42.77981718370696,2627978787
sw,-76.454360961914,-60.2797584533691,-158.1611448305038,40.8397253912853,2627995454
sw,-74.2331619262695,-60.9399528503418,-149.639976605969,42.01761261355211,2628012121
sw,-72.1599884033203,-61.6415138244628,-142.30929299089527,46.15090963020311,2628028788
sw,-70.0246200561523,-62.524787902832,-137.36221972601,52.28702210997035,2628045455
sw,-67.748420715332,-63.6026344299316,-135.03845685881024,58.949647753426284,2628062122
sw,-65.5884323120117,-64.7746505737304,-134.57158272729387,64.5362102060457,2628078789
sw,-63.5234909057617,-66.1540985107421,-134.3532048261958,67.74408588425595,2628095456
sw,-61.3363075256347,-67.5366592407226,-132.27571090953438,67.91413537987363,2628112123
sw,-59.1788101196289,-68.7981338500976,-126.18515058583341,65.19888930792003,2628128790
sw,-57.2683181762695,-69.8039779663086,-114.35885809857146,60.50835704017244,2628145457
sw,-55.7852210998535,-70.6198806762695,-95.91796314200538,55.24896497129646,2628162124
sw,-54.6720123291015,-71.3354568481445,-71.09711088336043,50.931610923718836,2628178791
sw,-53.8217277526855,-72.0029144287109,-41.31939922597399,48.76166485491782,2628195458
sw,-53.4657325744628,-72.7184600830078,-9.052777945037658,49.3245197765625,2628212125
sw,-53.6394653320312,-73.539794921875,22.54850001046659,52.44777068050542,2628228792
sw,-54.5656051635742,-74.4605255126953,50.177733519912664,57.268726632477176,2628245459
sw,-56.0929718017578,-75.5987854003906,70.9946099392708,62.47929736817786,2628262126
sw,-57.92529296875,-76.9827804565429,83.189285073435,66.67198252821035,2628278793
sw,-59.6218681335449,-78.4543685913086,86.33688632527215,68.68083784586331,2628295460
sw,-61.1198463439941,-79.8640747070312,81.43159571958002,67.80972492786968,2628312127
sw,-61.8843841552734,-81.0268859863281,70.58593067039757,63.874106448214555,2628328794
sw,-62.5100135803222,-81.858039855957,56.490974710177404,57.04848255089772,2628345461
sw,-63.2113533020019,-82.315689086914,41.80710642571826,47.58906499917157,2628362128
sw,-63.5086097717285,-82.547492980957,28.660860061884385,35.55896466758816,2628378795
sw,-63.6523895263671,-82.6711807250976,18.368616051273776,20.69243826137221,2628395462
sw,-63.7362937927246,-82.6819305419921,11.425666621883545,2.4847563854578816,2628412129
sw,-64.2669143676757,-82.6200180053711,7.718333645847403,-19.500266390827758,2628428796
sw,-65.2266464233398,-82.3608245849609,6.848896283573412,-45.21578063613928,2628445463
sw,-65.7302169799804,-81.6348037719726,8.424889593761621,-73.78802179863258,2628462130
sw,-65.5206146240234,-80.0946884155273,12.187263825913679,-103.41656981464023,2628478797
sw,-65.3485107421875,-77.5377807617187,17.945565527567613,-131.6076587799523,2628495464
sw,-65.9248428344726,-74.3922729492187,25.402006612099,-155.69279504784205,2628512131
sw,-66.9391326904296,-70.9897384643554,33.99911726304797,-173.45936221830289,2628528798
sw,-67.7204437255859,-67.5711059570312,42.888170122152864,-183.67099693199535,2628545465
sw,-68.3173828125,-64.2779846191406,51.037379088004464,-186.30750205515776,2628562132
sw,-69.5384979248046,-61.2891273498535,57.44241705837376,-182.4732028313514,2628578799
sw,-70.986213684082,-58.6334190368652,61.37721730956717,-174.04381180865815,2628595466
sw,-72.254638671875,-56.0586051940918,62.60896663229977,-163.19082352698334,2628612133
sw,-73.3586883544921,-53.5061454772949,61.49832281514132,-151.922013564304,2628628800
sw,-74.3693084716796,-51.2173614501953,58.93413698108058,-141.728297117182,2628645467
sw,-75.2397689819336,-49.1053123474121,56.10967282465857,-133.37195914552535,2628662134
sw,-76.1048889160156,-47.1924285888671,54.20468471235121,-126.81892872773636,2628678801
sw,-77.0266418457031,-45.3851127624511,54.06706000064055,-121.30858773094347,2628695468
sw,-77.9502716064453,-43.5613365173339,55.983010291720156,-115.54930249117243,2628712135
sw,-78.8473892211914,-41.7227249145507,59.596465793937384,-108.01186337850255,2628728802
sw,-79.8048400878906,-40.0692176818847,64.0004047659773,-97.26960015630631,2628745469
sw,-80.9338455200195,-38.9100189208984,67.98337986500063,-82.3194043976955,2628762136
sw,-82.3824310302734,-38.2099723815918,70.37475309573824,-62.825641016094536,2628778803
sw,-83.9720153808593,-37.7435913085937,70.39602653991639,-39.254208843272835,2628795470
sw,-85.3408279418945,-37.4838027954101,67.90834575920545,-12.885598809911126,2628812137
sw,-86.3934326171875,-37.5328216552734,63.46742420588549,14.30097408827299,2628828804
sw,-87.1182556152343,-38.1623840332031,58.16062504777155,39.883521814889754,2628845471
sw,-87.6185455322265,-39.4852409362793,53.282300830357556,61.386166616247735,2628862138
sw,-88.0431518554687,-41.2726669311523,49.96235767546807,76.74303020003468,2628878805
sw,-88.3133316040039,-42.9898414611816,48.87055218592859,84.72174528133587,2628895472
sw,-88.1705169677734,-44.6140670776367,50.07614468083166,85.1724715935797,2628912139
sw,-87.6269454956054,-45.8800888061523,53.07613920810306,79.01374707146277,2628928806
sw,-86.7999877929687,-46.8484954833984,56.9487033520941,67.95816571798375,2628945473
sw,-85.8384475708007,-47.5131454467773,60.56146322769426,54.072625544735665,2628962140
sw,-84.8706512451171,-47.7289123535156,62.76816498595,39.320063646118406,2628978807
sw,-83.8538208007812,-48.0312232971191,62.55080655019958,25.227234387818882,2628995474
sw,-82.8705215454101,-48.2007064819335,59.09406419859979,12.770644187834208,2629012141
sw,-82.0584106445312,-48.5506019592285,51.80397865490814,2.485870300593197,2629028808
sw,-81.4926376342773,-49.356388092041,40.298915574979596,-5.288675613337109,2629045475
sw,-81.1938171386718,-49.848648071289,24.407455131847833,-10.185451953446348,2629062142
sw,-81.2320022583007,-49.7009773254394,4.203523905645335,-11.744071308769332,2629078809
sw,-81.5785064697265,-49.3839378356933,-19.909588636429074,-9.565869055577,2629095476
sw,-82.1318893432617,-49.2695693969726,-47.086864558501155,-3.610012508845606,2629112143
sw,-83.0365219116211,-49.2152709960937,-75.95670545737383,5.541132918125368,2629128810
sw,-84.5609436035156,-49.4582862854003,-104.63835718326953,16.61756718704251,2629145477
sw,-86.8768844604492,-50.25634765625,-130.91897357643785,27.873496649405364,2629162144
sw,-89.6631240844726,-51.3770713806152,-152.59094042608382,37.51984539482295,2629178811
sw,-87.0453491210937,-52.511920928955,-167.87883302336047,44.2202022915698,2629195478
sw,-83.8681259155273,-53.4916915893554,-175.8388256974677,47.46496448248259,2629212145
sw,-80.7152023315429,-54.2803535461425,-176.61405408399256,47.6914059017304,2629228812
sw,-77.2789840698242,-54.9886436462402,-171.46731082692173,46.119338776143366,2629245479
sw,-74.6019744873046,-55.6577110290527,-162.5631056526428,44.37199506098796,2629262146
sw,-72.4952011108398,-56.3252487182617,-152.52466659244078,44.01089704691338,2629278813
sw,-70.5125122070312,-57.0860710144043,-143.85103838753724,46.12098569158877,2629295480
sw,-68.4102554321289,-58.0025596618652,-138.33226922182962,51.04968131157963,2629312147
sw,-66.1835479736328,-58.9886169433593,-136.61439341402036,58.35107223669521,2629328814
sw,-63.9227790832519,-60.0670356750488,-138.02515746252786,66.93262947175008,2629345481
sw,-61.8985710144043,-61.3748703002929,-140.6997370126786,75.35798073741734,2629362148
sw,-59.8232231140136,-62.9205780029296,-141.9790732867848,82.22791728222516,2629378815
sw,-57.4417343139648,-64.722671508789,-139.00444951904356,86.54245059968876,2629395482
sw,-54.7893447875976,-66.4522705078125,-129.39067025572376,87.94460001384444,2629412149
sw,-52.7572174072265,-67.941650390625,-111.82665453879947,86.77249408659188,2629428816
sw,-51.602668762207,-69.1753158569336,-86.451976809123,83.9035825584398,2629445483
sw,-50.7014045715332,-70.3086318969726,-54.912236225025495,80.44631044371069,2629462150
sw,-50.1254081726074,-71.417610168457,-20.085157957726043,77.3881558483349,2629478817
sw,-50.2343482971191,-72.585708618164,14.452453228255964,75.3182767157621,2629495484
sw,-51.514045715332,-73.8445739746093,45.10026866977261,74.3060030675733,2629512151
sw,-52.7147789001464,-75.1493530273437,68.9099839091764,73.95344675675258,2629528818
sw,-54.5322189331054,-76.5503158569336,84.11027814127294,73.5790727424383,2629545485
sw,-56.1603202819824,-78.0227966308593,90.35870694555712,72.44988105969972,2629562152
sw,-57.6634216308593,-79.4059677124023,88.66913594998609,69.97228513607534,2629578819
sw,-58.7426261901855,-80.5724792480468,81.0540298310358,65.77586114697232,2629595486
sw,-59.8774909973144,-81.5227279663086,69.99593933531332,59.671927144456184,2629612153
sw,-60.7193031311035,-82.242805480957,57.89684060484882,51.52384124353124,2629628820
sw,-61.2782707214355,-82.7168426513671,46.64224378879243,41.10624331696946,2629645487
sw,-61.8288078308105,-83.0314788818359,37.37200666802669,28.038794095874245,2629662154
sw,-62.339916229248,-83.2307052612304,30.489006073571428,11.851452098281289,2629678821
sw,-62.9151763916015,-83.234504699707,25.870755040918187,-7.817796289839151,2629695488
sw,-64.0511474609375,-83.0293731689453,23.18658475654928,-30.95529202504498,2629712155
sw,-65.1938705444336,-82.4384384155273,22.182890045547914,-56.941804430869645,2629728822
sw,-65.3611755371093,-81.2569122314453,22.80967763722362,-84.47250549839424,2629745489
sw,-65.1386413574218,-79.2941207885742,25.139945790199555,-111.69365041288319,2629762156
sw,-65.611587524414,-76.5973510742187,29.149235673205904,-136.5397454862198,2629778823
sw,-66.4779968261718,-73.5033798217773,34.50020916425676,-157.16851308172303,2629795490
sw,-67.0044479370117,-70.313735961914,40.46205713566001,-172.34489858239448,2629812157
sw,-67.7544555664062,-67.1005935668945,46.011818473363675,-181.6464852393362,2629828824
sw,-69.025520324707,-63.8987693786621,50.08082580905626,-185.43940030161082,2629845491
sw,-70.4003601074218,-60.9755935668945,51.85910921916962,-184.66272313673346,2629862158
sw,-71.4440841674804,-58.1419296264648,51.05201963906411,-180.51641238400936,2629878825
sw,-72.2213516235351,-55.2533149719238,47.997315282672616,-174.15478932578603,2629895492
sw,-72.9664916992187,-52.5488319396972,43.60025778610503,-166.4563732937099,2629912159
sw,-73.646858215332,-50.1012153625488,39.10931988061573,-157.89893963894514,2629928826
sw,-74.2425155639648,-47.6955108642578,35.80320935546636,-148.53914044923465,2629945493
sw,-74.8456573486328,-45.5027351379394,34.675313275163894,-138.0827052037129,2629962160
sw,-75.4765930175781,-43.4949035644531,36.191467960363475,-126.02317161222928,2629978827
sw,-76.0970764160156,-41.6025657653808,40.174370110703,-111.81664710704374,2629995494
sw,-76.7293701171875,-39.8458137512207,45.84095863971381,-95.0515270080247,2630012161
sw,-77.5237426757812,-38.6425590515136,51.990143765022644,-75.57560209158555,2630028828
sw,-78.6139144897461,-38.4869956970214,57.306195676565494,-53.565579284921,2630045495
sw,-79.9705429077148,-38.5401420593261,60.70831973823785,-29.557791171209605,2630062162
sw,-81.2953414916992,-38.2437744140625,61.64971399713514,-4.473713206712932,2630078829
sw,-82.3174514770507,-37.9652252197265,60.269697418436294,20.358311969123662,2630095496
sw,-83.0859375,-38.5401229858398,57.343726948611064,43.243397118884175,2630112163
sw,-83.7644577026367,-40.0159568786621,54.04667806274358,62.30089931385985,2630128830
sw,-84.4053649902343,-41.6380424499511,51.61026752648074,75.80250494260206,2630145497
sw,-84.9863967895507,-43.3166465759277,50.98395517322572,82.58062495017282,2630162164
sw,-85.4980239868164,-44.8975028991699,52.593292638264685,82.35676006994406,2630178831
sw,-85.9842910766601,-46.3687629699707,56.24739311868909,75.85899290728284,2630195498
sw,-86.4247817993164,-47.4887351989746,61.199979861582165,64.6777502440971,2630212165
sw,-86.6827621459961,-47.9965476989746,66.32982929894992,50.90368011299695,2630228832
sw,-86.4981536865234,-48.3342399597168,70.38123899366232,36.66670107414895,2630245499
sw,-85.8480072021484,-48.5608749389648,72.19563020160165,23.727716780948388,2630262166
sw,-84.982063293457,-48.8257064819335,70.87422194025159,13.24894545658487,2630278833
sw,-84.130615234375,-49.0544052124023,65.83938094469713,5.7916020582573635,2630295500
sw,-83.3889999389648,-49.5386924743652,56.80186533649002,1.4937163973777259,2630312167
sw,-82.8894729614257,-50.4346771240234,43.677986732849504,0.3077390343115106,2630328834
sw,-82.6209716796875,-50.6750984191894,26.51903948280723,2.158697202598884,2630345501
sw,-82.6003952026367,-50.5761566162109,5.50659045306246,6.9336365434333835,2630362168
sw,-82.8696136474609,-50.6546096801757,-18.96694016330868,14.31732907919895,2630378835
sw,-83.416145324707,-50.9611091613769,-46.161003820323025,23.592553079072445,2630395502
sw,-84.3445968627929,-51.4946479797363,-74.86422847349482,33.55877758532823,2630412169
sw,-85.9515609741211,-52.2342300415039,-103.3734559811993,42.66818726624944,2630428836
sw,-88.3024597167968,-53.4852638244628,-129.63670439510452,49.36950535767696,2630445503
sw,-88.8651275634765,-54.8913764953613,-151.56120104847773,52.54679696401165,2630462170
sw,-85.599006652832,-56.0303039550781,-167.41764821963872,51.88758686502622,2630478837
sw,-82.3569717407226,-56.8499221801757,-176.22770235623992,48.0334530526933,2630495504
sw,-78.9693450927734,-57.4825057983398,-178.02052752497102,42.4478192222841,2630512171
sw,-75.5698852539062,-58.0296020507812,-173.8772926064682,37.0400302185326,2630528838
sw,-73.1476821899414,-58.4930305480957,-165.73293140058314,33.66381385309548,2630545505
sw,-71.1450500488281,-58.9313850402832,-155.96600967117183,33.63658901611561,2630562172
sw,-69.0338287353515,-59.4632301330566,-146.87202804247457,37.408075184199596,2630578839
sw,-66.6621551513671,-60.1793365478515,-140.1543929884672,44.45935956654128,2630595506
sw,-64.2752075195312,-61.1110572814941,-136.5526120522504,53.45241786145077,2630612173
sw,-62.0162734985351,-62.1847877502441,-135.67116318863302,62.58783685577011,2630628840
sw,-60.1337165832519,-63.4925994873046,-136.02058231995602,70.0774355355151,2630645507
sw,-58.4139213562011,-65.102668762207,-135.26326782246076,74.60828620307989,2630662174
sw,-56.4659957885742,-66.8046951293945,-130.6535918023015,75.67125576742272,2630678841
sw,-54.3260231018066,-68.1620254516601,-119.63727080711033,73.65629206494478,2630695508
sw,-52.1378784179687,-69.0979080200195,-100.51532513803302,69.6816465344725,2630712175
sw,-50.8951835632324,-69.8788681030273,-73.01488968456155,65.2125546581461,2630728842
sw,-50.0884017944335,-70.6806182861328,-38.59254503320077,61.60091865317773,2630745509
sw,-49.7875099182128,-71.5584716796875,-0.34694891869906846,59.701775789313935,2630762176
sw,-50.0952644348144,-72.5213165283203,37.48552685842101,59.68289024077457,2630778843
sw,-51.5621147155761,-73.6267852783203,70.36873375372203,61.06437642670514,2630795510
sw,-54.002944946289,-74.9136352539062,94.45034795151153,62.943586902861234,2630812177
sw,-56.6539421081543,-76.25341796875,107.42584401184757,64.30495656340011,2630828844
sw,-58.8851318359375,-77.5264587402343,109.01413344145666,64.29807806456695,2630845511
sw,-60.1666450500488,-78.6952667236328,100.88629720033455,62.39100523351114,2630862178
sw,-60.5820159912109,-79.697525024414,86.08708676961714,58.35991259274935,2630878845
sw,-61.5956497192382,-80.4463272094726,68.17729192916399,52.14169404465517,2630895512
sw,-62.5339202880859,-80.9098815917968,50.39947981812822,43.630723414587564,2630912179
sw,-63.1606330871582,-81.1604232788086,35.103200035844836,32.52657806604477,2630928846
sw,-63.2585639953613,-81.3547592163086,23.526337209959397,18.324994852191214,2630945513
sw,-63.3474998474121,-81.4868774414062,15.906340767163393,0.4891730070772331,2630962180
sw,-64.323371887207,-81.4865951538086,11.819836132541946,-21.241804336123078,2630978847
sw,-65.4065704345703,-81.1766815185546,10.603265219776134,-46.524612744715704,2630995514
sw,-65.4717941284179,-80.3102264404296,11.690800829450394,-74.21206825039104,2631012181
sw,-65.3899917602539,-78.6244049072265,14.751500447796989,-102.39797420400464,2631028848
sw,-65.7098846435546,-76.1303253173828,19.616185067881176,-128.73119436452953,2631045515
sw,-66.2567062377929,-73.0710296630859,26.089594270097148,-150.91165902281736,2631062182
sw,-66.7857513427734,-69.7856292724609,33.77624585994255,-167.2012352207051,2631078849
sw,-67.3684768676757,-66.5780563354492,42.01023711342599,-176.77640162297894,2631095516
sw,-68.3090744018554,-63.2932929992675,49.91886146268214,-179.8198244916986,2631112183
sw,-69.6855010986328,-60.2883033752441,56.59855796341578,-177.35422293625393,2631128850
sw,-71.127082824707,-57.6234397888183,61.341521918091544,-170.9092382609151,2631145517
sw,-72.3026885986328,-55.0603218078613,63.827590475120964,-162.1449995051979,2631162184
sw,-73.4069366455078,-52.466567993164,64.20519324332675,-152.53358069159282,2631178851
sw,-74.4276580810546,-50.0332794189453,63.02996430562132,-143.1468376504117,2631195518
sw,-75.4030456542968,-47.9165458679199,61.08663873393635,-134.55079141863547,2631212185
sw,-76.4150619506836,-46.0270195007324,59.159073046437356,-126.78647294556974,2631228852
sw,-77.4238815307617,-44.1739425659179,57.82150043937894,-119.42255745319603,2631245519
sw,-78.4144210815429,-42.4190444946289,57.307522324526566,-111.67382840526135,2631262186
sw,-79.2505798339843,-40.7068099975585,57.4855833489096,-102.57409784498903,2631278853
sw,-80.1651916503906,-39.21728515625,57.941558063297684,-91.17656184376574,2631295520
sw,-81.3195266723632,-38.0046043395996,58.143454592668256,-76.7456769088831,2631312187
sw,-82.5908508300781,-37.3870239257812,57.63910964197637,-58.91374602725319,2631328854
sw,-83.7127532958984,-37.316047668457,56.22101410549021,-37.79710285849775,2631345521
sw,-84.6209411621093,-37.1339569091796,53.99772392225491,-14.080365454967989,2631362188
sw,-85.3260498046875,-36.9406661987304,51.34650569518846,10.93829245585031,2631378855
sw,-85.922248840332,-37.1825561523437,48.77290643960794,35.387242978016204,2631395522
sw,-86.5592956542968,-38.3644294738769,46.74085609388665,57.014316855546,2631412189
sw,-87.2120285034179,-39.9795227050781,45.540644122099216,73.55945276396609,2631428856
sw,-87.7249679565429,-41.7497062683105,45.23383625583982,83.24089576731362,2631445523
sw,-88.0426559448242,-43.3809432983398,45.67491227926581,85.20622800879342,2631462190
sw,-88.078987121582,-44.992259979248,46.58129543449378,79.78634157163027,2631478857
sw,-87.7871551513671,-46.3234825134277,47.61544256481751,68.45250625083038,2631495524
sw,-87.2783966064453,-46.9739837646484,48.450287691968114,53.47778295774899,2631512191
sw,-86.611587524414,-47.149658203125,48.803460007849154,37.40373067397776,2631528858
sw,-85.8925857543945,-47.2315254211425,48.43876168133146,22.480982392032853,2631545525
sw,-85.1622009277343,-47.3559837341308,47.14123974039789,10.262207770878893,2631562192
sw,-84.3678665161132,-47.3746299743652,44.674891589423126,1.4669799466624933,2631578859
sw,-83.613525390625,-47.5331420898437,40.73312935049752,-3.8698934830793825,2631595526
sw,-83.1314239501953,-48.4963798522949,34.89619353215932,-6.0678044913873,2631612193
sw,-82.9234085083007,-49.2028579711914,26.61895700400901,-5.461359792698068,2631628860
sw,-82.8836822509765,-49.0555000305175,15.281343773931484,-2.2237885353748754,2631645527
sw,-82.9035034179687,-48.9282989501953,0.3272285037589677,3.5680975595917586,2631662194
sw,-82.9968566894531,-49.1064224243164,-18.515302492981185,11.689271078434391,2631678861
sw,-83.3504409790039,-49.407356262207,-40.990351649823836,21.50816350014159,2631695528
sw,-84.1648788452148,-49.9243469238281,-66.14455080244716,31.884065705525835,2631712195
sw,-85.6779556274414,-50.630630493164,-92.32598830274085,41.30482531950126,2631728862
sw,-87.862922668457,-51.6987876892089,-117.394143379111,48.23621438823439,2631745529
sw,-89.3400268554687,-53.0125770568847,-139.1038478385682,51.564046597786096,2631762196
sw,-86.4296035766601,-54.2203102111816,-155.55923702294982,50.96891101782349,2631778863
sw,-83.4935073852539,-55.1124763488769,-165.6104730795024,47.09173474108591,2631795530
sw,-80.5158767700195,-55.7792167663574,-169.09065606554225,41.42044501005097,2631812197
sw,-77.4110717773437,-56.2886238098144,-166.84067434405287,35.92560936920463,2631828864
sw,-74.8659973144531,-56.7344131469726,-160.51983560776884,32.555405580178984,2631845531
sw,-72.728889465332,-57.1996955871582,-152.24128540163846,32.73763870916412,2631862198
sw,-70.6288833618164,-57.7652587890625,-144.10744511309147,37.02379258530194,2631878865
sw,-68.3775634765625,-58.5013275146484,-137.74662230860403,44.96186817475035,2631895532
sw,-66.1311416625976,-59.4358291625976,-133.95136070185126,55.221356618800264,2631912199
sw,-64.0366058349609,-60.5395317077636,-132.48951387366574,65.9322831097607,2631928866
sw,-62.1591835021972,-61.8801498413085,-132.1205255703168,75.15233704134901,2631945533
sw,-60.3262863159179,-63.4754066467285,-130.82027026661441,81.3476357823284,2631962200
sw,-58.1771812438964,-65.2404022216796,-126.19309855661967,83.76630445851633,2631978867
sw,-56.0875358581543,-66.9025344848632,-116.01345021921549,82.60325516256903,2631995534
sw,-54.1967277526855,-68.1633605957031,-98.79331614508462,78.90375792065649,2632012201
sw,-52.9707298278808,-69.1356353759765,-74.2423966587596,74.22881772608156,2632028868
sw,-52.2767524719238,-70.0385971069336,-43.500412977864585,70.18444374040642,2632045535
sw,-51.9297332763671,-71.0112152099609,-9.072804827357452,67.96396746864349,2632062202
sw,-52.1560134887695,-72.0827255249023,25.534037412229345,68.04308864928186,2632078869
sw,-52.9304504394531,-73.2488327026367,56.42339602297037,70.10733612282421,2632095536
sw,-54.7517051696777,-74.5237731933593,80.05659828617067,73.2112927462353,2632112203
sw,-56.9208106994628,-76.0222015380859,93.97925498843354,76.09920598102653,2632128870
sw,-59.1012992858886,-77.6506042480468,97.33623316555725,77.57449799512442,2632145537
sw,-60.7152862548828,-79.1750030517578,91.01713535513228,76.79714019217492,2632162204
sw,-61.6514587402343,-80.5668106079101,77.37996391705728,73.4148241160782,2632178871
sw,-61.9519271850585,-81.6958847045898,59.644597777560364,67.49248878852733,2632195538
sw,-62.7357521057128,-82.4836807250976,41.15697679667736,59.2794999195871,2632212205
sw,-63.2769165039062,-82.9132995605468,24.7425658652636,48.91927597377534,2632228872
sw,-63.4829292297363,-83.1844787597656,12.297556332320257,36.23655225481052,2632245539
sw,-63.2004241943359,-83.4444427490234,4.66642529197945,20.71571072762927,2632262206
sw,-63.169147491455,-83.6279754638671,1.7780483997014456,1.7101066128936524,2632278873
sw,-64.0902252197265,-83.6651611328125,2.9624377772617514,-21.178789993478986,2632295540
sw,-64.9671783447265,-83.3678894042968,7.3267108415386835,-47.70006264782736,2632312207
sw,-65.0587997436523,-82.4488525390625,14.046828687028444,-76.70792259136597,2632328874
sw,-65.1913375854492,-80.7002258300781,22.47238185436885,-106.2049110584932,2632345541
sw,-65.7769165039062,-78.0571899414062,32.04406744776581,-133.69751444556408,2632362208
sw,-66.3630599975586,-74.8877487182617,42.12187176798689,-156.75890462915487,2632378875
sw,-66.9096298217773,-71.5785217285156,51.85420703584773,-173.60404966128385,2632395542
sw,-67.8910827636718,-68.3738479614257,60.18315014920148,-183.47850099600066,2632412209
sw,-69.4307708740234,-65.2147827148437,66.01240440076263,-186.7448849290097,2632428876
sw,-71.1245346069336,-62.1474685668945,68.48903963091333,-184.6728646207701,2632445543
sw,-72.463752746582,-59.3023109436035,67.29084864931812,-179.03557983016495,2632462210
sw,-73.5177383422851,-56.557746887207,62.798301753912796,-171.651234046431,2632478877
sw,-74.4649200439453,-53.8436737060546,56.0749802924761,-163.98733108395373,2632495544
sw,-75.2860107421875,-51.3891639709472,48.655829649077184,-156.89726027958122,2632512211
sw,-75.9948654174804,-49.0223159790039,42.206115095304156,-150.51421453905758,2632528878
sw,-76.6361694335937,-46.7052001953125,38.14383078372408,-144.29843343153112,2632545545
sw,-77.2087097167968,-44.5785980224609,37.31896343551306,-137.2156140390381,2632562212
sw,-77.7418441772461,-42.481948852539,39.82629230110531,-128.0077729398687,2632578879
sw,-78.3618621826171,-40.4366722106933,45.00011733163225,-115.50176808189381,2632595546
sw,-79.2307510375976,-38.8043022155761,51.59970799715066,-98.89290450380736,2632612213
sw,-80.4336318969726,-37.8951416015625,58.14483869139827,-77.9512691011088,2632628880
sw,-81.8766098022461,-37.4733772277832,63.311538830167656,-53.12767579991649,2632645547
sw,-83.246109008789,-37.1605033874511,66.26953967550689,-25.566707318413936,2632662214
sw,-84.3371124267578,-36.933422088623,66.85568887564693,2.960859928126233,2632678881
sw,-85.1972732543945,-37.0892448425293,65.5352611497294,30.21923159637875,2632695548
sw,-85.9901504516601,-38.1581268310546,63.182020580001144,53.79462772880705,2632712215
sw,-86.701057434082,-39.9075202941894,60.7695111501241,71.50956353328586,2632728882
sw,-87.2368545532226,-41.7714462280273,59.083227552409014,81.88631641555592,2632745549
sw,-87.5579986572265,-43.5229225158691,58.53660801261209,84.51125186749991,2632762216
sw,-87.5328063964843,-44.9835014343261,59.12411229925094,80.15317116194213,2632778883
sw,-87.1038284301757,-46.1456604003906,60.4952985069084,70.57150320783154,2632795550
sw,-86.3956604003906,-46.8574752807617,62.10014259545174,58.06750435416432,2632812217
sw,-85.4771881103515,-47.2417068481445,63.34391242249176,44.92540527050049,2632828884
sw,-84.4700469970703,-47.502155303955,63.697813391990046,32.926038362051976,2632845551
sw,-83.4455795288086,-47.8454208374023,62.73320464608294,23.08492652364294,2632862218
sw,-82.4754333496093,-48.1709899902343,60.07671322780957,15.681314167505567,2632878885
sw,-81.7193069458007,-48.8837432861328,55.31598566043884,10.532465429382503,2632895552
sw,-81.15771484375,-50.0102996826171,47.913117380601896,7.369391946496035,2632912219
sw,-80.7323608398437,-50.5571823120117,37.192958920166724,6.128074423780291,2632928886
sw,-80.4180068969726,-50.4507713317871,22.455172777205703,7.0133365662047105,2632945553
sw,-80.2240829467773,-50.5392112731933,3.2105238948011956,10.313110770704155,2632962220
sw,-80.2348556518554,-50.8038825988769,-20.521410059893228,16.077533556761182,2632978887
sw,-80.6495971679687,-51.168472290039,-47.96541829425387,23.848143963281753,2632995554
sw,-81.7062072753906,-51.6259727478027,-77.51421500370529,32.591777489967086,2633012221
sw,-83.5848236083984,-52.5121116638183,-106.8944578876521,40.89298289713448,2633028888
sw,-86.1989822387695,-53.8293838500976,-133.5592861165407,47.34412901982588,2633045555
sw,-89.1172943115234,-55.1015357971191,-155.20105609963144,50.98754626799132,2633062222
sw,-87.646987915039,-56.1659965515136,-170.23019762860676,51.63847135659575,2633078889
sw,-84.8046569824218,-57.0040473937988,-178.08471704453953,49.96359257786275,2633095556
sw,-81.7405548095703,-57.6934623718261,-179.30324176331376,47.287617764016936,2633112223
sw,-78.4597091674804,-58.4029960632324,-175.36720758907825,45.20128165542973,2633128890
sw,-75.7023849487304,-59.1230125427246,-168.36016446545912,45.10383465150572,2633145557
sw,-73.343521118164,-59.9113655090332,-160.5089783063383,47.816808773815985,2633162224
sw,-71.0598449707031,-60.7827568054199,-153.68824187706915,53.368113497294345,2633178891
sw,-68.6400451660156,-61.8081169128418,-148.98910515123399,60.990312564614435,2633195558
sw,-66.2820663452148,-62.974796295166,-146.45406957246277,69.32225116709623,2633212225
sw,-64.0518646240234,-64.3174285888671,-145.04611654909473,76.75788821295977,2633228892
sw,-61.8857917785644,-65.8457107543945,-142.86709497662216,81.8543786258287,2633245559
sw,-59.6326675415039,-67.5259246826171,-137.58659045986235,83.69674421628717,2633262226
sw,-57.1820259094238,-69.1280670166015,-126.99629036432682,82.12359673328565,2633278893
sw,-55.1967468261718,-70.4320678710937,-109.57069207022738,77.75165308455364,2633295560
sw,-54.1698341369628,-71.4569244384765,-84.90755809346794,71.79362221829086,2633312227
sw,-53.4310798645019,-72.3880081176757,-53.952520428606846,65.72782258369834,2633328894
sw,-52.8415756225585,-73.3108596801757,-18.965785534188257,60.921678235353134,2633345561
sw,-52.7113037109375,-74.2589950561523,16.768740532107046,58.3151972350878,2633362228
sw,-53.178123474121,-75.2539672851562,49.46829102976133,58.23701002160463,2633378895
sw,-54.9883079528808,-76.3212280273437,75.55097576564302,60.37545427435159,2633395562
sw,-57.2137107849121,-77.4496002197265,92.3805846142303,63.882946345811966,2633412229
sw,-59.6026611328125,-78.6472625732421,98.85344617034178,67.56505321671007,2633428896
sw,-61.5092430114746,-79.975715637207,95.62024723531967,70.09694031968267,2633445563
sw,-62.3229827880859,-81.3174362182617,84.84214656113251,70.21533421342278,2633462230
sw,-62.671646118164,-82.4735565185546,69.55991875575735,66.85098558472208,2633478897
sw,-63.4213333129882,-83.3356475830078,52.908649225774134,59.19352685138482,2633495564
sw,-64.0535736083984,-83.8687667846679,37.44999116501083,46.71219135305593,2633512231
sw,-64.4508361816406,-84.128547668457,24.808195710332626,29.178056223507603,2633528898
sw,-64.5292663574218,-84.1618499755859,15.652939898255928,6.729239848960218,2633545565
sw,-65.3463287353515,-84.0524215698242,9.948819556946681,-20.016267468837075,2633562232
sw,-66.4275207519531,-83.6097793579101,7.319481728417258,-49.849686359651486,2633578899
sw,-66.4651794433593,-82.4962997436523,7.358069221373222,-80.95079119368485,2633595566
sw,-66.0921554565429,-80.6294403076171,9.765395328426987,-111.03675544759395,2633612233
sw,-66.4678192138671,-78.0533142089843,14.30251512237268,-137.69553399221826,2633628900
sw,-67.1028060913086,-75.0526580810546,20.642683227108062,-158.82974596144246,2633645567
sw,-67.5668792724609,-71.9156036376953,28.235864633043388,-173.07453720767558,2633662234
sw,-67.9634017944336,-68.7490615844726,36.26307616976979,-180.05410210967162,2633678901
sw,-68.7367858886718,-65.6045608520507,43.70944049811658,-180.40343971738378,2633695568
sw,-70.0550918579101,-62.5428123474121,49.547217485529615,-175.56637569169695,2633712235
sw,-71.2654190063476,-59.7069664001464,52.98239457749525,-167.4442393824726,2633728902
sw,-72.1449584960937,-57.1344757080078,53.68433412539925,-157.99113887047346,2633745569
sw,-73.1235809326171,-54.7770195007324,51.91339889739365,-148.83973423883563,2633762236
sw,-74.0788803100586,-52.5774841308593,48.49557493036665,-141.01711197512213,2633778903
sw,-74.8892745971679,-50.4265785217285,44.64422468078664,-134.7885540150897,2633795570
sw,-75.6176605224609,-48.3844947814941,41.67274503655145,-129.6488617379835,2633812237
sw,-76.2577819824218,-46.5586967468261,40.67019120236955,-124.46160749192997,2633828904
sw,-76.8594970703125,-44.7608642578125,42.22365112403149,-117.72444775491725,2633845571
sw,-77.6029663085937,-42.8687553405761,46.26234557933234,-107.91528434360825,2633862238
sw,-78.4996032714843,-41.1963310241699,52.06807733946469,-93.85372589501777,2633878905
sw,-79.4873428344726,-40.2750854492187,58.45258933224109,-75.00433979664349,2633895572
sw,-80.6225433349609,-39.7122497558593,64.05833703678748,-51.66261924522272,2633912239
sw,-81.9340896606445,-39.3819885253906,67.70735974591148,-24.99575337266401,2633928906
sw,-83.3161926269531,-39.3583526611328,68.70939167374226,3.0645106779161773,2633945573
sw,-84.6262969970703,-39.7219276428222,67.04701232062342,30.072478154521765,2633962240
sw,-85.7240982055664,-40.7966232299804,63.38372348422346,53.451062520806424,2633978907
sw,-86.6412963867187,-42.5163307189941,58.88758877577286,70.96180978606246,2633995574
sw,-87.4554748535156,-44.3572425842285,54.91594001620235,81.16310675001668,2634012241
sw,-88.2143630981445,-46.0744171142578,52.64621494614439,83.72029108077102,2634028908
sw,-88.8976669311523,-47.6466674804687,52.749570015268574,79.45287084960665,2634045575
sw,-89.1611709594726,-48.7117691040039,55.18636856581816,70.08735988432387,2634062242
sw,-88.548957824707,-49.3686141967773,59.16657928692447,57.79222867305157,2634078909
sw,-87.6514053344726,-49.7864913940429,63.27751128580362,44.654694880117255,2634095576
sw,-86.5852813720703,-49.9460372924804,65.74615388825922,32.28100757914397,2634112243
sw,-85.3876419067382,-50.3029479980468,64.77736688740714,21.648929860814,2634128910
sw,-84.2398681640625,-51.0494689941406,58.89362365245296,13.228183889241018,2634145577
sw,-83.3323287963867,-52.0310401916503,47.201937397471966,7.257539410361846,2634162244
sw,-82.9251556396484,-52.3313941955566,29.53583214871099,3.991551367165383,2634178911
sw,-83.0712509155273,-52.1353340148925,6.462302329994817,3.7575023868737967,2634195578
sw,-83.5830535888671,-52.1724777221679,-20.813134744345323,6.787411622650309,2634212245
sw,-84.2547836303711,-52.2786560058593,-50.59162077765044,12.934692190767368,2634228912
sw,-85.3285293579101,-52.5689620971679,-80.84179209182889,21.457903685518595,2634245579
sw,-87.0446853637695,-53.1253509521484,-109.37696568307055,31.01978468662273,2634262246
sw,-89.2608642578125,-54.0175132751464,-134.0689466708114,39.94332355559297,2634278913
sw,-87.7467498779296,-55.3594589233398,-153.10376184348198,46.64847208743662,2634295580
sw,-84.751968383789,-56.6561698913574,-165.24881412285293,50.1116955562906,2634312247
sw,-81.6754150390625,-57.606101989746,-170.07379323018094,50.17537083283438,2634328914
sw,-78.4545364379882,-58.3220176696777,-168.0650633984907,47.59157235598159,2634345581
sw,-75.4159393310546,-58.9230232238769,-160.58990049834577,43.78864616057806,2634362248
sw,-73.1657943725586,-59.5503425598144,-149.69361775743,40.44802570742756,2634378915
sw,-71.2464828491211,-60.1774978637695,-137.74868218092246,39.03014666244822,2634395582
sw,-69.3724136352539,-60.7578659057617,-127.01705903791846,40.3840791448953,2634412249
sw,-67.4087905883789,-61.4183464050293,-119.21635074053098,44.53579851475914,2634428916
sw,-65.4629669189453,-62.2679748535156,-115.17761238068265,50.69773542279739,2634445583
sw,-63.6073875427246,-63.27486038208,-114.65372113656953,57.48919657277371,2634462250
sw,-62.0836601257324,-64.388198852539,-116.30803653502706,63.309234068665,2634478917
sw,-60.6344718933105,-65.6649017333984,-117.89982730316382,66.76793474155025,2634495584
sw,-58.8240547180175,-67.0727386474609,-116.67271747611422,67.0666151887445,2634512251
sw,-56.8596382141113,-68.3918075561523,-109.91867813337863,64.22646295725652,2634528918
sw,-54.9309997558593,-69.3963394165039,-95.62733725936269,59.10020696670202,2634545585
sw,-53.6547889709472,-70.1805572509765,-73.0703141883806,53.15900168092285,2634562252
sw,-52.8338432312011,-70.848648071289,-43.15616792995927,48.11217103784427,2634578919
sw,-52.5064659118652,-71.4887619018554,-8.437334848819198,45.46620036396266,2634595586
sw,-52.7534599304199,-72.1742095947265,27.266871437396357,46.1418976887011,2634612253
sw,-53.6585998535156,-72.9666213989257,59.57724125763328,50.243987921919974,2634628920
sw,-55.5091247558593,-73.8752059936523,84.45298956666483,57.03030100765026,2634645587
sw,-58.031883239746,-74.9694671630859,99.07022883210796,65.0756458855921,2634662254
sw,-60.2633743286132,-76.3350677490234,102.43557606776947,72.57985421986457,2634678921
sw,-62.0916442871093,-77.9270324707031,95.5366337643366,77.73635385855768,2634695588
sw,-62.6316604614257,-79.5026092529296,80.97395171432905,79.06320358477585,2634712255
sw,-62.8527488708496,-80.9036788940429,62.20922644556451,75.61124426329323,2634728922
sw,-63.6327476501464,-81.9319152832031,42.703376708538,67.00764630011149,2634745589
sw,-64.0295486450195,-82.5323486328125,25.227045118163822,53.35656652924533,2634762256
sw,-64.3131484985351,-82.8120422363281,11.512015361273836,35.075133739322816,2634778923
sw,-64.2818603515625,-82.8851699829101,2.2581749128328643,12.762855552285874,2634795590
sw,-64.5524978637695,-82.7974243164062,-2.6034351943706353,-12.828638335786094,2634812257
sw,-65.4036407470703,-82.4455795288086,-3.544214229707586,-40.727901270041194,2634828924
sw,-65.6789321899414,-81.6129455566406,-1.1247628629681021,-69.65087011104828,2634845591
sw,-65.319580078125,-80.1190872192382,4.154685301355559,-97.98601654659363,2634862258
sw,-65.18408203125,-77.8298416137695,11.823748360520476,-123.92953408885919,2634878925
sw,-65.735969543457,-74.9603881835937,21.31328257649751,-145.76458840894185,2634895592
sw,-66.7126007080078,-71.8352584838867,31.847517002116597,-162.1968616146457,2634912259
sw,-67.1767883300781,-68.6423873901367,42.435140601945264,-172.62052849489083,2634928926
sw,-67.9575805664062,-65.4523162841796,51.97105555848152,-177.21510077884625,2634945593
sw,-69.35888671875,-62.4263648986816,59.41896307979331,-176.8448890982349,2634962260
sw,-70.8054046630859,-59.7085456848144,64.02688957199221,-172.80658055740187,2634978927
sw,-72.0060424804687,-57.054515838623,65.51327317702535,-166.5116683515441,2634995594
sw,-73.1063079833984,-54.4302635192871,64.15782617785098,-159.1898612482104,2635012261
sw,-74.1637954711914,-52.0352897644043,60.75681184868349,-151.67121916028827,2635028928
sw,-75.1358795166015,-49.7756271362304,56.448338772331525,-144.2721871459606,2635045595
sw,-76.0443801879882,-47.6059799194335,52.45351456096515,-136.78970175329422,2635062262
sw,-76.9269256591796,-45.6702651977539,49.79887369974129,-128.59697617720735,2635078929
sw,-77.7158889770507,-43.8109970092773,49.08637785914516,-118.8242983032274,2635095596
sw,-78.4454116821289,-41.9769859313964,50.365920269167404,-106.5931222112271,2635112263
sw,-79.2577590942382,-40.4389762878418,53.144752255825516,-91.25655991198464,2635128930
sw,-80.2285919189453,-39.4145545959472,56.5385141952227,-72.59474415327864,2635145597
sw,-81.4108276367187,-38.9376678466796,59.530758721360925,-50.927792519734055,2635162264
sw,-82.7365798950195,-38.6716690063476,61.270375690169764,-27.13660354324058,2635178931
sw,-84.0001449584961,-38.6049728393554,61.315532832124234,-2.6019137140071438,2635195598
sw,-85.0237426757812,-38.8408012390136,59.74427836040312,20.92975023701214,2635212265
sw,-85.8285751342773,-39.5760421752929,57.09786298522649,41.55679405063158,2635228932
sw,-86.5272369384765,-40.7437057495117,54.185203919373606,57.50834570145737,2635245599
sw,-87.2135772705078,-42.344856262207,51.82575916033963,67.4691618621105,2635262266
sw,-87.8314743041992,-43.7934913635253,50.6204532162872,70.86514278604973,2635278933
sw,-88.2803497314453,-44.9203872680664,50.815141477456734,68.01662962417662,2635295600
sw,-88.3377609252929,-45.9541282653808,52.2770033506136,60.098879384195754,2635312267
sw,-87.8935546875,-47.0286788940429,54.564149251164814,48.910586110001745,2635328934
sw,-87.110122680664,-47.624397277832,57.046490961989385,36.50744606445784,2635345601
sw,-86.2044448852539,-47.7318725585937,59.03326954443348,24.79062128733932,2635362268
sw,-85.2660064697265,-47.6994514465332,59.873436118128495,15.153615220728181,2635378935
sw,-84.2985534667968,-47.8277130126953,59.01110834528765,8.285605780009774,2635395602
sw,-83.3110046386718,-47.9187583923339,55.993471952816485,4.1918072870901035,2635412269
sw,-82.5043869018554,-48.0816612243652,50.44116078137838,2.4203706354690864,2635428936
sw,-81.9724426269531,-48.9358940124511,42.003461487818036,2.404926734584921,2635445603
sw,-81.6657485961914,-49.9139938354492,30.33285152388245,3.777292672938692,2635462270
sw,-81.555549621582,-49.9924163818359,15.11770966458282,6.507239908106681,2635478937
sw,-81.6492538452148,-49.9573326110839,-3.8034766829389963,10.801970948247943,2635495604
sw,-81.8703002929687,-50.1995544433593,-26.261801787320874,16.82244592798774,2635512271
sw,-82.3338165283203,-50.6200218200683,-51.57470954840963,24.374761659992636,2635528938
sw,-83.3616790771484,-51.0973892211914,-78.45295281076122,32.747434519900054,2635545605
sw,-85.1488571166992,-51.75630569458,-105.07831441760362,40.7901412695152,2635562272
sw,-87.4634933471679,-52.8990592956543,-129.3732848973667,47.217909210411975,2635578939
sw,-88.688362121582,-54.241413116455,-149.4030389379967,51.02795138551373,2635595606
sw,-86.1354293823242,-55.3890380859375,-163.7902256966675,51.86630075904897,2635612273
sw,-83.2098541259765,-56.2649955749511,-172.01410211270266,50.1968272003765,2635628940
sw,-80.0692443847656,-56.9759063720703,-174.5046175763295,47.20252127503736,2635645607
sw,-77.1415481567382,-57.6767082214355,-172.50318705597851,44.452247101209004,2635662274
sw,-74.7973098754882,-58.3164901733398,-167.72226199592254,43.446810151703325,2635678941
sw,-72.5896987915039,-58.9801330566406,-161.88812966825918,45.187813037102444,2635695608
sw,-70.3665924072265,-59.780158996582,-156.2892348198242,49.89377217315501,2635712275
sw,-67.9248886108398,-60.7293281555175,-151.4566911621158,56.93817976641439,2635728942
sw,-65.2616195678711,-61.850730895996,-147.0598095887559,65.02140274610598,2635745609
sw,-62.6860694885253,-63.1132316589355,-142.02368099287605,72.52704531101261,2635762276
sw,-60.713451385498,-64.6263732910156,-134.81114828225012,77.96577187336416,2635778943
sw,-59.1302032470703,-66.3691024780273,-123.79175053092338,80.38437653061848,2635795610
sw,-57.432861328125,-67.9952011108398,-107.63848034376755,79.6216886045003,2635812277
sw,-55.7969932556152,-69.2380981445312,-85.70907898054575,76.33146470824039,2635828944
sw,-54.6085395812988,-70.2324066162109,-58.35349662843413,71.76343320034954,2635845611
sw,-53.8851051330566,-71.1274032592773,-27.060171126611543,67.37545971466201,2635862278
sw,-53.6467895507812,-72.0400924682617,5.64594824833704,64.4058859829898,2635878945
sw,-54.3152961730957,-73.0421752929687,36.587718218670354,63.53880606639265,2635895612
sw,-55.6918563842773,-74.1613082885742,62.54454639599085,64.74935360276663,2635912279
sw,-57.4314002990722,-75.3663635253906,80.93435396273783,67.34780827472882,2635928946
sw,-59.5481376647949,-76.6527557373046,90.36736840192631,70.18017857019723,2635945613
sw,-61.2982025146484,-78.0289535522461,90.89616202496335,71.90648318287921,2635962280
sw,-62.1225242614746,-79.4207077026367,83.8889673799661,71.27007324722983,2635978947
sw,-63.003604888916,-80.7094650268554,71.59231201275442,67.2882308941592,2635995614
sw,-63.8776016235351,-81.6821823120117,56.55665496252534,59.330170630521216,2636012281
sw,-64.5495300292968,-82.2360763549804,41.12031089857998,47.09527383580449,2636028948
sw,-65.0183639526367,-82.4716491699218,27.083999328982053,30.546955457180562,2636045615
sw,-65.1878967285156,-82.5022659301757,15.613438283942184,9.874993279289843,2636062282
sw,-65.328384399414,-82.340705871582,7.330047079032835,-14.464052251356646,2636078949
sw,-66.216064453125,-82.0233154296875,2.5015737620346745,-41.637338598590304,2636095616
sw,-66.905647277832,-81.3065872192382,1.2204015479635573,-70.33066588698132,2636112283
sw,-66.5254592895507,-79.924560546875,3.4705447743315894,-98.75181177036089,2636128950
sw,-66.0853424072265,-77.6549606323242,9.053970831406593,-124.81630251179818,2636145617
sw,-66.4656219482421,-74.7296905517578,17.447155936399696,-146.50607573651362,2636162284
sw,-67.3551940917968,-71.5945053100586,27.7145757986438,-162.2970775050127,2636178951
sw,-67.8402252197265,-68.363784790039,38.57046475801604,-171.50228255264543,2636195618
sw,-68.6321792602539,-65.2717666625976,48.59214325466262,-174.40264872585198,2636212285
sw,-69.9985275268554,-62.4149131774902,56.51818070220993,-172.1240262463363,2636228952
sw,-71.4643783569336,-59.7399444580078,61.537377355390305,-166.31409451306953,2636245619
sw,-72.6833343505859,-57.1933555603027,63.476235669809746,-158.7328487240545,2636262286
sw,-73.6733474731445,-54.7119178771972,62.81872645565542,-150.87436258365693,2636278953
sw,-74.6568832397461,-52.4484786987304,60.545664817709905,-143.7008203230098,2636295620
sw,-75.5409469604492,-50.3234405517578,57.844106862911936,-137.52249237169974,2636312287
sw,-76.3825073242187,-48.1389198303222,55.77883716830126,-132.0209214760996,2636328954
sw,-77.3116302490234,-46.1230506896972,55.022654719617975,-126.38926632325058,2636345621
sw,-78.2909317016601,-44.2043571472168,55.71599669897656,-119.54787361320024,2636362288
sw,-79.2531433105468,-42.2909622192382,57.48434453726881,-110.38497160050125,2636378955
sw,-80.2959289550781,-40.7576103210449,59.597965347644916,-97.97708011784177,2636395622
sw,-81.4625015258789,-40.0357398986816,61.22306437794603,-81.76334726588598,2636412289
sw,-82.7195358276367,-39.4451141357421,61.691447545136384,-61.674698132404785,2636428956
sw,-83.9509735107421,-38.6969375610351,60.710384401036535,-38.231102311307545,2636445623
sw,-85.0043258666992,-38.1686630249023,58.449931856087304,-12.598441836681154,2636462290
sw,-85.8480987548828,-38.2084045410156,55.482830319098774,13.446205475068272,2636478957
sw,-86.5447006225586,-39.0879287719726,52.60229441242532,37.70624785693264,2636495624
sw,-87.2403335571289,-40.4586524963378,50.584726512348496,57.929773096017506,2636512291
sw,-87.9921112060546,-42.0548629760742,49.9776480495339,72.27073008498444,2636528958
sw,-88.6714630126953,-43.6852416992187,50.972929587274734,79.70245461680659,2636545625
sw,-88.8872451782226,-45.2019386291503,53.38519536929416,80.23887833607982,2636562292
sw,-88.3764724731445,-46.3844032287597,56.71677610067973,74.88639261310625,2636578959
sw,-87.4387588500976,-47.4363937377929,60.268805267151485,65.34673776416105,2636595626
sw,-86.3766326904296,-48.1282234191894,63.25543206725052,53.574930219465,2636612293
sw,-85.3468856811523,-48.5543022155761,64.88987482886822,41.338105122524944,2636628960
sw,-84.3307113647461,-48.8898735046386,64.43113772488671,29.912814922388623,2636645627
sw,-83.3436279296875,-49.2744407653808,61.20123803718905,20.004919384818482,2636662294
sw,-82.4606323242187,-49.6581726074218,54.59597830788285,11.892206310502893,2636678961
sw,-81.7372283935546,-50.4332809448242,44.1127800660162,5.7004561208577815,2636695628
sw,-81.2570190429687,-51.2124595642089,29.409532481451556,1.662838305570225,2636712295
sw,-81.1481704711914,-51.3147964477539,10.395231277797205,0.21373205913245613,2636728962
sw,-81.4146652221679,-50.9795951843261,-12.659608287205387,1.8470185038100124,2636745629
sw,-81.9579238891601,-50.96040725708,-39.01753299932663,6.799478121976034,2636762296
sw,-82.7827911376953,-51.1285247802734,-67.41208995085914,14.729900348127071,2636778963
sw,-84.1293792724609,-51.4288063049316,-96.07651339763349,24.58232597810069,2636795630
sw,-86.1526489257812,-52.1130332946777,-122.90173074190531,34.73695927152651,2636812297
sw,-88.515625,-53.3277359008789,-145.72597080996488,43.41772578899868,2636828964
sw,-87.5708618164062,-54.594066619873,-162.7049061790252,49.2096434109017,2636845631
sw,-84.6558074951171,-55.7278633117675,-172.67048086453164,51.489898457188026,2636862298
sw,-81.6418685913086,-56.5397720336914,-175.3832380618735,50.61125450969456,2636878965
sw,-78.5107955932617,-57.1873321533203,-171.61440602162006,47.776748296834725,2636895632
sw,-75.8183364868164,-57.8200874328613,-163.03605855450587,44.6608965853852,2636912299
sw,-73.5243682861328,-58.4512100219726,-151.93245284678383,42.91236402542692,2636928966
sw,-71.4159545898437,-59.070987701416,-140.7746234841814,43.69227613930421,2636945633
sw,-69.2948455810546,-59.8262214660644,-131.72836454068408,47.37096384290125,2636962300
sw,-67.2270584106445,-60.7545661926269,-126.18626216203859,53.44872278199439,2636978967
sw,-65.3513717651367,-61.7614479064941,-124.41879096284667,60.70471263807437,2636995634
sw,-63.7773857116699,-62.8746452331543,-125.42946886131648,67.52614520707834,2637012301
sw,-62.2212677001953,-64.1723861694336,-127.07826826520088,72.33449552247897,2637028968
sw,-60.0692749023437,-65.6914672851562,-126.49670178447407,74.00732303527082,2637045635
sw,-57.6731948852539,-67.170051574707,-120.74478602447579,72.19221580163834,2637062302
sw,-55.5540199279785,-68.4317855834961,-107.5685771534487,67.42721915565197,2637078969
sw,-54.1606826782226,-69.4558410644531,-86.05577602555167,61.02570244867701,2637095636
sw,-53.2235603332519,-70.2622604370117,-57.000280760733354,54.74784994077147,2637112303
sw,-52.6896667480468,-70.9208297729492,-22.86967340426003,50.34487013051069,2637128970
sw,-52.7351036071777,-71.5925216674804,12.623800807055977,49.10042804119185,2637145637
sw,-53.5102653503418,-72.3529434204101,45.256798319590324,51.49287386056082,2637162304
sw,-55.2482795715332,-73.2211151123046,71.17148505669084,57.06454184177506,2637178971
sw,-57.1692161560058,-74.284065246582,87.68564131139524,64.52553090608089,2637195638
sw,-59.2456474304199,-75.6308212280273,93.82069606367834,72.05664520821821,2637212305
sw,-60.8069076538085,-77.1857986450195,90.39649543023677,77.72396980531848,2637228972
sw,-61.5122528076171,-78.8594055175781,79.67456686090743,79.8872007890113,2637245639
sw,-62.0396118164062,-80.4705734252929,64.68416504033947,77.48574799556994,2637262306
sw,-62.9044380187988,-81.6414947509765,48.46439928576781,70.12703350334944,2637278973
sw,-63.352123260498,-82.3183975219726,33.452898754254385,57.97408675002167,2637295640
sw,-63.7518920898437,-82.613052368164,21.161294750748255,41.5099261616556,2637312307
sw,-63.8361930847168,-82.6764602661132,12.163048467365327,21.306779031412358,2637328974
sw,-63.8798713684082,-82.580581665039,6.331896348890274,-2.0818239495523976,2637345641
sw,-64.6715774536132,-82.4108505249023,3.216351823731497,-28.059823099122962,2637362308
sw,-65.5947494506836,-81.9484329223632,2.404932284337948,-55.811226702463486,2637378975
sw,-65.6672286987304,-80.8581924438476,3.738184123071222,-84.13339814443128,2637395642
sw,-65.4062805175781,-78.98681640625,7.285617247722308,-111.41414785669485,2637412309
sw,-65.4373550415039,-76.3433990478515,13.122471194426643,-135.81737823305184,2637428976
sw,-65.976692199707,-73.2975692749023,21.045904237993945,-155.6349237412253,2637445643
sw,-66.4939804077148,-69.9892349243164,30.39151974224447,-169.67565643658523,2637462310
sw,-66.9755172729492,-66.6579971313476,40.04718994258361,-177.54234390520259,2637478977
sw,-68.02392578125,-63.4605712890625,48.66829342777983,-179.69640844669837,2637495644
sw,-69.412124633789,-60.6553916931152,55.023192334338134,-177.29713337107938,2637512311
sw,-70.7485809326171,-58.0476608276367,58.35191288202419,-171.88012950846422,2637528978
sw,-71.897346496582,-55.452823638916,58.60996688947684,-164.9790401478508,2637545645
sw,-72.9048080444336,-52.8908424377441,56.50338830667221,-157.78890854840475,2637562312
sw,-73.7003402709961,-50.5383377075195,53.29421805107006,-150.93699495620152,2637578979
sw,-74.4211654663086,-48.3685836791992,50.4370820208154,-144.39271590994423,2637595646
sw,-75.2080688476562,-46.3112335205078,49.162381004463306,-137.52555594014734,2637612313
sw,-76.0667190551757,-44.3058547973632,50.132260471016295,-129.30126717234202,2637628980
sw,-76.8928146362304,-42.2991104125976,53.26603181301604,-118.58046313576168,2637645647
sw,-77.6774597167968,-40.3891906738281,57.7803316827792,-104.45181746082754,2637662314
sw,-78.6313323974609,-38.9216995239257,62.434111643111116,-86.51291293511684,2637678981
sw,-80.0337982177734,-38.2280464172363,65.91646869916042,-65.02490641481579,2637695648
sw,-81.7396545410156,-37.8643569946289,67.26816784965003,-40.912752213768535,2637712315
sw,-83.2158889770507,-37.5405769348144,66.19939375150047,-15.633981619304205,2637728982
sw,-84.2257919311523,-37.6158638000488,63.18382715776592,9.036772601832956,2637745649
sw,-84.8854217529296,-38.3745231628418,59.285485644004865,31.26712914666632,2637762316
sw,-85.3839111328125,-39.4605255126953,55.78248984187359,49.43969206487534,2637778983
