Label,Left_Hip_q,Right_Hip_q,Left_Hip_qd,Right_Hip_qd,SampleTimeFine
jump,-10.8339935302734,-10.1664367675781,5.59711456298828,1.50299072265625,254873889
jump,-10.7444396972656,-10.1423889160156,6.103042400677802,-2.1368449132564775,254890556
jump,-10.6466079711914,-10.176545715332,3.6740188071792086,-2.9781950699740505,254907223
jump,-10.5780807495117,-10.2540222167969,1.4376089741475442,-3.6131037421094736,254923890
jump,-10.555680847168,-10.3471008300781,-0.4398759427481953,-3.8837880467189065,254940557
jump,-10.5678039550781,-10.4328552246094,-1.8394784494523353,-3.720096817093715,254957224
jump,-10.6051116943359,-10.5046020507812,-2.7054361205680357,-3.1505082746084523,254973891
jump,-10.6566024780273,-10.5564666748047,-3.051219106045303,-2.2868810678879883,254990558
jump,-10.7105346679687,-10.5726943969727,-2.953866481373462,-1.2905166558223695,255007225
jump,-10.7629333496094,-10.5690399169922,-2.5370825897218463,-0.3315856725611265,255023892
jump,-10.8051467895508,-10.5595413208008,-1.9461917404148834,0.4463252234590183,255040559
jump,-10.828385925293,-10.5535522460937,-1.3202563454043217,0.9490028948650205,255057226
jump,-10.8293319702148,-10.5448699951172,-0.7677288711581343,1.1398692911822703,255073893
jump,-10.8312850952148,-10.5312438964844,-0.3512288545111819,1.036261565214766,255090560
jump,-10.8400512695312,-10.518701171875,-0.08428532435177985,0.6980493055925884,255107227
jump,-10.8483444213867,-10.5052734375,0.06076118817180443,0.21250801416206905,255123894
jump,-10.85,-10.4988037109375,0.1372700785452225,-0.32182353881368464,255140561
jump,-10.8460784912109,-10.5066619873047,0.2056871820085196,-0.8104565598573,255157228
jump,-10.8438583374023,-10.5242172241211,0.3157493180305858,-1.175907245415401,255173895
jump,-10.8399749755859,-10.5427947998047,0.49260659391854433,-1.3669259702267063,255190562
jump,-10.8389907836914,-10.5684066772461,0.7293135838441569,-1.3630874437606733,255207229
jump,-10.8343292236328,-10.5922027587891,0.9874221305906509,-1.1746193838870345,255223896
jump,-10.825830078125,-10.6068893432617,1.2061392555765595,-0.838207629814279,255240563
jump,-10.8085113525391,-10.6167236328125,1.3185660514407782,-0.4101168497796494,255257230
jump,-10.7804351806641,-10.6220108032227,1.2713532699790788,0.041965879549454826,255273897
jump,-10.7481475830078,-10.6213775634766,1.0425832179605314,0.44745117521936584,255290564
jump,-10.7235885620117,-10.6213775634766,0.6526808292432392,0.7414808721570503,255307231
jump,-10.7056442260742,-10.6183029174805,0.16492169335296522,0.8736253492949204,255323898
jump,-10.7001739501953,-10.5955139160156,-0.32495058981791264,0.8159849059683391,255340565
jump,-10.7123657226562,-10.5730606079102,-0.707445155338319,0.5690398234103259,255357232
jump,-10.7291580200195,-10.5582901000977,-0.8817175769053549,0.16325404480456143,255373899
jump,-10.744775390625,-10.5586563110352,-0.7763459382088526,-0.3445986707266335,255390566
jump,-10.7650848388672,-10.5699249267578,-0.3639706795641573,-0.8797035376737123,255407233
jump,-10.777978515625,-10.5877853393555,0.33308190704629775,-1.3601583784456073,255423900
jump,-10.7697311401367,-10.6043106079102,1.2470775364916484,-1.7086197450007967,255440567
jump,-10.7569595336914,-10.6293884277344,2.27791677927438,-1.8632689858846978,255457234
jump,-10.7229248046875,-10.6581741333008,3.312017387829799,-1.7871504520786439,255473901
jump,-10.6606002807617,-10.6913925170898,4.242763921761699,-1.4747872913012015,255490568
jump,-10.5784774780273,-10.7202850341797,4.987668192349539,-0.954685418257656,255507235
jump,-10.4887710571289,-10.7401519775391,5.498125606325231,-0.2865555419474955,255523902
jump,-10.4010406494141,-10.7418533325195,5.759979469249828,0.44697555577929343,255540569
jump,-10.3138290405273,-10.734635925293,5.786255152225231,1.1531382265021375,255557236
jump,-10.2301422119141,-10.7184387207031,5.605906290757527,1.744266375630966,255573903
jump,-10.1493087768555,-10.6919342041016,5.253091228411035,2.1529916803732396,255590570
jump,-10.0699554443359,-10.6568923950195,4.760267188532493,2.3445878259229485,255607237
jump,-9.99192962646484,-10.6131759643555,4.15603737064113,2.32348738853193,255623904
jump,-9.91616973876953,-10.5564666748047,3.4663902426183095,2.131273035793691,255640571
jump,-9.85757598876953,-10.513444519043,2.716774158387314,1.8348782929974594,255657238
jump,-9.80924377441406,-10.4898391723633,1.9327670161960753,1.5065508641457162,255673905
jump,-9.7761474609375,-10.4769226074219,1.138538119390689,1.2003791315702914,255690572
jump,-9.76271209716797,-10.4690719604492,0.3540165664596745,0.9321175966575871,255707239
jump,-9.76165161132812,-10.4580932617187,-0.40710741629048103,0.6685845828414412,255723906
jump,-9.77464447021484,-10.4439636230469,-1.136209739058912,0.33055306648946575,255740573
jump,-9.80471954345703,-10.4435134887695,-1.8240046128466596,-0.18970455559418034,255757240
jump,-9.83186492919922,-10.4539352416992,-2.4507805972773387,-0.997180085267773,255773907
jump,-9.85000762939453,-10.4842163085937,-2.9751938428485643,-2.151823944992225,255790574
jump,-9.88314971923828,-10.5325408935547,-3.325118635980102,-3.6199350402376416,255807241
jump,-9.94166717529297,-10.5957275390625,-3.392756515857501,-5.2272746782128126,255823908
jump,-10.0096755981445,-10.6765151977539,-3.033336291308677,-6.625919169389228,255840575
jump,-10.0814147949219,-10.7513977050781,-2.064652900353962,-7.2900781122134894,255857242
jump,-10.1393676757812,-10.8191390991211,-0.26565341416483707,-6.556297133945704,255873909
jump,-10.1363159179687,-10.85,2.623467099165124,-3.7182065472840433,255890576
jump,-10.0344177246094,-10.8421035766602,6.892116927663992,1.8263649418505454,255907243
jump,-9.86652526855469,-10.7974334716797,12.832035854687073,10.396860524993201,255923910
jump,-9.67254028320312,-10.6767288208008,20.688153384881094,21.861806222994723,255940577
jump,-9.36509857177734,-10.4492813110352,30.59445842369286,35.537498200154076,255957244
jump,-8.90330657958984,-10.0743194580078,42.511435207620615,50.209469786260605,255973911
jump,-8.25318298339844,-9.47152099609375,56.184547020503345,64.309738799392,255990578
jump,-7.40049133300781,-8.55391845703125,71.13827953309821,76.23741076506448,256007245
jump,-6.30656585693359,-7.26213226318359,86.7097084781712,84.75228723438242,256023912
jump,-4.88066253662109,-5.5202880859375,102.11262411688139,89.32232450546714,256040579
jump,-3.16230163574219,-3.68671569824219,116.51228394755135,90.29377542859577,256057246
jump,-1.27633056640625,-2.07264099121094,129.08751313034836,88.79570673336136,256073913
jump,0.847860717773438,-0.644425964355468,139.06418459401107,86.37932322488223,256090580
jump,3.00596466064453,0.599760437011719,145.71864207889382,84.49080015363148,256107247
jump,5.31962432861328,1.69427337646484,148.3633298351174,83.94234419250695,256123914
jump,7.72904052734375,2.52010955810547,146.33353802673906,84.5550414846626,256140581
jump,10.0676750183106,3.76874389648437,138.99391881422073,85.09640020494646,256157248
jump,12.2298873901367,5.22793426513672,125.78052000264098,83.54384763002095,256173915
jump,14.1581939697266,6.24917449951172,106.28992746688692,77.60634861257282,256190582
jump,15.7971176147461,7.69930114746094,80.4181028790914,65.36084865930206,256207249
jump,17.1386169433594,9.56614532470703,48.53525859133679,45.82590878449246,256223916
jump,17.8196662902832,10.5672897338867,11.66343484755315,19.315746612911667,256240583
jump,17.9996398925781,10.5523742675781,-28.393478442364927,-12.501034673270727,256257250
jump,17.761083984375,9.9693359375,-69.02757478652234,-46.808090821921745,256273917
jump,16.8916763305664,8.98163452148438,-106.97014541491502,-80.02123844981732,256290584
jump,15.3807319641113,7.77301635742188,-138.63203508355082,-108.26608662206147,256307251
jump,13.2674774169922,6.94508209228516,-160.6200086387263,-127.93454304671309,256323918
jump,10.4964279174805,5.57606353759766,-170.34196702999805,-136.31820830364256,256340585
jump,7.33300628662109,2.74664154052734,-166.56447768302618,-132.24672735521722,256357252
jump,4.5668701171875,-0.291314697265625,-149.78130241286277,-116.54429555939284,256373919
jump,2.51170196533203,-2.66678009033203,-122.29356806273992,-92.06646656057964,256390586
jump,0.408125305175782,-5.00416717529297,-87.96060725591053,-63.17104563311148,256407253
jump,-1.73008880615234,-6.58204803466797,-51.626249712034294,-34.69222494096049,256423920
jump,-3.06658325195312,-4.92337188720703,-18.27143580101629,-10.726653020071879,256440587
jump,-2.80443725585937,-3.54701385498047,7.9765633004267364,6.331838745783589,256457254
jump,-2.00743255615234,-3.71735534667969,24.751081311190447,16.161840886538528,256473921
jump,-1.21151123046875,-4.15248260498047,32.00066390490685,20.2186391986964,256490588
jump,-0.385789489746093,-4.34947357177734,31.990234882311757,20.985851790172934,256507255
jump,0.571279907226563,-4.21687469482422,28.701209693055354,21.102259682027412,256523922
jump,1.09850921630859,-3.75943908691406,26.75901314020067,22.62973482096814,256540589
jump,0.777487182617188,-3.52166137695312,30.161091251784846,26.59902156614926,256557256
jump,0.483992004394532,-3.552880859375,41.148643574613565,32.86470519017566,256573923
jump,0.910726928710938,-2.66166076660156,59.526900107375205,40.234648078205346,256590590
jump,1.93023529052734,-1.57621154785156,82.60131601468838,46.79852002936147,256607257
jump,3.15314331054687,-0.95186767578125,105.7264783982094,50.369302598344795,256623924
jump,4.51387634277344,-0.721963500976562,123.32895181605936,48.97331686150275,256640591
jump,6.17310943603516,-0.803826904296875,130.17785689937537,41.338727683839465,256657258
jump,8.84612884521484,0.835432434082032,122.61566428375862,27.294462773540136,256673925
jump,13.0878852844238,4.57084503173828,99.44029472244986,7.9406981520863225,256690592
jump,14.0611442565918,1.26714935302734,62.20951914474527,-14.502898505406286,256707259
jump,14.195711517334,0.900862121582032,14.933204573632155,-37.11276878925075,256723926
jump,14.3537010192871,1.06236877441406,-36.67946583156982,-56.771901993674696,256740593
jump,13.3894981384277,-0.10885009765625,-86.17595775909325,-70.64521480888394,256757260
jump,12.375944519043,-0.772584533691406,-127.34086089682086,-76.59535475315722,256773927
jump,11.0856269836426,-1.92333374023438,-155.11725071186336,-73.55468877295742,256790594
jump,8.63377990722656,-2.95681915283203,-166.41303269074052,-61.82748641123388,256807261
jump,5.37571563720703,-4.16577301025391,-160.68339715290801,-43.229481671531715,256823928
jump,2.11485900878906,-5.64831695556641,-140.1148787627056,-20.932319563000448,256840595
jump,-0.775941467285156,-7.55339202880859,-109.24919944092333,1.0851338351853426,256857262
jump,-3.37621459960937,-7.22558746337891,-74.01727595423112,18.935235157493846,256873929
jump,-4.00489196777344,-4.51175842285156,-40.367216844757706,29.82358586313508,256890596
jump,-2.95639190673828,-3.61023101806641,-12.865528110190446,32.78997146192482,256907263
jump,-2.45337066650391,-3.58484039306641,6.289818868848666,28.911160510618796,256923930
jump,-2.31427917480469,-3.31176147460937,17.541641543974787,20.927436210859437,256940597
jump,-2.15879974365234,-3.00941619873047,23.493194648700793,12.464720631896352,256957264
jump,-2.02850494384766,-2.89678344726562,27.8845196395246,7.0986488502758185,256973931
jump,-1.99035797119141,-2.94268188476562,34.36076261298609,7.481186978824972,256990598
jump,-1.86641845703125,-3.06652221679687,45.365585000044355,14.696539315296784,257007265
jump,-1.19619140625,-2.92160949707031,61.40813590874407,27.957905300511353,257023932
jump,-0.211679077148437,-2.46019134521484,80.83512912826973,44.698224669165526,257040599
jump,0.866171264648438,-1.92229614257813,100.13033748047759,61.04916118883624,257057266
jump,1.97563781738281,-1.46954498291016,114.67832461212721,72.64585327669197,257073933
jump,3.45021667480469,-0.948495483398437,119.85157129836443,75.62675594764359,257090600
jump,5.75675048828125,1.17203369140625,112.1915383296301,67.60831849191071,257107267
jump,9.10280456542969,4.58610382080078,90.38208537914267,48.34988655891306,257123934
jump,11.3659729003906,5.54826202392578,55.73305543294916,19.8830977242544,257140601
jump,11.0703071594238,2.69600524902344,12.044069444114147,-13.914139171225656,257157268
jump,11.1638549804688,4.13387145996094,-35.069267442600676,-48.10856437420159,257173935
jump,10.5328468322754,3.07241668701172,-79.16894436863981,-77.62590188688719,257190602
jump,9.18411865234375,2.25277557373047,-114.0878135668947,-98.13218484772662,257207269
jump,8.08806457519531,0.684278869628907,-134.9660974063376,-106.79449316536703,257223936
jump,5.74381866455078,-1.52404174804688,-139.1110458276501,-102.82181542792958,257240603
jump,2.87683715820312,-3.4570556640625,-126.54477874827727,-87.65685348695214,257257270
jump,0.385275268554688,-5.20715484619141,-100.08871100849355,-64.71256987737455,257273937
jump,-1.68493804931641,-6.97350463867187,-64.879628263626,-38.640100274301616,257290604
jump,-3.04949340820312,-8.05466613769531,-27.340978268818635,-14.258743974361144,257307271
jump,-3.44188842773437,-6.41522369384766,6.197485557256687,4.569916426608125,257323938
jump,-2.40836486816406,-4.50983581542969,30.895587107591243,15.770694244840996,257340605
jump,-0.803216552734375,-5.36227569580078,44.4289637259761,19.33348177833217,257357272
jump,0.291281127929688,-5.84924468994141,47.34979953527752,17.03216593461665,257373939
jump,0.965345764160157,-5.81660614013672,42.69635390598477,11.786444736068123,257390606
jump,1.34186401367187,-5.31258544921875,35.00547484198201,6.910069655218968,257407273
jump,1.39699401855469,-4.945458984375,29.044083535573623,5.398388830171019,257423940
jump,1.33294525146484,-5.06786499023437,28.60662703180163,9.320579951789865,257440607
jump,1.74413909912109,-4.9839111328125,35.644296254283056,19.361014757091105,257457274
jump,2.45414581298828,-4.63270721435547,49.858346098670495,34.567988823750866,257473941
jump,3.36134948730469,-4.02214965820312,68.76999967741297,52.37382455035111,257490608
jump,4.26979675292969,-3.54716644287109,88.21175690452145,68.93952565720544,257507275
jump,5.12712707519531,-3.20368347167969,103.15838716497778,79.8465896725086,257523942
jump,6.44828643798828,-3.08500061035156,108.78406934578426,81.0812088969068,257540609
jump,8.4755615234375,-0.617250061035156,101.56459807607979,70.11569991841361,257557276
jump,11.6750854492188,3.35042419433594,80.17205046900858,46.75712833555303,257573943
jump,13.103067779541,3.86335601806641,45.91347290386657,13.44514553706402,257590610
jump,13.4817680358887,1.30547943115234,2.588017943605976,-25.11080867454821,257607277
jump,13.4314025878906,2.71373596191406,-44.18111514816976,-62.81643091047892,257623944
jump,12.4111618041992,1.72149505615234,-87.95347103501652,-93.35962597405563,257640611
jump,11.1806968688965,0.188597106933594,-122.60204595286693,-111.4494605582776,257657278
jump,9.51879730224609,-1.50276336669922,-143.38609876395566,-113.93574788270907,257673945
jump,6.95909729003906,-3.89763793945312,-147.81488175292782,-100.58402391220952,257690612
jump,4.28443756103516,-6.42465362548828,-136.1575015249547,-74.26853086961695,257707279
jump,1.82595672607422,-8.32744750976562,-111.4630806699298,-40.42608227144574,257723946
jump,-0.592385864257812,-10.1664825439453,-79.00640806198048,-5.803154287918227,257740613
jump,-2.86911926269531,-9.34056243896484,-45.18722673296831,23.210894105669134,257757280
jump,-3.00470123291016,-5.82603607177734,-16.076858460354213,42.15241420963129,257773947
jump,-1.94033203125,-4.49919281005859,4.028860076297321,49.42505140570223,257790614
jump,-1.09170684814453,-4.83641967773437,13.624155365859203,46.34178700236915,257807281
jump,-0.488824462890625,-4.66174468994141,14.254240134612473,36.37986161076003,257823948
jump,-0.162110900878906,-4.15220031738281,9.94563027151691,24.02249740830398,257840615
jump,-0.121926879882812,-3.84901580810547,5.993163675292819,13.588603632784094,257857282
jump,-0.881204223632812,-4.53109130859375,7.467543539579759,8.331626751813292,257873949
jump,-1.37424621582031,-4.62433776855469,17.850375130649848,9.937817959528495,257890616
jump,-1.17849884033203,-3.73789367675781,38.12057135297302,18.414277689396037,257907283
jump,-0.413995361328125,-2.80925140380859,66.45729004785932,32.25344444837858,257923950
jump,0.559675598144532,-2.28074798583984,98.56710450411597,48.7418051573909,257940617
jump,1.66586151123047,-1.8137451171875,128.5377179007016,64.35480361443062,257957284
jump,3.2720703125,-1.78177032470703,150.0541670197362,75.27065027232756,257973951
jump,5.84239807128906,-1.39917907714844,157.74375584722603,78.04119116224796,257990618
jump,9.909521484375,1.13149108886719,148.3465964134271,70.35097889213799,258007285
jump,13.6334098815918,4.30081787109375,121.4134256337343,51.667287960288704,258023952
jump,14.2190116882324,2.79472198486328,79.37447569401162,23.565980715263972,258040619
jump,14.7922271728516,3.49734344482422,27.045048360567723,-10.371486688052636,258057286
jump,15.7280639648438,4.76590576171875,-29.217334248422034,-45.0736465485608,258073953
jump,14.9759735107422,3.38772430419922,-82.49286810974134,-74.83621538584757,258090620
jump,13.9908546447754,2.50910797119141,-126.2899553518973,-94.41087006439768,258107287
jump,12.4703315734863,1.21837463378906,-155.47348301113544,-100.14203525202355,258123954
jump,9.61469879150391,-0.957810974121093,-167.04408402798074,-90.89299219977292,258140621
jump,6.36000671386719,-3.43290863037109,-160.63619378498964,-68.48107235760166,258157288
jump,3.41766204833984,-5.58872375488281,-138.58781750557992,-37.41262750200554,258173955
jump,0.941061401367188,-6.3386474609375,-105.49388325532817,-3.891548282038435,258190622
jump,-1.00564727783203,-5.82335815429687,-67.280071217415,25.67051337118463,258207289
jump,-2.23703155517578,-4.05779418945312,-29.977685190519324,46.20516970100828,258223956
jump,-1.61637268066406,-2.27257690429687,1.5089558961736043,55.121906561974654,258240623
jump,-0.624162292480468,-1.57972106933594,24.320806402151003,52.70979845895739,258257290
jump,-0.295808410644531,-0.854768371582031,38.01236244944056,41.76471527504787,258273957
jump,0.0737136840820316,-0.451768493652343,44.31530008661498,26.64404945225891,258290624
jump,0.569944763183594,-0.278031921386718,46.42690681070299,12.069697141527053,258307291
jump,1.20215454101562,-0.270013427734375,48.050709861059325,1.9965107326858895,258323958
jump,1.91082611083984,-0.774217224121093,52.416923928373016,-1.2106186103775376,258340625
jump,2.73510589599609,-1.00247344970703,61.461870405223785,2.847008355801039,258357292
jump,3.64584197998047,-0.879624938964843,75.29507629271538,12.693070308584613,258373959
jump,4.69011535644531,-0.414765930175781,92.04484664200199,25.448374153427782,258390626
jump,5.79030456542969,0.125914001464844,108.13755429866117,37.53197514583142,258407293
jump,7.06936492919922,0.625532531738282,119.01196013636317,45.42992998091005,258423960
jump,8.19793548583984,1.17529144287109,120.17805299922942,46.39675009785016,258440627
jump,10.8226722717285,2.25385894775391,108.40277166325514,38.98416188345629,258457294
jump,14.6461967468262,4.62262573242188,82.69777246434231,23.32219866834772,258473961
jump,16.0191749572754,1.70347442626953,44.7937731931745,1.1282251033486403,258490628
jump,15.5220054626465,2.96375885009766,-1.048905429030286,-24.53210369341443,258507295
jump,16.3165077209473,4.12023010253906,-48.81999336226329,-49.7111394700054,258523962
jump,15.2734283447266,3.24987640380859,-91.91231226412246,-70.27320787705827,258540629
jump,13.9142669677734,1.85404052734375,-124.39817237725005,-82.75741546731098,258557296
jump,11.7884620666504,-0.229745483398437,-142.18840182456503,-85.21484270662076,258573963
jump,8.91911926269531,-2.15668640136719,-143.8451934971675,-77.74235625944809,258590630
jump,6.15924682617188,-3.93750152587891,-130.85641087122448,-62.49447266691727,258607297
jump,3.82040252685547,-4.78466949462891,-107.2689317686993,-43.12524615995652,258623964
jump,1.32442321777344,-5.95226440429687,-78.72157993829754,-23.807198285106594,258640631
jump,0.0962661743164066,-5.52747497558594,-51.08751787084751,-8.122602504681904,258657298
jump,1.15895690917969,-3.92021331787109,-29.08147932572756,1.8242651984138876,258673965
jump,1.26164855957031,-4.19309387207031,-15.232008843331329,5.801392608184995,258690632
jump,1.13350524902344,-4.44626007080078,-9.503705683716495,5.268281997382641,258707299
jump,0.806547546386719,-4.49242553710937,-9.61798856912616,2.748242783894271,258723966
jump,0.290144348144532,-4.63547668457031,-11.892036531006482,0.9987242711187456,258740633
jump,-0.208467102050781,-4.71145782470703,-12.30058025691681,2.2243217706029488,258757300
jump,-0.770295715332031,-5.09283599853516,-7.4763692717778305,7.512545233528699,258773967
jump,-0.954835510253906,-5.19174346923828,4.546259816442151,16.590801635741148,258790634
jump,-0.714723205566406,-4.74203643798828,23.930586076972133,27.917560194841716,258807301
jump,-0.179658508300781,-4.12342224121094,48.97892876741474,39.04354033320177,258823968
jump,0.549879455566407,-3.24230346679687,76.3763555483131,47.13595633702287,258840635
jump,1.54727020263672,-2.55793914794922,101.69640863030158,49.56470659870737,258857302
jump,2.73692169189453,-2.51952514648437,120.13115616211664,44.48030469562928,258873969
jump,4.05005493164063,-2.35474548339844,127.37364598059312,31.31730349483512,258890636
jump,6.64220275878906,-0.625871276855468,120.50208759950708,11.10890751103571,258907303
jump,11.4880088806152,2.823095703125,98.64778588311215,-13.53804408505644,258923970
jump,11.1181739807129,-1.30755767822266,63.26600006342408,-38.87695059848662,258940637
jump,11.0522331237793,-1.56519470214844,17.98078084272259,-60.749263833271435,258957304
jump,11.9840034484863,-2.05529174804687,-31.890913708639136,-75.37344613992485,258973971
jump,11.9444221496582,-3.47345886230469,-80.03164091631227,-80.01046092779242,258990638
jump,11.3412345886231,-4.42351684570312,-120.00173666897568,-73.43618070647132,259007305
jump,9.55824890136719,-5.71927795410156,-146.2724643560929,-56.20364981994296,259023972
jump,6.90010681152344,-6.59932098388672,-155.27605837419713,-30.6629474091513,259040639
jump,3.48419799804687,-7.49469909667969,-146.21544834925436,-0.6842564087667535,259057306
jump,0.379026794433594,-8.42936859130859,-121.35221676640633,28.954340793552763,259073973
jump,-1.74325714111328,-8.21133575439453,-85.60196837961963,53.47420500021954,259090640
jump,-3.48043212890625,-6.80836639404297,-45.4721090468516,69.12442359908717,259107307
jump,-3.98791656494141,-4.00022277832031,-7.593570169319703,74.03778825947262,259123974
jump,-2.961328125,-2.28508148193359,22.755475296780943,68.62370069471206,259140641
jump,-1.56849060058594,-2.05601654052734,42.71582608816688,55.37082210934628,259157308
jump,-0.59383544921875,-1.39486846923828,52.214621459820926,38.16226918071736,259173975
jump,-0.0322586059570309,-1.02394256591797,53.58315106029963,21.352362116704985,259190642
jump,0.410429382324219,-0.675897216796875,50.61395383384771,8.85622388986056,259207309
jump,0.802976989746094,-0.585824584960937,47.3806277899185,3.421818087786941,259223976
jump,1.34456481933594,-0.703591918945312,47.14163033734444,6.170618477296515,259240643
jump,2.09760131835937,-0.605355834960937,51.5559766673942,16.43786474786846,259257310
jump,2.96754302978516,-0.190667724609375,60.32468415120596,31.908271280555155,259273977
jump,3.78957214355469,0.286383056640625,71.28462561096777,49.020859030695526,259290644
jump,4.41726531982422,0.683470153808594,80.9257291929787,63.60373318543749,259307311
jump,5.23138275146484,0.835829162597657,85.24771787224752,71.67587115674135,259323978
jump,6.58463897705078,1.9640869140625,80.78980647264109,70.28902414979933,259340645
jump,9.98277130126953,5.93255462646484,65.57874980872332,58.19897001661445,259357312
jump,11.2860511779785,7.50187530517578,39.72913652198546,36.15250103514681,259373979
jump,10.6295265197754,4.64957275390625,5.548132454138666,6.724149935220502,259390646
jump,10.4035095214844,4.68318786621094,-32.82728835893217,-26.175927168211015,259407313
jump,11.1507514953613,7.36226501464844,-70.13324213990536,-57.95952955485611,259423980
jump,9.81450500488281,5.01655426025391,-100.8970723901417,-84.11042902418701,259440647
jump,8.25189819335938,3.81297149658203,-120.45384940603599,-100.98975220659136,259457314
jump,6.27297821044922,2.34408416748047,-125.89851175812169,-106.57717523932601,259473981
jump,3.41662445068359,-0.0233932495117184,-116.75849453676445,-100.94337800626077,259490648
jump,1.0329345703125,-2.55306396484375,-95.1838261879639,-86.2579615767074,259507315
jump,-0.656304931640625,-4.81883392333984,-65.55093429489781,-66.24722779081338,259523982
jump,-1.70794830322266,-5.69721374511719,-33.53356508318678,-45.20696159866337,259540649
jump,-2.50725708007812,-4.31711730957031,-4.851877411389439,-26.88064085231227,259557316
jump,-1.53631744384766,-3.40091857910156,15.985108445155593,-13.599578131678179,259573983
jump,-0.399278259277343,-4.84868011474609,26.613776537017127,-5.952982195486461,259590650
jump,0.183424377441407,-5.55896148681641,27.19033794965454,-2.9890692806014467,259607317
jump,0.36697998046875,-5.57737121582031,20.148481439810908,-2.7435651755865225,259623984
jump,0.359747314453125,-5.54905090332031,9.469014554925213,-2.865700915662977,259640651
jump,0.354719543457032,-5.4980712890625,-0.3051969476568882,-1.199660328601161,259657318
jump,0.277616882324219,-5.6260009765625,-5.074829367376521,3.740827317026601,259673985
jump,0.146818542480469,-5.50986633300781,-2.035598912307204,12.440144211033502,259690652
jump,0.123960876464844,-5.33045349121094,9.733129910549934,24.227077210844936,259707319
jump,0.301580810546875,-5.17062530517578,29.006022283367358,37.3362169363232,259723986
jump,0.670118713378907,-4.75651702880859,52.51457939570423,49.20745659031762,259740653
jump,1.12003173828125,-4.30851898193359,75.43576249705262,57.01114348699983,259757320
jump,1.67075958251953,-3.71357116699219,92.25072052475322,58.32278957294167,259773987
jump,2.80373992919922,-2.5600830078125,97.87857559484752,51.78768441328768,259790654
jump,5.23815765380859,-0.132295227050781,88.87421880111341,37.55494505685192,259807321
jump,8.25068511962891,3.15011444091797,64.39017155472288,17.302137134190065,259823988
jump,8.20918121337891,-1.90964660644531,26.62355084497776,-6.146808516453936,259840655
jump,9.114111328125,-1.07191619873047,-19.39234117623081,-29.406026613820284,259857322
jump,9.31446685791016,-0.860879516601562,-66.62267728047117,-49.08642729096363,259873989
jump,8.17671813964844,-0.735231018066406,-107.3372006294548,-62.2635957877556,259890656
jump,6.63537445068359,-1.48649749755859,-134.64645624479797,-66.92230621454283,259907323
jump,3.91576232910156,-2.75667724609375,-143.95757881101002,-62.39644219899228,259923990
jump,0.792402648925782,-4.50742492675781,-134.01085281363711,-49.67516071322703,259940657
jump,-1.83744964599609,-6.46231994628906,-107.21414803861482,-31.3673785080674,259957324
jump,-4.06455383300781,-7.42476806640625,-69.14348207105199,-11.193745308896263,259973991
jump,-5.41358337402344,-7.37304840087891,-27.28973381307341,6.919989654994768,259990658
jump,-5.70887908935547,-5.52457580566406,10.65667683292383,19.858033927099076,260007325
jump,-4.33678588867187,-3.95563659667969,38.54323966559785,26.06610764050904,260023992
jump,-2.545068359375,-4.72728881835937,53.0499370696963,25.79113895293126,260040659
jump,-1.39668426513672,-4.41427764892578,54.20805420647687,20.80550376236286,260057326
jump,-0.844651794433593,-4.32409057617187,45.06290667855591,13.803551403587434,260073993
jump,-0.342942810058593,-4.10849914550781,30.660954264274338,7.698724748537797,260090660
jump,-0.0648971557617184,-4.04149017333984,16.699873919136675,4.985387133652755,260107327
jump,-0.403596496582031,-4.05259857177734,8.20303097760083,7.252006334000432,260123994
jump,-0.785981750488281,-3.87958679199219,8.5018895765148,14.88237331064119,260140661
jump,-0.562608337402343,-3.48948059082031,18.67771233206352,26.95605346775149,260157328
jump,0.165800476074219,-3.11484680175781,37.472406884994236,41.35106934494028,260173995
jump,1.12549438476562,-2.68786010742187,61.58151394297512,55.05459458184823,260190662
jump,1.89031829833984,-2.22220764160156,86.22591869568211,64.68261222300927,260207329
jump,2.54560699462891,-1.86006317138672,105.93733762143331,67.16881789072308,260223996
jump,3.68630065917969,-0.485566711425781,115.51070645439758,60.496647519712795,260240663
jump,6.48414459228516,3.12504425048828,111.02479834445863,44.26407327354732,260257330
jump,8.60992279052734,3.76942291259766,90.74723003586422,19.886813021085846,260273997
jump,9.87373199462891,0.668356323242188,55.705970553457306,-9.604381437803518,260290664
jump,11.0331787109375,2.25049438476562,9.760847275823444,-40.059447083141904,260307331
jump,11.9340385437012,2.34094848632812,-40.893292486451294,-66.86914177588598,260323998
jump,11.3558563232422,1.62707366943359,-88.75311657064492,-85.73901265660501,260340665
jump,10.0552734375,-0.0588699340820309,-126.40871065974896,-93.53026228901281,260357332
jump,7.84007873535156,-1.84015808105469,-148.04917713070438,-89.0160957948412,260373999
jump,4.44118347167969,-4.01384124755859,-150.72390134827506,-73.31122488065706,260390666
jump,1.57011260986328,-5.9525390625,-135.0252618734044,-49.75715488629246,260407333
jump,-1.02850494384766,-7.60955963134766,-104.97958718455126,-23.194910646530555,260424000
jump,-3.08689270019531,-7.45176849365234,-67.13153712317387,1.21920111088602,260440667
jump,-4.38299713134766,-5.89873657226562,-29.02352439421302,19.291416201537185,260457334
jump,-4.04097137451172,-3.87027893066406,2.551773206212492,28.730104588223547,260474001
jump,-2.59574279785156,-4.21904144287109,23.063912144373695,29.461130083289024,260490668
jump,-1.74801788330078,-4.59937438964844,31.11775319187425,23.3196302137483,260507335
jump,-1.24022827148438,-4.46452484130859,28.48453963097142,13.355337385079643,260524002
jump,-0.800912475585937,-4.25504455566406,19.354784127376035,3.041132212129004,260540669
jump,-0.838136291503906,-4.17746124267578,9.091186947401665,-4.42071261109063,260557336
jump,-1.47905120849609,-4.42143402099609,2.852339769356466,-6.620187092747374,260574003
jump,-1.84456024169922,-4.28287658691406,4.425065608857833,-2.2866694596688104,260590670
jump,-1.70188293457031,-4.15558776855469,15.47977508633038,8.517917034889459,260607337
jump,-1.13495788574219,-3.81234893798828,35.30938412740821,24.349692214510675,260624004
jump,-0.368356323242187,-3.75091705322266,60.99904760618186,42.499913125315295,260640671
jump,0.465132141113282,-3.50573883056641,87.9391244135112,59.332816976341974,260657338
jump,1.31282653808594,-3.06076202392578,110.6113207688499,70.8881289969632,260674005
jump,2.58858337402344,-2.70990142822266,123.58216800286286,73.71122401002988,260690672
jump,4.76332702636719,-0.51094970703125,122.58511626645596,65.73858471309329,260707339
jump,8.04171600341797,2.52833404541016,105.48876080876391,46.95693693657742,260724006
jump,9.75308837890625,3.93096771240234,72.91491292344456,19.58242026843127,260740673
jump,10.4050315856934,0.806753540039063,28.337556001247275,-12.305275350021114,260757340
jump,11.5493072509766,2.54860534667969,-22.377738649245828,-43.53047010205906,260774007
jump,11.354833984375,1.79441680908203,-71.9210517229272,-68.78078111828627,260790674
jump,10.1841567993164,0.828306579589844,-112.82211461218265,-83.60296580039194,260807341
jump,8.38975372314453,-0.405076599121093,-138.8559777975584,-85.31403945247266,260824008
jump,5.80406799316406,-1.90693817138672,-146.30048476793397,-73.66705325546407,260840675
jump,2.94041290283203,-4.22961578369141,-134.7613824776998,-51.06863787103381,260857342
jump,0.155645751953125,-6.05411682128906,-107.33301006585474,-22.183527077009003,260874009
jump,-2.11615905761719,-6.88263854980469,-69.9876157525401,7.083507516798643,260890676
jump,-3.81730804443359,-5.67189178466797,-30.271558238017402,31.000295111770384,260907343
jump,-3.76800689697266,-3.53386840820312,4.40564271658628,45.38811969907114,260924010
jump,-2.30255279541016,-2.13585052490234,28.44245171465561,48.52722347745237,260940677
jump,-0.778054809570312,-1.93892059326172,39.20302242222464,41.34058862941814,260957344
jump,0.176458740234375,-1.46723327636719,37.34413955813424,26.898206584198,260974011
jump,0.495222473144532,-1.07969818115234,26.28063116862797,9.493928337011166,260990678
jump,0.452604675292969,-1.34980926513672,11.038940855248882,-6.394083064348029,261007345
jump,-0.0267883300781246,-2.10511932373047,-3.100147485078345,-17.00164272880788,261024012
jump,-0.688356018066406,-2.38041076660156,-11.783430590801844,-19.884494301343505,261040679
jump,-1.03679046630859,-2.09269866943359,-12.344720566782064,-14.201595872873428,261057346
jump,-0.909921264648437,-2.00340423583984,-4.080230233042801,-0.7340667303008344,261074013
jump,-0.589692687988281,-2.06855926513672,11.87035694789881,18.289657271603744,261090680
jump,-0.270761108398437,-2.35360870361328,32.88463643084081,39.54370423215169,261107347
jump,0.286795043945313,-2.66720733642578,55.334217292440265,59.148508987082735,261124014
jump,0.867903137207032,-2.70195922851562,75.1193538179318,73.37252402091433,261140681
jump,2.07056274414062,1.94656219482422,88.25502546314225,79.32322392675393,261157348
jump,3.52069702148437,5.65318908691406,91.50968621336412,75.39298069624218,261174015
jump,3.66300048828125,2.37406005859375,83.06170062372931,61.36931429237788,261190682
jump,5.17703094482422,1.0375732421875,63.06228857184971,38.36836509333103,261207349
jump,8.39408721923828,2.32779541015625,33.90092518875522,8.790790026242107,261224016
jump,9.62274780273438,7.87826385498047,-0.05546240847911693,-23.761813256836863,261240683
jump,9.90824737548828,6.88353576660156,-33.33885929642386,-54.8963368445836,261257350
jump,8.39995422363281,4.80569305419922,-60.686283651400736,-80.30103473116638,261274017
jump,6.24649658203125,2.07533874511719,-78.35003101776873,-96.82476274367419,261290684
jump,3.79014434814453,-0.467111206054687,-84.94787853544432,-103.2728218252324,261307351
jump,2.49476470947266,-2.24970397949219,-81.57827997226711,-100.5520716696734,261324018
jump,1.79173126220703,-3.9646240234375,-71.22790234123443,-91.13121365455233,261340685
jump,1.01161041259766,-4.34710845947266,-57.74963480215861,-78.08817082846734,261357352
jump,0.502012634277344,-4.641259765625,-44.782248801531985,-64.15464424067966,261374019
jump,0.161886596679688,-5.24952850341797,-34.92227063693239,-51.10973516857654,261390686
jump,-0.259530639648437,-6.06229553222656,-29.317926144186394,-39.673434707142256,261407353
jump,-0.722474670410156,-7.17151794433594,-27.70528341648685,-29.81623639780432,261424020
jump,-1.28778228759766,-8.27894744873047,-28.78851250305283,-21.24606579373695,261440687
jump,-1.95933685302734,-9.10846099853516,-30.798399396702848,-13.815515837015155,261457354
jump,-2.65074310302734,-9.24626312255859,-32.050282852414405,-7.692944229099114,261474021
jump,-3.36045989990234,-9.07796630859375,-31.35593928912605,-3.2883344242300687,261490688
jump,-4.07154998779297,-8.84508666992187,-28.207578260772898,-1.0364133892175702,261507355
jump,-4.57768402099609,-8.76283416748047,-22.728678446599734,-1.1692905964998217,261524022
jump,-4.77038726806641,-8.78015289306641,-15.458326524037334,-3.570204869883878,261540689
jump,-4.65459594726562,-8.94257507324219,-7.0824536390474995,-7.7357187234922264,261557356
jump,-4.47379455566406,-9.19762573242187,1.773372961172915,-12.828286616519076,261574023
