Label,Left_Hip_q,Right_Hip_q,Left_Hip_qd,Right_Hip_qd,SampleTimeFine
iw,-76.5410842895507,-34.5785598754882,-98.5654296875,29.3009147644042,3743567765
iw,-77.7916641235351,-35.1294937133789,-110.005897521972,36.5727996826171,3743584432
iw,-78.5034942626953,-36.2210464477539,-94.9828720092773,74.5134658813476,3743601099
iw,-78.9693069458007,-37.7405853271484,-83.7792892456054,93.9210815429687,3743617766
iw,-79.8604202270507,-38.9344291687011,-96.8767166137695,66.2101593017578,3743634433
iw,-81.2283706665039,-39.9520378112793,-123.289573669433,52.5910758972168,3743651100
iw,-82.4054489135742,-41.012580871582,-108.430755615234,55.6383934020996,3743667767
iw,-82.7836303710937,-42.1581001281738,-83.7053909301757,62.8829765319824,3743684434
iw,-82.3139495849609,-43.30611038208,-73.5641174316406,63.6478958129882,3743701101
iw,-81.4722595214843,-44.4040451049804,-87.9370422363281,61.3758354187011,3743717768
iw,-80.4862976074218,-45.4635620117187,-119.899955749511,60.5193901062011,3743734435
iw,-79.0976104736328,-46.6002731323242,-157.548843383789,66.5378952026367,3743751102
iw,-77.3260040283203,-47.8778457641601,-174.899459838867,76.2097702026367,3743767769
iw,-75.3182830810546,-49.2183647155761,-174.668258666992,80.3738174438476,3743784436
iw,-73.3887252807617,-50.5882263183593,-155.81575012207,81.8900833129882,3743801103
iw,-71.2384948730468,-51.9262351989746,-159.605895996093,79.7017593383789,3743817770
iw,-68.7975845336914,-53.2514610290527,-169.524917602539,78.5955810546875,3743834437
iw,-66.3153610229492,-54.5224647521972,-164.834197998046,74.836555480957,3743851104
iw,-64.1748733520507,-55.7465629577636,-137.123321533203,71.6778335571289,3743867771
iw,-62.6464157104492,-56.9836235046386,-90.8758697509765,72.4241256713867,3743884438
iw,-60.4855804443359,-58.1857681274414,-134.225112915039,70.3799819946289,3743901105
iw,-59.1085243225097,-59.3546180725097,-88.3932113647461,68.4190673828125,3743917772
iw,-58.0048713684082,-60.5811424255371,-72.4725036621093,71.8817901611328,3743934439
iw,-56.769962310791,-61.9077911376953,-79.9481887817382,77.790168762207,3743951106
iw,-55.9345970153808,-63.1924667358398,-54.461498260498,75.0719299316406,3743967773
iw,-55.5555534362793,-64.5406799316406,-25.1340465545654,78.6117172241211,3743984440
iw,-55.4654884338378,-65.7844924926757,-6.9192624092102,72.0919952392578,3744001107
iw,-55.6143264770507,-66.9662170410156,7.65327644348144,68.2076721191406,3744017774
iw,-55.971076965332,-68.0531997680664,19.8959674835205,62.471508026123,3744034441
iw,-56.3482971191406,-69.0566253662109,20.7272415161132,57.6187858581543,3744051108
iw,-56.6924476623535,-69.948860168457,18.2587070465087,51.2170333862304,3744067775
iw,-56.9981117248535,-70.754524230957,15.1591300964355,46.0691604614257,3744084442
iw,-57.7522621154785,-71.410041809082,42.9344482421875,36.9424095153808,3744101109
iw,-58.6708068847656,-71.837287902832,53.9434928894043,23.0320415496826,3744117776
iw,-59.1033287048339,-71.8335800170898,24.3670654296875,-2.83702087402343,3744134443
iw,-59.5499114990234,-71.2643814086914,23.4690208435058,-36.4209060668945,3744151110
iw,-60.2393531799316,-70.0594100952148,37.0109710693359,-74.3348159790039,3744167777
iw,-61.5399513244628,-68.3680267333984,75.2337875366211,-103.176528930664,3744184444
iw,-63.2239875793457,-66.5803146362304,98.4468154907226,-108.271354675292,3744201111
iw,-65.1823272705078,-64.7466583251953,115.603126525878,-109.026458740234,3744217778
iw,-66.6998062133789,-62.4711570739746,90.9321746826171,-132.83103942871,3744234445
iw,-67.9101028442382,-59.8129997253418,72.2571182250976,-153.720321655273,3744251112
iw,-69.2044525146484,-56.6783943176269,75.4576034545898,-183.473922729492,3744267779
iw,-70.6878356933593,-53.5392265319824,86.254898071289,-187.558486938476,3744284446
iw,-72.2858428955078,-50.9666175842285,94.3593139648437,-154.666259765625,3744301113
iw,-73.8995742797851,-48.906753540039,95.7539138793945,-122.547859191894,3744317780
iw,-75.5304107666015,-46.993106842041,96.7169036865234,-113.09806060791,3744334447
iw,-77.2911987304687,-45.0111389160156,105.482620239257,-117.688133239746,3744351114
iw,-79.1507568359375,-43.0427665710449,113.914588928222,-118.457748413085,3744367781
iw,-80.9561691284179,-41.3304100036621,113.838676452636,-104.978034973144,3744384448
iw,-82.6537780761718,-39.9532852172851,111.606796264648,-86.601821899414,3744401115
iw,-84.1848602294921,-39.102195739746,105.481300354003,-57.2972068786621,3744417782
iw,-85.4016799926757,-38.2327232360839,90.7389144897461,-61.5854377746582,3744434449
iw,-86.2866973876953,-36.7985076904296,80.1114349365234,-103.952857971191,3744451116
iw,-86.7656631469726,-35.1787605285644,71.9351806640625,-120.442520141601,3744467783
iw,-86.8304672241211,-33.7835350036621,63.3932075500488,-103.079872131347,3744484450
iw,-86.611587524414,-32.5782737731933,56.1468772888183,-84.905647277832,3744501117
iw,-86.1934738159179,-31.3575496673584,57.9063644409179,-83.4623107910156,3744517784
iw,-85.5556564331054,-30.4360675811767,63.7995529174804,-62.3573532104492,3744534451
iw,-84.7344131469726,-29.8179759979248,66.3038711547851,-42.2728195190429,3744551118
iw,-83.670051574707,-29.4002532958984,75.8201828002929,-27.6368885040283,3744567785
iw,-82.3903732299804,-29.1209278106689,84.9530258178711,-18.6750240325927,3744584452
iw,-81.091926574707,-28.9314594268798,82.6372375488281,-14.3202075958251,3744601119
iw,-79.8610763549804,-28.73286819458,76.0053100585937,-13.4091358184814,3744617786
iw,-78.6773300170898,-28.7725105285644,71.3595809936523,-0.265795826911926,3744634453
iw,-77.6583175659179,-28.9192543029785,60.0389671325683,5.10636329650878,3744651120
iw,-76.7929229736328,-29.0291404724121,50.6145248413085,2.87166714668273,3744667787
iw,-75.9993133544921,-29.0427875518798,46.946491241455,-3.53783679008483,3744684454
iw,-75.2641372680664,-29.2518730163574,43.2867202758789,6.98791885375976,3744701121
iw,-74.6445617675781,-29.9925556182861,35.0516242980957,38.4097557067871,3744717788
iw,-74.1605453491211,-30.8856811523437,24.9499053955078,49.4031944274902,3744734455
iw,-73.9736328125,-31.6194801330566,6.22282218933105,38.0667572021484,3744751122
iw,-74.2056045532226,-32.6343612670898,-20.8224220275878,44.4738006591796,3744767789
iw,-75.1177062988281,-33.9911956787109,-64.5585556030273,55.2759056091308,3744784456
iw,-76.4091873168945,-35.0227928161621,-93.3224487304687,47.3135833740234,3744801123
iw,-77.5360488891601,-35.6464500427246,-91.3334579467773,46.1127090454101,3744817790
iw,-78.3574295043945,-36.7184028625488,-82.9102401733398,79.5337982177734,3744834457
iw,-79.1083221435546,-38.2267189025878,-85.9869842529296,99.9667129516601,3744851124
iw,-80.2425079345703,-39.4251518249511,-113.010520935058,71.1913452148437,3744867791
iw,-81.4974899291992,-40.5619316101074,-119.922248840332,63.9006614685058,3744884458
iw,-82.4687118530273,-41.6347160339355,-95.9345779418945,60.7291374206543,3744901125
iw,-82.9976196289062,-42.6717948913574,-93.0394897460937,59.0499992370605,3744917792
iw,-82.911750793457,-43.6141471862793,-89.9566345214843,52.5822029113769,3744934459
iw,-82.5442886352539,-44.525047302246,-88.9391555786132,50.0608863830566,3744951126
iw,-81.9476852416992,-45.4395065307617,-115.899185180664,50.9450798034668,3744967793
iw,-80.7543106079101,-46.3998718261718,-152.931335449218,54.7532882690429,3744984460
iw,-79.0076065063476,-47.4253120422363,-168.296234130859,59.3944664001464,3745001127
iw,-76.8595199584961,-48.5626335144043,-170.00747680664,66.8719635009765,3745017794
iw,-74.6536788940429,-49.8285102844238,-156.620727539062,75.1620635986328,3745034461
iw,-72.2195587158203,-51.1142807006835,-162.422317504882,76.4530639648437,3745051128
iw,-69.6073608398437,-52.4142036437988,-171.502258300781,76.975357055664,3745067795
iw,-66.8760452270507,-53.6881942749023,-175.850769042968,75.0801696777343,3745084462
iw,-64.3731079101562,-54.9440460205078,-160.331909179687,73.7629699707031,3745101129
iw,-62.473876953125,-56.1546249389648,-121.295455932617,70.9608764648437,3745117796
iw,-60.7410507202148,-57.3320617675781,-106.255645751953,68.9530410766601,3745134463
iw,-58.7753715515136,-58.5562629699707,-122.372344970703,71.7399673461914,3745151130
iw,-57.480899810791,-59.9059906005859,-81.9009628295898,79.2368240356445,3745167797
iw,-56.7364692687988,-61.3456115722656,-48.2174224853515,84.5656585693359,3745184464
iw,-55.9813385009765,-62.7950325012207,-48.1333389282226,85.0960998535156,3745201131
iw,-55.4368858337402,-64.2161178588867,-35.2540664672851,83.3099746704101,3745217798
iw,-55.2630500793457,-65.6287078857421,-12.1101913452148,82.7740478515625,3745234465
iw,-55.416202545166,-66.8546142578125,8.09760856628418,71.6014099121093,3745251132
iw,-55.7334938049316,-67.8873901367187,17.8516578674316,60.050308227539,3745267799
iw,-56.0851593017578,-68.8859176635742,19.5115909576416,57.8134078979492,3745284466
iw,-56.3343467712402,-69.8376998901367,13.0170564651489,54.8593406677246,3745301133
iw,-56.7089004516601,-70.6868133544921,19.810396194458,48.7807846069335,3745317800
iw,-57.4166755676269,-71.3869552612304,39.286334991455,39.9821510314941,3745334467
iw,-58.7045822143554,-71.8761444091796,74.9922714233398,27.3564872741699,3745351134
iw,-59.4220390319824,-72.0836868286132,42.0651206970214,10.4279050827026,3745367801
iw,-59.993911743164,-71.8171005249023,31.6832599639892,-17.8493843078613,3745384468
iw,-60.7069206237793,-70.9032211303711,37.6134033203125,-56.4488182067871,3745401135
iw,-61.8016777038574,-69.3961334228515,61.577537536621,-91.8584671020507,3745417802
iw,-63.5220832824707,-67.7268829345703,99.342544555664,-101.464721679687,3745434469
iw,-65.5611801147461,-66.0621795654296,119.179641723632,-99.6718444824218,3745451136
iw,-67.2606658935546,-64.1266021728515,101.217765808105,-111.916282653808,3745467803
iw,-68.4156723022461,-61.7767944335937,69.7987213134765,-133.898559570312,3745484470
iw,-69.6226959228515,-58.9414405822753,71.9792556762695,-164.1435546875,3745501137
iw,-71.0085983276367,-55.9181861877441,81.7892837524414,-180.578491210937,3745517804
iw,-72.5098724365234,-53.4244918823242,89.4259033203125,-151.439102172851,3745534471
iw,-74.01220703125,-51.37158203125,89.965835571289,-124.331222534179,3745551138
iw,-75.4723663330078,-49.3588714599609,87.5990371704101,-120.014839172363,3745567805
iw,-77.0598449707031,-47.0964813232421,96.253173828125,-134.788497924804,3745584472
iw,-78.7378005981445,-44.7892990112304,103.299247741699,-138.676071166992,3745601139
iw,-80.3554534912109,-42.7175598144531,103.129119873046,-125.92699432373,3745617806
iw,-81.8923263549804,-40.9126205444335,103.197235107421,-113.770286560058,3745634473
iw,-83.2205505371093,-39.1884269714355,91.3513793945312,-114.684303283691,3745651140
iw,-84.3569412231445,-37.3080520629882,80.5924224853515,-129.047561645507,3745667807
iw,-85.2520370483398,-35.3764266967773,72.2772903442382,-135.754806518554,3745684474
iw,-85.9235458374023,-33.701374053955,75.7512893676757,-119.323623657226,3745701141
iw,-86.2662963867187,-32.4343299865722,84.9622726440429,-91.5396270751953,3745717808
iw,-86.1265716552734,-31.4420146942138,94.2161636352539,-69.8859100341796,3745734475
iw,-85.4523544311523,-30.5456447601318,105.012336730957,-60.3119850158691,3745751142
iw,-84.3490676879882,-29.9388027191162,103.089172363281,-35.0681915283203,3745767809
iw,-83.0085525512695,-29.6109981536865,98.919448852539,-16.0407390594482,3745784476
iw,-81.5615997314453,-29.2803211212158,98.3739624023437,-16.3940048217773,3745801143
iw,-80.1735153198242,-29.1392784118652,89.7809295654296,-5.98405742645263,3745817810
iw,-79.0299987792968,-28.8471069335937,70.8838958740234,-17.3062934875488,3745834477
iw,-78.1094741821289,-28.6463718414306,55.3022308349609,-12.8711862564086,3745851144
iw,-77.3047637939453,-28.9077644348144,47.5460319519043,10.8964738845825,3745867811
iw,-76.57421875,-29.4758071899414,43.1265029907226,25.5744857788085,3745884478
iw,-75.9451293945312,-30.0894908905029,36.5627822875976,26.8630275726318,3745901145
iw,-75.4246749877929,-30.8868675231933,27.3699855804443,35.9376716613769,3745917812
iw,-75.3174133300781,-31.7757415771484,-0.314114511013031,44.4033470153808,3745934479
iw,-76.0251235961914,-32.7087707519531,-50.8744316101074,42.6864280700683,3745951146
iw,-77.3234558105468,-33.8050727844238,-93.2103729248046,38.6443328857421,3745967813
iw,-78.5624160766601,-34.6024131774902,-101.747940063476,24.0803623199462,3745984480
iw,-79.1660919189453,-35.1713066101074,-79.7002182006836,32.3269577026367,3746001147
iw,-79.2554092407226,-36.3335494995117,-56.7843055725097,79.6755981445312,3746017814
iw,-79.7129287719726,-37.8242988586425,-68.9901046752929,95.9133224487304,3746034481
iw,-80.798583984375,-39.0760803222656,-94.2918853759765,73.571044921875,3746051148
iw,-81.8654174804687,-40.0980262756347,-82.3782730102539,55.4847679138183,3746067815
iw,-82.5087585449218,-41.1051292419433,-78.5512161254882,54.6211624145507,3746084482
iw,-82.5476531982421,-42.1470260620117,-84.5876388549804,58.0715751647949,3746101149
iw,-82.1746139526367,-43.1720924377441,-91.7485198974609,56.8469467163085,3746117816
iw,-81.6429443359375,-44.1840744018554,-101.851783752441,55.3178329467773,3746134483
iw,-80.8763122558593,-45.0921325683593,-123.198654174804,49.8047981262207,3746151150
iw,-79.652099609375,-46.0970420837402,-148.043197631835,57.2060394287109,3746167817
iw,-77.9555130004882,-47.2739524841308,-157.677703857421,68.7663497924804,3746184484
iw,-76.1801071166992,-48.5629196166992,-143.680633544921,76.2722091674804,3746201151
iw,-74.4499816894531,-49.9657859802246,-133.579833984375,83.3504562377929,3746217818
iw,-72.4861831665039,-51.4524841308593,-144.628189086914,88.3557815551757,3746234485
iw,-70.1110763549804,-52.8869132995605,-165.784484863281,84.9748306274414,3746251152
iw,-67.5169830322265,-54.1743240356445,-172.151611328125,75.775634765625,3746267819
iw,-65.5861511230468,-55.3356018066406,-125.742378234863,67.9911346435546,3746284486
iw,-64.0578689575195,-56.4598007202148,-95.4317016601562,65.702766418457,3746301153
iw,-61.9963836669921,-57.6165542602539,-129.694519042968,67.6037445068359,3746317820
iw,-60.3915138244628,-58.82222366333,-103.063690185546,70.5094833374023,3746334487
iw,-58.8895645141601,-60.1510848999023,-96.8116760253906,77.8611602783203,3746351154
iw,-57.5663375854492,-61.5777015686035,-86.8217849731445,83.5742263793945,3746367821
iw,-56.5182723999023,-62.9303588867187,-68.2603225708007,79.1191864013671,3746384488
iw,-55.8058166503906,-64.1021652221679,-46.6269340515136,68.2863693237304,3746401155
iw,-55.4266777038574,-65.213638305664,-25.6660270690917,64.5701141357421,3746417822
iw,-55.414321899414,-66.2411346435546,-2.57481718063354,59.4993820190429,3746434489
iw,-55.586627960205,-67.2193222045898,8.85372543334961,56.6193923950195,3746451156
iw,-55.7889251708984,-68.1924209594726,10.5396404266357,56.2815284729003,3746467823
iw,-56.1511802673339,-69.0930709838867,19.8579444885253,51.6770782470703,3746484490
iw,-56.7244300842285,-69.9122238159179,32.1441574096679,46.5560646057128,3746501157
iw,-57.7792205810546,-70.6138000488281,60.5964775085449,39.3483772277832,3746517824
iw,-59.1765899658203,-71.1547164916992,81.9038925170898,29.3281116485595,3746534491
iw,-59.962963104248,-71.3285140991211,46.9723587036132,7.10401582717895,3746551158
iw,-60.4114265441894,-70.9742660522461,24.171516418457,-24.1043014526367,3746567825
iw,-61.0062751770019,-69.8815460205078,29.1966762542724,-67.7961273193359,3746584492
iw,-62.134765625,-68.1904067993164,62.2686080932617,-103.198539733886,3746601159
iw,-63.975227355957,-66.4065475463867,108.127449035644,-108.094863891601,3746617826
iw,-66.0952606201171,-64.6436691284179,125.7744140625,-104.563041687011,3746634493
iw,-67.669319152832,-62.570442199707,93.680419921875,-120.017356872558,3746651160
iw,-68.6154556274414,-60.2186584472656,56.1337699890136,-133.774002075195,3746667827
iw,-69.6709365844726,-57.4572067260742,61.7380867004394,-158.996551513671,3746684494
iw,-70.8903045654296,-54.5816268920898,70.7361068725586,-171.144699096679,3746701161
iw,-72.2722015380859,-51.9341354370117,81.1704483032226,-160.07209777832,3746717828
iw,-73.6733779907226,-49.7608566284179,82.9060668945312,-131.071151733398,3746734495
iw,-74.9870071411132,-47.8186454772949,78.3760070800781,-116.706199645996,3746751162
iw,-76.4012298583984,-45.8372840881347,86.1263198852539,-119.778800964355,3746767829
iw,-77.9532012939453,-43.8833999633789,96.74609375,-119.497955322265,3746784496
iw,-79.5224914550781,-42.0487632751464,100.284317016601,-114.26358795166,3746801163
iw,-81.0790786743164,-40.3936004638671,101.838333129882,-105.837570190429,3746817830
iw,-82.5654983520507,-39.0174865722656,98.5288848876953,-92.3741836547851,3746834497
iw,-83.9289169311523,-37.538028717041,92.2286376953125,-103.936645507812,3746851164
iw,-85.115852355957,-35.8055877685546,85.7097549438476,-122.966804504394,3746867831
iw,-86.0403747558593,-34.2660331726074,80.3093948364257,-110.64793395996,3746884498
iw,-86.5830459594726,-33.1806373596191,78.533706665039,-78.2721786499023,3746901165
iw,-86.6557846069336,-32.3675155639648,79.994140625,-57.292797088623,3746917832
iw,-86.3215560913086,-31.4285831451416,77.7134323120117,-62.7423439025878,3746934499
iw,-85.7365341186523,-30.7049217224121,69.3092269897461,-45.2323188781738,3746951166
iw,-84.9387893676757,-30.4819011688232,70.2818603515625,-14.5440807342529,3746967833
iw,-83.9973678588867,-30.2816467285156,71.7542419433593,-10.1040172576904,3746984500
iw,-82.9315872192382,-30.0967140197753,72.1924285888671,-10.2187089920043,3747001167
iw,-81.8069152832031,-29.6914024353027,71.0201110839843,-24.9113121032714,3747017834
iw,-80.7151641845703,-29.2082042694091,66.1681137084961,-29.6818580627441,3747034501
iw,-79.7490539550781,-29.0893459320068,56.3923988342285,-10.646577835083,3747051168
iw,-78.9612274169921,-29.3592586517334,44.0899543762207,10.5504541397094,3747067835
iw,-78.4475936889648,-29.9215469360351,26.8685855865478,27.1387577056884,3747084502
iw,-78.1985397338867,-30.6991691589355,9.4138593673706,38.2317466735839,3747101169
iw,-78.1269226074218,-31.5720138549804,-5.01823663711547,42.3006782531738,3747117836
iw,-78.4004516601562,-32.6374549865722,-31.5821018218994,52.9843406677246,3747134503
iw,-79.0990524291992,-33.7138328552246,-66.1460418701171,48.2005043029785,3747151170
iw,-79.7665328979492,-34.9034767150878,-74.0996704101562,45.9081268310546,3747167837
iw,-80.3174896240234,-35.5212516784668,-76.8370590209961,19.1138572692871,3747184504
iw,-80.7334671020507,-36.0122032165527,-83.2749099731445,31.9942455291748,3747201171
iw,-80.6393890380859,-37.2080459594726,-65.7483520507812,81.7926940917968,3747217838
iw,-80.7405090332031,-38.7096939086914,-66.6868057250976,96.6441040039062,3747234505
iw,-81.4788055419921,-39.9510269165039,-106.079231262207,75.756118774414,3747251172
iw,-81.9954147338867,-40.8463859558105,-104.067810058593,51.6051940917968,3747267839
iw,-81.8336029052734,-41.7176895141601,-72.4928817749023,48.9808616638183,3747284506
iw,-81.3749313354492,-42.665355682373,-58.5079193115234,53.3530006408691,3747301173
iw,-80.9638214111328,-43.6056442260742,-59.49361038208,51.8236999511718,3747317840
iw,-80.3580856323242,-44.5552368164062,-95.5358734130859,51.7171020507812,3747334507
iw,-79.306167602539,-45.5577926635742,-125.043075561523,56.0877494812011,3747351174
iw,-78.0465850830078,-46.7186622619628,-127.665031433105,67.2852706909179,3747367841
iw,-76.7095947265625,-48.0104598999023,-122.4019241333,76.5495147705078,3747384508
iw,-75.2800979614257,-49.3889923095703,-117.395629882812,82.68603515625,3747401175
iw,-73.7945861816406,-50.7282905578613,-119.153564453125,80.6923370361328,3747417842
iw,-72.1838455200195,-52.0656776428222,-129.409042358398,80.3242645263671,3747434509
iw,-69.8912124633789,-53.3892021179199,-160.116088867187,79.0176849365234,3747451176
iw,-67.8569030761718,-54.5840950012207,-131.628845214843,70.7388381958007,3747467843
iw,-66.122314453125,-55.7481307983398,-112.50096130371,68.5391540527343,3747484510
iw,-64.8678588867187,-56.9470787048339,-80.0826339721679,70.4631729125976,3747501177
iw,-63.2769775390625,-58.1714973449707,-96.7832412719726,71.8480834960937,3747517844
iw,-61.7403678894043,-59.4750747680664,-93.7422637939453,76.4567565917968,3747534511
iw,-60.3381233215332,-60.8328628540039,-87.3842849731445,79.6787414550781,3747551178
iw,-59.1103019714355,-62.2007026672363,-78.2906036376953,80.3097534179687,3747567845
iw,-58.0041732788085,-63.5590362548828,-69.5772094726562,79.7638168334961,3747584512
iw,-57.103157043457,-64.8573608398437,-56.1024131774902,76.0372772216796,3747601179
iw,-56.6180839538574,-66.0276336669921,-30.7891540527343,68.2527770996093,3747617846
iw,-56.3766860961914,-67.0122451782226,-15.6793069839477,57.2331886291503,3747634513
iw,-56.2315597534179,-67.9081802368164,-9.57588958740234,52.0081176757812,3747651180
iw,-56.1705818176269,-68.7451934814453,-4.8973479270935,48.4349555969238,3747667847
iw,-56.1349258422851,-69.579719543457,-4.32685708999633,48.2852783203125,3747684514
iw,-56.1673927307128,-70.4661712646484,-1.24146509170532,51.412010192871,3747701181
iw,-56.3513488769531,-71.3796997070312,6.96528720855712,52.6956024169921,3747717848
iw,-56.8543167114257,-72.1911010742187,25.5009727478027,46.150894165039,3747734515
iw,-57.9002990722656,-72.7994537353515,59.3661460876464,33.881492614746,3747751182
iw,-58.5407180786132,-73.1587600708007,35.2352180480957,19.294807434082,3747767849
iw,-58.8862991333007,-73.1350326538086,17.4314937591552,-2.80933904647827,3747784516
iw,-59.4074554443359,-72.5451889038086,26.5290927886962,-36.1264686584472,3747801183
iw,-60.3462715148925,-71.2551040649414,51.9864540100097,-78.2918853759765,3747817850
iw,-61.7026252746582,-69.5283660888671,77.0339584350586,-105.09203338623,3747834517
iw,-63.344799041748,-67.8069076538086,94.9473724365234,-104.440528869628,3747851184
iw,-65.0884628295898,-66.0791320800781,102.903480529785,-101.372062683105,3747867851
iw,-66.2690887451171,-63.8672409057617,69.7437744140625,-126.845153808593,3747884518
iw,-67.235366821289,-61.0978317260742,55.1971397399902,-157.949096679687,3747901185
iw,-68.3473358154296,-57.81099319458,62.7590293884277,-191.269470214843,3747917852
iw,-69.6226577758789,-54.686107635498,73.8795776367187,-186.563446044921,3747934519
iw,-70.9098968505859,-52.0191230773925,76.5301055908203,-160.831359863281,3747951186
iw,-72.1495208740234,-49.8516273498535,73.8168640136718,-130.665222167968,3747967853
iw,-73.4211654663086,-47.7381324768066,75.3199386596679,-126.144004821777,3747984520
iw,-74.9258346557617,-45.5530319213867,89.6729583740234,-131.095718383789,3748001187
iw,-76.676155090332,-43.5792694091796,106.229797363281,-120.115623474121,3748017854
iw,-78.4406280517578,-41.8721809387207,110.405128479003,-106.272567749023,3748034521
iw,-80.1073150634765,-40.2366561889648,109.056076049804,-106.03042602539,3748051188
iw,-81.6379699707031,-38.44771194458,105.233078002929,-120.05874633789,3748067855
iw,-83.0073699951171,-36.6120681762695,98.0257186889648,-128.336105346679,3748084522
iw,-84.2154464721679,-34.8898162841796,90.4742202758789,-124.146652221679,3748101189
iw,-85.2358474731445,-33.6742324829101,84.6774749755859,-91.7212600708007,3748117856
iw,-85.9657592773437,-32.7928848266601,78.35546875,-68.0738296508789,3748134523
iw,-86.3211898803711,-31.8449993133544,76.0810623168945,-67.6426162719726,3748151190
iw,-86.2673950195312,-31.0086498260498,82.270263671875,-57.7613677978515,3748167857
iw,-85.7470245361328,-30.4754028320312,88.4099044799804,-37.9498634338378,3748184524
iw,-84.825927734375,-29.9646205902099,90.1331100463867,-35.5677185058593,3748201191
iw,-83.621826171875,-29.7886486053466,92.5400085449218,-13.7157983779907,3748217858
iw,-82.1650848388671,-29.6907958984375,100.366928100585,-7.88962602615356,3748234525
iw,-80.676887512207,-29.5020084381103,96.6683731079101,-11.9593181610107,3748251192
iw,-79.3539199829101,-29.4107303619384,82.1127624511718,-6.42018699645996,3748267859
iw,-78.2503509521484,-29.4967155456542,66.7655410766601,1.98107230663299,3748284526
iw,-77.3702087402343,-29.7356395721435,52.5210151672363,9.69376277923584,3748301193
iw,-76.6406173706054,-30.0390281677246,43.1760177612304,12.3110303878784,3748317860
iw,-75.9973068237304,-30.4198570251464,37.0472259521484,15.0394859313964,3748334527
iw,-75.5634155273437,-31.0431041717529,22.752628326416,29.8457336425781,3748351194
iw,-75.4482650756836,-31.6118259429931,2.52879285812377,29.0704803466796,3748367861
iw,-75.8258666992187,-31.9983501434326,-27.7313232421875,10.64852809906,3748384528
iw,-76.8051834106445,-32.9014472961425,-66.6185302734375,31.3658981323242,3748401195
iw,-78.0132904052734,-33.8470840454101,-87.0013351440429,37.6853713989257,3748417862
iw,-79.0480499267578,-34.3218193054199,-87.391372680664,26.6906471252441,3748434529
iw,-79.6166839599609,-35.1532669067382,-74.6226272583007,56.8673362731933,3748451196
iw,-79.7976837158203,-36.4228897094726,-59.9647789001464,80.9060592651367,3748467863
iw,-80.1883926391601,-37.4970321655273,-65.7134246826171,63.6597480773925,3748484530
iw,-81.1310195922851,-38.49755859375,-87.6751403808593,56.4184875488281,3748501197
iw,-82.1772766113281,-39.5237655639648,-94.4988327026367,56.6161918640136,3748517864
iw,-82.4714202880859,-40.5452194213867,-80.43603515625,55.9261665344238,3748534531
iw,-82.0477142333984,-41.5708961486816,-65.4484405517578,56.0061912536621,3748551198
iw,-81.4715194702148,-42.5443954467773,-68.9658126831054,53.0897712707519,3748567865
iw,-80.8999252319336,-43.5190544128418,-103.308235168457,54.4850692749023,3748584532
iw,-79.9905166625976,-44.5369720458984,-144.510955810546,58.6259613037109,3748601199
iw,-78.6997604370117,-45.6743354797363,-154.309249877929,66.6970291137695,3748617866
iw,-77.4972381591796,-46.9545135498046,-131.705612182617,75.9763259887695,3748634533
iw,-76.3002166748046,-48.3053321838378,-121.976509094238,80.578498840332,3748651200
iw,-74.6100540161132,-49.7525520324707,-144.13215637207,86.3001708984375,3748667867
iw,-72.327522277832,-51.2345581054687,-171.356948852539,87.9986419677734,3748684534
iw,-70.1666183471679,-52.6564598083496,-154.328948974609,83.9363937377929,3748701201
iw,-67.977912902832,-53.9509353637695,-147.17576599121,76.0050430297851,3748717868
iw,-65.837158203125,-55.1557846069335,-137.702102661132,70.5325775146484,3748734535
iw,-63.9579277038574,-56.3146743774414,-117.659217834472,67.7573471069336,3748751202
iw,-62.1117401123046,-57.4988136291503,-120.411552429199,69.3327255249023,3748767869
iw,-60.7322731018066,-58.7536087036132,-89.2680053710937,73.5693435668945,3748784536
iw,-59.0273284912109,-59.9964714050293,-108.617782592773,72.8571624755859,3748801203
iw,-57.5084037780761,-61.2171554565429,-97.5744323730468,71.3990859985351,3748817870
iw,-56.3079719543457,-62.4460639953613,-76.655158996582,71.4563217163086,3748834537
iw,-55.4600219726562,-63.7050514221191,-53.9945640563964,72.6450271606445,3748851204
iw,-55.0179786682128,-64.9214553833007,-28.5973587036132,70.0088119506836,3748867871
iw,-54.8895072937011,-66.0874786376953,-9.31286525726318,67.1732025146484,3748884538
iw,-55.0655708312988,-67.1665802001953,9.00117874145507,62.1762390136718,3748901205
iw,-55.2134246826171,-68.1743927001953,6.90649795532226,58.0150756835937,3748917872
iw,-55.4272727966308,-69.0999145507812,10.3358707427978,53.0500602722168,3748934539
iw,-55.8859519958496,-69.9768905639648,24.3261756896972,50.2154312133789,3748951206
iw,-56.9595756530761,-70.7719650268554,60.6767425537109,45.3231086730957,3748967873
iw,-58.2502250671386,-71.3299179077148,75.6517486572265,30.877492904663,3748984540
iw,-58.980670928955,-71.536636352539,43.3579711914062,9.49204349517822,3749001207
iw,-59.5495986938476,-71.2984161376953,29.7246036529541,-16.9650192260742,3749017874
iw,-60.3661613464355,-70.3734970092773,42.4645881652832,-57.544864654541,3749034541
iw,-61.5459671020507,-68.7445602416992,65.7772369384765,-99.2318725585937,3749051208
iw,-63.4871635437011,-66.9432754516601,115.329360961914,-108.904876708984,3749067875
iw,-65.3677673339843,-65.2166976928711,113.137397766113,-102.051353454589,3749084542
iw,-66.5626983642578,-63.0496559143066,70.6576309204101,-124.559936523437,3749101209
iw,-67.5418014526367,-60.3617706298828,57.1950950622558,-153.229278564453,3749117876
iw,-68.7095718383789,-57.0437507629394,67.6886215209961,-193.364303588867,3749134543
iw,-69.944839477539,-53.923225402832,71.3429412841796,-186.87319946289,3749151210
iw,-71.2416839599609,-51.3525466918945,76.1392288208007,-155.286758422851,3749167877
iw,-72.4969863891601,-49.2604866027832,74.1807708740234,-125.072715759277,3749184544
iw,-73.7663192749023,-47.297019958496,75.6431350708007,-116.040916442871,3749201211
iw,-75.2310409545898,-45.2473602294921,88.5510635375976,-121.372352600097,3749217878
iw,-76.8776702880859,-43.1577796936035,101.0728225708,-124.909942626953,3749234545
iw,-78.6559829711914,-41.3641281127929,111.924888610839,-110.185508728027,3749251212
iw,-80.4791564941406,-39.9844665527343,118.844703674316,-89.0910339355468,3749267879
iw,-82.2994384765625,-38.5568237304687,123.130851745605,-95.7514038085937,3749284546
iw,-83.8824996948242,-36.9870147705078,108.913658142089,-108.03734588623,3749301213
iw,-85.1348571777343,-35.4041595458984,87.7051849365234,-113.367607116699,3749317880
iw,-86.0896453857421,-34.137825012207,68.1099624633789,-95.5541915893554,3749334547
iw,-86.8170318603515,-33.2868881225585,65.8466033935546,-68.5297088623046,3749351214
iw,-87.1533889770507,-32.4575576782226,66.760009765625,-62.1865043640136,3749367881
iw,-86.9854583740234,-31.5916366577148,71.5732803344726,-60.4888038635253,3749384548
iw,-86.2597961425781,-30.9921073913574,81.8834228515625,-42.7342453002929,3749401215
iw,-85.1069564819336,-30.5705680847167,90.6763763427734,-29.7818851470947,3749417882
iw,-83.717529296875,-30.2126007080078,95.8729705810546,-24.4512004852294,3749434549
iw,-82.1568756103515,-29.9061298370361,102.310310363769,-20.8219470977783,3749451216
iw,-80.6835632324218,-29.5334720611572,93.9880218505859,-24.5490798950195,3749467883
iw,-79.4531784057617,-29.1890602111816,75.0186691284179,-23.0373153686523,3749484550
iw,-78.535285949707,-29.055492401123,53.237060546875,-11.7925252914428,3749501217
iw,-77.9420700073242,-29.2639465332031,32.6265869140625,7.54766035079956,3749517884
iw,-77.7122268676757,-29.7452564239501,10.4664545059204,22.7140827178955,3749534551
iw,-77.8309173583984,-30.5245742797851,-12.2217416763305,39.8126220703125,3749551218
iw,-78.0891952514648,-31.4576015472412,-25.2419872283935,47.0436286926269,3749567885
iw,-78.5065765380859,-32.4964370727539,-41.5192489624023,52.9923477172851,3749584552
iw,-79.1542358398437,-33.5976104736328,-64.0927734375,52.3817405700683,3749601219
iw,-79.7363204956054,-34.6463203430175,-74.8096618652343,41.9964599609375,3749617886
iw,-79.9238967895507,-35.121524810791,-69.4353103637695,12.3938484191894,3749634553
iw,-79.6265792846679,-35.48193359375,-54.8376693725585,23.2215843200683,3749651220
iw,-79.5002899169921,-36.7012062072753,-54.4430046081543,79.6208114624023,3749667887
iw,-80.0712432861328,-38.1079025268554,-81.3340225219726,87.9219131469726,3749684554
iw,-80.864387512207,-39.334659576416,-117.918708801269,75.8416976928711,3749701221
iw,-81.0221481323242,-40.271987915039,-119.565292358398,55.6728553771972,3749717888
iw,-80.6123886108398,-41.1014709472656,-98.5905456542968,47.5068435668945,3749734555
iw,-80.0781784057617,-42.0613098144531,-82.5681228637695,54.8831329345703,3749751222
iw,-79.6889343261718,-43.0034866333007,-71.1102828979492,52.875259399414,3749767889
iw,-79.154541015625,-43.9880905151367,-93.3700866699218,54.7575988769531,3749784556
iw,-78.4418106079101,-44.9855995178222,-95.3522644042968,56.4700660705566,3749801223
iw,-77.8867568969726,-46.0623245239257,-84.4381332397461,62.7314834594726,3749817890
iw,-76.6642837524414,-47.2675628662109,-127.206687927246,71.6229400634765,3749834557
iw,-74.7145233154296,-48.6749458312988,-157.727569580078,84.5821762084961,3749851224
iw,-72.6887588500976,-50.2001228332519,-156.066085815429,92.0664978027343,3749867891
iw,-70.0582580566406,-51.7657585144043,-187.726928710937,94.315444946289,3749884558
iw,-67.5626373291015,-53.2916679382324,-167.973159790039,91.5189819335937,3749901225
iw,-65.7312393188476,-54.6093788146972,-115.207763671875,78.3309555053711,3749917892
iw,-63.9131050109863,-55.6944541931152,-112.72492980957,63.5760841369628,3749934559
iw,-62.641918182373,-56.6971206665039,-80.4721755981445,58.1537399291992,3749951226
iw,-61.2120132446289,-57.702579498291,-89.7791595458984,58.2575607299804,3749967893
iw,-59.9239616394043,-58.7706565856933,-80.100845336914,62.0693855285644,3749984560
iw,-58.8608016967773,-59.9436683654785,-68.5526123046875,68.5323257446289,3750001227
iw,-57.8402137756347,-61.1932220458984,-66.9911422729492,73.266860961914,3750017894
iw,-56.8113098144531,-62.5194664001464,-65.6014709472656,77.8147583007812,3750034561
iw,-56.1654396057128,-63.7924728393554,-40.2602882385253,74.6064147949218,3750051228
iw,-56.1216812133789,-65.0657272338867,-2.66386365890502,74.5462646484375,3750067895
iw,-56.3853607177734,-66.2842254638671,15.4806852340698,71.2786331176757,3750084562
iw,-56.5026741027832,-67.3243865966796,5.54746150970459,60.6331405639648,3750101229
iw,-56.5891075134277,-68.2645416259765,2.83515548706054,54.5695571899414,3750117896
iw,-56.7507553100585,-69.1505813598632,6.38827228546142,51.3046836853027,3750134563
iw,-57.495304107666,-69.9502563476562,40.5886154174804,46.0644645690918,3750151230
iw,-58.8292121887207,-70.5701675415039,76.4831924438476,35.1761627197265,3750167897
iw,-59.7084007263183,-70.8855819702148,51.6998672485351,16.6505908966064,3750184564
iw,-60.2686424255371,-70.8680191040039,30.9484405517578,-3.3971951007843,3750201231
iw,-60.7680015563964,-70.3164749145507,22.4311027526855,-35.2115516662597,3750217898
iw,-61.7996597290039,-69.0514068603515,52.7682304382324,-77.4934387207031,3750234565
iw,-63.4517211914062,-67.4055709838867,92.5708618164062,-99.6530990600586,3750251232
iw,-65.4589462280273,-65.7561111450195,117.324821472167,-98.4309463500976,3750267899
iw,-67.0310363769531,-63.936725616455,92.9481353759765,-104.732185363769,3750284566
iw,-68.2366027832031,-61.6669158935546,71.2277450561523,-128.852401733398,3750301233
iw,-69.4602890014648,-58.755802154541,71.8630294799804,-166.856414794921,3750317900
iw,-70.7505874633789,-55.4272651672363,75.7085342407226,-196.795654296875,3750334567
iw,-72.1063461303711,-52.4219551086425,80.2755050659179,-181.92333984375,3750351234
iw,-73.4481582641601,-49.9929809570312,79.8156814575195,-147.575012207031,3750367901
iw,-74.7885437011718,-47.9826278686523,80.0361099243164,-120.856224060058,3750384568
iw,-76.2074432373046,-45.9523391723632,85.338020324707,-121.874000549316,3750401235
iw,-77.7950973510742,-43.9834556579589,95.978889465332,-117.299499511718,3750417902
iw,-79.3945541381836,-42.0036544799804,98.3509368896484,-119.411460876464,3750434569
iw,-80.9359436035156,-39.8845176696777,97.5841979980468,-131.639251708984,3750451236
iw,-82.4427490234375,-37.9589881896972,98.8701553344726,-125.719017028808,3750467903
iw,-83.8652191162109,-36.2272224426269,98.0625305175781,-117.621459960937,3750484570
iw,-85.0961608886718,-34.4859542846679,94.9379196166992,-121.361167907714,3750501237
iw,-85.9615783691406,-32.9947471618652,90.770881652832,-109.016197204589,3750517904
iw,-86.3522415161132,-32.2320747375488,85.6547775268554,-63.6212043762207,3750534571
iw,-86.3008041381836,-31.6005096435546,78.2015075683593,-50.2015953063964,3750551238
iw,-85.9249877929687,-30.5709495544433,73.2345504760742,-69.7034072875976,3750567905
iw,-85.2015991210937,-29.91064453125,79.6446990966796,-46.7405395507812,3750584572
iw,-84.1622619628906,-29.4185066223144,88.5646820068359,-36.4379158020019,3750601239
iw,-82.8879013061523,-28.9469776153564,93.7115936279296,-32.9579887390136,3750617906
iw,-81.561294555664,-28.6958065032959,89.8278427124023,-17.3062419891357,3750634573
iw,-80.2038345336914,-28.6482563018798,85.8063049316406,-4.9499979019165,3750651240
iw,-78.9273376464843,-28.6183853149414,77.2197875976562,-4.3565616607666,3750667907
iw,-77.8542022705078,-28.7592220306396,63.0645370483398,4.2409348487854,3750684574
iw,-77.0765533447265,-29.1766967773437,44.762451171875,20.1296062469482,3750701241
iw,-76.7201156616211,-29.8159236907959,18.5166511535644,29.7988834381103,3750717908
iw,-76.8929061889648,-30.4839992523193,-16.0803127288818,30.3051300048828,3750734575
iw,-77.6690597534179,-31.3586692810058,-55.5339317321777,44.03071975708,3750751242
iw,-78.6807785034179,-32.3460426330566,-77.7638702392578,44.8204307556152,3750767909
iw,-79.2589721679687,-33.2295761108398,-66.4017868041992,33.7328605651855,3750784576
iw,-79.3054656982421,-33.652416229248,-48.0014038085937,17.219425201416,3750801243
iw,-79.3355407714843,-34.518253326416,-56.6420936584472,55.9706764221191,3750817910
iw,-79.4791183471679,-35.9452323913574,-71.8525009155273,87.9353561401367,3750834577
iw,-79.8728637695312,-37.1790771484375,-84.0106887817382,71.8673095703125,3750851244
iw,-80.7115097045898,-38.1561813354492,-100.488204956054,53.7650146484375,3750867911
iw,-81.4718399047851,-38.977123260498,-101.872833251953,43.3328895568847,3750884578
iw,-81.4853439331054,-39.8299446105957,-78.1022872924804,46.5032768249511,3750901245
iw,-80.995361328125,-40.764404296875,-63.294750213623,52.9842414855957,3750917912
iw,-80.4125366210937,-41.6902542114257,-69.5432815551757,52.6413917541503,3750934579
iw,-79.8491744995117,-42.5900421142578,-92.8693008422851,51.0405387878418,3750951246
iw,-78.9150772094726,-43.5710258483886,-137.466934204101,56.3404655456543,3750967913
iw,-77.6601867675781,-44.7682456970214,-148.080642700195,70.1349868774414,3750984580
iw,-76.2593765258789,-46.1418304443359,-142.009933471679,81.3646774291992,3751001247
iw,-74.6879425048828,-47.573974609375,-137.860290527343,85.4234771728515,3751017914
iw,-72.9081878662109,-49.0103569030761,-140.556762695312,85.9729385375976,3751034581
iw,-70.9940719604492,-50.4229660034179,-141.457824707031,84.5083312988281,3751051248
iw,-68.9230194091796,-51.7284469604492,-143.026672363281,77.6184997558593,3751067915
iw,-66.7786026000976,-52.9270210266113,-142.165618896484,70.614631652832,3751084582
iw,-65.0434188842773,-54.0354843139648,-114.221542358398,64.7389831542968,3751101249
iw,-63.5769653320312,-55.1475181579589,-94.2361297607421,64.7372665405273,3751117916
iw,-61.6720809936523,-56.3457908630371,-122.926467895507,70.0011444091796,3751134583
iw,-60.4446334838867,-57.650821685791,-81.2042617797851,76.5367355346679,3751151250
iw,-59.1781616210937,-59.0679359436035,-83.7261581420898,83.2774963378906,3751167917
iw,-57.8547973632812,-60.5894355773925,-85.42822265625,89.45703125,3751184584
iw,-56.7967224121093,-62.1305656433105,-67.7222061157226,90.508316040039,3751201251
iw,-55.988166809082,-63.599136352539,-50.6999969482421,86.0704879760742,3751217918
iw,-55.4962654113769,-64.9601669311523,-30.8946304321289,79.6426925659179,3751234585
iw,-55.2727279663085,-66.1729125976562,-15.170970916748,70.8280868530273,3751251252
iw,-55.31396484375,-67.2000579833984,0.340630143880844,59.8254356384277,3751267919
iw,-55.3153991699218,-68.0710678100586,-2.47715020179748,50.6839981079101,3751284586
iw,-55.4589805603027,-68.8740921020507,5.62057638168335,46.6288375854492,3751301253
iw,-56.015037536621,-69.6579818725586,30.1558380126953,45.3125953674316,3751317920
iw,-57.0782890319824,-70.410774230957,60.2083091735839,42.9634971618652,3751334587
iw,-58.3438873291015,-71.0606842041015,73.3261184692382,36.0845718383789,3751351254
iw,-58.9064826965332,-71.4396667480468,32.7605934143066,19.1849689483642,3751367921
iw,-59.1910705566406,-71.391975402832,11.8319768905639,-6.34912872314453,3751384588
iw,-59.8064613342285,-70.6842575073242,27.2737388610839,-45.198932647705,3751401255
iw,-61.0384521484375,-69.2456130981445,66.6920547485351,-88.0895767211914,3751417922
iw,-62.6789817810058,-67.4777221679687,96.0214538574218,-107.10708618164,3751434589
iw,-64.6645812988281,-65.8215026855468,119.684776306152,-99.111831665039,3751451256
iw,-66.1249847412109,-64.0429763793945,87.9038925170898,-102.549690246582,3751467923
iw,-66.9745254516601,-61.7305793762207,48.5548973083496,-132.131912231445,3751484590
iw,-68.0535507202148,-58.702896118164,60.3551712036132,-175.48306274414,3751501257
iw,-69.402603149414,-55.2433624267578,77.2386779785156,-206.09780883789,3751517924
iw,-70.7283706665039,-52.2167472839355,77.9447250366211,-183.236114501953,3751534591
iw,-72.0499954223632,-49.827579498291,78.6400680541992,-145.156036376953,3751551258
iw,-73.3739013671875,-47.9227561950683,78.2525253295898,-115.102966308593,3751567925
iw,-74.7785110473632,-45.963581085205,83.06640625,-117.185325622558,3751584592
iw,-76.4750823974609,-43.9422073364257,102.524803161621,-119.892822265625,3751601259
iw,-78.2914047241211,-42.0191612243652,112.401054382324,-114.796737670898,3751617926
iw,-80.0335388183593,-40.3840026855468,111.676681518554,-101.776748657226,3751634593
iw,-81.6194152832031,-38.714183807373,106.042449951171,-110.736335754394,3751651260
iw,-83.0381317138671,-36.8019523620605,99.080337524414,-129.799865722656,3751667927
iw,-84.2663955688476,-34.8366508483886,90.296516418457,-136.319610595703,3751684594
iw,-85.2733764648437,-33.1403465270996,80.256103515625,-120.582130432128,3751701261
iw,-86.0631942749023,-32.0357551574707,76.8547134399414,-82.9505233764648,3751717928
iw,-86.5315246582031,-31.1636295318603,77.040283203125,-64.9376907348632,3751734595
iw,-86.5448150634765,-29.9986152648925,74.675796508789,-79.0076751708984,3751751262
iw,-86.0933456420898,-28.9960460662841,83.6110000610351,-67.1388473510742,3751767929
iw,-85.2347412109375,-28.4295024871826,90.5005798339843,-40.658935546875,3751784596
iw,-84.099136352539,-27.9690494537353,92.5031509399414,-31.755126953125,3751801263
iw,-82.6641998291015,-27.6779346466064,100.022796630859,-21.2286987304687,3751817930
iw,-81.0498123168945,-27.4635276794433,103.395904541015,-16.3418922424316,3751834597
iw,-79.6289672851562,-27.2264976501464,85.9204483032226,-16.5960159301757,3751851264
iw,-78.4433517456054,-27.0773773193359,69.1729125976562,-12.8498554229736,3751867931
iw,-77.4643478393554,-27.1307582855224,56.2702407836914,-2.28584599494934,3751884598
iw,-76.7272872924804,-27.5818824768066,41.6604919433593,19.8080997467041,3751901265
iw,-76.2543487548828,-28.4304466247558,25.2203998565673,41.0630073547363,3751917932
iw,-76.0897140502929,-29.2081127166748,3.81401133537292,35.9562072753906,3751934599
iw,-76.3089523315429,-29.8889636993408,-21.4288921356201,30.1821899414062,3751951266
iw,-77.0633850097656,-30.9708919525146,-57.3042297363281,42.165412902832,3751967933
iw,-78.0168762207031,-32.409854888916,-77.0800857543945,53.3732185363769,3751984600
iw,-78.8641891479492,-32.93212890625,-84.4339599609375,21.7043132781982,3752001267
iw,-79.2558364868164,-33.3841857910156,-76.2504959106445,37.5582809448242,3752017934
iw,-79.3411865234375,-34.7128677368164,-70.394905090332,91.5802154541015,3752034601
iw,-79.8047790527343,-36.0922927856445,-87.9303970336914,87.3647232055664,3752051268
iw,-80.9077453613281,-37.2422485351562,-115.821266174316,65.4454956054687,3752067935
iw,-81.9283218383789,-38.2168235778808,-106.438819885253,51.0916023254394,3752084602
iw,-82.1485214233398,-39.2821998596191,-78.6093826293945,57.1971893310546,3752101269
iw,-81.7088394165039,-40.3791198730468,-57.3977622985839,61.042137145996,3752117936
iw,-81.0623397827148,-41.5265769958496,-65.1374053955078,64.4200439453125,3752134603
iw,-80.353271484375,-42.641357421875,-98.3334045410156,62.6861457824707,3752151270
iw,-79.3354721069336,-43.749340057373,-143.027954101562,63.0787849426269,3752167937
iw,-78.0051651000976,-44.9820747375488,-151.519577026367,71.6039428710937,3752184604
iw,-76.6056213378906,-46.3653526306152,-139.030120849609,82.0462951660156,3752201271
iw,-75.0879745483398,-47.8323974609375,-134.830169677734,88.0102157592773,3752217938
iw,-73.2749328613281,-49.2547264099121,-145.118453979492,85.4157485961914,3752234605
iw,-71.1788177490234,-50.6441764831543,-155.67137145996,83.0584182739257,3752251272
iw,-68.9060287475586,-52.0295143127441,-158.772827148437,82.341567993164,3752267939
iw,-66.9009399414062,-53.2998275756835,-135.935104370117,74.9728088378906,3752284606
iw,-65.2099075317382,-54.4657249450683,-112.232231140136,68.317886352539,3752301273
iw,-63.6408882141113,-55.6133460998535,-101.754386901855,66.9977188110351,3752317940
iw,-61.6947517395019,-56.7673301696777,-125.121147155761,67.3502655029296,3752334607
iw,-60.4968299865722,-57.9667854309082,-78.8509902954101,70.1349411010742,3752351274
iw,-59.4259376525878,-59.2562294006347,-70.0066909790039,75.5993041992187,3752367941
iw,-58.1055526733398,-60.5512886047363,-84.1503219604492,75.9277114868164,3752384608
iw,-57.0674743652343,-61.9637298583984,-65.8488845825195,82.8423156738281,3752401275
iw,-56.2263603210449,-63.45064163208,-52.3793106079101,87.0638046264648,3752417942
iw,-56.006420135498,-65.0284118652343,-14.7276430130004,92.2157135009765,3752434609
iw,-55.9605484008789,-66.4714202880859,-4.30574369430542,83.9630889892578,3752451276
iw,-56.0721817016601,-67.7329406738281,5.18493890762329,73.2001724243164,3752467943
iw,-56.0889739990234,-68.8033370971679,-0.347104102373123,61.869384765625,3752484610
iw,-56.089069366455,-69.7293319702148,-1.10084950923919,53.2368087768554,3752501277
iw,-56.1024436950683,-70.5424270629882,-0.205558016896247,46.7135734558105,3752517944
iw,-56.2800407409668,-71.2660064697265,9.32596969604492,41.4292755126953,3752534611
iw,-57.1918296813964,-71.877944946289,53.0522575378418,34.4599151611328,3752551278
iw,-57.9441719055175,-72.3136215209961,43.8553199768066,23.4505825042724,3752567945
iw,-58.3493919372558,-72.402114868164,23.5563888549804,2.63763213157653,3752584612
iw,-58.8874397277832,-71.9220886230468,31.5267086029052,-30.9802112579345,3752601279
iw,-59.5909233093261,-70.7895965576171,39.8341445922851,-69.609634399414,3752617946
iw,-60.6275749206543,-69.223403930664,57.4097290039062,-95.2641220092773,3752634613
iw,-61.8259658813476,-67.5835418701171,67.0258560180664,-99.3994750976562,3752651280
iw,-63.3620681762695,-65.8540878295898,89.7769241333007,-102.321075439453,3752667947
iw,-64.814094543457,-63.6510124206543,85.8476409912109,-127.886451721191,3752684614
iw,-65.8796920776367,-61.0573081970214,63.1203727722168,-149.784896850585,3752701281
iw,-66.7920532226562,-58.0589981079101,53.0348320007324,-176.738861083984,3752717948
iw,-67.8282699584961,-55.2264366149902,59.256046295166,-170.708374023437,3752734615
iw,-69.0374221801757,-52.7131271362304,70.3671646118164,-153.027023315429,3752751282
iw,-70.258674621582,-50.5108413696289,71.6700668334961,-133.757949829101,3752767949
iw,-71.536880493164,-48.3039093017578,75.3846588134765,-133.305969238281,3752784616
iw,-72.9529495239257,-46.0223426818847,83.7113647460937,-138.018508911132,3752801283
iw,-74.4794769287109,-44.0389328002929,90.3582916259765,-120.385116577148,3752817950
iw,-76.1038513183593,-42.2952651977539,96.8264465332031,-107.48249053955,3752834617
iw,-77.7298126220703,-40.5486831665039,97.7638244628906,-112.593673706054,3752851284
iw,-79.3529739379882,-38.5823898315429,97.9941635131836,-132.635711669921,3752867951
iw,-80.9401550292968,-36.519302368164,95.7642288208007,-141.902130126953,3752884618
iw,-82.4372940063476,-34.6904678344726,91.0674591064453,-128.558197021484,3752901285
iw,-83.8931198120117,-33.4370689392089,90.3382034301757,-92.459243774414,3752917952
iw,-85.2863235473632,-32.6983032226562,90.4062423706054,-57.9883422851562,3752934619
iw,-86.5785751342773,-31.6570434570312,92.4628295898437,-71.4150695800781,3752951286
iw,-87.6086959838867,-30.3665294647216,98.5456619262695,-82.1013641357421,3752967953
iw,-87.7186126708984,-29.3950099945068,99.0160598754882,-62.568359375,3752984620
iw,-86.7697830200195,-28.688154220581,102.909255981445,-46.8071556091308,3753001287
iw,-85.2195510864257,-28.3109474182128,114.306884765625,-23.5724163055419,3753017954
iw,-83.4430999755859,-28.0626392364501,117.033050537109,-16.6067695617675,3753034621
iw,-81.7062530517578,-27.9113311767578,109.007926940917,-11.5727605819702,3753051288
iw,-80.203987121582,-27.7969093322753,91.3771514892578,-7.95629549026489,3753067955
iw,-79.0541152954101,-27.8293952941894,67.6411666870117,-0.0967010706663131,3753084622
iw,-78.1984100341796,-28.1590061187744,48.1308517456054,16.0773239135742,3753101289
iw,-77.516128540039,-28.6268157958984,37.3727188110351,23.9842700958251,3753117956
iw,-77.0342941284179,-29.1915874481201,24.9974536895751,28.1010074615478,3753134623
iw,-76.7697448730468,-30.1023387908935,11.1800451278686,45.0597686767578,3753151290
iw,-76.8575286865234,-31.2624797821044,-11.9537191390991,60.6716156005859,3753167957
iw,-77.5681076049804,-32.1735038757324,-53.2208023071289,48.19478225708,3753184624
iw,-78.5937118530273,-33.004653930664,-79.6535339355468,36.0432968139648,3753201291
iw,-79.6776657104492,-34.3598022460937,-97.7915878295898,56.2906684875488,3753217958
iw,-80.2786254882812,-34.9879760742187,-93.0348281860351,30.0971870422363,3753234625
iw,-80.3164749145507,-35.2910423278808,-69.5421676635742,28.3468551635742,3753251292
iw,-80.8695297241211,-36.2685775756835,-88.4999923706054,68.0263137817382,3753267959
iw,-81.9134979248046,-37.487003326416,-106.379577636718,76.5488815307617,3753284626
iw,-82.5180130004882,-38.4256362915039,-82.2005996704101,51.1746101379394,3753301293
iw,-82.4115753173828,-39.3725433349609,-69.0502166748046,50.2966270446777,3753317960
iw,-81.9802169799804,-40.2346572875976,-81.5632934570312,47.2948608398437,3753334627
iw,-81.5392608642578,-41.0974388122558,-85.9846496582031,48.2290077209472,3753351294
iw,-80.9258041381836,-42.0019493103027,-113.793975830078,50.0919151306152,3753367961
iw,-80.0137329101562,-42.9331436157226,-127.139533996582,52.0435333251953,3753384628
iw,-78.8653411865234,-43.9371948242187,-125.720039367675,57.5908584594726,3753401295
iw,-77.4908370971679,-45.0601844787597,-127.067993164062,65.7536315917968,3753417962
iw,-75.7437515258789,-46.239013671875,-137.983016967773,70.0098876953125,3753434629
iw,-73.6540451049804,-47.522403717041,-150.084030151367,76.7782821655273,3753451296
iw,-71.072639465332,-48.8792343139648,-176.232635498046,81.2020263671875,3753467963
iw,-68.6079330444336,-50.2343368530273,-163.304534912109,80.6645889282226,3753484630
iw,-66.6108856201171,-51.5900955200195,-130.570938110351,80.1211929321289,3753501297
iw,-65.2650909423828,-52.8723335266113,-84.2347946166992,75.354621887207,3753517964
iw,-63.4924201965332,-54.0824928283691,-110.701782226562,70.8665771484375,3753534631
iw,-62.0418891906738,-55.2319679260253,-93.283821105957,67.182502746582,3753551298
iw,-60.7509803771972,-56.320068359375,-82.6660995483398,63.534610748291,3753567965
iw,-59.9231491088867,-57.3966331481933,-53.8059616088867,62.9016571044921,3753584632
iw,-58.9422988891601,-58.4936866760253,-62.0929412841796,64.1538543701171,3753601299
iw,-58.3600311279296,-59.6798782348632,-37.7605285644531,69.4201202392578,3753617966
iw,-58.0795364379882,-60.938232421875,-19.0048351287841,73.5027313232421,3753634633
iw,-57.8814125061035,-62.2838401794433,-13.3240318298339,78.5227813720703,3753651300
iw,-57.7960586547851,-63.6954154968261,-6.45916604995727,82.2518081665039,3753667967
iw,-57.6776237487793,-64.9936370849609,-9.00647354125976,75.3009719848632,3753684634
iw,-57.5807075500488,-66.121711730957,-8.30355739593505,65.1054534912109,3753701301
iw,-57.4348411560058,-67.0578842163086,-12.3643035888671,53.9027862548828,3753717968
iw,-57.605125427246,-67.8736495971679,5.91086101531982,46.9852714538574,3753734635
iw,-58.523998260498,-68.5704574584961,51.6432189941406,39.8944053649902,3753751302
iw,-59.3799705505371,-69.1098251342773,47.3963508605957,30.3183250427246,3753767969
iw,-59.9735031127929,-69.4412155151367,31.7066841125488,17.6173248291015,3753784636
iw,-60.5654182434082,-69.4605102539062,30.910940170288,-1.78841018676757,3753801303
iw,-61.3466033935546,-69.059326171875,41.2109985351562,-27.8740310668945,3753817970
iw,-62.6132736206054,-68.1636734008789,70.6296920776367,-57.8406600952148,3753834637
iw,-64.1081085205078,-66.8022537231445,83.6401138305664,-84.6731033325195,3753851304
iw,-65.5720520019531,-65.3602981567382,83.2855377197265,-87.9568786621093,3753867971
iw,-66.8143539428711,-63.9344787597656,72.9753646850586,-84.9942092895507,3753884638
iw,-68.0565567016601,-62.0047874450683,73.3076782226562,-111.583190917968,3753901305
iw,-69.2565994262695,-59.4575080871582,69.8822708129882,-146.913452148437,3753917972
iw,-70.4844818115234,-56.4190025329589,71.3368682861328,-178.89060974121,3753934639
iw,-71.6713027954101,-53.4549522399902,69.8509750366211,-178.24446105957,3753951306
iw,-72.8255157470703,-50.9979209899902,68.0208129882812,-148.889526367187,3753967973
iw,-73.9946136474609,-49.0005645751953,69.2408142089843,-120.815650939941,3753984640
iw,-75.2038345336914,-47.080768585205,71.6608047485351,-115.883903503417,3754001307
iw,-76.5401611328125,-45.0790634155273,80.1811218261718,-120.91722869873,3754017974
iw,-77.910659790039,-43.1645202636718,84.4333343505859,-114.872009277343,3754034641
iw,-79.2880020141601,-41.4180603027343,86.7911911010742,-105.466171264648,3754051308
iw,-80.6720962524414,-39.8216552734375,88.9213104248046,-99.4799270629882,3754067975
iw,-81.9985733032226,-38.0867652893066,87.2014541625976,-112.801040649414,3754084642
iw,-83.3146438598632,-36.2339477539062,89.3464050292968,-125.1948928833,3754101309
iw,-84.4935607910156,-34.4383659362793,83.738655090332,-124.110313415527,3754117976
iw,-85.3948287963867,-33.072021484375,71.8607330322265,-96.6549758911132,3754134643
iw,-86.0754470825195,-32.0553588867187,63.5370559692382,-72.1976013183593,3754151310
iw,-86.5760116577148,-31.0029315948486,62.7814674377441,-72.2414855957031,3754167977
iw,-86.8184432983398,-30.1654968261718,69.0292892456054,-55.847110748291,3754184644
iw,-86.6155776977539,-29.5685997009277,79.8120498657226,-39.5939826965332,3754201311
iw,-85.911506652832,-29.0011882781982,82.1205673217773,-37.1669731140136,3754217978
iw,-84.8419723510742,-28.4822120666503,83.5183410644531,-35.639778137207,3754234645
iw,-83.5064163208007,-28.0968475341796,89.9823684692382,-28.3396091461181,3754251312
iw,-82.0084457397461,-27.9020290374755,96.4341354370117,-16.1945037841796,3754267979
iw,-80.6426849365234,-27.9526081085205,85.4421691894531,-3.01431202888488,3754284646
iw,-79.5014495849609,-28.1447582244873,68.9880142211914,3.12661528587341,3754301313
iw,-78.6030044555664,-28.5261325836181,52.9547653198242,13.4424152374267,3754317980
iw,-77.9923248291015,-29.0436515808105,34.5038299560546,21.4305953979492,3754334647
iw,-77.6051635742187,-29.7832927703857,19.0544528961181,34.1549415588378,3754351314
iw,-77.3872604370117,-30.6248817443847,6.66177225112915,42.6983337402343,3754367981
iw,-77.558837890625,-31.2224197387695,-18.4802818298339,28.5835781097412,3754384648
iw,-78.2416458129882,-32.0895805358886,-54.2015991210937,35.1660385131835,3754401315
iw,-79.0779647827148,-33.4052047729492,-72.268569946289,54.4595184326171,3754417982
iw,-79.6967620849609,-34.2685241699218,-72.0130615234375,40.9720191955566,3754434649
iw,-80.0078887939453,-34.9672164916992,-72.6140670776367,49.7615623474121,3754451316
iw,-80.1071166992187,-36.2209930419921,-78.3034439086914,83.3776626586914,3754467983
iw,-80.3351593017578,-37.4257049560546,-81.2441787719726,73.3242568969726,3754484650
iw,-81.0641860961914,-38.4462547302246,-104.596931457519,56.9765434265136,3754501317
iw,-81.7540740966796,-39.3319244384765,-99.6373443603515,46.3552932739257,3754517984
iw,-81.8005905151367,-40.2789039611816,-78.4278030395507,50.4551963806152,3754534651
iw,-81.2637634277343,-41.2235450744628,-68.7653732299804,51.7982139587402,3754551318
iw,-80.5914306640625,-42.1564750671386,-71.7586669921875,50.9028282165527,3754567985
iw,-79.9134216308593,-43.0706138610839,-100.104248046875,49.9017639160156,3754584652
iw,-78.8150939941406,-43.9948196411132,-141.212814331054,51.8685989379882,3754601319
iw,-77.3347930908203,-45.0364837646484,-151.227508544921,60.129783630371,3754617986
iw,-75.7697143554687,-46.2104873657226,-139.052520751953,68.9981994628906,3754634653
iw,-74.2852478027343,-47.4713096618652,-123.055473327636,75.1323318481445,3754651320
iw,-72.4999160766601,-48.7575187683105,-136.273712158203,77.3915481567382,3754667987
iw,-70.4092712402343,-50.0032081604003,-151.370895385742,74.9573974609375,3754684654
iw,-68.1439666748046,-51.1608352661132,-156.984603881835,69.0699920654296,3754701321
iw,-66.3922424316406,-52.2013702392578,-119.639701843261,61.2391967773437,3754717988
iw,-64.9717254638671,-53.1244163513183,-93.7059555053711,53.643569946289,3754734655
iw,-63.2072830200195,-53.9875869750976,-112.047744750976,49.8078536987304,3754751322
iw,-61.6849746704101,-54.86083984375,-99.7504959106445,50.4724502563476,3754767989
iw,-60.388385772705,-55.8281898498535,-84.7069625854492,56.3271141052246,3754784656
iw,-58.9360160827636,-56.886905670166,-92.9807968139648,61.9375839233398,3754801323
iw,-57.6903457641601,-57.998306274414,-80.8731079101562,65.0186233520507,3754817990
iw,-56.622314453125,-59.2401657104492,-69.4702911376953,72.7611618041992,3754834657
iw,-55.7078132629394,-60.6777763366699,-58.8613128662109,84.4398117065429,3754851324
iw,-55.0863761901855,-62.2526550292968,-40.2888565063476,92.5060348510742,3754867991
iw,-54.8497505187988,-63.7928733825683,-16.6134490966796,90.3981552124023,3754884658
iw,-54.845905303955,-65.1863403320312,-2.32565999031066,81.6892547607421,3754901325
iw,-54.9956588745117,-66.3474349975586,7.04566526412963,68.0101776123046,3754917992
iw,-55.2138366699218,-67.3307342529296,10.9683275222778,57.6212463378906,3754934659
iw,-55.3803749084472,-68.2321624755859,7.04994249343872,52.9040985107421,3754951326
iw,-55.5306587219238,-69.1615982055664,5.10701751708984,54.0586738586425,3754967993
iw,-55.8707733154296,-70.0684967041015,15.9942779541015,51.6000671386718,3754984660
iw,-56.7056427001953,-70.9197082519531,46.3344230651855,47.6695289611816,3755001327
iw,-57.4705047607421,-71.6364593505859,41.8526153564453,39.6558876037597,3755017994
iw,-57.8353233337402,-72.0453720092773,17.8195781707763,21.8952407836914,3755034661
iw,-58.3606147766113,-72.0241088867187,26.1801452636718,-3.2131552696228,3755051328
iw,-59.2118949890136,-71.2547454833984,44.6196479797363,-47.7600975036621,3755067995
iw,-60.5744018554687,-69.6648788452148,75.7607803344726,-96.9528427124023,3755084662
iw,-62.0425567626953,-67.7162780761718,83.7478256225586,-118.516731262207,3755101329
iw,-63.825080871582,-65.7542419433593,105.413246154785,-118.187789916992,3755117996
iw,-65.1884536743164,-63.5719604492187,81.1517105102539,-127.1328125,3755134663
iw,-66.2979583740234,-60.9119834899902,64.8471298217773,-152.176437377929,3755151330
iw,-67.5744857788086,-57.72456741333,74.1097259521484,-184.089370727539,3755167997
iw,-68.9848861694336,-54.3650856018066,82.2984085083007,-199.706802368164,3755184664
iw,-70.4320678710937,-51.632827758789,85.3017044067382,-165.364974975585,3755201331
iw,-71.9026107788086,-49.2407760620117,86.5397567749023,-144.731521606445,3755217998
iw,-73.3966293334961,-47.0385627746582,87.6566696166992,-131.742858886718,3755234665
iw,-75.0456924438476,-44.7394256591796,97.6146545410156,-136.168640136718,3755251332
iw,-76.8319015502929,-42.4261322021484,107.348052978515,-136.538345336914,3755267999
iw,-78.5982513427734,-40.2766456604003,107.800392150878,-129.060989379882,3755284666
iw,-80.327651977539,-38.4349517822265,107.578788757324,-114.869491577148,3755301333
iw,-82.0361251831054,-36.6929893493652,108.396537780761,-114.213005065917,3755318000
iw,-83.6902465820312,-34.9140090942382,108.300582885742,-121.522315979003,3755334667
iw,-85.2035598754882,-33.1369857788085,106.963577270507,-125.706024169921,3755351334
iw,-86.3469848632812,-31.964988708496,100.778343200683,-92.1995697021484,3755368001
iw,-86.8658752441406,-31.3279361724853,87.7045440673828,-57.5371742248535,3755384668
iw,-86.8457641601562,-30.4138355255126,74.1300582885742,-66.3607330322265,3755401335
iw,-86.5962524414062,-29.8125133514404,61.1980781555175,-41.8415565490722,3755418002
iw,-86.2086334228515,-29.3970108032226,57.912498474121,-28.7279567718505,3755434669
iw,-85.5977172851562,-28.530590057373,61.4448471069335,-51.4668045043945,3755451336
iw,-84.633560180664,-27.9013729095459,72.8233032226562,-36.3791275024414,3755468003
iw,-83.3358535766601,-27.5097103118896,85.7640762329101,-22.9835224151611,3755484670
iw,-82.0328674316406,-27.2872257232666,81.5833129882812,-15.1072673797607,3755501337
iw,-81.0394973754882,-27.2593059539794,59.7712593078613,-6.88865900039672,3755518004
iw,-80.2963562011718,-27.5752506256103,42.7215461730957,10.723650932312,3755534671
iw,-79.7763671875,-28.3316650390625,28.05246925354,35.5528450012207,3755551338
iw,-79.599983215332,-29.3591041564941,5.18277025222778,50.262767791748,3755568005
iw,-79.7046356201171,-30.2147693634033,-16.3092403411865,39.6146850585937,3755584672
iw,-80.1669692993164,-30.9015655517578,-45.6093597412109,29.6013603210449,3755601339
iw,-80.8584899902343,-32.1328353881835,-71.7158432006836,49.4822654724121,3755618006
iw,-81.52099609375,-33.3673400878906,-91.2412643432617,47.0072746276855,3755634673
iw,-81.4267272949218,-33.7844924926757,-74.8153305053711,18.8906574249267,3755651340
iw,-80.6973037719726,-34.2165451049804,-52.152416229248,34.5466995239257,3755668007
iw,-80.322769165039,-35.4900588989257,-55.7303771972656,83.5439300537109,3755684674
iw,-80.8974838256836,-36.8471908569335,-96.3260726928711,82.3494110107421,3755701341
iw,-81.6159286499023,-38.0085983276367,-103.989082336425,66.2527160644531,3755718008
iw,-81.6266098022461,-38.7940788269043,-75.3123703002929,41.4156074523925,3755734675
iw,-81.0667114257812,-39.5421676635742,-55.2486152648925,39.022159576416,3755751342
iw,-80.3641052246093,-40.4044036865234,-62.5154457092285,46.2307662963867,3755768009
iw,-79.6292343139648,-41.386604309082,-92.4095230102539,53.073486328125,3755784676
iw,-78.4509735107421,-42.4406585693359,-143.924011230468,57.4394035339355,3755801343
iw,-76.7536849975586,-43.4948501586914,-168.140014648437,58.6013793945312,3755818010
iw,-74.9727020263671,-44.6888198852539,-153.849258422851,68.6634063720703,3755834677
iw,-73.3522186279296,-46.0106773376464,-131.156600952148,77.8942413330078,3755851344
iw,-71.6129913330078,-47.502140045166,-131.97412109375,89.2717819213867,3755868011
iw,-69.1920394897461,-49.0963859558105,-174.009185791015,96.1266937255859,3755884678
iw,-66.9776077270507,-50.6544952392578,-154.063354492187,94.0285873413086,3755901345
iw,-65.1571197509765,-52.0402030944824,-120.04889678955,83.3933639526367,3755918012
iw,-63.580768585205,-53.1893730163574,-98.2366256713867,68.4135818481445,3755934679
iw,-62.5701484680175,-54.1483116149902,-56.2658920288085,55.9641876220703,3755951346
iw,-60.7737998962402,-55.0648193359375,-106.89077758789,52.8867530822753,3755968013
iw,-59.3449745178222,-56.0574340820312,-90.3046646118164,57.4569396972656,3755984680
iw,-58.3099060058593,-57.1988487243652,-68.9432907104492,66.5728759765625,3756001347
iw,-57.112979888916,-58.5264854431152,-78.5867385864257,77.9094848632812,3756018014
iw,-56.0621452331543,-59.9658851623535,-67.6241760253906,84.6343536376953,3756034681
iw,-55.3937797546386,-61.4122467041015,-42.2695770263671,84.9761505126953,3756051348
iw,-55.422622680664,-62.857795715332,1.40217900276184,84.88671875,3756068015
iw,-55.6409645080566,-64.2506027221679,12.6225214004516,81.7471313476562,3756084682
iw,-55.8862800598144,-65.5064392089843,13.7457981109619,73.5804672241211,3756101349
iw,-56.0804786682128,-66.4177322387695,10.2783374786376,53.3387298583984,3756118016
iw,-56.5626907348632,-67.1028747558593,26.4558544158935,40.0282096862793,3756134683
iw,-57.4719772338867,-67.7055206298828,51.5763511657714,34.5025215148925,3756151350
iw,-58.8909721374511,-68.2436828613281,82.7201614379882,29.8068599700927,3756168017
iw,-59.861213684082,-68.6841506958007,58.2802848815918,23.3277549743652,3756184684
iw,-60.2862014770507,-68.9127120971679,26.9863815307617,10.3039484024047,3756201351
iw,-60.6502723693847,-68.7725982666015,15.3466787338256,-11.3541183471679,3756218018
iw,-61.5139427185058,-67.9600677490234,39.4056510925293,-50.7423210144043,3756234685
iw,-62.8907966613769,-66.5197677612304,74.7068634033203,-87.4240951538086,3756251352
iw,-64.9496307373046,-64.8634719848632,120.293098449707,-99.2707443237304,3756268019
iw,-66.7671203613281,-63.1545257568359,108.002906799316,-98.4900741577148,3756284686
iw,-67.9737854003906,-61.1014404296875,72.7255477905273,-115.11050415039,3756301353
iw,-69.0462036132812,-58.5040397644043,63.3258895874023,-147.74543762207,3756318020
iw,-70.2828826904296,-55.4665031433105,71.8405151367187,-180.04539489746,3756334687
iw,-71.5836944580078,-52.7421569824218,76.6651611328125,-166.022140502929,3756351354
iw,-72.8433456420898,-50.5647392272949,74.7152328491211,-133.091857910156,3756368021
iw,-74.0438156127929,-48.8139762878418,70.4160842895507,-105.275177001953,3756384688
iw,-75.3888626098632,-47.1182861328125,79.8604431152343,-100.131515502929,3756401355
iw,-76.9360580444336,-45.391990661621,94.6048965454101,-100.886253356933,3756418022
iw,-78.5536956787109,-43.6666412353515,102.911247253417,-101.301147460937,3756434689
iw,-80.1692886352539,-42.1404991149902,108.990936279296,-91.8995132446289,3756451356
iw,-81.7514495849609,-40.8959655761718,112.334022521972,-79.5263061523437,3756468023
iw,-83.1695327758789,-39.5380058288574,103.828964233398,-92.9873886108398,3756484690
iw,-84.3586807250976,-37.7632751464843,90.022964477539,-123.553085327148,3756501357
iw,-85.2521209716796,-35.9114570617675,72.2181854248046,-131.098663330078,3756518024
iw,-85.8330841064453,-34.475471496582,58.0883979797363,-105.037879943847,3756534691
iw,-86.1202087402343,-33.4996719360351,52.0986976623535,-74.6389465332031,3756551358
iw,-86.1804885864257,-32.3143806457519,52.6331710815429,-83.2004852294921,3756568025
iw,-86.0814361572265,-30.9199562072753,54.1607704162597,-90.4937591552734,3756584692
iw,-85.786392211914,-29.9367713928222,61.4138298034668,-62.2438774108886,3756601359
iw,-85.2097702026367,-29.2447319030761,70.2010650634765,-42.4533996582031,3756618026
iw,-84.4078140258789,-28.6499214172363,71.1479263305664,-34.4180717468261,3756634693
iw,-83.3743362426757,-28.269323348999,77.5810546875,-22.5653228759765,3756651360
iw,-82.0655059814453,-27.8705310821533,90.3189544677734,-22.4590740203857,3756668027
iw,-80.7095718383789,-27.525291442871,87.6278991699218,-20.6248798370361,3756684694
iw,-79.4495239257812,-27.3070201873779,77.2984161376953,-14.921591758728,3756701361
iw,-78.3383865356445,-27.2573146820068,66.7330627441406,-7.04009866714477,3756718028
iw,-77.4388809204101,-27.3283309936523,53.5466423034668,-2.29930925369262,3756734695
iw,-76.7146606445312,-27.5687274932861,42.2782440185546,7.05248212814331,3756751362
iw,-76.1487731933593,-28.1336135864257,32.0059051513671,25.7924747467041,3756768029
iw,-75.7560043334961,-29.0681686401367,19.7351303100585,45.8288497924804,3756784696
iw,-75.6259078979492,-30.0640068054199,0.827143967151641,48.859764099121,3756801363
iw,-76.0077819824218,-30.8732414245605,-32.4339790344238,34.8702011108398,3756818030
iw,-76.7897109985351,-32.3019104003906,-61.4995918273925,58.0385360717773,3756834697
iw,-77.5543823242187,-33.4930152893066,-69.8087387084961,46.9113578796386,3756851364
iw,-78.2680435180664,-33.9873924255371,-82.4127120971679,30.1892490386962,3756868031
iw,-78.6198348999023,-34.9163017272949,-80.2825469970703,66.8615417480468,3756884698
iw,-78.9728851318359,-36.4022102355957,-78.3080978393554,97.6828918457031,3756901365
iw,-79.993667602539,-37.7881164550781,-102.026016235351,82.8384933471679,3756918032
iw,-81.283706665039,-38.8945770263671,-109.969779968261,60.8360366821289,3756934699
iw,-81.9394912719726,-39.9648056030273,-83.2262115478515,57.4056015014648,3756951366
iw,-81.8257675170898,-41.0719757080078,-79.0462265014648,61.004783630371,3756968033
iw,-81.3348312377929,-42.21919631958,-71.5311050415039,64.229866027832,3756984700
iw,-80.9144439697265,-43.3325958251953,-82.288345336914,61.7560310363769,3757001367
iw,-80.2508316040039,-44.4144172668457,-132.697830200195,60.3668365478515,3757018034
iw,-79.1578826904296,-45.5469284057617,-150.055603027343,64.7639465332031,3757034701
iw,-77.7626190185546,-46.8040733337402,-147.925399780273,73.5360565185546,3757051368
iw,-76.1942825317382,-48.1096153259277,-143.389694213867,77.4459686279296,3757068035
iw,-74.4678039550781,-49.4367218017578,-141.319091796875,79.3365402221679,3757084702
iw,-72.4471206665039,-50.7361373901367,-150.425949096679,77.6370086669921,3757101369
iw,-70.0983581542968,-52.0088996887207,-161.777023315429,75.6108856201171,3757118036
iw,-67.8838577270507,-53.2176055908203,-147.052597045898,71.2513885498046,3757134703
iw,-65.8021163940429,-54.4310798645019,-136.105392456054,71.2056884765625,3757151370
iw,-63.8103599548339,-55.6971130371093,-128.732009887695,74.2223510742187,3757168037
iw,-62.0336074829101,-56.9910430908203,-111.435806274414,75.8484420776367,3757184704
iw,-60.4221420288085,-58.3157997131347,-103.242439270019,77.7145538330078,3757201371
iw,-59.358154296875,-59.6406784057617,-69.7771072387695,77.7502517700195,3757218038
iw,-58.0566368103027,-60.8953590393066,-84.5690689086914,73.4957885742187,3757234705
iw,-56.7557220458984,-62.169692993164,-83.3874893188476,74.6032562255859,3757251372
iw,-55.7891082763671,-63.4616241455078,-60.6896209716796,75.4808959960937,3757268039
iw,-55.4326133728027,-64.7913360595703,-22.8842620849609,77.520263671875,3757284706
iw,-55.4022712707519,-66.0528030395507,-3.42372345924377,73.1639938354492,3757301373
iw,-55.5551834106445,-67.2338714599609,7.485933303833,68.0537414550781,3757318040
iw,-55.6979942321777,-68.2930068969726,6.77927064895629,60.408031463623,3757334707
iw,-55.8537445068359,-69.2399368286132,7.31991624832153,54.0443725585937,3757351374
iw,-56.0529174804687,-70.1075592041015,9.4372329711914,49.7194328308105,3757368041
iw,-56.3896522521972,-70.9236297607421,16.9609565734863,46.3751258850097,3757384708
iw,-57.4023361206054,-71.6106872558593,57.9526672363281,38.2462272644043,3757401375
iw,-58.5944023132324,-72.0837020874023,69.427490234375,25.170949935913,3757418042
iw,-59.2368392944335,-72.231216430664,37.1087112426757,5.70215892791748,3757434709
iw,-59.9837379455566,-71.8744125366211,41.8107261657714,-23.9710502624511,3757451376
iw,-60.8989372253418,-70.8263931274414,48.4930877685546,-64.871337890625,3757468043
iw,-62.2257843017578,-69.214859008789,71.2853851318359,-98.3223266601562,3757484710
iw,-64.0106201171875,-67.420539855957,101.086387634277,-108.975540161132,3757501377
iw,-66.1292495727539,-65.6404342651367,125.744232177734,-106.423728942871,3757518044
iw,-67.6507186889648,-63.5492897033691,91.8312759399414,-121.931900024414,3757534711
iw,-68.9498519897461,-61.0647735595703,77.0726547241211,-142.960693359375,3757551378
iw,-70.2734146118164,-58.0761985778808,77.4033432006836,-173.942031860351,3757568045
iw,-71.6091384887695,-55.1363525390625,79.3350296020507,-175.026550292968,3757584712
iw,-72.8631439208984,-52.5536003112793,75.6534881591796,-155.390090942382,3757601379
iw,-74.0610961914062,-50.3211326599121,71.7764663696289,-134.002151489257,3757618046
iw,-75.3146362304687,-48.1797409057617,74.2225570678711,-127.851608276367,3757634713
iw,-76.5876159667968,-45.9359817504882,74.9084167480468,-134.311080932617,3757651380
iw,-77.8676834106445,-43.789924621582,77.0928344726562,-128.96401977539,3757668047
iw,-79.1324081420898,-42.0863800048828,79.3381195068359,-102.809326171875,3757684714
iw,-80.3708343505859,-40.829002380371,80.8040313720703,-79.8730163574218,3757701381
iw,-81.6298065185546,-39.2138404846191,83.8310623168945,-108.678756713867,3757718048
iw,-82.8709869384765,-37.156135559082,82.8891067504882,-142.124282836914,3757734715
iw,-83.9909744262695,-35.3101234436035,76.7632217407226,-131.714889526367,3757751382
iw,-84.954345703125,-33.9040565490722,71.8399124145507,-102.85986328125,3757768049
iw,-85.7390594482421,-32.6685600280761,67.5805435180664,-89.3691711425781,3757784716
iw,-86.3355331420898,-31.3129272460937,69.4604721069336,-91.241340637207,3757801383
iw,-86.6269378662109,-30.1741065979003,70.6298904418945,-74.6144027709961,3757818050
iw,-86.4957504272461,-29.5591049194335,77.5092010498046,-39.6894836425781,3757834717
iw,-85.9033737182617,-29.2541618347167,83.8651428222656,-18.4657096862792,3757851384
iw,-84.9103012084961,-29.1602115631103,87.7773742675781,-4.60045862197876,3757868051
iw,-83.6455993652343,-29.0977306365966,91.7731246948242,-5.05548238754272,3757884718
iw,-82.2092590332031,-28.7842922210693,94.6725234985351,-21.1285724639892,3757901385
iw,-80.8581085205078,-28.5328521728515,84.8706283569336,-18.2742691040039,3757918052
iw,-79.7809295654296,-28.4403057098388,65.3776092529296,-9.42458724975586,3757934719
iw,-78.918960571289,-28.46480178833,51.148582458496,-3.02189135551452,3757951386
iw,-78.252197265625,-28.724754333496,38.9286499023437,10.0839595794677,3757968053
iw,-77.7856369018554,-29.3289546966552,26.4380702972412,28.0599555969238,3757984720
iw,-77.4442825317382,-30.1289482116699,17.4118213653564,36.9357376098632,3758001387
iw,-77.265754699707,-30.7828369140625,4.93666887283325,27.8412399291992,3758018054
iw,-77.4966964721679,-31.4296894073486,-21.862470626831,25.0040626525878,3758034721
iw,-78.1980056762695,-32.6145668029785,-56.2638244628906,45.6364021301269,3758051388
iw,-79.0965805053711,-33.8910865783691,-77.9684677124023,47.8210105895996,3758068055
iw,-79.9542160034179,-34.223331451416,-92.3203811645507,13.6223287582397,3758084722
iw,-80.4207382202148,-34.9117393493652,-92.7612915039062,47.5083503723144,3758101389
iw,-80.3764114379882,-36.4679718017578,-84.7527542114257,98.6869201660156,3758118056
iw,-80.3550872802734,-37.8637542724609,-87.9821548461914,84.3612213134765,3758134723
iw,-80.9524841308593,-38.9791793823242,-106.477172851562,62.9483985900878,3758151390
iw,-81.9440002441406,-39.9024963378906,-109.18994140625,48.3918342590332,3758168057
iw,-82.2217636108398,-40.9476623535156,-95.9136123657226,55.2548065185546,3758184724
iw,-81.6700592041015,-42.1100120544433,-65.2498931884765,62.7692222595214,3758201391
iw,-80.6972274780273,-43.3664436340332,-76.9949493408203,68.2192230224609,3758218058
iw,-79.4351348876953,-44.6189537048339,-115.025382995605,68.7907257080078,3758234725
iw,-77.5795593261718,-45.8966560363769,-170.72850036621,71.9609375,3758251392
iw,-75.1968612670898,-47.2613296508789,-199.686553955078,79.0152206420898,3758268059
iw,-72.7112350463867,-48.7589378356933,-191.008499145507,88.3839035034179,3758284726
iw,-70.2981948852539,-50.1775588989257,-175.647430419921,84.456916809082,3758301393
iw,-67.659927368164,-51.4915161132812,-182.222290039062,78.2315979003906,3758318060
iw,-65.3177795410156,-52.778881072998,-160.4873046875,76.2910385131836,3758334727
iw,-63.1634712219238,-54.088882446289,-145.343338012695,77.3331680297851,3758351394
iw,-61.3971786499023,-55.3833312988281,-114.3579788208,76.0083847045898,3758368061
iw,-59.7026786804199,-56.6632766723632,-101.472114562988,74.8066940307617,3758384728
iw,-58.3141555786132,-57.9428024291992,-86.8175811767578,74.7745056152343,3758401395
iw,-57.9227828979492,-59.2457427978515,-26.5490760803222,76.3449630737304,3758418062
iw,-57.5470886230468,-60.6510772705078,-27.2203502655029,82.5641784667968,3758434729
iw,-56.6129989624023,-62.1285552978515,-61.00777053833,86.8250045776367,3758451396
iw,-56.0012550354003,-63.6502342224121,-39.5986862182617,89.1815490722656,3758468063
iw,-56.2012176513671,-65.1590576171875,10.9169864654541,88.0243072509765,3758484730
iw,-56.4454383850097,-66.5238952636718,13.5333194732666,79.0827026367187,3758501397
iw,-57.0046157836914,-67.6563720703125,31.9219646453857,64.9585800170898,3758518064
iw,-57.3680038452148,-68.597541809082,19.189748764038,53.616600036621,3758534731
iw,-57.4786109924316,-69.3823547363281,3.20255017280578,44.63818359375,3758551398
iw,-58.0973434448242,-70.115852355957,34.0394172668457,41.8046646118164,3758568065
iw,-58.6244926452636,-70.6859893798828,29.5952415466308,32.0015487670898,3758584732
iw,-58.8921508789062,-70.893928527832,11.8558454513549,10.3025512695312,3758601399
iw,-59.4806671142578,-70.6669692993164,28.2191371917724,-16.0392627716064,3758618066
iw,-60.7144050598144,-69.8769378662109,72.6789474487304,-49.9372673034668,3758634733
iw,-62.1101875305175,-68.3295669555664,83.9411468505859,-94.6474304199218,3758651400
iw,-63.9770927429199,-66.5288696289062,108.766204833984,-108.892784118652,3758668067
iw,-65.6518096923828,-64.8535385131836,97.5530776977539,-99.4320220947265,3758684734
iw,-67.0787506103515,-62.9316749572753,84.8268127441406,-109.212577819824,3758701401
iw,-68.5337753295898,-60.4211463928222,86.3018798828125,-140.719360351562,3758718068
iw,-70.0067596435546,-57.4866638183593,87.6998519897461,-167.826950073242,3758734735
iw,-71.5578308105468,-54.570556640625,92.9391174316406,-173.48616027832,3758751402
iw,-73.0400009155273,-52.1328048706054,88.5672607421875,-147.859924316406,3758768069
iw,-74.3965377807617,-50.1383171081543,80.2876281738281,-120.440208435058,3758784736
iw,-75.7194900512695,-48.1934738159179,79.1189193725586,-115.718612670898,3758801403
iw,-77.0342712402343,-46.180923461914,79.6037292480468,-118.601219177246,3758818070
iw,-78.3071670532226,-44.2488822937011,79.8765869140625,-113.956909179687,3758834737
iw,-79.5233612060546,-42.7326316833496,79.8327255249023,-92.246353149414,3758851404
iw,-80.6567077636718,-41.5963897705078,76.650634765625,-74.9620285034179,3758868071
iw,-81.6499557495117,-40.1176528930664,69.0259704589843,-101.511528015136,3758884738
iw,-82.5302429199218,-38.2822227478027,61.7938957214355,-124.777626037597,3758901405
iw,-83.3703155517578,-36.3504066467285,62.6421432495117,-132.548889160156,3758918072
iw,-84.1650772094726,-34.3915824890136,67.4177856445312,-136.04116821289,3758934739
iw,-84.8717269897461,-33.0173645019531,71.8794708251953,-101.660408020019,3758951406
iw,-85.4500350952148,-32.4602890014648,80.3475036621093,-51.0512924194335,3758968073
iw,-85.6962509155273,-31.7835750579834,84.4995346069336,-54.2939758300781,3758984740
iw,-85.5113143920898,-30.7751998901367,87.3860168457031,-67.5868453979492,3759001407
iw,-84.897232055664,-30.1480617523193,88.1666259765625,-39.9424247741699,3759018074
iw,-83.9826278686523,-29.629337310791,87.1721420288086,-32.131420135498,3759034741
iw,-82.9576110839843,-29.1212081909179,83.0458679199218,-30.757640838623,3759051408
iw,-81.8734664916992,-28.7684230804443,79.2447662353515,-20.9750499725341,3759068075
iw,-80.7111587524414,-28.4463119506835,78.4853439331054,-19.686466217041,3759084742
iw,-79.4956588745117,-28.2485523223876,77.874771118164,-14.8111181259155,3759101409
iw,-78.3387222290039,-28.1340789794921,71.7574996948242,-12.4659442901611,3759118076
iw,-77.3171310424804,-28.1997776031494,61.8269882202148,-3.1919310092926,3759134743
iw,-76.4219818115234,-28.3531169891357,52.0588989257812,1.49665439128875,3759151410
iw,-75.6459884643554,-28.6742820739746,43.5685424804687,10.7914457321167,3759168077
iw,-75.0698852539062,-29.3019943237304,30.8476848602294,28.183738708496,3759184744
iw,-74.7262725830078,-30.0787506103515,13.5534505844116,37.114028930664,3759201411
iw,-74.7826385498046,-30.7948303222656,-13.5091886520385,31.9348812103271,3759218078
iw,-75.1991271972656,-31.919578552246,-40.3704376220703,44.2100410461425,3759234745
iw,-75.7251586914062,-33.1671142578125,-55.6747703552246,44.8507194519043,3759251412
iw,-76.143798828125,-33.7143898010253,-62.6407051086425,19.0079250335693,3759268079
iw,-76.3337478637695,-34.4077720642089,-59.9275550842285,43.9481964111328,3759284746
iw,-76.8304977416992,-35.7952423095703,-80.1456604003906,88.4345550537109,3759301413
iw,-77.8232345581054,-37.1886672973632,-101.281265258789,85.8689651489257,3759318080
iw,-79.0803451538086,-38.3456764221191,-111.90729522705,65.5748825073242,3759334747
iw,-79.9312362670898,-39.4506454467773,-83.447151184082,58.8141860961914,3759351414
iw,-80.2386627197265,-40.6514358520507,-66.5392456054687,64.832763671875,3759368081
iw,-80.2081298828125,-41.8793067932128,-64.0020370483398,68.2460021972656,3759384748
iw,-80.233772277832,-43.0587348937988,-88.0266647338867,66.1335525512695,3759401415
iw,-80.196548461914,-44.2396697998046,-127.779876708984,67.6078872680664,3759418082
iw,-79.6146392822265,-45.4770240783691,-142.813064575195,72.6554260253906,3759434749
iw,-78.6187438964843,-46.8331451416015,-144.529190063476,80.2887802124023,3759451416
iw,-77.4974822998046,-48.273136138916,-140.144699096679,85.4548187255859,3759468083
iw,-76.2234878540039,-49.6347503662109,-144.892120361328,80.5853881835937,3759484750
iw,-74.7126541137695,-50.94868850708,-146.01904296875,77.4546432495117,3759501417
iw,-72.9879608154296,-52.1862716674804,-142.749145507812,72.6447296142578,3759518084
iw,-71.1028442382812,-53.3554306030273,-135.910812377929,68.4491195678711,3759534751
iw,-68.984992980957,-54.4955940246582,-138.731231689453,66.6530151367187,3759551418
iw,-66.9250335693359,-55.6716690063476,-132.785324096679,68.7852096557617,3759568085
iw,-64.8284530639648,-56.8575630187988,-134.499588012695,69.3580093383789,3759584752
iw,-62.9053535461425,-58.0680770874023,-125.790214538574,70.8251037597656,3759601419
iw,-61.1339454650878,-59.3285522460937,-117.076072692871,73.8017044067382,3759618086
iw,-59.7298698425293,-60.6006431579589,-93.1109466552734,74.2868499755859,3759634753
iw,-58.3419075012207,-61.8372955322265,-88.9054336547851,71.7600479125976,3759651420
iw,-57.399974822998,-63.0558891296386,-59.1168327331543,70.3447952270507,3759668087
iw,-56.978832244873,-64.2344589233398,-26.5901622772216,67.8726654052734,3759684754
iw,-56.7163314819335,-65.3579864501953,-17.5052089691162,64.5379486083984,3759701421
iw,-56.6296577453613,-66.4033889770507,-7.42248725891113,59.6672210693359,3759718088
iw,-56.5792922973632,-67.3976745605468,-5.37441873550415,56.3729400634765,3759734755
iw,-56.718090057373,-68.3385391235351,5.6258897781372,53.5587120056152,3759751422
iw,-57.1938743591308,-69.1786575317382,25.1367263793945,48.3377647399902,3759768089
iw,-57.8795280456543,-69.9081039428711,36.6976203918457,42.04341506958,3759784756
iw,-58.9440879821777,-70.5399017333984,58.5652122497558,35.5403060913085,3759801423
iw,-60.0480613708496,-70.9592056274414,62.2963790893554,21.6807117462158,3759818090
iw,-60.4043006896972,-71.0033721923828,18.6656112670898,-1.19558978080749,3759834757
iw,-60.6384048461914,-70.4580078125,6.0161919593811,-36.0448913574218,3759851424
iw,-61.301830291748,-69.0342025756836,28.8708591461181,-88.2042617797851,3759868091
iw,-62.4125137329101,-66.9532623291015,59.8955841064453,-126.909614562988,3759884758
iw,-63.9835243225097,-64.8611831665039,91.659912109375,-126.521781921386,3759901425
iw,-65.8412628173828,-62.7395248413085,110.464958190917,-124.720428466796,3759918092
iw,-67.0526885986328,-60.3670578002929,72.144546508789,-135.544403076171,3759934759
iw,-68.0152359008789,-57.6047286987304,55.9037361145019,-156.718521118164,3759951426
iw,-69.306282043457,-54.4907341003418,74.3683624267578,-182.23176574707,3759968093
iw,-70.7330474853515,-51.6617279052734,83.6120986938476,-170.62890625,3759984760
iw,-72.1884460449218,-49.0943717956543,87.3266830444336,-156.462905883789,3760001427
iw,-73.634033203125,-46.801959991455,86.6745452880859,-138.788665771484,3760018094
iw,-75.1225051879882,-44.5741004943847,88.8129043579101,-134.502456665039,3760034761
iw,-76.8067245483398,-42.2253952026367,100.934524536132,-141.722305297851,3760051428
iw,-78.5622406005859,-39.9836196899414,106.945274353027,-135.7724609375,3760068095
iw,-80.2663955688476,-38.1367645263671,107.323028564453,-114.477134704589,3760084762
iw,-81.9059524536132,-36.7074470520019,107.233970642089,-93.95556640625,3760101429
iw,-83.4439620971679,-35.2426071166992,102.597076416015,-102.843284606933,3760118096
iw,-84.8414001464843,-33.7478790283203,96.5348052978515,-111.109725952148,3760134763
iw,-86.048095703125,-32.5919876098632,92.1230316162109,-90.0539779663086,3760151430
iw,-86.815803527832,-31.5630893707275,73.0196380615234,-75.7725067138671,3760168097
iw,-87.1856155395507,-30.5978775024414,64.410415649414,-65.138916015625,3760184764
iw,-87.1465225219726,-29.9184246063232,70.0107192993164,-48.1035423278808,3760201431
iw,-86.6586532592773,-29.3018913269042,70.3181228637695,-41.8464927673339,3760218098
iw,-85.8618011474609,-28.9719715118408,71.4927291870117,-23.9544315338134,3760234765
iw,-84.825439453125,-28.7027168273925,77.3994979858398,-19.695119857788,3760251432
iw,-83.5626983642578,-28.6825218200683,84.6161727905273,-3.73497724533081,3760268099
iw,-82.2979583740234,-28.6997013092041,78.8054504394531,-1.81462395191192,3760284766
iw,-81.0952606201171,-28.7767524719238,71.4274368286132,0.838143944740295,3760301433
iw,-79.999755859375,-28.9808826446533,63.7199974060058,6.4472689628601,3760318100
iw,-79.1188507080078,-29.302188873291,50.4273986816406,11.0795345306396,3760334767
iw,-78.4966430664062,-29.7921962738037,34.124641418457,20.0433807373046,3760351434
iw,-78.0994186401367,-30.6087036132812,20.1144294738769,37.9395790100097,3760368101
iw,-77.8907165527343,-31.6073703765869,8.07501316070556,48.172191619873,3760384768
iw,-77.9344177246093,-32.3647003173828,-7.99191379547119,36.5996170043945,3760401435
iw,-78.442756652832,-32.970775604248,-38.1582679748535,25.6178226470947,3760418102
iw,-79.2240600585937,-34.1511726379394,-61.2046699523925,44.3048095703125,3760434769
iw,-79.8885879516601,-35.1849174499511,-65.3982391357421,32.0216979980468,3760451436
iw,-80.2089920043945,-35.511001586914,-60.6112899780273,18.3740768432617,3760468103
iw,-80.2190780639648,-36.0817565917968,-55.4747352600097,47.498779296875,3760484770
iw,-80.2992324829101,-37.4051361083984,-64.3259124755859,88.3008346557617,3760501437
iw,-80.7735443115234,-38.5639877319335,-80.9620819091796,68.9222412109375,3760518104
iw,-81.5553588867187,-39.3879814147949,-99.7943572998046,42.2600975036621,3760534771
iw,-82.0102844238281,-40.1740036010742,-87.7605667114257,37.9411277770996,3760551438
iw,-81.7881927490234,-41.1273231506347,-74.2351455688476,50.1101264953613,3760568105
iw,-81.1865081787109,-42.1008567810058,-60.2040252685546,52.7637977600097,3760584772
iw,-80.5872955322265,-43.1459197998046,-70.7517929077148,56.9970397949218,3760601439
iw,-79.9159393310546,-44.1509170532226,-109.671409606933,55.4251823425293,3760618106
iw,-78.7830047607421,-45.204849243164,-143.249603271484,59.736328125,3760634773
iw,-77.3558349609375,-46.3935546875,-146.157012939453,69.0610885620117,3760651440
iw,-75.9136428833007,-47.6215667724609,-134.977325439453,72.3597335815429,3760668107
iw,-74.436050415039,-48.8944854736328,-130.141189575195,75.885269165039,3760684774
iw,-72.7042999267578,-50.2262725830078,-139.3212890625,79.5242462158203,3760701441
iw,-70.6239395141601,-51.4813537597656,-150.86392211914,74.5325698852539,3760718108
iw,-68.4850540161132,-52.6229400634765,-144.872009277343,67.1531753540039,3760734775
iw,-66.6807785034179,-53.6620292663574,-116.595756530761,60.6685142517089,3760751442
iw,-64.9492797851562,-54.6770706176757,-109.441085815429,59.1109046936035,3760768109
iw,-63.3281059265136,-55.7148475646972,-104.032669067382,60.4774932861328,3760784776
iw,-61.5896797180175,-56.8532257080078,-110.31078338623,66.5467300415039,3760801443
iw,-60.3846778869628,-58.0726203918457,-77.7552032470703,71.4389877319336,3760818110
iw,-59.3187103271484,-59.3200759887695,-70.7952270507812,73.0710296630859,3760834777
iw,-58.2487678527832,-60.672264099121,-70.8547821044921,79.2476501464843,3760851444
iw,-57.3718681335449,-62.0854377746582,-58.0908203125,82.7588806152343,3760868111
iw,-56.8553924560546,-63.507209777832,-33.5037460327148,83.1293792724609,3760884778
iw,-56.4931945800781,-64.7932662963867,-23.3487739562988,75.0050277709961,3760901445
iw,-56.4076080322265,-65.944107055664,-7.00421094894409,67.0515670776367,3760918112
iw,-56.4550552368164,-67.0030899047851,0.756452143192291,61.522964477539,3760934779
iw,-56.569595336914,-67.9194030761718,4.41592788696289,52.9437561035156,3760951446
iw,-56.7967567443847,-68.7312240600586,10.7923717498779,46.6037940979003,3760968113
iw,-57.1501083374023,-69.4705200195312,17.9307022094726,42.0837593078613,3760984780
iw,-58.0134201049804,-70.1408081054687,48.6935386657714,37.7240142822265,3761001447
iw,-59.3355598449707,-70.6779403686523,76.9003448486328,29.5731964111328,3761018114
iw,-60.0424728393554,-70.8916931152343,42.4386405944824,10.2230644226074,3761034781
iw,-60.4911956787109,-70.6661758422851,26.9988822937011,-15.7152891159057,3761051448
iw,-60.8713493347168,-69.9402694702148,16.8034400939941,-45.1294403076171,3761068115
iw,-61.5869140625,-68.40087890625,33.1499633789062,-93.423225402832,3761084782
iw,-62.8805313110351,-66.5438232421875,70.5942077636718,-112.410148620605,3761101449
iw,-64.4783020019531,-64.8006057739257,92.0715026855468,-105.080543518066,3761118116
iw,-65.9953994750976,-62.7080955505371,89.7931518554687,-122.86360168457,3761134783
iw,-66.9687271118164,-60.0679092407226,58.0132980346679,-153.634963989257,3761151450
iw,-67.8129043579101,-57.1240768432617,48.0949211120605,-171.782760620117,3761168117
iw,-68.7823715209961,-53.9415283203125,53.6170692443847,-189.857559204101,3761184784
iw,-69.8742904663086,-50.934284210205,62.3035850524902,-182.004776000976,3761201451
iw,-71.0254745483398,-48.2348289489746,67.7743835449218,-163.603912353515,3761218118
iw,-72.1795196533203,-46.1348533630371,68.3385314941406,-125.767387390136,3761234785
iw,-73.4647979736328,-44.5409278869628,76.2186584472656,-92.4279708862304,3761251452
iw,-74.9620971679687,-43.2595558166503,89.6108627319336,-72.1291275024414,3761268119
iw,-76.5749435424804,-41.8236122131347,98.4597015380859,-85.9905853271484,3761284786
iw,-78.1894454956054,-39.863052368164,101.109565734863,-126.688369750976,3761301453
iw,-79.8017349243164,-37.5375061035156,103.827529907226,-155.113830566406,3761318120
iw,-81.296272277832,-35.3585014343261,98.7034378051757,-148.422286987304,3761334787
iw,-82.599494934082,-33.5384712219238,88.8997421264648,-125.925231933593,3761351454
iw,-83.6555099487304,-32.338768005371,74.7598342895507,-86.3519744873046,3761368121
iw,-84.5466995239257,-31.4154319763183,65.7121887207031,-64.5601654052734,3761384788
iw,-85.3813247680664,-30.4632453918457,67.3386535644531,-62.5680503845214,3761401455
iw,-86.1216278076171,-29.7128429412841,74.7928848266601,-46.410041809082,3761418122
iw,-86.5168151855468,-29.162124633789,84.9282989501953,-31.8577365875244,3761434789
iw,-86.2370986938476,-28.6939792633056,96.8070373535156,-28.9682292938232,3761451456
iw,-85.2158279418945,-28.3447551727294,107.30859375,-22.3920249938964,3761468123
iw,-83.7260589599609,-28.1078472137451,112.682678222656,-16.0095157623291,3761484790
iw,-82.0674896240234,-27.7984886169433,111.067687988281,-21.7218170166015,3761501457
iw,-80.5182418823242,-27.715404510498,98.1641998291015,-10.4446954727172,3761518124
iw,-79.2074508666992,-27.8836097717285,80.8013687133789,3.22728204727172,3761534791
iw,-78.144058227539,-28.1934204101562,63.9832649230957,10.9829492568969,3761551458
iw,-77.2682037353515,-28.5442905426025,51.457176208496,13.0387897491455,3761568125
iw,-76.5224609375,-28.9685611724853,42.5496673583984,16.5537700653076,3761584792
iw,-75.8200073242187,-29.5939769744873,38.2321128845214,27.5382099151611,3761601459
iw,-75.2578353881836,-30.331392288208,27.4924716949462,35.1274261474609,3761618126
iw,-75.1216964721679,-30.7210750579834,1.36115670204162,14.763295173645,3761634793
iw,-75.4254760742187,-31.4806537628173,-27.5757961273193,24.3880653381347,3761651460
iw,-76.092300415039,-33.0065193176269,-56.0885314941406,57.5859489440918,3761668127
iw,-76.8974838256836,-33.8942718505859,-75.5835952758789,39.6896858215332,3761684794
iw,-77.7342453002929,-34.3106956481933,-88.5036087036132,33.6098327636718,3761701461
iw,-78.4523162841796,-35.5501060485839,-98.8728942871093,84.9850387573242,3761718128
iw,-78.9928588867187,-37.0800857543945,-103.311744689941,95.0387649536132,3761734795
iw,-79.7653579711914,-38.4116897583007,-104.207077026367,74.6471786499023,3761751462
iw,-80.7210845947265,-39.502025604248,-99.4508056640625,56.9438095092773,3761768129
iw,-81.2456436157226,-40.6516151428222,-69.8725433349609,60.8606338500976,3761784796
iw,-81.1253814697265,-41.9224243164062,-69.4336624145507,70.1433410644531,3761801463
iw,-80.6427917480468,-43.1759300231933,-79.2005157470703,69.7425842285156,3761818130
iw,-80.2279663085937,-44.3486938476562,-98.2163619995117,65.4031906127929,3761834797
iw,-79.5766296386718,-45.4512596130371,-137.063507080078,62.8372421264648,3761851464
iw,-78.4036788940429,-46.6237449645996,-155.542663574218,68.5043411254882,3761868131
iw,-77.0158309936523,-47.8371963500976,-143.981475830078,71.9004211425781,3761884798
iw,-75.5456161499023,-49.082836151123,-135.345504760742,74.4194641113281,3761901465
iw,-73.8345260620117,-50.3571510314941,-140.366455078125,76.2589340209961,3761918132
iw,-71.8753509521484,-51.6595649719238,-150.186309814453,77.5124359130859,3761934799
iw,-69.5895843505859,-52.9361343383789,-164.558715820312,75.4075698852539,3761951466
iw,-67.4655609130859,-54.1352081298828,-144.967712402343,70.3126525878906,3761968133
iw,-65.5662231445312,-55.2784423828125,-125.296997070312,66.7156753540039,3761984800
iw,-63.5774230957031,-56.375015258789,-127.237823486328,63.8885879516601,3762001467
iw,-62.0973205566406,-57.4269180297851,-95.9461441040039,61.3499069213867,3762018134
iw,-60.8124885559082,-58.5126724243164,-82.8833236694336,63.5351791381835,3762034801
iw,-59.4263496398925,-59.5998229980468,-88.0691528320312,63.6546669006347,3762051468
iw,-58.1859741210937,-60.6898155212402,-78.9573440551757,63.6519737243652,3762068135
iw,-57.3850975036621,-61.8584403991699,-50.8641624450683,68.0492401123046,3762084802
iw,-57.011116027832,-63.1344108581543,-24.3653564453125,74.0429153442382,3762101469
iw,-56.6946601867675,-64.4684524536132,-20.5471839904785,76.9824600219726,3762118136
iw,-56.5113372802734,-65.8130645751953,-12.6342220306396,77.2047424316406,3762134803
iw,-56.3484115600585,-67.1687622070312,-11.7692832946777,77.9378890991211,3762151470
iw,-56.2712364196777,-68.3301010131836,-7.05232524871826,66.5886154174804,3762168137
iw,-56.1959266662597,-69.2724914550781,-7.77999114990234,54.2053298950195,3762184804
iw,-56.216194152832,-70.0686645507812,-3.16594266891479,46.1610374450683,3762201471
iw,-56.7080726623535,-70.7498626708984,24.9221401214599,39.3614311218261,3762218138
iw,-57.8997268676757,-71.2864456176757,67.1658172607421,30.1979064941406,3762234805
iw,-58.7134399414062,-71.592300415039,45.8509864807128,15.5118837356567,3762251472
iw,-59.101879119873,-71.4756546020507,20.8938655853271,-10.1584825515747,3762268139
iw,-59.6468620300293,-70.7843780517578,25.9681072235107,-44.8051033020019,3762284806
iw,-60.5610275268554,-69.4401168823242,46.5003814697265,-83.8743286132812,3762301473
iw,-61.9569549560546,-67.761489868164,76.9072952270507,-102.790245056152,3762318140
iw,-63.6432380676269,-66.0748291015625,97.1890792846679,-101.21141052246,3762334807
iw,-65.3801040649414,-64.0520858764648,102.303771972656,-117.179260253906,3762351474
iw,-66.6422348022461,-61.5485076904296,74.4708175659179,-142.494171142578,3762368141
iw,-67.8917160034179,-58.5390739440918,72.6648712158203,-172.519439697265,3762384808
iw,-69.2975997924804,-55.1858558654785,81.3739547729492,-198.346649169921,3762401475
iw,-70.7026824951171,-52.2012939453125,82.6034774780273,-180.413269042968,3762418142
iw,-72.0521011352539,-49.6886177062988,80.557373046875,-152.864929199218,3762434809
iw,-73.4743270874023,-47.5955810546875,84.5595092773437,-126.376396179199,3762451476
iw,-74.9790344238281,-45.4868278503418,88.9274826049804,-126.65714263916,3762468143
iw,-76.5897827148437,-43.2092742919921,95.3047714233398,-137.333312988281,3762484810
iw,-78.2192077636718,-41.0880432128906,98.2748870849609,-128.980072021484,3762501477
iw,-79.7769622802734,-39.2381973266601,96.9985809326171,-115.415374755859,3762518144
iw,-81.2960433959961,-37.6739082336425,97.0719909667968,-102.448402404785,3762534811
iw,-82.7923278808593,-36.1301307678222,97.3635330200195,-107.004188537597,3762551478
iw,-84.2610321044921,-34.4879455566406,99.8630599975586,-118.535789489746,3762568145
iw,-85.5870513916015,-33.1352157592773,99.8611145019531,-101.148208618164,3762584812
iw,-86.5536575317382,-32.2413024902343,94.7235641479492,-68.1575698852539,3762601479
iw,-86.9489212036132,-31.3312263488769,92.5603332519531,-64.011848449707,3762618146
iw,-86.6156311035156,-30.2908916473388,94.2091674804687,-69.3593673706054,3762634813
iw,-85.7662200927734,-29.4628639221191,89.7431945800781,-55.5110359191894,3762651480
iw,-84.6178817749023,-28.9061431884765,91.2277221679687,-36.964542388916,3762668147
iw,-83.2523880004882,-28.5503559112548,96.9223709106445,-23.9730529785156,3762684814
iw,-81.918228149414,-28.3164310455322,88.2441482543945,-15.1773023605346,3762701481
iw,-80.7416076660156,-28.1889591217041,74.3450317382812,-7.87175559997558,3762718148
iw,-79.6825637817382,-28.1761016845703,64.0868377685546,-1.56615924835205,3762734815
iw,-78.7008972167968,-28.214406967163,57.4522666931152,-0.559740841388702,3762751482
iw,-77.7632217407226,-28.3426799774169,53.7868537902832,2.15878963470459,3762768149
iw,-76.8598098754882,-28.5774612426757,51.1671295166015,6.93488454818725,3762784816
iw,-76.0436935424804,-28.9275512695312,45.1514282226562,12.8281002044677,3762801483
iw,-75.3617553710937,-29.5252208709716,35.2697830200195,25.1120567321777,3762818150
iw,-74.9576110839843,-30.2239761352539,17.39697265625,31.8134136199951,3762834817
iw,-75.0749435424804,-30.8914127349853,-14.3222589492797,27.3092727661132,3762851484
iw,-75.8071136474609,-31.7411022186279,-55.0575447082519,28.4065170288085,3762868151
iw,-76.836311340332,-32.8363952636718,-80.7434616088867,37.9817237854003,3762884818
iw,-77.8696594238281,-33.496898651123,-93.9755172729492,27.942081451416,3762901485
iw,-78.3771591186523,-34.0995063781738,-83.5497817993164,42.0981330871582,3762918152
iw,-78.38623046875,-35.3498764038085,-65.8147430419921,81.6927337646484,3762934819
iw,-78.6024169921875,-36.5557670593261,-77.7291259765625,72.8980865478515,3762951486
iw,-79.4011840820312,-37.5529327392578,-101.153457641601,54.1808433532714,3762968153
iw,-80.4482803344726,-38.5659713745117,-106.61750793457,52.9737205505371,3762984820
iw,-81.0130767822265,-39.6378173828125,-78.7852325439453,57.4321594238281,3763001487
iw,-80.8587341308593,-40.717658996582,-70.9788589477539,59.3806190490722,3763018154
iw,-80.3304138183593,-41.7448921203613,-77.01611328125,56.4232368469238,3763034821
iw,-79.7001800537109,-42.7640266418457,-96.6366424560546,56.7660942077636,3763051488
iw,-78.9297332763671,-43.7829551696777,-127.416320800781,58.564598083496,3763068155
iw,-77.8055572509765,-44.9040718078613,-150.106185913085,65.9424285888671,3763084822
iw,-76.3649520874023,-46.1551437377929,-156.71711730957,74.3028717041015,3763101489
iw,-74.9753189086914,-47.4949493408203,-139.933242797851,79.798583984375,3763118156
iw,-73.5051956176757,-48.8910293579101,-135.184600830078,83.0038604736328,3763134823
iw,-71.7240219116211,-50.3241958618164,-148.120178222656,84.7980804443359,3763151490
iw,-69.5682373046875,-51.7561149597168,-163.717361450195,84.3716812133789,3763168157
iw,-67.4244918823242,-53.0893058776855,-149.72248840332,78.2441253662109,3763184824
iw,-65.7063446044921,-54.273868560791,-113.505218505859,69.3141098022461,3763201491
iw,-64.3232040405273,-55.3846321105957,-86.6461791992187,64.9695053100586,3763218158
iw,-62.3506317138671,-56.4737548828125,-125.747528076171,63.6795349121093,3763234825
iw,-60.8102760314941,-57.6073265075683,-102.471366882324,66.2956848144531,3763251492
iw,-59.6849479675293,-58.7910995483398,-77.6576156616211,69.1617050170898,3763268159
iw,-58.466869354248,-60.0488777160644,-81.5980377197265,73.3014068603515,3763284826
iw,-57.4459266662597,-61.3581428527832,-67.0427780151367,75.9524688720703,3763301493
iw,-57.0601005554199,-62.7335319519043,-26.4186382293701,79.4346694946289,3763318160
iw,-57.1481628417968,-64.1799774169921,3.28525710105896,83.2322845458984,3763334827
iw,-57.2641639709472,-65.6092834472656,5.22655057907104,81.9648666381836,3763351494
iw,-57.5163879394531,-66.8444366455078,13.2850122451782,70.5160675048828,3763368161
iw,-57.8275184631347,-67.8996124267578,16.7230224609375,60.4037132263183,3763384828
iw,-58.123851776123,-68.8066329956054,15.0820789337158,52.4133415222168,3763401495
iw,-58.3307991027832,-69.5484771728515,8.23722648620605,43.0048103332519,3763418162
iw,-58.8749542236328,-70.0986328125,28.4315242767334,31.588939666748,3763434829
iw,-59.6663818359375,-70.4481582641601,43.3560600280761,19.0818920135498,3763451496
iw,-60.0005149841308,-70.4127731323242,13.915729522705,-4.67284679412841,3763468163
iw,-60.7122421264648,-69.9501037597656,35.4311408996582,-31.1035385131835,3763484830
iw,-61.6485710144043,-68.8873443603515,49.557331085205,-67.1181869506836,3763501497
iw,-62.9634246826171,-67.2673873901367,75.7293853759765,-99.4829635620117,3763518164
iw,-64.5141296386718,-65.6805648803711,88.9655075073242,-95.4830093383789,3763534831
iw,-65.8901214599609,-64.2122726440429,77.4182968139648,-84.6020812988281,3763551498
iw,-66.9847717285156,-62.2547492980957,62.3780212402343,-109.58519744873,3763568165
iw,-68.166389465332,-59.6914405822753,69.2816696166992,-145.016326904296,3763584832
iw,-69.3351821899414,-56.7924575805664,68.6401062011718,-170.154800415039,3763601499
iw,-70.5011901855468,-54.0481719970703,67.7703170776367,-166.482345581054,3763618166
iw,-71.738052368164,-51.710220336914,72.2803039550781,-143.626632690429,3763634833
iw,-72.9863739013671,-49.6097373962402,72.8295364379882,-128.282653808593,3763651500
iw,-74.2433319091796,-47.6424331665039,73.6192550659179,-119.018615722656,3763668167
iw,-75.6130676269531,-45.7298240661621,80.579345703125,-114.941757202148,3763684834
iw,-77.0179901123046,-43.8427047729492,83.4069137573242,-114.065803527832,3763701501
iw,-78.4043884277343,-41.9346580505371,83.3965911865234,-118.645072937011,3763718168
iw,-79.7517852783203,-39.9443321228027,81.9753799438476,-129.04360961914,3763734835
iw,-81.0578536987304,-37.9525184631347,79.6971359252929,-134.736679077148,3763751502
iw,-82.3105316162109,-36.0843887329101,76.8475799560546,-131.585357666015,3763768169
iw,-83.5099411010742,-34.6263694763183,74.1137084960937,-104.92194366455,3763784836
iw,-84.7205505371093,-33.816478729248,76.1931838989257,-59.6430168151855,3763801503
iw,-85.9593505859375,-33.0440521240234,81.2387161254882,-50.9570655822753,3763818170
iw,-87.0807418823242,-31.8644008636474,79.3315200805664,-72.569595336914,3763834837
iw,-87.9331359863281,-30.5965423583984,83.384895324707,-77.6636199951171,3763851504
iw,-87.9701156616211,-29.5232429504394,91.4123840332031,-66.9401779174804,3763868171
iw,-87.0492553710937,-28.6191825866699,91.553840637207,-56.6046257019043,3763884838
iw,-85.6753692626953,-27.8578052520751,94.8330993652343,-48.1785469055175,3763901505
iw,-84.1195755004882,-27.3837947845459,98.1523361206054,-31.6745491027832,3763918172
iw,-82.6032562255859,-26.9616603851318,92.6663208007812,-29.3402423858642,3763934839
iw,-81.2425842285156,-26.6279964447021,81.7739334106445,-24.0694675445556,3763951506
iw,-79.998908996582,-26.4154586791992,73.9416427612304,-17.6244163513183,3763968173
iw,-78.8644256591796,-26.164249420166,66.8765106201171,-21.5432872772216,3763984840
iw,-77.8566741943359,-26.0284194946289,59.0441093444824,-15.7568159103393,3764001507
iw,-76.9128646850586,-26.1046447753906,55.2560234069824,-4.45722436904907,3764018174
iw,-75.984146118164,-26.646894454956,54.1243782043457,20.9636363983154,3764034841
iw,-75.098648071289,-27.8066673278808,51.1294441223144,55.3342628479003,3764051508
iw,-74.4541549682617,-29.0787868499755,36.4399833679199,60.1743087768554,3764068175
iw,-74.3039474487304,-29.9779014587402,6.28656959533691,35.0317268371582,3764084842
iw,-74.6744232177734,-31.2279300689697,-25.289659500122,49.0935363769531,3764101509
iw,-75.6733703613281,-32.5782394409179,-65.5715560913086,53.2243881225585,3764118176
iw,-76.8943557739257,-33.3256492614746,-86.3323287963867,37.351203918457,3764134843
iw,-77.936897277832,-34.1052627563476,-88.9971389770507,52.5349769592285,3764151510
iw,-78.4620819091796,-35.4268188476562,-71.7525177001953,86.9898376464843,3764168177
iw,-78.8393783569336,-36.5260047912597,-64.4236526489257,66.2665710449218,3764184844
iw,-79.7698974609375,-37.722354888916,-89.0268249511718,66.3563919067382,3764201511
iw,-80.8923263549804,-38.8766403198242,-101.727218627929,63.3691291809082,3764218178
iw,-81.4538040161132,-40.0170593261718,-81.8285140991211,63.0382690429687,3764234845
iw,-81.4695892333984,-41.143383026123,-74.2169342041015,62.3712654113769,3764251512
iw,-81.2254028320312,-42.2698364257812,-75.411880493164,62.5444030761718,3764268179
iw,-81.061279296875,-43.3684425354003,-79.9873657226562,62.201374053955,3764284846
iw,-80.8736419677734,-44.5234870910644,-126.141967773437,66.5770263671875,3764301513
iw,-80.2052993774414,-45.8401107788085,-153.82192993164,76.9348220825195,3764318180
iw,-79.004638671875,-47.2667846679687,-157.403518676757,84.1335220336914,3764334847
iw,-77.6605911254882,-48.7515449523925,-137.02798461914,87.8698272705078,3764351514
iw,-76.1940002441406,-50.2484436035156,-128.219451904296,88.63037109375,3764368181
iw,-74.2640838623046,-51.7494735717773,-147.714294433593,88.6253356933593,3764384848
iw,-71.9302978515625,-53.2159271240234,-164.518295288085,86.2608795166015,3764401515
iw,-69.5487670898437,-54.6183586120605,-160.85757446289,82.2792587280273,3764418182
iw,-67.1879730224609,-55.9089279174804,-154.248260498046,75.5558624267578,3764434849
iw,-65.0212173461914,-57.1337242126464,-140.282440185546,71.6924285888671,3764451516
iw,-63.2638549804687,-58.4043540954589,-112.983238220214,74.3709564208984,3764468183
iw,-61.4572219848632,-59.6897010803222,-115.671264648437,75.0734481811523,3764484850
iw,-60.1206016540527,-60.9627723693847,-86.7937240600586,74.2886810302734,3764501517
iw,-59.0734596252441,-62.2862319946289,-69.8712768554687,77.1801986694336,3764518184
iw,-57.9135856628418,-63.7236175537109,-75.4059143066406,83.7238616943359,3764534851
iw,-57.1108245849609,-65.1764678955078,-52.13427734375,84.3858337402343,3764551518
iw,-56.6196250915527,-66.5410385131836,-31.806770324707,78.8593368530273,3764568185
iw,-56.3053169250488,-67.746353149414,-20.8982925415039,69.1454010009765,3764584852
iw,-56.2008628845214,-68.8327178955078,-8.34727764129638,62.2415885925293,3764601519
iw,-56.244815826416,-69.8217163085937,0.31937226653099,56.948501586914,3764618186
iw,-56.3756713867187,-70.7148742675781,5.00243949890136,51.4642868041992,3764634853
iw,-56.5508232116699,-71.5013122558593,6.54080915451049,44.7648849487304,3764651520
iw,-57.1644783020019,-72.1537322998046,31.9589710235595,36.3586196899414,3764668187
iw,-58.4925117492675,-72.7127304077148,75.2955245971679,30.2877674102783,3764684854
iw,-59.3102493286132,-73.0287933349609,46.9586563110351,15.101821899414,3764701521
iw,-59.8485488891601,-72.8937683105468,30.1311950683593,-11.811011314392,3764718188
iw,-60.4012336730957,-72.0455703735351,27.6901798248291,-53.8148536682128,3764734855
iw,-61.2630424499511,-70.3969421386718,42.4851303100585,-100.978912353515,3764751522
iw,-62.6622810363769,-68.4556655883789,76.5647506713867,-118.025764465332,3764768189
iw,-64.483772277832,-66.7200622558593,105.704498291015,-104.734474182128,3764784856
iw,-65.8989181518554,-64.8621597290039,83.1278762817382,-109.127555847167,3764801523
iw,-66.9141006469726,-62.4007720947265,59.7172927856445,-142.679855346679,3764818190
iw,-68.0127258300781,-59.330150604248,64.0506286621093,-178.805053710937,3764834857
iw,-69.2338104248046,-55.9485816955566,70.1473770141601,-201.080154418945,3764851524
iw,-70.5529632568359,-52.9987564086914,76.0157852172851,-178.056060791015,3764868191
iw,-71.8301467895507,-50.6237258911132,74.5201110839843,-144.088272094726,3764884858
iw,-73.1433486938476,-48.5786247253418,77.6899719238281,-122.809043884277,3764901525
iw,-74.5138931274414,-46.4298934936523,81.6611404418945,-127.875457763671,3764918192
iw,-76.1291046142578,-44.2266235351562,96.7137451171875,-130.997741699218,3764934859
iw,-77.8954010009765,-42.2308082580566,107.131912231445,-119.493324279785,3764951526
iw,-79.7392883300781,-40.4244689941406,114.269836425781,-112.226379394531,3764968193
iw,-81.6012725830078,-38.5938110351562,118.589942932128,-119.707427978515,3764984860
iw,-83.4126281738281,-36.6972427368164,121.28074645996,-128.401458740234,3765001527
iw,-85.0033111572265,-35.0061874389648,118.936721801757,-119.11277770996,3765018194
iw,-86.2065658569336,-33.8333168029785,117.280334472656,-87.1206893920898,3765034861
iw,-86.6845932006836,-33.1212081909179,116.371864318847,-55.148094177246,3765051528
iw,-86.2937698364257,-32.4462966918945,105.348190307617,-48.46773147583,3765068195
iw,-85.2623672485351,-31.8338890075683,107.195281982421,-41.5513153076171,3765084862
iw,-83.8157882690429,-31.3570919036865,112.031532287597,-33.1163177490234,3765101529
iw,-82.325325012207,-30.5924816131591,101.723510742187,-48.3118743896484,3765118196
iw,-80.9683456420898,-29.9785537719726,86.5433883666992,-37.7247619628906,3765134863
iw,-79.9092636108398,-29.6917781829834,64.7232208251953,-18.806016921997,3765151530
iw,-79.0991516113281,-29.6533584594726,47.6986427307128,-6.16529273986816,3765168197
iw,-78.4200210571289,-29.7062072753906,39.3970489501953,-3.44257259368896,3765184864
iw,-77.9520111083984,-30.247968673706,26.7673435211181,23.0179595947265,3765201531
iw,-77.7152481079101,-31.1054153442382,12.0489101409912,39.3892860412597,3765218198
iw,-77.5629119873046,-31.9177551269531,5.36917829513549,34.7840690612793,3765234865
iw,-77.8139343261718,-32.7293090820312,-23.366226196289,32.1444587707519,3765251532
iw,-78.5281524658203,-34.1584434509277,-60.2123718261718,57.6352081298828,3765268199
iw,-79.2310562133789,-35.2258377075195,-72.8079528808593,36.4779586791992,3765284866
iw,-79.8517913818359,-35.9440078735351,-87.3428649902343,31.7710552215576,3765301533
iw,-79.9105529785156,-36.5382766723632,-80.9972305297851,39.7032432556152,3765318200
iw,-79.7387924194336,-37.6601524353027,-91.152229309082,76.1339340209961,3765334867
iw,-79.9237365722656,-38.9095039367675,-108.684700012207,78.9457855224609,3765351534
iw,-80.5480728149414,-39.9484329223632,-122.985153198242,57.9412956237793,3765368201
iw,-81.244155883789,-40.8372344970703,-103.036743164062,45.5422897338867,3765384868
iw,-81.445556640625,-41.7575492858886,-81.2769012451171,48.6377944946289,3765401535
iw,-81.0282363891601,-42.7665138244628,-60.6226005554199,55.4245719909668,3765418202
iw,-80.3077087402343,-43.8074684143066,-62.6784324645996,56.8110847473144,3765434869
iw,-79.3629989624023,-44.8943634033203,-92.3159790039062,59.6136398315429,3765451536
iw,-77.9116821289062,-45.9548377990722,-142.405792236328,58.9127197265625,3765468203
iw,-75.8789749145507,-47.1295928955078,-179.469116210937,67.1182174682617,3765484870
iw,-73.6809387207031,-48.4852066040039,-174.651153564453,79.3080215454101,3765501537
iw,-71.7118682861328,-49.93212890625,-147.914489746093,85.724380493164,3765518204
iw,-69.3510360717773,-51.4067840576171,-163.636840820312,87.6410293579101,3765534871
iw,-66.8228607177734,-52.8177108764648,-173.260803222656,83.49267578125,3765551538
iw,-64.8534164428711,-54.0876197814941,-137.957702636718,74.5934753417968,3765568205
iw,-63.1926498413085,-55.190746307373,-113.85961151123,64.3967208862304,3765584872
iw,-62.1665458679199,-56.2099075317382,-64.6512069702148,59.3970870971679,3765601539
iw,-60.5705490112304,-57.284439086914,-97.2996826171875,62.7151718139648,3765618206
iw,-59.0867500305175,-58.4026260375976,-96.9837417602539,65.2581176757812,3765634873
iw,-58.0444450378418,-59.6020355224609,-68.9368438720703,69.9863128662109,3765651540
iw,-56.7325057983398,-60.8726272583007,-85.5215454101562,74.0317459106445,3765668207
iw,-55.624267578125,-62.2849197387695,-72.1499328613281,82.3623733520507,3765684874
iw,-55.094985961914,-63.6720542907714,-35.2327880859375,80.5857467651367,3765701541
iw,-54.9142341613769,-64.9723663330078,-12.9701690673828,75.1124114990234,3765718208
iw,-54.8139610290527,-66.13623046875,-8.06232738494873,67.0152587890625,3765734875
iw,-54.9251556396484,-67.1662673950195,4.41370725631713,59.2118873596191,3765751542
iw,-55.1521987915039,-68.0714797973632,11.1741161346435,51.7963981628418,3765768209
iw,-55.4432907104492,-68.8654098510742,14.5723133087158,45.1690101623535,3765784876
iw,-56.0635032653808,-69.5948257446289,33.8869972229003,41.3183937072753,3765801543
iw,-57.1463966369628,-70.3008804321289,61.0155067443847,39.462547302246,3765818210
iw,-58.5210151672363,-70.9625549316406,79.2036819458007,36.1329345703125,3765834877
iw,-59.1587219238281,-71.4349517822265,36.7655067443847,24.3632926940917,3765851544
iw,-59.4812240600585,-71.5075912475586,13.3820419311523,1.02912819385528,3765868211
iw,-60.173542022705,-71.0311050415039,28.1132507324218,-31.0669937133789,3765884878
iw,-61.340705871582,-69.7404632568359,57.4173583984375,-79.0404434204101,3765901545
iw,-63.0130462646484,-67.9439926147461,95.3567962646484,-108.672096252441,3765918212
iw,-64.89111328125,-66.1843490600586,112.503189086914,-105.142265319824,3765934879
iw,-66.2992172241211,-64.2297744750976,83.6261444091796,-113.159942626953,3765951546
iw,-67.310920715332,-61.7688560485839,58.7147789001464,-140.147659301757,3765968213
iw,-68.6041107177734,-58.8450927734375,74.8193969726562,-166.273895263671,3765984880
iw,-69.9231796264648,-55.7042045593261,76.8505325317382,-183.735061645507,3766001547
iw,-71.2020263671875,-52.9055061340332,75.4874191284179,-167.841827392578,3766018214
iw,-72.4843444824218,-50.6661949157714,75.791389465332,-135.491439819335,3766034881
iw,-73.7451019287109,-48.6935005187988,74.1233520507812,-117.566246032714,3766051548
iw,-75.0759353637695,-46.6139373779296,78.929817199707,-123.341743469238,3766068215
iw,-76.5643844604492,-44.6009368896484,90.4232711791992,-119.273246765136,3766084882
iw,-78.1146392822265,-42.7134552001953,96.8588562011718,-113.037887573242,3766101549
iw,-79.6166076660156,-40.8573112487793,97.0602722167968,-114.92015838623,3766118216
iw,-80.9738311767578,-39.1589584350585,90.3745803833007,-111.379112243652,3766134883
iw,-82.1623611450195,-37.3369560241699,80.8599319458007,-123.867408752441,3766151550
iw,-83.2294921875,-35.4469146728515,73.4051971435546,-131.685165405273,3766168217
iw,-84.1432876586914,-33.7031745910644,61.108097076416,-123.886917114257,3766184884
iw,-84.9380950927734,-32.3735656738281,51.7034950256347,-97.9769439697265,3766201551
iw,-85.6537322998046,-31.6176528930664,50.5437774658203,-60.8221435546875,3766218218
iw,-86.2150421142578,-30.9939670562744,46.4824905395507,-48.751121520996,3766234885
iw,-86.6298904418945,-29.9510555267334,45.9139366149902,-68.8784255981445,3766251552
iw,-86.9563751220703,-29.1889095306396,54.6423034667968,-47.3826789855957,3766268219
iw,-86.9675903320312,-28.619680404663,73.7710266113281,-34.7426376342773,3766284886
iw,-86.4239044189453,-28.030366897583,81.5006484985351,-36.3051948547363,3766301553
iw,-85.3463821411132,-27.5305652618408,90.995376586914,-32.1183815002441,3766318220
iw,-83.8333129882812,-27.2224540710449,107.70913696289,-22.9715137481689,3766334887
iw,-82.0838394165039,-26.9310836791992,114.588920593261,-22.8728694915771,3766351554
iw,-80.4491424560546,-26.8149967193603,101.580596923828,-12.6485872268676,3766368221
iw,-79.2615509033203,-26.9076595306396,71.7649612426757,0.237526074051857,3766384888
iw,-78.6031265258789,-27.4457874298095,38.4953536987304,27.5607452392578,3766401555
iw,-78.3361206054687,-28.3303909301757,13.2226362228393,46.8417778015136,3766418222
iw,-78.2443695068359,-29.1776599884033,-0.0912453085184097,41.0029220581054,3766434889
iw,-78.3007736206054,-30.0443630218505,-11.9753084182739,39.6377525329589,3766451556
iw,-78.674446105957,-31.6044425964355,-34.9207000732421,70.4003982543945,3766468223
iw,-79.1881332397461,-32.8252220153808,-53.3541870117187,44.6148948669433,3766484890
iw,-79.5332260131836,-33.5464935302734,-55.636173248291,28.1328659057617,3766501557
iw,-79.7956771850586,-34.2736129760742,-65.4538803100586,44.5823440551757,3766518224
iw,-79.9940948486328,-35.6304359436035,-75.4303359985351,88.6439514160156,3766534891
iw,-80.5883407592773,-37.0722694396972,-96.2301712036132,91.6252517700195,3766551558
iw,-81.5685806274414,-38.305305480957,-105.580215454101,72.9525604248046,3766568225
iw,-82.2168426513671,-39.2572898864746,-74.69140625,51.1231536865234,3766584892
iw,-82.2484588623046,-40.1822128295898,-55.2176475524902,48.3061561584472,3766601559
iw,-81.940071105957,-41.1880760192871,-73.3779220581054,53.5696907043457,3766618226
iw,-81.6259536743164,-42.2248992919921,-81.2353897094726,55.5835494995117,3766634893
iw,-81.2514266967773,-43.2471275329589,-109.14752960205,55.9929313659668,3766651560
iw,-80.3161468505859,-44.3210105895996,-147.075622558593,61.1083717346191,3766668227
iw,-78.7564392089843,-45.5149765014648,-162.237106323242,69.4845199584961,3766684894
iw,-77.0396118164062,-46.8464050292968,-149.452255249023,78.3347244262695,3766701561
iw,-75.2274780273437,-48.2401580810546,-141.2490234375,82.5430297851562,3766718228
iw,-73.0161590576171,-49.630760192871,-156.172760009765,82.6764221191406,3766734895
iw,-70.5337524414062,-50.9768371582031,-164.383178710937,80.0412902832031,3766751562
iw,-68.1747894287109,-52.285358428955,-150.764785766601,77.6846389770507,3766768229
iw,-65.9494094848632,-53.4828033447265,-140.199722290039,70.6952056884765,3766784896
iw,-63.9580268859863,-54.590648651123,-125.706192016601,65.0087814331054,3766801563
iw,-62.2823028564453,-55.6955757141113,-104.222702026367,64.6901397705078,3766818230
iw,-60.2088508605957,-56.9143676757812,-129.370574951171,71.5017852783203,3766834897
iw,-58.9499702453613,-58.2661590576171,-83.032241821289,79.4454193115234,3766851564
iw,-58.0902252197265,-59.702293395996,-56.9744682312011,84.3947677612304,3766868231
iw,-56.929458618164,-61.1646385192871,-74.0081253051757,85.786636352539,3766884898
iw,-56.4539413452148,-62.5585021972656,-31.2473545074462,81.5035858154296,3766901565
iw,-56.4324913024902,-63.8129081726074,-1.88807666301727,73.1024017333984,3766918232
iw,-56.4109725952148,-64.9998168945312,-2.40048599243164,69.1500854492187,3766934899
iw,-56.5179595947265,-66.0926361083984,4.78033781051635,63.6660232543945,3766951566
iw,-56.9045639038085,-67.0840759277343,21.5822620391845,57.6763725280761,3766968233
iw,-57.5303955078125,-67.9628982543945,34.372013092041,50.7548103332519,3766984900
iw,-58.6395568847656,-68.7149200439453,61.7535362243652,42.8204193115234,3767001567
iw,-60.0851554870605,-69.2840347290039,84.8334121704101,31.6836051940917,3767018234
iw,-60.6635208129882,-69.440185546875,34.6273651123046,6.87697410583496,3767034901
iw,-60.9319343566894,-69.2208557128906,10.233452796936,-15.7665338516235,3767051568
iw,-61.7162857055664,-68.3737869262695,40.2678108215332,-53.0592079162597,3767068235
iw,-62.8864402770996,-66.7490844726562,65.3150329589843,-99.1365814208984,3767084902
iw,-64.9094009399414,-64.9717788696289,120.179229736328,-107.579277038574,3767101569
iw,-66.780532836914,-63.1467933654785,111.467147827148,-108.008697509765,3767118236
iw,-67.9385452270507,-60.8937950134277,69.4512252807617,-129.64387512207,3767134903
iw,-68.9670486450195,-58.219482421875,61.8189697265625,-152.583618164062,3767151570
iw,-70.3916854858398,-55.2619361877441,84.0539932250976,-172.990463256835,3767168237
iw,-71.933609008789,-52.4988899230957,90.4702224731445,-165.905609130859,3767184904
iw,-73.5304794311523,-49.9809303283691,95.1270294189453,-152.367752075195,3767201571
iw,-75.0671005249023,-47.865135192871,92.2925567626953,-127.921440124511,3767218238
iw,-76.5414047241211,-45.9195747375488,90.4651718139648,-117.016960144042,3767234905
