Label,Left_Hip_q,Right_Hip_q,Left_Hip_qd,Right_Hip_qd,SampleTimeFine
fw,-77.0015029907226,-85.53515625,142.137344360351,-36.7894325256347,122947258
fw,-78.8211135864257,-85.1649932861328,111.06423593577547,-73.85099694257052,122963925
fw,-80.5482406616211,-84.2910995483398,107.90935009965473,-100.3881912287593,122980592
fw,-81.4269180297851,-82.8460464477539,104.0078843625457,-126.02705468551281,122997259
fw,-82.3068084716796,-80.837043762207,98.64924572306312,-149.89489354712845,123013926
fw,-83.7140350341796,-78.3759155273437,91.32441848582991,-170.86562439438688,123030593
fw,-84.8398056030273,-75.4621963500976,81.9537783484821,-187.56271152791504,123047260
fw,-85.1738357543945,-72.1996307373046,71.07708178854435,-198.51374847519693,123063927
fw,-85.1932373046875,-68.6033096313476,59.84083918874128,-202.4432987397684,123080594
fw,-85.3230361938476,-64.8571624755859,49.70549571447837,-198.62250754297278,123097261
fw,-85.0474166870117,-61.7150688171386,41.96911479954573,-187.14301059718386,123113928
fw,-84.2493362426757,-59.3363075256347,37.33443786872423,-168.98872094709625,123130595
fw,-83.3693084716796,-57.4284515380859,35.72742403981706,-145.85385499352662,123147262
fw,-82.6643905639648,-55.8291549682617,36.424270691412325,-119.76319438650658,123163929
fw,-82.1429748535156,-54.7412605285644,38.379270799951534,-92.63036787900332,123180596
fw,-81.7480316162109,-53.8766174316406,40.57637098916824,-65.9040681869899,123197263
fw,-81.3727951049804,-53.3132133483886,42.26822443772463,-40.40637868057462,123213930
fw,-80.91455078125,-53.079605102539,43.058910714796994,-16.39198852178548,123230597
fw,-80.3178176879882,-53.1810150146484,42.8654564241643,6.217594042150488,123247264
fw,-79.6397476196289,-53.5031776428222,41.82600595027015,27.523886617364266,123263931
fw,-78.990608215332,-53.867446899414,40.20837148988683,47.38660697642524,123280598
fw,-78.4391937255859,-54.6396408081054,38.33399214064076,65.31306000980554,123297265
fw,-77.9637985229492,-56.4562797546386,36.50066427200543,80.55758936399961,123313932
fw,-77.5518951416015,-58.8641891479492,34.88393093684262,92.3947766319632,123330599
fw,-77.2209320068359,-60.9417495727539,33.419791436161894,100.43393964001575,123347266
fw,-76.9456024169921,-62.7860450744628,31.700862661784313,104.807306011879,123363933
fw,-76.6075210571289,-64.7138214111328,28.932698202107225,106.12847582753896,123380600
fw,-76.1881561279296,-65.519905090332,23.985722175362966,105.24651127443317,123397267
fw,-75.8557968139648,-67.1184539794921,15.546768865232126,102.9313125739986,123413934
fw,-75.8954315185546,-68.7402038574218,2.341963473655321,99.65210822668078,123430601
fw,-76.3317108154296,-70.232925415039,-16.611035497363666,95.54460686842422,123447268
fw,-77.1687622070312,-71.7263870239257,-41.75643984205204,90.55203540983501,123463935
fw,-78.3952407836914,-73.4060821533203,-72.78368136617752,84.63901482664848,123480602
fw,-80.2001800537109,-74.8100433349609,-108.46806565670906,77.95482344348854,123497269
fw,-82.695083618164,-75.6454467773437,-146.6121001843773,70.86347449949184,123513936
fw,-85.6935195922851,-76.1150360107421,-184.14294329368295,63.83899715578959,123530603
fw,-89.0810241699218,-76.7212600708007,-217.41366287252617,57.304862940912074,123547270
fw,-87.4409790039062,-77.6881484985351,-242.72151407712536,51.52509482313127,123563937
fw,-82.7655715942382,-78.7152252197265,-256.9912744281008,46.60698110056162,123580604
fw,-76.8689270019531,-79.45068359375,-258.4789927920025,42.58813384005348,123597271
fw,-72.3096389770507,-80.0630493164062,-247.2690699380136,39.52496489080736,123613938
fw,-69.2457275390625,-80.7427368164062,-225.34271910717925,37.51459069946101,123630605
fw,-66.4889526367187,-81.6102142333984,-196.13512163538996,36.642803718468485,123647272
fw,-63.9152297973632,-82.5006103515625,-163.70679672891072,36.9016764944475,123663939
fw,-61.8047103881835,-83.3552093505859,-131.7963825310269,38.129893698547065,123680606
fw,-60.3696174621582,-84.1389389038086,-103.02709570397604,40.006565885199336,123697273
fw,-59.3833808898925,-84.9254608154296,-78.45223578421329,42.10112987673298,123713940
fw,-58.6822395324707,-85.7319412231445,-57.52189774773846,43.96196887097474,123730607
fw,-58.1240921020507,-86.5192947387695,-38.462044332612464,45.21386418542817,123747274
fw,-57.6280212402343,-87.2681350708007,-18.97083489738653,45.62839511230216,123763941
fw,-57.3166389465332,-87.9515914916992,2.9435543612644164,45.13694411700589,123780608
fw,-57.2775039672851,-88.4841842651367,28.212475561429873,43.77610186605579,123797275
fw,-57.5733795166015,-88.7054748535156,56.270741592190944,41.583540631153376,123813942
fw,-58.5568923950195,-88.5465316772461,85.08937835053091,38.48517540543414,123830609
fw,-61.3750076293945,-88.1256027221679,111.69266885086326,34.219505619603986,123847276
fw,-64.4233932495117,-87.6190414428711,133.00368354874158,28.329612721558913,123863943
fw,-67.4434509277343,-87.1503677368164,146.7292477391278,20.225929432676114,123880610
fw,-69.966079711914,-86.7968597412109,151.97808863863764,9.298119971963752,123897277
fw,-72.2569961547851,-86.6165618896484,149.42463088076724,-4.95653433024775,123913944
fw,-74.2594604492187,-86.6136093139648,141.01710808697854,-22.816045926028842,123930611
fw,-76.2148818969726,-86.6472473144531,129.38006453275383,-44.24180985235213,123947278
fw,-77.989013671875,-86.4775238037109,117.12078602761736,-68.81289128316868,123963945
fw,-80.0387954711914,-85.7746047973632,106.2271715819259,-95.68388725754313,123980612
fw,-81.3427429199218,-84.3546524047851,97.68614584360215,-123.57092892815446,123997279
fw,-82.0585861206054,-82.2038116455078,91.39449298454848,-150.78256532786676,124013946
fw,-83.1655120849609,-79.5034484863281,86.38263863113234,-175.32042864426737,124030613
fw,-84.7397003173828,-76.3723449707031,81.30238845903374,-195.0717036594126,124047280
fw,-86.0073776245117,-72.8277893066406,75.03150154937208,-208.09715094996108,124063947
fw,-86.3984222412109,-69.1293182373046,67.16771955489845,-212.98287447786842,124080614
fw,-86.40283203125,-65.2493133544921,58.201912392395364,-209.17740454797834,124097281
fw,-86.16748046875,-61.8572807312011,49.30121987267431,-197.1997900752995,124113948
fw,-85.5747680664062,-59.2327995300293,41.82432507699692,-178.61138528272542,124130615
fw,-84.9020004272461,-57.1390838623046,36.809884627205676,-155.7110836899505,124147282
fw,-84.3174209594726,-55.3076972961425,34.65741991324878,-131.01762654642116,124163949
fw,-83.8564071655273,-53.9492378234863,35.09283833292078,-106.6888988782793,124180616
fw,-83.3931579589843,-52.9568748474121,37.37155397719627,-84.05460496475537,124197283
fw,-82.7757492065429,-52.0835151672363,40.59092835334339,-63.402703478068574,124213950
fw,-82.0044631958007,-51.3770370483398,43.9732951177573,-44.08346294831779,124230617
fw,-81.1323776245117,-50.8900718688964,47.02140894477644,-24.90170939068542,124247284
fw,-80.3308563232421,-50.5891609191894,49.51581369970935,-4.68046569052875,124263951
fw,-79.640510559082,-50.4647140502929,51.39296243754905,17.17900976852173,124280618
fw,-78.9840316772461,-50.6928024291992,52.58641317397749,40.327092799275015,124297285
fw,-78.3119735717773,-51.1415252685546,52.9141081727533,63.427331910970544,124313952
fw,-77.5432586669921,-52.961082458496,52.057724125158295,84.48983082697363,124330619
fw,-76.7236404418945,-55.985984802246,49.628335215858165,101.47443096032502,124347286
fw,-75.9225997924804,-58.2077407836914,45.27182488816395,112.93264342091783,124363953
fw,-75.1918563842773,-59.9150352478027,38.75246424853053,118.42415860718538,124380620
fw,-74.5708541870117,-62.146484375,29.964486582749224,118.55010628100325,124397287
fw,-74.1883239746093,-63.0839538574218,18.852072650794554,114.633430922354,124413954
fw,-74.2933731079101,-64.6014785766601,5.260301534053831,108.22902265583492,124430621
fw,-74.9352951049804,-66.0212783813476,-11.215029504162972,100.68583582353892,124447288
fw,-75.924819946289,-67.3213806152343,-31.278620697363156,92.91431572055035,124463955
fw,-77.0803909301757,-68.6131134033203,-55.79406131724453,85.39020719918507,124480622
fw,-78.2646484375,-70.2645874023437,-85.41815539901843,78.31573166596297,124497289
fw,-79.7679138183593,-71.6836700439453,-120.08631779794112,71.8064520301106,124513956
fw,-81.9972305297851,-72.3473968505859,-158.52609876068738,65.99121661111569,124530623
fw,-85.0523681640625,-72.8528747558593,-198.01564759949693,60.99043429816438,124547290
fw,-88.3197250366211,-73.4994583129882,-234.55373421853633,56.83030469537842,124563957
fw,-86.8205413818359,-74.4468917846679,-263.48686833042757,53.39312453607832,124580624
fw,-82.2275161743164,-75.5320358276367,-280.4906844047608,50.46344827457644,124597291
fw,-75.7923507690429,-76.6455535888671,-282.66360777132724,47.84374257161474,124613958
fw,-69.8781051635742,-77.6459426879882,-269.39520731923994,45.4562484032427,124630625
fw,-66.0686798095703,-78.5154724121093,-242.6783629216721,43.36326885651185,124647292
fw,-63.3621749877929,-79.5111083984375,-206.697001087805,41.7036361533124,124663959
fw,-61.2965621948242,-80.4365768432617,-166.79850532663897,40.59879459983147,124680626
fw,-59.559585571289,-81.1780242919921,-128.20022242343092,40.087836643707945,124697293
fw,-58.1845588684082,-81.8043212890625,-94.844917495025,40.11743975407258,124713960
fw,-57.063720703125,-82.4184341430664,-68.70617824822386,40.57667130059759,124730627
fw,-56.2416458129882,-83.1125717163086,-49.65394368538688,41.348313254499075,124747294
fw,-55.5933265686035,-83.8235931396484,-35.82353647143283,42.34387596937553,124763961
fw,-55.0544090270996,-84.494873046875,-24.330393272846084,43.4940682727124,124780628
fw,-54.7177581787109,-85.1061096191406,-12.132307947539992,44.68464532233843,124797295
fw,-54.6216964721679,-85.6089401245117,3.1571623927689836,45.65885454778244,124813962
fw,-54.7951049804687,-85.9714889526367,22.670781954071032,45.93636948645364,124830629
fw,-55.149055480957,-86.2380752563476,46.02216886993038,44.80392165545108,124847296
fw,-56.2762565612793,-86.4572372436523,71.42325120386225,41.40699071989612,124863963
fw,-58.3279304504394,-86.6300048828125,96.1530013892559,34.9263206681329,124880630
fw,-60.6471099853515,-86.7602157592773,117.25785611034465,24.780911971607164,124897297
fw,-62.9878959655761,-86.898208618164,132.2996792878517,10.782581175396853,124913964
fw,-65.1645050048828,-87.0349578857421,139.95915085134925,-6.8144336515232835,124930631
fw,-67.8352508544921,-87.0566940307617,140.35264809405388,-27.380681645657173,124947298
fw,-70.6077270507812,-86.7134780883789,134.9937638652924,-50.058608008427036,124963965
fw,-73.0691680908203,-85.8518829345703,126.39681218090038,-73.92303362967918,124980632
fw,-74.7832107543945,-84.3772583007812,117.38789846404488,-98.09004685961001,124997299
fw,-75.7741622924804,-82.4559326171875,110.27970267855098,-121.73781584495147,125013966
fw,-76.4928817749023,-80.1803741455078,106.15742321421388,-144.04272728338924,125030633
fw,-77.6255111694336,-77.5833358764648,104.54686884381765,-164.07038459094179,125047300
fw,-79.3702163696289,-74.8101730346679,103.63467268880893,-180.68549533003588,125063967
fw,-81.5414657592773,-71.7105331420898,101.00213264678948,-192.55318629863694,125080634
fw,-83.6112594604492,-68.4491119384765,94.61261000223783,-198.2886463366493,125097301
fw,-85.0666809082031,-64.9807739257812,83.67108825873764,-196.76276107091718,125113968
fw,-85.2566604614257,-61.1073188781738,69.01702310377681,-187.4929385279322,125130635
fw,-84.788948059082,-58.3420143127441,52.901049514983754,-170.97351022278667,125147302
fw,-84.3162460327148,-56.1686058044433,38.24707418948292,-148.78184189237456,125163969
fw,-83.9589538574218,-54.6428031921386,27.69921284940395,-123.3655053409466,125180636
fw,-83.7779235839843,-53.3571434020996,22.81154553938649,-97.54264137696265,125197303
fw,-83.8722839355468,-52.7399063110351,23.64823893733536,-73.86187416981494,125213970
fw,-84.1615829467773,-52.5089607238769,28.885246786506617,-54.020580207244706,125230637
fw,-84.2114181518554,-52.2886314392089,36.324883656508675,-38.52468448118547,125247304
fw,-83.7179641723632,-51.8900260925293,43.60969295948422,-26.699718548700655,125263971
fw,-82.9425888061523,-51.4884033203125,48.88279081029044,-17.046890313318848,125280638
fw,-82.1758728027343,-51.0452194213867,51.1947763569547,-7.815404281151845,125297305
fw,-81.5505447387695,-50.7692222595214,50.57599525868807,2.4139689244894904,125313972
fw,-81.0557022094726,-50.9968528747558,47.8204904495737,14.332317694757105,125330639
fw,-80.5693054199218,-51.9197158813476,44.108432979307636,27.804598737165847,125347306
fw,-80.1361389160156,-53.1656494140625,40.606869379287915,42.05585957117398,125363973
fw,-79.793228149414,-54.2465095520019,38.15328142316297,56.02236929725915,125380640
fw,-79.4445648193359,-55.1603164672851,37.07600844273169,68.71422854845538,125397307
fw,-78.9424285888671,-56.2933807373046,37.16124767039875,79.47722759114335,125413974
fw,-78.2371063232421,-57.8295059204101,37.74135363189292,88.11231751454211,125430641
fw,-77.4490356445312,-59.8217277526855,37.85225751743463,94.85718833616953,125447308
fw,-76.7708969116211,-61.7076034545898,36.39614005031332,100.24478276307201,125463975
fw,-76.3425140380859,-63.1229629516601,32.26002416466196,104.86134070477493,125480642
fw,-76.1888732910156,-64.5394592285156,24.38096754354794,109.06125810739219,125497309
fw,-76.2957153320312,-66.182746887207,11.794271999442692,112.74137451935606,125513976
fw,-76.6526489257812,-67.89501953125,-6.275781933502102,115.28528380308099,125530643
fw,-77.2038345336914,-69.9161911010742,-30.240573480938224,115.73225614648622,125547310
fw,-78.066665649414,-72.0440063476562,-59.8979044638328,113.12848195494948,125563977
fw,-79.4294357299804,-73.9998550415039,-94.18188848848307,106.93180624405451,125580644
fw,-81.501953125,-75.7462768554687,-131.02333682130373,97.30814015457844,125597311
fw,-84.2188720703125,-77.1775741577148,-167.42453110308242,85.19408456303367,125613978
fw,-87.235725402832,-78.1481170654296,-199.8006121851762,72.0907169353242,125630645
fw,-88.8414077758789,-78.5459289550781,-224.56371127805625,59.66035326836037,125647312
fw,-84.8032608032226,-78.950569152832,-238.8437160006119,49.27747126172515,125663979
fw,-79.147720336914,-79.6315307617187,-241.1623273891873,41.7011434734753,125680646
fw,-75.1408004760742,-80.5248489379882,-231.8335488696102,36.97775521777135,125697313
fw,-72.6204986572265,-81.576431274414,-212.91126688782745,34.5775473718597,125713980
fw,-70.2094650268554,-82.5036010742187,-187.6675444197216,33.67471851161081,125730647
fw,-67.6124954223632,-83.3121185302734,-159.78206470602046,33.44599621393709,125747314
fw,-65.1942367553711,-84.0955505371093,-132.51806237493318,33.290267770214264,125763981
fw,-63.3792037963867,-84.6880187988281,-108.1065348106394,32.928928724034265,125780648
fw,-62.274242401123,-85.1363906860351,-87.44003153712822,32.397167229847796,125797315
fw,-61.4698982238769,-85.6215896606445,-70.08763396701377,31.963431136050303,125813982
fw,-60.5897216796875,-86.2787475585937,-54.60054098256407,32.016281356567866,125830649
fw,-59.6134872436523,-87.0479278564453,-39.0417696459759,32.9408410882611,125847316
fw,-58.9456062316894,-87.7027969360351,-21.621420199903625,34.98621220829477,125863983
fw,-58.7305793762207,-88.1567687988281,-1.2763112618547479,38.12134059693054,125880650
fw,-58.9767036437988,-88.456298828125,21.961578408373356,41.89908560221099,125897317
fw,-59.7061729431152,-88.750244140625,46.901552775734096,45.38058333910785,125913984
fw,-61.1326179504394,-88.9297256469726,71.4387034951056,47.182623373326564,125930651
fw,-62.9636497497558,-88.4945526123046,93.02703500283461,45.67962464239537,125947318
fw,-64.7932052612304,-87.7694549560546,109.25224568093708,39.33022182572946,125963985
fw,-66.9526596069336,-87.1763153076171,118.36876078128529,27.041872870322045,125980652
fw,-69.0118026733398,-86.8848571777343,119.69582001545899,8.466719234430547,125997319
fw,-70.6702423095703,-86.9123153686523,113.81423628595643,-15.856181429997154,126013986
fw,-72.0045013427734,-87.3094253540039,102.54699444252985,-44.54982837501207,126030653
fw,-74.1017608642578,-87.8325576782226,88.72791244692054,-75.62426264959916,126047320
fw,-76.3745651245117,-87.3153305053711,75.76103667176328,-106.81616229282292,126063987
fw,-77.4781188964843,-85.1713638305664,66.97645217729311,-135.94998555759287,126080654
fw,-77.6913986206054,-82.274299621582,64.84444077317693,-161.22104515862875,126097321
fw,-77.6969604492187,-79.2422180175781,70.22625243616271,-181.32978118903233,126113988
fw,-78.485595703125,-76.0023803710937,81.93484004062638,-195.45852966491347,126130655
fw,-79.9095001220703,-72.638801574707,96.846246584429,-203.15201850758737,126147322
fw,-81.7917861938476,-69.3728637695312,110.62365391800279,-204.2013652713511,126163989
fw,-83.7572860717773,-66.1943588256836,118.88329502754294,-198.61355306032576,126180656
fw,-85.6874389648437,-62.8948402404785,118.45977076903246,-186.68461754801723,126197323
fw,-85.6484146118164,-60.1805305480957,108.37516962843955,-169.12388036788087,126213990
fw,-83.9532775878906,-58.1573257446289,90.1838696547174,-147.13966850941097,126230657
fw,-83.0037002563476,-56.1583557128906,67.54284963565078,-122.40971181923359,126247324
fw,-83.2461395263671,-54.3068885803222,45.12067835335486,-96.90227431808039,126263991
fw,-84.1076202392578,-53.1934738159179,27.221933937547416,-72.55917040408815,126280658
fw,-84.6830062866211,-53.0376052856445,16.630175947994424,-50.89730793264446,126297325
fw,-84.5626754760742,-53.2438163757324,14.069629599403026,-32.64046142829757,126313992
fw,-83.7713088989257,-53.2672042846679,18.39740682922984,-17.532213293633674,126330659
fw,-82.8193817138671,-52.9873733520507,27.32435537323524,-4.450863908215905,126347326
fw,-81.8641891479492,-52.7441215515136,38.28647025322527,8.16918923873371,126363993
fw,-81.1171417236328,-52.4307212829589,49.113416411958724,21.752041999764177,126380660
fw,-80.4462661743164,-52.3643035888671,58.31198700928476,37.0632212683458,126397327
fw,-79.6177825927734,-53.3157272338867,64.98744526116904,53.970381832955745,126413994
fw,-78.5911407470703,-55.3690032958984,68.56621448754858,71.56087422622173,126430661
fw,-77.5312042236328,-57.4372940063476,68.5162991697516,88.52286279075743,126447328
fw,-76.5004653930664,-58.9117126464843,64.20293646881343,103.58191996395769,126463995
fw,-75.4967041015625,-60.4343070983886,54.91795658370059,115.79881555937268,126480662
fw,-74.7411346435546,-62.6690368652343,40.03626236987515,124.65273208973066,126497329
fw,-74.4186172485351,-64.1412506103515,19.214107971269172,129.95846799182465,126513996
fw,-74.7546463012695,-66.3086395263671,-7.444340191263813,131.7209699643965,126530663
fw,-75.5567398071289,-67.7836990356445,-39.283689313364626,130.01891818054602,126547330
fw,-76.6347503662109,-69.2705688476562,-75.05093703021682,124.97164909792946,126563997
fw,-78.2925872802734,-71.1841812133789,-112.89292769510737,116.80329318361176,126580664
fw,-80.5541458129882,-73.1901931762695,-150.40718913180976,105.97491587698966,126597331
fw,-83.1900634765625,-75.3052673339843,-184.7808256062754,93.31126056346608,126613998
fw,-85.4928970336914,-76.8677368164062,-213.0556564720044,80.02307365378482,126630665
fw,-86.7251205444336,-77.5950469970703,-232.53490646041598,67.54988201409878,126647332
fw,-84.49462890625,-77.764907836914,-241.29766604888164,57.2326574524806,126663999
fw,-78.7979431152343,-78.1392059326171,-238.70934609719282,49.93325991860122,126680666
fw,-74.5605697631836,-78.8223114013671,-225.73711724819753,45.77420046085195,126697333
fw,-72.0140380859375,-79.9035186767578,-204.87793627254646,44.128698697197464,126714000
fw,-69.7653198242187,-81.1720123291015,-179.64128966776073,43.8713407569728,126730667
fw,-67.2253341674804,-82.2820739746093,-153.7335605397483,43.78128596065169,126747334
fw,-64.7244796752929,-83.2360153198242,-130.213999805416,42.936923971175304,126764001
fw,-62.9361724853515,-83.9267196655273,-110.86031114588059,40.96405957138668,126780668
fw,-61.7847099304199,-84.4508743286132,-95.86728475280678,38.07160796491568,126797335
fw,-60.7089500427246,-84.9638214111328,-83.90999124668257,34.89337655426195,126814002
fw,-59.6205596923828,-85.6085433959961,-72.55534700492186,32.21760296960145,126830669
fw,-58.5512428283691,-86.1946563720703,-58.958763813300976,30.70196676347401,126847336
fw,-57.5309181213378,-86.5045318603515,-40.71147034552752,30.64344610096464,126864003
fw,-56.7858772277832,-86.6382141113281,-16.63452181934006,31.83396729062211,126880670
fw,-56.406982421875,-86.7772979736328,12.70883318425083,33.51657074836166,126897337
fw,-56.608543395996,-87.0300827026367,44.96337319334026,34.45952135753883,126914004
fw,-58.2352867126464,-87.2989807128906,76.45634250504847,33.15833876802015,126930671
fw,-61.2034606933593,-87.4385299682617,103.0933876793018,28.141280284805237,126947338
fw,-63.1679382324218,-87.4761734008789,121.42299217347647,18.307477364922818,126964005
fw,-65.4414443969726,-87.5249633789062,129.55483081000165,3.2001660163017243,126980672
fw,-67.7998123168945,-87.6445770263671,127.67698164048672,-16.869568863128162,126997339
fw,-70.3296737670898,-87.7572021484375,118.05028793178808,-40.884250404630784,127014006
fw,-72.2304229736328,-87.4462585449218,104.49054681515396,-67.33944180396449,127030673
fw,-73.3536682128906,-86.3147506713867,91.45492417436631,-94.54326634863463,127047340
fw,-74.1653823852539,-84.4152069091796,82.94180119113847,-120.89848969093917,127064007
fw,-74.8450012207031,-82.1213150024414,81.48216915174146,-145.08532164132774,127080674
fw,-75.9615020751953,-79.4316940307617,87.50057078555491,-166.10564472854304,127097341
fw,-77.570556640625,-76.5618286132812,99.22794278399596,-183.2039980704263,127114008
fw,-79.6276550292968,-73.2669982910156,113.18682160870657,-195.72940881212102,127130675
fw,-81.8566589355468,-69.6962814331054,125.10837866976367,-203.02586192384624,127147342
fw,-83.8717727661132,-66.1729583740234,131.0392825238432,-204.42528178133662,127164009
fw,-85.5161590576171,-62.6464691162109,128.37076131031205,-199.36921398451017,127180676
fw,-85.9730911254882,-59.4544219970703,116.54880916737473,-187.62398422399866,127197343
fw,-84.455078125,-56.7571792602539,97.27753017789561,-169.5047800053038,127214010
fw,-83.3722686767578,-54.2967987060546,74.11735383197461,-146.00660488728346,127230677
fw,-83.1810302734375,-51.9722557067871,51.53611056613815,-118.76026070408511,127247344
fw,-83.6173706054687,-50.7420959472656,33.67355406708491,-89.78342420579247,127264011
fw,-84.1243438720703,-50.4459228515625,23.22641087451749,-61.07184652716902,127280678
fw,-84.2355728149414,-50.5528411865234,20.838654824919626,-34.15736126251661,127297345
fw,-83.6252670288086,-50.8088607788085,25.175117591961847,-9.807912129360698,127314012
fw,-82.5541305541992,-50.9562759399414,33.57298657690534,11.987012080546748,127330679
fw,-81.4822616577148,-51.0239524841308,42.95745036924152,31.720773724886886,127347346
fw,-80.6278915405273,-51.0498962402343,50.66927436615125,49.89063237539176,127364013
fw,-79.8642196655273,-51.288230895996,54.97075611940568,66.56564628576318,127380680
fw,-79.1685333251953,-52.4656829833984,55.178736231443025,81.22450057822243,127397347
fw,-78.4455642700195,-55.0222816467285,51.51530819133054,92.95615186173816,127414014
fw,-77.7529144287109,-57.8589363098144,44.81583019567373,100.91848203531974,127430681
fw,-77.132209777832,-59.8780136108398,36.203296735369136,104.79862078050796,127447348
fw,-76.6329956054687,-61.7977981567382,26.779319764408193,105.01854448037437,127464015
fw,-76.3202133178711,-62.2545318603515,17.342745618555078,102.58825720926686,127480682
fw,-76.3387680053711,-63.4498214721679,8.146986178485607,98.71724853190392,127497349
fw,-76.636489868164,-65.0198059082031,-1.263692950788649,94.41286767107074,127514016
fw,-77.1629028320312,-66.4281768798828,-12.068952544544079,90.25893809195138,127530683
fw,-77.7788925170898,-67.8078002929687,-25.969351308655536,86.43066511774373,127547350
fw,-78.3749694824218,-69.2906799316406,-44.74622873110374,82.86941964355552,127564017
fw,-79.1488800048828,-70.610237121582,-69.65401401479063,79.48430981298583,127580684
fw,-80.3979034423828,-71.6074752807617,-100.80498921089823,76.27005064967207,127597351
fw,-82.4590682983398,-72.5336837768554,-136.75040291440996,73.3009418545547,127614018
fw,-85.2049026489257,-73.6184005737304,-174.42993654558813,70.63894897251164,127630685
fw,-87.8527908325195,-74.7451171875,-209.5646871051526,68.23835199890155,127647352
fw,-86.8735656738281,-75.7665863037109,-237.4468493548206,65.91713014244588,127664019
fw,-82.7685012817382,-76.8248748779296,-253.9664525370123,63.412606746770294,127680686
fw,-76.611831665039,-78.0513153076171,-256.6238555624094,60.486903666515616,127697353
fw,-71.6322555541992,-79.2270202636718,-245.22412251452363,57.026252107168716,127714020
fw,-68.5432586669921,-80.3703231811523,-221.98933469252367,53.089937121621624,127730687
fw,-66.0455703735351,-81.5179138183593,-191.00035216594753,48.89427617696891,127747354
fw,-63.7756767272949,-82.5446548461914,-157.13301115394117,44.74484858536899,127764021
fw,-62.0316429138183,-83.2255554199218,-124.83945839731032,40.94448403217328,127780688
fw,-60.7749977111816,-83.6973114013671,-97.1448216990534,37.707976597170436,127797355
fw,-59.7534103393554,-84.1744232177734,-75.11235938049691,35.11352310053051,127814022
fw,-58.8063735961914,-84.7868423461914,-57.86776513712856,33.11100641399008,127830689
fw,-58.0647010803222,-85.4596405029296,-43.12646799641188,31.581296657332334,127847356
fw,-57.3885879516601,-86.0918960571289,-28.056575473199022,30.40914646393828,127864023
fw,-56.8718223571777,-86.6246109008789,-10.242606476733936,29.520127656136882,127880690
fw,-56.6256980895996,-87.0068969726562,11.501804464943495,28.853056037904988,127897357
fw,-56.7857551574707,-87.2771759033203,36.687714667557394,28.28028072673383,127914024
fw,-57.3698539733886,-87.4961013793945,63.198833710471426,27.52101611135359,127930691
fw,-59.6404075622558,-87.6999816894531,87.83032814867921,26.097492661181647,127947358
fw,-62.1677551269531,-87.8980178833007,107.16631724516454,23.36045192382092,127964025
fw,-64.5941619873046,-88.0466613769531,118.52941362254604,18.57679358807949,127980692
fw,-66.5017395019531,-88.1389083862304,120.7169772529596,11.049064987236825,127997359
fw,-68.1281204223632,-88.1446990966796,114.33310502156816,0.23431115699932448,128014026
fw,-69.9993591308593,-88.0807189941406,101.67486605230498,-14.15776247572059,128030693
fw,-71.6722869873046,-87.9659652709961,86.24925094817976,-32.09527778473427,128047360
fw,-73.0112609863281,-87.5207748413086,72.04601952908415,-53.187812607815104,128064027
fw,-73.957046508789,-86.455696105957,62.70064696117615,-76.68792175658633,128080694
fw,-74.4465942382812,-84.7936172485351,60.69452733018724,-101.53013883760966,128097361
fw,-75.0291366577148,-82.6266098022461,66.75984675593389,-126.39574957134191,128114028
fw,-76.2241439819336,-80.0478973388671,79.64805139676015,-149.78453315116806,128130695
fw,-77.8706970214843,-77.2446365356445,96.35256967995862,-170.08351180304365,128147362
fw,-79.7666854858398,-74.1111373901367,112.7603480426276,-185.647071401397,128164029
fw,-81.7858963012695,-70.6964111328125,124.59218849166058,-194.9247409948608,128180696
fw,-83.8102722167968,-67.3172607421875,128.42249033958237,-196.66834102626476,128197363
fw,-85.9043273925781,-63.8617973327636,122.54952105831114,-190.2096539977144,128214030
fw,-86.6860733032226,-60.7757682800293,107.49845591879054,-175.740070476642,128230697
fw,-85.4148254394531,-58.1897010803222,85.9817689259599,-154.4795328087347,128247364
fw,-84.9711074829101,-55.9671669006347,62.2500932169285,-128.62428713822175,128264031
fw,-85.6207809448242,-54.3160400390625,40.960913413308,-101.01877380625503,128280698
fw,-86.4559173583984,-53.5054473876953,25.90854255741378,-74.58821864782293,128297365
fw,-86.8782653808593,-53.304874420166,19.060931535596104,-51.66500608758863,128314032
fw,-86.5165405273437,-53.4403343200683,20.240174712436733,-33.411037782456305,128330699
fw,-85.5477218627929,-53.5350532531738,27.50547627062284,-19.546113192485663,128347366
fw,-84.2268829345703,-53.3692207336425,38.00603415788516,-8.51643436813524,128364033
fw,-83.0243377685546,-52.9015045166015,48.919454358977696,1.9106554032126406,128380700
fw,-82.2049026489257,-52.3498458862304,58.13146224872155,13.807500674378309,128397367
fw,-81.4561920166015,-51.9735412597656,64.48909224704447,28.299977415348827,128414034
fw,-80.46533203125,-52.2320709228515,67.66283432778843,45.13511408582424,128430701
fw,-79.3718795776367,-53.8272476196289,67.78627822882036,62.77536673225406,128447368
fw,-78.2966613769531,-56.3486175537109,65.06621508115124,78.97499557390395,128464035
fw,-77.2689437866211,-58.3921699523925,59.4988935885091,91.58745832330796,128480702
fw,-76.4644088745117,-59.7119522094726,50.74633903730933,99.27144930664315,128497369
fw,-75.9255294799804,-61.1753005981445,38.164273399990954,101.85195505686457,128514036
fw,-75.5749130249023,-62.5998306274414,20.944029803943444,100.27870952963583,128530703
fw,-75.5865249633789,-63.9252586364746,-1.6728919707862318,96.2783652807652,128547370
fw,-76.1310882568359,-65.6264572143554,-30.141867679984266,91.84818412136174,128564037
fw,-77.2090301513671,-66.5244827270507,-64.35177140291754,88.71746488703451,128580704
fw,-78.7777328491211,-67.3632354736328,-103.38127715998132,87.87697692173454,128597371
fw,-80.9202194213867,-68.1733093261718,-145.31914863528198,89.27900612180142,128614038
fw,-83.4517440795898,-69.1506042480468,-187.21440401899707,91.81577100146272,128630705
fw,-85.7450408935546,-70.7358474731445,-225.23522529537644,93.64179536682926,128647372
fw,-85.9040451049804,-72.886734008789,-255.10062260507206,92.79454047566605,128664039
fw,-83.3975296020507,-75.2777099609375,-272.7934781854218,87.92405822805698,128680706
fw,-78.7961654663086,-77.1741104125976,-275.46345556711157,78.84939979229624,128697373
fw,-71.9212265014648,-78.2778854370117,-262.29710264429883,66.69464202857512,128714040
fw,-67.7384490966796,-78.7211837768554,-235.03119807887145,53.530611326059194,128730707
fw,-64.868049621582,-78.8496322631836,-197.81846316795438,41.676326998162274,128747374
fw,-62.7772331237793,-79.2929000854492,-156.37333559082637,32.96603321240798,128764041
fw,-61.5219955444335,-79.8613357543945,-116.62938727800623,28.277084731302708,128780708
fw,-61.0586547851562,-80.4325485229492,-83.34316237844553,27.461150999760264,128797375
fw,-60.3440170288085,-81.0309753417968,-59.07914107676472,29.628957924026068,128814042
fw,-59.4232559204101,-81.7796554565429,-43.84459453319392,33.608266168128075,128830709
fw,-58.5708808898925,-82.628921508789,-35.41204618765509,38.364929855984215,128847376
fw,-57.9140701293945,-83.4353256225586,-30.16525181258988,43.230665842923315,128864043
fw,-57.3697357177734,-84.1460952758789,-24.193249643570713,47.881986375565916,128880710
fw,-56.9806861877441,-84.8013763427734,-14.345874322499462,52.12391396167055,128897377
fw,-56.7052383422851,-85.4036026000976,0.9821469289236213,55.60974873154489,128914044
fw,-56.5036926269531,-85.8803024291992,21.493944337559856,57.643793695953164,128930711
fw,-56.9093360900878,-86.0735549926757,45.129152044726005,57.16505669283743,128947378
fw,-58.6585540771484,-85.9791717529296,68.66391485843137,52.92559899665556,128964045
fw,-60.8845176696777,-85.8125915527343,88.6166142502654,43.79910467961118,128980712
fw,-63.0930404663085,-85.7393417358398,102.202052068228,29.113117736011162,128997379
fw,-64.9512634277343,-85.7854614257812,108.0560694859009,8.898549654252053,129014046
fw,-66.2862396240234,-86.0030670166015,106.53980481912282,-16.018591019618942,129030713
fw,-68.4809799194336,-86.3817138671875,99.58229777813966,-44.11108961467946,129047380
fw,-70.0196304321289,-86.6038513183593,90.15128185669849,-73.40700613221522,129064047
fw,-70.860969543457,-86.024429321289,81.51275724090783,-101.84096918635024,129080714
fw,-71.5488662719726,-84.2749557495117,76.46451651971134,-127.6033859472617,129097381
fw,-72.7932434082031,-81.8650817871093,76.72449490086515,-149.38700900106878,129114048
fw,-74.4743881225586,-79.3496170043945,82.60808376196772,-166.46114266728148,129130715
fw,-76.327163696289,-76.8535995483398,93.0347403730578,-178.5686775420825,129147382
fw,-78.1643905639648,-74.0946273803711,105.80682310582888,-185.71695895981523,129164049
fw,-79.9227218627929,-70.8569946289062,118.05933223059517,-187.9781095457598,129180716
fw,-81.5698165893554,-67.7017364501953,126.79770040923233,-185.39729532563655,129197383
fw,-83.4152526855468,-64.4468917846679,129.47733279742295,-178.0387013274838,129214050
fw,-85.4411315917968,-61.4918937683105,124.57921798216785,-166.12260056523945,129230717
fw,-87.1693878173828,-59.1827507019043,112.08401052026014,-150.16544969765954,129247384
fw,-86.6040267944336,-57.2230110168457,93.68153399107115,-131.04298230654683,129264051
fw,-85.6878433227539,-55.3261337280273,72.54932626749631,-109.93774389843706,129280718
fw,-85.6169815063476,-53.7917556762695,52.64901212948708,-88.17695904880343,129297385
fw,-86.0690689086914,-52.8151702880859,37.69613203301541,-66.99571534385825,129314052
fw,-86.4453201293945,-52.3838119506835,30.14095222908061,-47.280473886722305,129330719
fw,-86.1577453613281,-52.3453063964843,30.530167447257003,-29.36909597737595,129347386
fw,-85.3438949584961,-52.3994445800781,37.47078482729317,-12.994170066413044,129364053
fw,-84.0819931030273,-52.4112434387207,48.17069797001059,2.569819940090978,129380720
fw,-82.5650482177734,-52.3337860107421,59.31555334723863,18.167565514672805,129397387
fw,-81.1319808959961,-52.2944030761718,67.95197884390086,34.33849399668513,129414054
fw,-79.9539642333984,-52.3851737976074,72.09990806783617,50.98003740423348,129430721
fw,-78.9150390625,-53.2617301940918,70.96228239376177,67.26482041395873,129447388
fw,-77.9461517333984,-55.495620727539,64.76075275182767,81.87968780686,129464055
fw,-77.1161499023437,-57.7937545776367,54.335147346240994,93.5004315724676,129480722
fw,-76.4863204956054,-59.0370330810546,40.676783909358875,101.29398810133866,129497389
fw,-76.1716537475586,-60.4097328186035,24.537961351780247,105.23331710444477,129514056
fw,-76.2742156982421,-62.2046585083007,6.208026502736173,106.11636146120324,129530723
fw,-76.7243728637695,-64.1685028076171,-14.502849209923278,105.30828955878691,129547390
fw,-77.4855499267578,-65.7714538574218,-38.07231187075014,104.29857460443667,129564057
fw,-78.3206176757812,-66.6809387207031,-64.90955026050572,104.19081383064055,129580724
fw,-79.451057434082,-67.4984741210937,-94.92595037250045,105.26869271794943,129597391
fw,-81.1455001831054,-68.4208755493164,-127.16647814861147,106.80375793991831,129614058
fw,-83.4845809936523,-70.0846862792968,-159.64183197474205,107.23840570692417,129630725
fw,-85.6569290161132,-72.4462966918945,-189.45549778775964,104.75416593637286,129647392
fw,-86.499153137207,-75.2247848510742,-213.23842122120806,98.0505326615113,129664059
fw,-84.8769989013671,-77.3755493164062,-227.8210532818422,87.00986288484981,129680726
fw,-81.4053649902343,-78.5840988159179,-231.00303081257942,72.92005279368014,129697393
fw,-75.9389495849609,-78.7703704833984,-222.2193907178264,58.11034064485404,129714060
fw,-72.2809219360351,-78.6294479370117,-202.86813778036648,45.14516556523545,129730727
fw,-70.1532974243164,-78.9233932495117,-176.11833019235448,35.94679170844891,129747394
fw,-68.1407699584961,-79.8030853271484,-146.1927932304782,31.237181215315466,129764061
fw,-66.6513290405273,-80.8381195068359,-117.33816391609363,30.49834233840148,129780728
fw,-65.5966262817382,-81.6233978271484,-92.81912195339414,32.38329304677147,129797395
fw,-64.5209350585937,-82.2785415649414,-74.23908477650205,35.329363892246974,129814062
fw,-63.3833770751953,-83.0493469238281,-61.347164156813356,38.10194985077306,129830729
fw,-62.3972206115722,-83.8504333496093,-52.328372790271665,40.09047877334145,129847396
fw,-61.5836791992187,-84.6210556030273,-44.44926115764352,41.310295452982906,129864063
fw,-60.9501304626464,-85.3859939575195,-34.86778140066922,42.1768702810726,129880730
fw,-60.4984703063964,-86.1566696166992,-21.410217290883114,43.18267758644817,129897397
fw,-60.0846824645996,-86.8330001831054,-3.1466177082765174,44.60964900345769,129914064
fw,-59.7655029296875,-87.2230072021484,19.361124142351148,46.360774264022034,129930731
fw,-60.137939453125,-87.2830734252929,44.206620346751066,47.92729656812072,129947398
fw,-62.1217308044433,-87.1802673339843,68.66024143874893,48.46076544380005,129964065
fw,-64.5931396484375,-87.0456085205078,89.92270352895105,46.90739242569383,129980732
fw,-66.5409164428711,-86.8861846923828,105.86983373018391,42.174290479540005,129997399
fw,-68.3502807617187,-86.6175994873046,115.54368756755551,33.3106895370811,130014066
fw,-69.9490585327148,-86.2327270507812,119.2585800480049,19.686983691557554,130030733
fw,-71.9557189941406,-86.0403747558593,118.35012379718192,1.1426627160668898,130047400
fw,-74.0604095458984,-86.2384948730468,114.70243853928748,-21.933118617796854,130064067
fw,-75.8748703002929,-86.7191390991211,110.20733803072874,-48.61288344900168,130080734
fw,-77.6998672485351,-87.0646896362304,106.27827334769663,-77.53021439646383,130097401
fw,-78.9484100341796,-86.6415328979492,103.51384274359393,-107.03588265152682,130114068
fw,-79.9657897949218,-85.216438293457,101.59342927577308,-135.36932868871068,130130735
fw,-81.4076080322265,-82.9173965454101,99.46186721739913,-160.81318620608366,130147402
fw,-83.4967575073242,-80.1435241699218,95.78652269119793,-181.81765680855085,130164069
fw,-85.9141464233398,-77.0284118652343,89.55245863652954,-197.10057310568882,130180736
fw,-87.9217071533203,-73.5658264160156,80.56052517715527,-205.7395207307283,130197403
fw,-88.8194885253906,-70.0735168457031,69.5942910733132,-207.26662462235635,130214070
fw,-88.9442672729492,-66.499771118164,58.16036404039735,-201.75359101482138,130230737
fw,-88.6084442138671,-63.3020973205566,47.921154244696844,-189.84773701966984,130247404
fw,-88.0898208618164,-60.5747756958007,40.1000479194978,-172.71097663172037,130264071
fw,-87.482307434082,-58.1059913635253,35.141274235642776,-151.83665485073809,130280738
fw,-86.7247543334961,-56.2638778686523,32.752321389769726,-128.76752513923586,130297405
fw,-86.0147399902343,-54.971881866455,32.25186678097499,-104.78988427832537,130314072
fw,-85.3136215209961,-53.9090461730957,33.0132653629262,-80.7078036753531,130330739
fw,-84.5815277099609,-52.8992500305175,34.78429372615829,-56.78729287536059,130347406
fw,-83.9680480957031,-52.1486511230468,37.749834005764505,-32.89969657351179,130364073
fw,-83.430305480957,-51.8474388122558,42.32646492468413,-8.810906840700522,130380740
fw,-82.8576507568359,-51.8122978210449,48.786012935628804,15.499623067253847,130397407
fw,-82.1804428100586,-52.0786437988281,56.86509953136919,39.6189047161441,130414074
fw,-81.3207244873046,-52.7711486816406,65.51403680626382,62.671471076699206,130430741
fw,-80.2305679321289,-54.0883255004882,72.88000351736163,83.50334877527631,130447408
fw,-78.9670944213867,-56.6534118652343,76.53614193688547,101.01469740993238,130464075
fw,-77.6784973144531,-59.2210807800293,73.89426111019412,114.50037556835026,130480742
fw,-76.5532684326171,-61.0428504943847,62.69692369742917,123.83490052809304,130497409
fw,-75.7971115112304,-63.0289802551269,41.480189068399405,129.40469573463724,130514076
fw,-75.5856323242187,-64.1661911010742,9.922326532789334,131.82335095287144,130530743
fw,-76.1648025512695,-66.3125610351562,-30.96903104747914,131.58240832755536,130547410
fw,-77.5863189697265,-67.68505859375,-78.84366908556201,128.817295594152,130564077
fw,-79.6042251586914,-69.0334701538086,-130.16023510968677,123.3016232573724,130580744
fw,-82.307876586914,-70.783462524414,-180.48981489868248,114.67589995317142,130597411
fw,-85.4791870117187,-72.8953399658203,-224.967269288729,102.81973608640006,130614078
fw,-87.1948852539062,-75.2775344848632,-258.88691474498825,88.20982117602928,130630745
fw,-84.9554672241211,-76.6726837158203,-278.4137178777545,72.0836687503352,130647412
fw,-79.9495773315429,-76.9966354370117,-281.32036610445607,56.283012255381266,130664079
fw,-73.1968383789062,-76.9820404052734,-267.57501697101765,42.79282752322733,130680746
fw,-69.5341796875,-77.2442855834961,-239.54656715192186,33.15897422918227,130697413
fw,-66.8701477050781,-77.95263671875,-201.65095619453058,28.044976888854908,130714080
fw,-64.8473434448242,-79.023941040039,-159.4622563043024,27.11496010349411,130730747
fw,-63.4124526977539,-79.7564239501953,-118.546124397293,29.259431069446926,130747414
fw,-62.2617721557617,-80.4140090942382,-83.37760219161544,33.0297999325105,130764081
fw,-61.1568603515625,-81.0838317871093,-56.62822435015156,37.092392789395056,130780748
fw,-60.2517852783203,-81.6925811767578,-38.93304606655977,40.548147700479845,130797415
fw,-59.7883911132812,-82.4379730224609,-29.089861123930845,43.043889413391085,130814082
fw,-59.5739212036132,-83.238655090332,-24.5608548501907,44.68649218659616,130830749
fw,-59.2970886230468,-84.1152114868164,-22.13778898679023,45.83637785001172,130847416
fw,-58.903148651123,-84.9236450195312,-18.65300624974004,46.87904496232694,130864083
fw,-58.4509506225585,-85.4278717041015,-11.629303935257788,48.047667987544926,130880750
fw,-57.9559059143066,-85.6139450073242,0.24354662144352657,49.32194655773154,130897417
fw,-57.7721519470214,-85.6378097534179,16.91124188826412,50.39480444938633,130914084
fw,-58.8327903747558,-85.7740402221679,37.091572075210244,50.693954683898724,130930751
fw,-60.5563201904296,-86.0486450195312,58.70236246852781,49.45540709790683,130947418
fw,-62.1589965820312,-86.2625198364257,79.43304980332529,45.84758634183109,130964085
fw,-63.8538475036621,-86.2242584228515,97.26832190862768,39.12864302330887,130980752
fw,-65.0049667358398,-86.0064926147461,110.82600702580073,28.797080178272495,130997419
fw,-66.7552337646484,-85.9169692993164,119.48475887538274,14.688116622508156,131014086
fw,-69.1450042724609,-86.0849838256836,123.36496041968282,-3.012571604788237,131030753
fw,-71.3906936645507,-86.4332275390625,123.23299997575971,-23.828971647076155,131047420
fw,-73.9307098388671,-86.7262496948242,120.34477050438292,-47.08897625807504,131064087
fw,-76.2589721679687,-86.701057434082,116.19780161591589,-72.00674649559089,131080754
fw,-77.8891830444336,-85.9864425659179,112.17550796116882,-97.72386272227926,131097421
fw,-78.9851150512695,-84.5496826171875,109.14061949533821,-123.30362131430783,131114088
fw,-80.1263046264648,-82.6047973632812,107.11955307445348,-147.6923117104677,131130755
fw,-81.4971694946289,-80.2610626220703,105.2475693203807,-169.67752028805018,131147422
fw,-83.3771209716796,-77.5695877075195,102.07159211520442,-187.8880528122936,131164089
fw,-85.6101913452148,-74.3258514404296,96.1515861014346,-200.88328878793004,131180756
fw,-87.8270568847656,-70.7729187011718,86.74002176903481,-207.3567213452148,131197423
fw,-88.4932479858398,-67.1024551391601,74.24361781919333,-206.42685921708855,131214090
fw,-88.0491638183593,-63.3621635437011,60.23732957012069,-197.92863288906187,131230757
fw,-87.8045654296875,-60.2368240356445,46.99405444548202,-182.58352817837897,131247424
fw,-87.4568557739257,-57.7601928710937,36.72398403493373,-161.945099381521,131264091
fw,-87.0442886352539,-55.9441184997558,30.854279905560766,-138.09248276361612,131280758
fw,-86.5558776855468,-54.3605308532714,29.64114172466191,-113.14794548218265,131297425
fw,-86.0366134643554,-53.32958984375,32.227457066199,-88.77396978669479,131314092
fw,-85.2985610961914,-52.5573997497558,37.05785710043424,-65.82216574428413,131330759
fw,-84.3568725585937,-51.7776336669921,42.44092174132357,-44.255913391618414,131347426
fw,-83.4457015991211,-51.1739501953125,47.03596886990196,-23.373106079793907,131364093
fw,-82.6087188720703,-50.8439826965332,50.115348976444494,-2.249354168194777,131380760
fw,-81.8348541259765,-50.8523826599121,51.56649778838367,19.755310868740217,131397427
fw,-81.112060546875,-51.1975975036621,51.69966874849586,42.6031828957232,131414094
fw,-80.3619766235351,-51.9054412841796,50.9768416958854,65.43619674747359,131430761
fw,-79.5390548706054,-52.9613342285156,49.76541890159193,86.73941647324796,131447428
fw,-78.7246704101562,-55.4836273193359,48.17124452300174,104.7633694329641,131464095
fw,-78.0023117065429,-58.4271049499511,45.95680400951187,118.05519716123173,131480762
fw,-77.3713302612304,-60.5971183776855,42.52748754361539,125.88762866311102,131497429
fw,-76.8063507080078,-62.630443572998,36.972335880595736,128.40898661668575,131514096
fw,-76.3561248779296,-63.409912109375,28.159205252084604,126.47431842369095,131530763
fw,-76.1594619750976,-65.1155090332031,14.89155896013096,121.2790653444966,131547430
fw,-76.4218978881836,-66.9806900024414,-3.8698553163172784,113.99206616525522,131564097
fw,-77.0243301391601,-68.1628952026367,-28.73022585773329,105.53353317335284,131580764
fw,-77.7919998168945,-69.417739868164,-59.56106931321362,96.52823890380917,131597431
fw,-78.8813781738281,-70.8173675537109,-95.24291000789978,87.37722815844347,131614098
fw,-80.6289367675781,-72.1338348388671,-133.54604834919877,78.36935142899469,131630765
fw,-83.2042541503906,-73.4125137329101,-171.24539458162334,69.77333153580524,131647432
fw,-85.7144012451171,-74.5645599365234,-204.5155147628526,61.88014457558706,131664099
fw,-86.6415328979492,-75.2245941162109,-229.566849059002,54.99029216223312,131680766
fw,-84.13525390625,-75.7599792480468,-243.3996315889474,49.35976591821763,131697433
fw,-78.8299942016601,-76.4260330200195,-244.49186757805285,45.133896935752944,131714100
fw,-74.3683471679687,-77.3058013916015,-233.21367486285223,42.30494301169261,131730767
fw,-71.5687026977539,-78.3887252807617,-211.80225353307097,40.717683327218296,131747434
fw,-69.1881713867187,-79.4494171142578,-183.86618011712105,40.12040643914623,131764101
fw,-66.8287277221679,-80.3291549682617,-153.5666995501962,40.23534985862759,131780768
fw,-64.5709686279296,-81.0578002929687,-124.73227706783402,40.81784560133962,131797435
fw,-62.7712821960449,-81.6015548706054,-100.13654334829974,41.684907090475654,131814102
fw,-61.6570129394531,-82.0862655639648,-81.06330297822554,42.71110517271687,131830769
fw,-60.8916702270507,-82.7412643432617,-67.1922899206436,43.803973769548655,131847436
fw,-60.1621170043945,-83.5382308959961,-56.800571056966554,44.87601140875297,131864103
fw,-59.4150505065918,-84.3301620483398,-47.25249063735958,45.82161948600853,131880770
fw,-58.7035789489746,-84.9677963256836,-35.70709075505736,46.492699049195664,131897437
fw,-58.1084632873535,-85.4405746459961,-19.907925468242667,46.66320238067523,131914104
fw,-57.6910438537597,-85.7903442382812,1.131332827325167,45.98877909109371,131930771
fw,-57.4627571105957,-86.0542984008789,26.739521190432033,43.9899785346266,131947438
fw,-57.7796516418457,-86.2192306518554,54.64018882400458,40.09329461332708,131964105
fw,-60.1066436767578,-86.2962493896484,81.47030428727027,33.741585907291,131980772
fw,-62.7864112854003,-86.3291244506836,103.63849220396663,24.5438472579627,131997439
fw,-64.6852493286132,-86.3874053955078,118.2659513620143,12.399640649696375,132014106
fw,-66.5424499511718,-86.5867767333984,123.9268587124533,-2.468706101109616,132030773
fw,-68.6875762939453,-87.0060501098632,120.99981791485294,-19.603694361579517,132047440
fw,-70.880142211914,-87.3924102783203,111.58248866260396,-38.48308938798685,132064107
fw,-72.8287124633789,-87.1680068969726,99.0207739152275,-58.68307835908712,132080774
fw,-74.4401779174804,-86.3044509887695,87.15058865353024,-79.93811955768251,132097441
fw,-75.3968505859375,-85.026611328125,79.38907989887394,-102.0520583634913,132114108
fw,-75.9007873535156,-83.4147415161132,77.86651641348492,-124.69447947601401,132130775
fw,-76.6876831054687,-81.2664413452148,82.83036177620221,-147.177853759748,132147442
fw,-77.979263305664,-78.6569137573242,92.52686740374973,-168.32312676721014,132164109
fw,-79.8926315307617,-75.6703796386718,103.64765692442535,-186.48649593501634,132180776
fw,-82.1258544921875,-72.2345581054687,112.25131421127857,-199.76405655141363,132197443
fw,-84.411880493164,-68.4589157104492,114.90651913301082,-206.33709832416946,132214110
fw,-86.7422561645507,-64.4866180419921,109.71979424617346,-204.8782530290739,132230777
fw,-87.8702697753906,-61.3482208251953,96.93180011742214,-194.91286663924325,132247444
fw,-86.9601135253906,-58.6625213623046,78.88183777355849,-177.0314607254626,132264111
fw,-86.5193557739257,-55.9611740112304,59.32850795117586,-152.8814356043533,132280778
fw,-86.5275726318359,-53.5442695617675,42.33383924963747,-124.91448052698651,132297445
fw,-86.6653442382812,-52.0679244995117,31.088778740355963,-95.91616230542773,132314112
fw,-86.8036499023437,-51.7090263366699,27.087056281310257,-68.40245010518035,132330779
fw,-86.5562210083007,-51.617992401123,29.908159637255622,-44.037744044456694,132347446
fw,-85.5627059936523,-51.5887336730957,37.61436355564766,-23.272759605951407,132364113
fw,-84.2188110351562,-51.4576263427734,47.52954000975213,-5.361685164915015,132380780
fw,-83.1385345458984,-51.2055587768554,57.06052327371153,11.213712726263896,132397447
fw,-82.1590805053711,-51.0632247924804,64.27914944048321,28.050534653423558,132414114
fw,-81.0941314697265,-51.320701599121,68.1475969242272,46.11457929671857,132430781
fw,-80.0885696411132,-51.6060142517089,68.43600674168303,65.28027052917287,132447448
fw,-79.1498641967773,-52.7996711730957,65.46962818221097,84.2965621778143,132464115
fw,-78.2606506347656,-55.6467323303222,59.84155396691761,101.19046477968318,132480782
fw,-77.3953094482421,-58.5157814025878,52.175158583435234,113.93905776579666,132497449
fw,-76.6014175415039,-60.54780960083,42.96195334359567,121.12673223409318,132514116
fw,-75.9966354370117,-62.487133026123,32.46207863018508,122.33121232938136,132530783
fw,-75.6155395507812,-63.3316192626953,20.644745705473163,118.14067659638063,132547450
fw,-75.4843292236328,-65.0432434082031,7.160503671875083,109.88669687359096,132564117
fw,-75.7946548461914,-66.4628677368164,-8.637326254582614,99.26710089075449,132580784
fw,-76.5567016601562,-67.6419296264648,-27.58628178772341,88.00283586280545,132597451
fw,-77.4797439575195,-68.7531585693359,-50.49276947754292,77.58716257308798,132614118
fw,-78.4745407104492,-69.9090805053711,-77.80119787511173,69.11984687816751,132630785
fw,-79.8228912353515,-70.6874160766601,-109.22232552373333,63.20146188171878,132647452
fw,-81.9964141845703,-71.2803344726562,-143.4427879548265,59.88048560206195,132664119
fw,-84.8802947998046,-72.0568771362304,-178.0459331939071,58.67428081976672,132680786
fw,-87.6805801391601,-72.9657669067382,-209.7244806186988,58.69659095102199,132697453
fw,-87.1820068359375,-74.0103759765625,-234.78438116496642,58.89695359395445,132714120
fw,-83.733154296875,-75.3012619018554,-249.86151867006612,58.35967309297106,132730787
fw,-78.8585891723632,-76.7626419067382,-252.70701275849862,56.56213712047124,132747454
fw,-73.1741333007812,-77.9672622680664,-242.83653577334476,53.49367255300699,132764121
fw,-69.3309173583984,-78.9405746459961,-221.81061950917697,49.59299226181163,132780788
fw,-66.6082687377929,-79.8312301635742,-192.97921015701726,45.54299415615723,132797455
fw,-64.4989013671875,-80.5995178222656,-160.70564250620743,42.01826175712297,132814122
fw,-62.7446861267089,-81.3245010375976,-129.2974958485923,39.4835470338816,132830789
fw,-61.3923759460449,-81.9548263549804,-101.98478173721891,38.10044149491811,132847456
fw,-60.3747062683105,-82.5348968505859,-80.24729702403522,37.74740800694028,132864123
fw,-59.346809387207,-83.2276382446289,-63.65385237821222,38.11978999906988,132880790
fw,-58.4002342224121,-83.9565887451171,-50.21612963103855,38.856790158469416,132897457
fw,-57.7001495361328,-84.6343612670898,-37.12885531694347,39.64092283598532,132914124
fw,-57.1700210571289,-85.227798461914,-21.68608728067428,40.23351309995477,132930791
fw,-56.7893829345703,-85.6778564453125,-2.135789397391285,40.44395319617325,132947458
fw,-56.645580291748,-85.9989471435546,21.744048983297894,40.0651058695821,132964125
fw,-56.7815399169921,-86.227424621582,48.50258182304677,38.82256671436728,132980792
fw,-58.3444938659668,-86.3682708740234,75.3590898947178,36.37270815097074,132997459
fw,-61.246238708496,-86.4493942260742,98.94533282878943,32.3525440388668,133014126
fw,-63.5483207702636,-86.4748001098632,116.22216694621048,26.453101231176827,133030793
fw,-65.7136535644531,-86.4682540893554,125.28073681200696,18.474658426057797,133047460
fw,-67.420166015625,-86.4631576538086,125.79914276739345,8.33328199402543,133064127
fw,-69.5495223999023,-86.465705871582,119.07436756402505,-3.983095416832137,133080794
fw,-71.4273147583007,-86.4621124267578,107.68760124992272,-18.479726894403758,133097461
fw,-73.1047439575195,-86.3597106933593,94.92442031186872,-35.19498742959571,133114128
fw,-74.707046508789,-85.9392471313476,84.07434325225263,-54.17540777629932,133130795
fw,-75.8158493041992,-85.1049499511718,77.72658784592527,-75.3734319143268,133147462
fw,-76.5097045898437,-83.8470001220703,77.186174666069,-98.49123001016271,133164129
fw,-77.5463485717773,-82.1526794433593,82.14388567778592,-122.82172807791405,133180796
fw,-78.9676284790039,-80.030029296875,90.71175879768694,-147.14729876006692,133197463
fw,-80.5161437988281,-77.4939498901367,99.86122326139764,-169.7475356897793,133214130
fw,-82.2657394409179,-74.621223449707,106.18963376921245,-188.54752174371936,133230797
fw,-84.1883697509765,-71.2603454589843,106.83694913860735,-201.41100304669942,133247464
fw,-86.2815322875976,-67.5869827270507,100.31357291927215,-206.5451512810938,133264131
fw,-87.1833877563476,-63.5584640502929,86.99656499632434,-202.9340398260326,133280798
fw,-86.5075607299804,-60.4319038391113,69.11390168344045,-190.674104806986,133297465
fw,-85.9685745239257,-57.8547019958496,50.17454114872158,-171.08089475184732,133314132
fw,-85.9623107910156,-55.5798950195312,33.99301578864925,-146.49303904421484,133330799
fw,-86.0270462036132,-53.8617248535156,23.623148261625055,-119.79609467563233,133347466
fw,-86.0607528686523,-52.5544624328613,20.561165149663676,-93.77983297562794,133364133
fw,-86.0002212524414,-52.103515625,24.46794064915698,-70.49752222354162,133380800
fw,-85.4871597290039,-51.7876510620117,33.450089375648346,-50.80968562970824,133397467
fw,-84.5118789672851,-51.3974533081054,44.73679950863838,-34.2627019021891,133414134
fw,-83.4467163085937,-50.9514350891113,55.48067943818501,-19.364843214268614,133430801
fw,-82.3914489746093,-50.5684204101562,63.4248642665472,-4.192514564217035,133447468
fw,-81.3214874267578,-50.3112068176269,67.28361091163931,12.863076909316376,133464135
fw,-80.2552490234375,-50.4292488098144,66.81210821796596,32.4586695377753,133480802
fw,-79.2525558471679,-50.7028770446777,62.63164579223782,53.9936945983854,133497469
fw,-78.4365310668945,-51.8099899291992,55.90812936678681,75.75349155174706,133514136
fw,-77.7791137695312,-54.5388755798339,47.97462060869153,95.4585385666458,133530803
fw,-77.1923675537109,-57.6001739501953,39.9706946015943,111.01089192276352,133547470
fw,-76.7154159545898,-59.5950393676757,32.556151089093404,121.13238856343317,133564137
fw,-76.370979309082,-61.2389793395996,25.742146420309425,125.63854353052642,133580804
fw,-76.135627746582,-62.9921379089355,18.864950963601665,125.28062245862901,133597471
fw,-76.0082397460937,-63.9996032714843,10.70650687878279,121.3004350361442,133614138
fw,-76.0911636352539,-65.6827163696289,-0.2554336523008075,114.94783891388192,133630805
fw,-76.4412002563476,-67.2545547485351,-15.504313702160042,107.17093516832742,133647472
fw,-76.9572601318359,-68.4704666137695,-36.10270581173788,98.55882544785747,133664139
fw,-77.7353286743164,-70.21826171875,-62.33969541909849,89.48137649750066,133680806
fw,-79.0665435791015,-71.7531967163086,-93.4850464945087,80.29127517871585,133697473
fw,-81.1650009155273,-72.7266693115234,-127.72039206615305,71.45242160378336,133714140
fw,-83.9327926635742,-73.5599365234375,-162.28686316322492,63.524009975295,133730807
fw,-86.7156829833984,-74.3456115722656,-193.84220361269294,57.023372227168984,133747474
fw,-88.3208923339843,-75.028579711914,-218.97938241227317,52.2579896591386,133764141
fw,-85.4567031860351,-75.8724288940429,-234.8316725801577,49.22162532317666,133780808
fw,-80.5836181640625,-76.7853622436523,-239.66034942793422,47.602097557473925,133797475
fw,-75.5143508911132,-77.8027725219726,-233.2804021827188,46.88857083874629,133814142
fw,-72.12841796875,-78.8477783203125,-217.16237593960815,46.52657280091756,133830809
fw,-69.4387741088867,-79.8160781860351,-194.1149577461481,46.060604111840064,133847476
fw,-67.0314102172851,-80.7655868530273,-167.60596251210913,45.2221095270997,133864143
fw,-64.8122406005859,-81.5437850952148,-140.92951359959656,43.95001874980705,133880810
fw,-63.0302963256835,-82.2417221069336,-116.47544691610062,42.357189461778184,133897477
fw,-61.576000213623,-82.9031677246093,-95.29278608710618,40.67095710489142,133914144
fw,-60.4536437988281,-83.5789260864257,-77.02808432662914,39.17611972657625,133930811
fw,-59.4882354736328,-84.2360534667968,-60.22090342542034,38.17271145624911,133947478
fw,-58.7490882873535,-84.7867355346679,-42.86793361985414,37.936536504366345,133964145
fw,-58.1811218261718,-85.2561264038086,-23.117579910847915,38.65669742337066,133980812
fw,-57.8879013061523,-85.6675872802734,0.07328855273807303,40.33677730275628,133997479
fw,-57.9538497924804,-86.0078659057617,26.49137102728239,42.67969595742924,134014146
fw,-58.3305320739746,-86.2545089721679,54.56394435260918,45.00678261396837,134030813
fw,-59.5544357299804,-86.3956069946289,81.65943250480606,46.26656572473626,134047480
fw,-62.4250526428222,-86.4553604125976,104.73494115300704,45.16290950579953,134064147
fw,-64.9378356933593,-86.416145324707,121.15065478512241,40.38810893503612,134080814
fw,-67.1753005981445,-86.2982635498046,129.39816081015547,30.90475367500831,134097481
fw,-69.023681640625,-86.1783828735351,129.52037484742837,16.198211652442023,134114148
fw,-71.2419281005859,-86.1407012939453,123.12123539634116,-3.572307368832185,134130815
fw,-73.3175430297851,-86.2846984863281,112.99449374955786,-27.56587108948415,134147482
fw,-75.4161758422851,-86.5441360473632,102.47757827206432,-54.39544160042314,134164149
fw,-76.8064727783203,-86.6068572998046,94.66474578387748,-82.36872017983902,134180816
fw,-77.7622680664062,-85.9556198120117,91.63693928274009,-109.7690345770827,134197483
fw,-78.5346145629882,-84.3615341186523,93.89633994831915,-135.10032783818087,134214150
fw,-79.7446823120117,-81.9802169799804,100.19343085761606,-157.22994634446607,134230817
fw,-81.5943527221679,-79.1459121704101,107.85667306645547,-175.39579567194835,134247484
fw,-83.8859939575195,-76.1268997192382,113.57900572688312,-189.09528677229966,134264151
fw,-86.3291244506836,-72.9331359863281,114.44112509469137,-197.92500534482855,134280818
fw,-88.1731872558593,-69.7493896484375,108.84136030193156,-201.46754627476025,134297485
fw,-87.1225433349609,-66.5691986083984,97.01040202874572,-199.30525240387587,134314152
fw,-85.8888626098632,-62.8605690002441,80.92150463130575,-191.17672302834376,134330819
fw,-85.5000305175781,-59.4225997924804,63.62458218238751,-177.20423373213535,134347486
fw,-85.369888305664,-56.6688537597656,48.25767502085521,-158.05734830336743,134364153
fw,-85.1537017822265,-54.7583961486816,37.11770996840812,-134.92995361239426,134380820
fw,-84.7199172973632,-53.3681297302246,31.129727315341558,-109.30209660642771,134397487
fw,-84.0423126220703,-52.6069145202636,29.858058809110428,-82.58041431866175,134414154
fw,-83.0391998291015,-52.0066108703613,31.96164743263929,-55.784663877460005,134430821
fw,-81.9507980346679,-51.4911193847656,35.83006162966166,-29.429893326515852,134447488
fw,-81.151008605957,-51.0717849731445,40.111612957634875,-3.6567887965167456,134464155
fw,-80.6182479858398,-51.0024871826171,43.950724417610154,21.460349306251224,134480822
fw,-80.1055526733398,-51.4974136352539,46.92146987223928,45.584519264987705,134497489
fw,-79.5084762573242,-52.2898483276367,48.78699534974922,67.93146419664896,134514156
fw,-78.7868347167968,-53.3070831298828,49.261980295175945,87.33091741841267,134530823
fw,-77.8859252929687,-55.5436096191406,47.90049882179245,102.53059345143178,134547490
fw,-76.9588470458984,-58.3580741882324,44.12684739388464,112.63289488396777,134564157
fw,-76.2260589599609,-60.4352340698242,37.3424563629291,117.48218836213006,134580824
fw,-75.8589859008789,-62.1710205078125,27.022078217738045,117.82463479834418,134597491
fw,-75.9245681762695,-63.850486755371,12.755267355189826,115.1554995988662,134614158
fw,-76.3664779663086,-65.2726211547851,-5.744110094301495,111.30100728116685,134630825
fw,-77.0392456054687,-66.6554565429687,-28.59567773247497,107.87858202520356,134647492
fw,-77.798713684082,-67.396240234375,-55.625667850618505,105.81001441875915,134664159
fw,-78.8586959838867,-68.6240081787109,-86.1650361891334,105.04478937973883,134680826
fw,-80.5629348754882,-69.990982055664,-118.85433616799966,104.60218515129736,134697493
fw,-82.9743499755859,-71.9900436401367,-151.571225341214,102.95347515905733,134714160
fw,-85.6146545410156,-74.2853927612304,-181.56935573677066,98.63937249740293,134730827
fw,-87.6461563110351,-76.2532730102539,-205.84818685525022,90.89671473912749,134747494
fw,-86.5151901245117,-77.6646499633789,-221.7000594385234,80.02981912982946,134764161
fw,-82.9673995971679,-78.3955917358398,-227.32138865867103,67.35583559921844,134780828
fw,-77.5393371582031,-78.7891464233398,-222.3240012602082,54.746822155398775,134797495
fw,-73.6652297973632,-79.1854095458984,-207.95405095430203,43.97897546801917,134814162
fw,-71.3736114501953,-79.8088684082031,-186.8718972481723,36.176480761132225,134830829
fw,-69.3633346557617,-80.736328125,-162.49886678889612,31.569398369474705,134847496
fw,-67.4441604614257,-81.7591476440429,-138.1303360837376,29.621185477681315,134864163
fw,-65.6738586425781,-82.6435852050781,-116.11944274001252,29.413241667713038,134880830
fw,-64.1111602783203,-83.3019180297851,-97.38793890778439,30.08047775949271,134897497
fw,-62.8322639465332,-83.7953720092773,-81.37632677463571,31.10559907339487,134914164
fw,-61.7456703186035,-84.2232131958007,-66.4010076798649,32.377481993587025,134930831
fw,-60.87646484375,-84.6929702758789,-50.29160257444533,34.03981196553469,134947498
fw,-60.1951332092285,-85.2378234863281,-31.13513467465033,36.23831445017065,134964165
fw,-59.6770858764648,-85.7814178466796,-7.9397779685091825,38.890331613285305,134980832
fw,-59.416088104248,-86.1949157714843,18.9558297872144,41.56263500275332,134997499
fw,-59.8180313110351,-86.471694946289,47.85333167516579,43.48669992602112,135014166
fw,-61.3068237304687,-86.6476058959961,76.07716839022277,43.693065496822456,135030833
fw,-64.3063583374023,-86.7099075317382,100.66863137232448,41.217055483734434,135047500
fw,-66.6889266967773,-86.6634063720703,119.16732156919753,35.31465378691842,135064167
fw,-68.7737197875976,-86.5623092651367,130.21397340049901,25.627660419626416,135080834
fw,-70.73388671875,-86.4347610473632,133.7903236069659,12.252630035380287,135097501
fw,-72.8060760498046,-86.3482666015625,131.0715564074487,-4.302322011064208,135114168
fw,-74.9422378540039,-86.3740997314453,124.00374791746468,-23.25231688007877,135130835
fw,-76.7974548339843,-86.4025115966796,114.76927752155416,-43.71097421646471,135147502
fw,-78.5388107299804,-86.1670227050781,105.28331979995907,-64.84306677911614,135164169
fw,-79.9742202758789,-85.5582962036132,96.82441001288285,-85.94445946294297,135180836
fw,-80.9807586669921,-84.4819717407226,89.86875121201886,-106.43169974677596,135197503
fw,-82.1186294555664,-82.7854766845703,84.1637596230823,-125.76040013574601,135214170
fw,-83.7139434814453,-80.5621032714843,79.02137331484353,-143.31718879850135,135230837
fw,-85.5112686157226,-78.0532989501953,73.73333144468096,-158.3385961006671,135247504
fw,-86.8119888305664,-75.2910537719726,67.94346535336544,-169.90491567167663,135264171
fw,-87.5412216186523,-72.1961135864257,61.81293573243776,-177.0397265809736,135280838
fw,-87.8460540771484,-68.8781204223632,55.90981629123428,-178.91196321734319,135297505
fw,-87.7542343139648,-65.3662490844726,50.8999290162174,-175.08740428246654,135314172
fw,-87.2936935424804,-62.5342979431152,47.21974247944607,-165.73058477320117,135330839
fw,-86.5333251953125,-60.3778762817382,44.90651267877687,-151.65267313261648,135347506
fw,-85.6958465576171,-58.7628097534179,43.65362951849985,-134.15649949437073,135364173
fw,-84.851936340332,-57.1813430786132,43.02572165661827,-114.72160649466312,135380840
fw,-84.1672286987304,-55.692584991455,42.692581564197546,-94.64237402540397,135397507
fw,-83.6696472167968,-54.7986106872558,42.55725753070666,-74.7432169521196,135414174
fw,-83.2088088989257,-54.1167831420898,42.73308210465085,-55.258144760645685,135430841
fw,-82.618179321289,-53.6660537719726,43.40927092260143,-35.91038533510832,135447508
fw,-81.8820266723632,-53.3510704040527,44.68962057498081,-16.175593151278157,135464175
fw,-81.1070251464843,-53.1094627380371,46.48179348337701,4.343290782055723,135480842
fw,-80.3735656738281,-52.9290657043457,48.47401245880472,25.553548052166988,135497509
fw,-79.6303787231445,-53.1758651733398,50.191331285182365,46.670972339936704,135514176
fw,-78.8475265502929,-53.9108695983886,51.095899857693844,66.29600134105765,135530843
fw,-78.0538482666015,-55.8883094787597,50.68917111188446,82.78608639078158,135547510
fw,-77.2493743896484,-58.8992958068847,48.58235846479243,94.801409883919,135564177
fw,-76.4963607788086,-60.945026397705,44.516401165918865,101.78723143237771,135580844
fw,-75.8300552368164,-62.4045639038085,38.328332158026846,104.15664305398205,135597511
fw,-75.3060607910156,-63.4518585205078,29.874256160156502,103.08222604707034,135614178
fw,-74.9936981201171,-64.1313858032226,18.93031505133102,100.01380724101604,135630845
fw,-75.005012512207,-65.7550277709961,5.104512235370954,96.17258754639664,135647512
fw,-75.4805755615234,-67.1624450683593,-12.195298472003872,92.24894953091248,135664179
fw,-76.3184204101562,-68.4019317626953,-33.685460762575666,88.39037356965368,135680846
fw,-77.3076095581054,-69.7648696899414,-59.98536948887619,84.41298887571627,135697513
fw,-78.5139236450195,-71.2949905395507,-91.26196288172514,80.08721685486427,135714180
fw,-80.1895065307617,-72.4575271606445,-126.82363359937587,75.35122000900967,135730847
fw,-82.513313293457,-73.4103164672851,-164.80999668123638,70.37073659212342,135747514
fw,-85.1927871704101,-74.3343048095703,-202.13644094036516,65.45349606126612,135764181
fw,-87.0145645141601,-75.0933761596679,-234.80076723313482,60.89693111895518,135780848
fw,-85.3407897949218,-75.8012542724609,-258.56004640163746,56.86431661676473,135797515
fw,-80.7714614868164,-76.5924453735351,-269.86301794980835,53.347587527955895,135814182
fw,-74.1913452148437,-77.6840209960937,-266.79826985702186,50.217811342218276,135830849
fw,-69.6084671020507,-78.7478408813476,-249.73651794774082,47.32097932325545,135847516
fw,-66.4762649536132,-79.7680511474609,-221.3849572085726,44.564633680687194,135864183
fw,-63.9206047058105,-80.8999252319336,-186.17032881121244,41.95840850935116,135880850
fw,-61.8288879394531,-81.7567901611328,-149.1369755618699,39.602038852897344,135897517
fw,-60.2873077392578,-82.4219512939453,-114.72557964495239,37.6383215455056,135914184
fw,-59.360855102539,-82.9767761230468,-85.80335231234274,36.199005762604045,135930851
fw,-58.3998374938964,-83.5644073486328,-63.19117138289107,35.37090891334761,135947518
fw,-57.6163749694824,-84.2513732910156,-45.765001366145704,35.19673837617105,135964185
fw,-56.9824867248535,-84.9277725219726,-31.05404812389925,35.70072850696398,135980852
fw,-56.4962730407714,-85.5360412597656,-16.14305164145,36.907011186005626,135997519
fw,-56.13228225708,-86.0840377807617,1.3735108704600258,38.8177995984649,136014186
fw,-56.1183471679687,-86.5490646362304,22.637189873935274,41.34328279034762,136030853
fw,-56.4402732849121,-86.8947982788086,47.1686783085494,44.20901911416875,136047520
fw,-57.1868934631347,-87.0904693603515,73.00552458636498,46.88681548774075,136064187
fw,-59.5091361999511,-87.1167678833007,97.29605128861115,48.59038162688219,136080854
fw,-62.9300498962402,-86.9829330444336,117.16348004594853,48.3527523630656,136097521
fw,-65.2109298706054,-86.7510452270507,130.54774890485876,45.1731295398976,136114188
fw,-67.4504852294921,-86.4943542480468,136.73647625044285,38.19961086892447,136130855
fw,-69.1717224121093,-86.1759796142578,136.43224648718922,26.905957388804428,136147522
fw,-71.5074081420898,-85.880012512207,131.39626106073098,11.221677841232294,136164189
fw,-73.76220703125,-85.8879623413086,123.84429225761055,-8.418386418630064,136180856
fw,-75.2958450317382,-86.281005859375,115.80207044393141,-31.123383772752295,136197523
fw,-76.8253097534179,-86.8575134277343,108.59324160216451,-55.68550775950454,136214190
fw,-78.0416717529296,-87.0493240356445,102.58533217721188,-80.76746040792139,136230857
fw,-79.4723052978515,-86.3520278930664,97.26227542483011,-105.07901347381313,136247524
fw,-81.4307479858398,-84.7159881591796,91.60483538138237,-127.4925104385473,136264191
fw,-83.7218704223632,-82.427131652832,84.64822103101115,-147.07788460214007,136280858
fw,-85.6455841064453,-79.8780288696289,75.9982950182436,-163.07360683152334,136297525
fw,-86.7205734252929,-77.2526245117187,66.08672445610482,-174.83808552160585,136314192
fw,-87.3167190551757,-74.2375869750976,56.05521013260543,-181.83789928244363,136330859
fw,-87.4719085693359,-70.958740234375,47.33134548658396,-183.71408762325657,136347526
fw,-87.4729232788086,-67.4613800048828,41.09831104365145,-180.42040451711492,136364193
fw,-87.7311706542968,-64.4071578979492,37.89278382792059,-172.36650880521785,136380860
fw,-88.0630569458007,-62.0336990356445,37.48310845525364,-160.46576666718477,136397527
fw,-87.9461441040039,-60.0489616394043,39.03779600071609,-146.01396701092625,136414194
fw,-87.3668594360351,-58.0998382568359,41.470519597669856,-130.4017368773691,136430861
fw,-86.6735153198242,-56.299030303955,43.7983921659595,-114.74289712943337,136447528
fw,-86.001106262207,-55.2455444335937,45.383312138697484,-99.54313786873965,136464195
fw,-85.2813415527343,-54.3315925598144,46.00605116368805,-84.532504247128,136480862
fw,-84.5426788330078,-53.3133583068847,45.800090651061225,-68.74995773136969,136497529
fw,-83.7912368774414,-52.2075614929199,45.112660328009596,-50.89750148128078,136514196
fw,-83.0459060668945,-51.3720932006835,44.35800812439371,-29.881687793057345,136530863
fw,-82.2976531982421,-50.930248260498,43.90001969710359,-5.370328412176693,136547530
fw,-81.5359649658203,-50.8375511169433,43.97181672959504,21.838972648109355,136564197
fw,-80.8154983520507,-51.2964172363281,44.62415620716596,49.795250754449334,136580864
fw,-80.1396865844726,-52.49263381958,45.69468793239698,75.76554973182196,136597531
fw,-79.4428100585937,-54.5956764221191,46.79934949096636,96.91680319963545,136614198
fw,-78.6648864746093,-57.373664855957,47.354063368397306,111.09990524847643,136630865
fw,-77.8249282836914,-59.7726249694824,46.630415391334765,117.46284569101309,136647532
fw,-76.9732055664062,-61.8824501037597,43.833505410427506,116.66068285057734,136664199
fw,-76.2115249633789,-63.0817413330078,38.17484889127773,110.58213839286802,136680866
fw,-75.6674575805664,-63.679328918457,28.91263642589536,101.71334762527026,136697533
fw,-75.5428771972656,-64.9401626586914,15.353249846530112,92.40474778982045,136714200
fw,-75.9567184448242,-66.0844650268554,-3.1545606279131277,84.31847439183741,136730867
fw,-76.8065948486328,-67.1011276245117,-27.168449165347166,78.21365917981466,136747534
fw,-77.7749557495117,-68.4822998046875,-56.97932750861772,74.05693096711495,136764201
fw,-78.9101409912109,-69.6395187377929,-92.30221213499435,71.3214197173622,136780868
fw,-80.5164337158203,-70.5680160522461,-131.90715602595245,69.3081984723626,136797535
fw,-82.7907257080078,-71.5375747680664,-173.34884993065782,67.37839091911337,136814202
fw,-85.4482650756836,-72.6795349121093,-212.9739461002676,65.07132287859946,136830869
fw,-86.7171173095703,-73.6697845458984,-246.32185434220918,62.14394351646994,136847536
fw,-84.1868209838867,-74.4923095703125,-268.90964645347344,58.57158696134277,136864203
fw,-79.1778030395507,-75.4277267456054,-277.24596594974247,54.52301990485474,136880870
fw,-72.8281936645507,-76.5052719116211,-269.79280161163655,50.30431929790284,136897537
fw,-68.3919982910156,-77.4532394409179,-247.53847118482906,46.272919690927544,136914204
fw,-65.1371002197265,-78.4667587280273,-213.9218327345178,42.74287658186852,136930871
fw,-62.8023681640625,-79.5683822631836,-174.06823126279764,39.913976751214506,136947538
fw,-61.2682647705078,-80.3570785522461,-133.56578851420036,37.849065104699044,136964205
fw,-60.0877227783203,-81.0082931518554,-97.17804289406394,36.502395964387084,136980872
fw,-59.3024978637695,-81.6252288818359,-67.87902961508185,35.78391170799379,136997539
fw,-58.5018463134765,-82.3040542602539,-46.44691357284761,35.637048344784645,137014206
fw,-57.6750679016113,-83.0313720703125,-31.652690856292715,36.10353075223754,137030873
fw,-57.1064338684082,-83.7645187377929,-20.909894574472037,37.34396506187344,137047540
fw,-56.7710609436035,-84.4296493530273,-11.154695615858301,39.58748486142826,137064207
fw,-56.6783409118652,-85.0041732788086,0.28690751466928166,43.00672959644345,137080874
fw,-56.846336364746,-85.4883804321289,15.038465609898427,47.55027091403256,137097541
fw,-57.1965026855468,-85.9134750366211,33.337184939735856,52.79405448133338,137114208
fw,-57.624771118164,-86.2868576049804,54.06660078245023,57.87792046068621,137130875
fw,-58.9204444885253,-86.5230102539062,75.13234157981975,61.56779678081674,137147542
fw,-61.4543762207031,-86.5399475097656,94.08139310479486,62.440353561484166,137164209
fw,-63.6965637207031,-86.3285369873046,108.79180067473673,59.14537590102467,137180876
fw,-65.8354873657226,-85.9910812377929,118.0264083868472,50.67893281788249,137197543
fw,-67.0219116210937,-85.6521072387695,121.69326136957073,36.60233823469984,137214210
fw,-69.3451919555664,-85.4370498657226,120.77118093918489,17.160448832875588,137230877
fw,-71.9591369628906,-85.4410400390625,116.9663577194466,-6.723830122070273,137247544
fw,-73.7778854370117,-85.8575973510742,112.20965669256816,-33.58036573970051,137264211
fw,-75.0312881469726,-86.7863616943359,108.10881722411325,-61.62705678254035,137280878
fw,-76.0569076538086,-87.625129699707,105.48632453861134,-89.06140501822925,137297545
fw,-77.4688186645507,-87.0708999633789,104.15359904887674,-114.3353960137235,137314212
fw,-79.2374954223632,-85.1852493286132,103.03445729547188,-136.33673373872224,137330879
fw,-81.3087615966796,-82.7372894287109,100.63061774902948,-154.4288205208354,137347546
fw,-83.4920578002929,-80.0452880859375,95.67177682695252,-168.35539970484072,137364213
fw,-85.5102233886718,-77.3074188232421,87.69694836243573,-178.06852809398694,137380880
fw,-87.0877227783203,-74.2054367065429,77.32604337607172,-183.5665365964593,137397547
fw,-87.8455123901367,-71.0333709716796,66.09973067734158,-184.81867755407185,137414214
fw,-87.7617416381836,-67.7762374877929,55.94415353041992,-181.80643230838677,137430881
fw,-87.3261413574218,-64.5356903076171,48.480580372078585,-174.6464228295971,137447548
fw,-87.0408477783203,-61.8098793029785,44.471076658147744,-163.7086552479751,137464215
fw,-86.7534561157226,-59.5874519348144,43.62678189027052,-149.63762707808291,137480882
fw,-86.1685638427734,-57.6858367919921,44.833012775913375,-133.23251175956472,137497549
fw,-85.2816696166992,-56.0674705505371,46.65783706685667,-115.22226193082743,137514216
fw,-84.4152450561523,-54.9425468444824,47.905864904212095,-96.03702492740982,137530883
fw,-83.6913986206054,-53.930923461914,47.996341685750394,-75.69354997650863,137547550
fw,-83.0642700195312,-52.99800491333,47.05277616821321,-53.87198615700354,137564217
fw,-82.4374542236328,-52.3186073303222,45.72271900277154,-30.181926306169707,137580884
fw,-81.843276977539,-51.983642578125,44.840440846359975,-4.5302092773333635,137597551
fw,-81.2340240478515,-51.9473571777343,45.074491839863775,22.550972839614765,137614218
fw,-80.5892562866211,-52.3997077941894,46.674013816906815,49.75756541248164,137630885
fw,-79.8908081054687,-53.3163871765136,49.36979198970579,75.13826758464297,137647552
fw,-79.1123733520507,-55.1941146850585,52.42696136161574,96.48881469586031,137664219
fw,-78.2322463989257,-58.0427360534668,54.80439774071528,111.90733321526326,137680886
fw,-77.3052291870117,-60.4088592529296,55.35730150781549,120.31822826726467,137697553
fw,-76.3747329711914,-62.3549613952636,53.02172987473711,121.76358971698743,137714220
fw,-75.4995803833007,-64.0190353393554,46.93663479216675,117.35322388682447,137730887
fw,-74.8448257446289,-64.759536743164,36.48468486576447,108.91477869858151,137747554
fw,-74.611587524414,-66.183853149414,21.264152529901363,98.50516242915347,137764221
fw,-74.9510040283203,-67.479263305664,1.0359957013915986,87.96856939823536,137780888
fw,-75.7351760864257,-68.3215026855468,-24.287965751898792,78.65989982978554,137797555
fw,-76.6566314697265,-69.3733139038086,-54.55630986186832,71.35428158476569,137814222
fw,-77.8177337646484,-70.6459197998046,-89.17636060420163,66.29292295186582,137830889
fw,-79.4778976440429,-71.5826950073242,-126.8620703963668,63.29368019465427,137847556
fw,-81.991340637207,-72.4216537475586,-165.45504782538399,61.87243926139562,137864223
fw,-85.1933975219726,-73.1946182250976,-201.9483488917859,61.35965301567318,137880890
fw,-87.9779357910156,-74.0978240966796,-232.7869957513793,61.027379627232676,137897557
fw,-86.375503540039,-75.2640304565429,-254.43254035877007,60.238992176269136,137914224
fw,-82.2069931030273,-76.5172271728515,-264.0940796316089,58.59783278001872,137930891
fw,-76.6617813110351,-77.7018890380859,-260.45345884543406,56.0381616896269,137947558
fw,-71.3068084716796,-78.760009765625,-244.15492434754333,52.80946444517149,137964225
fw,-67.7665786743164,-79.8982849121093,-217.83296416195773,49.355137217014224,137980892
fw,-65.3519668579101,-80.9901504516601,-185.57216805785416,46.14047172106223,137997559
fw,-63.3928527832031,-81.8322296142578,-151.9116506563396,43.50240728712837,138014226
fw,-61.8339080810546,-82.5874404907226,-120.70617407662746,41.57121121705194,138030893
fw,-60.7623558044433,-83.2644577026367,-94.21623960246572,40.27864636713347,138047560
fw,-59.6680068969726,-83.9451141357421,-72.70215445642526,39.43822403033513,138064227
fw,-58.6640090942382,-84.6311569213867,-54.61567865240315,38.86155245270973,138080894
fw,-57.9261398315429,-85.2674102783203,-37.3010250021567,38.460717297374735,138097561
fw,-57.4108619689941,-85.8781585693359,-17.98506245803564,38.289742841150435,138114228
fw,-57.0874710083007,-86.4196395874023,5.225996564784338,38.50406489019669,138130895
fw,-56.9931488037109,-86.8165435791015,32.62060382762015,39.25426200336552,138147562
fw,-57.3221321105957,-87.03759765625,62.63959289743557,40.55805333272446,138164229
fw,-58.5356903076171,-87.0795974731445,92.21200390775874,42.19946894651498,138180896
fw,-62.0124015808105,-86.9417495727539,117.59490566815836,43.6884376116254,138197563
fw,-65.3555221557617,-86.6861953735351,135.4602206183165,44.29023029099576,138214230
fw,-67.9337158203125,-86.4145050048828,143.85890179219118,43.11494052093006,138230897
fw,-69.9827117919921,-86.1359405517578,142.73589921643247,39.24834058512252,138247564
fw,-71.9726104736328,-85.7537002563476,133.8618180104107,31.90373136341083,138264231
fw,-74.1415710449218,-85.3746261596679,120.27269853488215,20.571834933390566,138280898
fw,-75.5462188720703,-85.2017593383789,105.44590998085418,5.139699585182327,138297565
fw,-76.9438705444336,-85.3307113647461,92.46014617840267,-14.052091183775701,138314232
fw,-78.3014755249023,-85.7176055908203,83.33948197393197,-36.23196064554631,138330899
fw,-79.211067199707,-86.1114349365234,78.71257979899646,-60.2926967117735,138347566
fw,-80.2535781860351,-86.2438125610351,77.84378946016217,-84.93012141551334,138364233
fw,-81.6592254638671,-85.6823043823242,79.01296972794812,-108.78826886106607,138380900
fw,-83.5139694213867,-84.1714935302734,80.13627379655509,-130.58159053833458,138397567
fw,-85.4528350830078,-81.9595108032226,79.4453987596059,-149.17815549951902,138414234
fw,-86.8628768920898,-79.4714660644531,76.0127709766262,-163.64372825735913,138430901
fw,-87.8567962646484,-76.8035125732421,69.9573472053828,-173.26587127484677,138447568
fw,-88.2454299926757,-73.8339767456054,62.28288132442967,-177.59248915609888,138464235
fw,-88.1210098266601,-70.5776290893554,54.4365881247738,-176.51199206154882,138480902
fw,-87.7483139038086,-67.0940246582031,47.771852243214575,-170.36177288167426,138497569
fw,-87.3733367919921,-64.2959213256836,43.1188905847999,-159.99768693636966,138514236
fw,-86.9388046264648,-62.1504478454589,40.6079354673028,-146.73571598750527,138530903
fw,-86.0084533691406,-60.5934982299804,39.775505031502426,-132.12125943307996,138547570
fw,-85.1990280151367,-59.2568168640136,39.86595148161384,-117.57217689031803,138564237
fw,-84.4040603637695,-57.6632766723632,40.173183695811495,-104.01571114090474,138580904
fw,-83.7195281982421,-56.3167991638183,40.27917234438989,-91.64759742873741,138597571
fw,-83.1140518188476,-55.3221893310546,40.11939063466172,-79.89190896786839,138614238
fw,-82.5352325439453,-54.4272232055664,39.893188224437736,-67.57686632382894,138630905
fw,-81.931411743164,-53.5243988037109,39.89467026546039,-53.29261604488603,138647572
fw,-81.3003311157226,-52.7480926513671,40.34914404471746,-35.8558448291008,138664239
fw,-80.6495132446289,-52.1405563354492,41.31190329587663,-14.76491489335465,138680906
fw,-80.0146331787109,-51.9116668701171,42.64449236694821,9.49573215271749,138697573
fw,-79.3382110595703,-52.3927879333496,44.05047449438428,35.42375616549902,138714240
fw,-78.5979614257812,-53.4599075317382,45.137687729153505,60.786000833111764,138730907
fw,-77.8458480834961,-55.5171012878418,45.47530253121892,83.15737287571817,138747574
fw,-77.1441802978515,-57.9594955444335,44.625555890438044,100.53781228105872,138764241
fw,-76.5200576782226,-59.8584747314453,42.145851320393355,111.8290913234701,138780908
fw,-75.9452056884765,-61.7596244812011,37.571119535416855,117.00652179753062,138797575
fw,-75.3865051269531,-63.4706687927246,30.393398988626657,116.95420553392563,138814242
fw,-74.9634399414062,-64.5844497680664,20.054452560787364,113.07386578618474,138830909
fw,-74.9623489379882,-66.3194808959961,5.964517021049694,106.84947511121126,138847576
fw,-75.5791549682617,-67.9001083374023,-12.435514599649164,99.52567138331798,138864243
fw,-76.5108566284179,-68.9455184936523,-35.54336990958346,91.9694093840368,138880910
fw,-77.4526138305664,-70.2138061523437,-63.38008930331635,84.69155952871664,138897577
fw,-78.5428314208984,-71.5504379272461,-95.31864626052592,77.95317409338057,138914244
fw,-80.2539825439453,-72.5555648803711,-129.85111048089428,71.8775934136987,138930911
fw,-82.9601516723632,-73.4821624755859,-164.52762190308607,66.51958245437535,138947578
fw,-86.0908432006836,-74.4013595581054,-196.16956404573017,61.88651378607083,138964245
fw,-88.7249755859375,-75.3031616210937,-221.36679621274084,57.93917737894645,138980912
fw,-86.0638885498046,-76.3137741088867,-237.16270409729077,54.60118120194213,138997579
fw,-81.215347290039,-77.2183685302734,-241.7511730389946,51.78256293219937,139014246
fw,-75.7699966430664,-78.0920333862304,-234.97084814161784,49.40222010419794,139030913
fw,-72.7475662231445,-78.9892654418945,-218.40446262462672,47.393840117914166,139047580
fw,-70.4843444824218,-80.0098571777343,-195.00577312346348,45.696446820855456,139064247
fw,-68.0802154541015,-81.1196899414062,-168.36121618934084,44.24464150521539,139080914
fw,-65.4419174194336,-81.9765014648437,-141.83862717059492,42.9718993141486,139097581
fw,-63.349437713623,-82.6423263549804,-117.88216281279438,41.82782674504991,139114248
fw,-61.9849319458007,-83.2670211791992,-97.60507820660546,40.80192443613086,139130915
fw,-60.9997863769531,-83.9562301635742,-80.7183470503124,39.94631137333925,139147582
fw,-60.09614944458,-84.6409072875976,-65.77441066401249,39.38803700880019,139164249
fw,-59.2378005981445,-85.2384414672851,-50.67532238127255,39.31340599498683,139180916
fw,-58.4546928405761,-85.7677459716796,-33.35012859284494,39.9045028213108,139197583
fw,-57.8687095642089,-86.2307968139648,-12.448759671855807,41.22601102340075,139214250
fw,-57.6051063537597,-86.5982589721679,12.134827698122843,43.094078781286655,139230917
fw,-57.8818931579589,-86.822265625,39.07687574955834,44.98577099150849,139247584
fw,-58.8595123291015,-86.8640670776367,65.85864608768073,46.045694733991205,139264251
fw,-61.4006233215332,-86.7027740478515,89.37669013286958,45.2119618487862,139280918
fw,-63.6684684753418,-86.3608932495117,106.75250653999395,41.433328234079426,139297585
fw,-65.638687133789,-85.9485626220703,116.09293228672793,33.90877051162825,139314252
fw,-67.3859634399414,-85.5894470214843,116.98270728691159,22.27003675567352,139330919
fw,-69.0774917602539,-85.3647308349609,110.60384571930004,6.651477596547735,139347586
fw,-71.1026458740234,-85.2926406860351,99.49563443589854,-12.362751138095154,139364253
fw,-72.9851150512695,-85.2799224853515,87.03263514337705,-33.87881444834238,139380920
fw,-74.2932968139648,-85.2213134765625,76.71474333104804,-56.86118830423498,139397587
fw,-74.875862121582,-85.0280380249023,71.38439399435278,-80.2733151941346,139414254
fw,-75.3223876953125,-84.5305557250976,72.53329184177204,-103.15983603461929,139430921
fw,-76.2993774414062,-83.4504013061523,79.89404870170026,-124.66669684974873,139447588
fw,-77.8920440673828,-81.6002426147461,91.46947397522165,-144.014279426435,139464255
fw,-79.8558273315429,-79.1659851074218,104.02319833006281,-160.44803978242965,139480922
fw,-81.7319107055664,-76.3779602050781,113.90138238927692,-173.19622595669506,139497589
fw,-83.5221328735351,-73.3844680786132,117.95800390400481,-181.46779353490567,139514256
fw,-85.3800964355468,-70.428482055664,114.34809096896853,-184.5209469187069,139530923
fw,-86.2819595336914,-67.5193405151367,103.0040698511343,-181.8146296336038,139547590
fw,-85.4220886230468,-64.3400573730468,85.67802502580227,-173.21726388709354,139564257
fw,-84.3205947875976,-61.6703987121582,65.51442058733831,-159.19975534631237,139580924
fw,-83.9742279052734,-59.5255432128906,46.23580354343808,-140.9120513760443,139597591
fw,-83.9324035644531,-57.8403778076171,31.162918396697467,-120.064417376545,139614258
fw,-83.9789810180664,-56.6187515258789,22.3774548279117,-98.60718257451579,139630925
fw,-84.0081558227539,-55.8874549865722,20.299568848514813,-78.29053925992382,139647592
fw,-83.77294921875,-55.4235038757324,23.79559862816675,-60.24514738874451,139664259
fw,-83.1945571899414,-55.0022735595703,30.730424709544234,-44.730179180905594,139680926
fw,-82.2740249633789,-54.540225982666,38.72698482228866,-31.145747000451088,139697593
fw,-81.413459777832,-54.0869941711425,45.85114862256238,-18.3170192356952,139714260
fw,-80.7384490966796,-53.7504348754882,51.009577662251644,-4.959772934107206,139730927
fw,-80.0100631713867,-53.6836929321289,53.98916901673923,9.829966724963922,139747594
fw,-79.2730484008789,-53.9505653381347,55.20889401673018,26.22979988709369,139764261
fw,-78.550048828125,-54.5169410705566,55.336532102016164,43.60605252683849,139780928
fw,-77.8399276733398,-55.7922286987304,54.92447678074842,60.714697484885576,139797595
fw,-77.0639038085937,-57.9081535339355,54.16520298457328,76.10555620202834,139814262
fw,-76.2540512084961,-59.5874938964843,52.799022797926554,88.56538304855113,139830929
fw,-75.4511489868164,-61.3115539550781,50.15416469537436,97.42215248889758,139847596
fw,-74.6583557128906,-62.6116561889648,45.27280097727404,102.60703211627002,139864263
fw,-73.9595184326171,-63.790298461914,37.07388473133375,104.49604639934027,139880930
fw,-73.5957489013671,-65.5624084472656,24.51702537564198,103.65469314912659,139897597
fw,-73.7078094482421,-67.1380538940429,6.753692496438678,100.62851453059592,139914264
fw,-74.2568969726562,-68.5833740234375,-16.725976740259263,95.86350145489756,139930931
fw,-75.1336364746093,-70.2360458374023,-45.93367829466753,89.75208840333674,139947598
fw,-76.352912902832,-71.9595642089843,-80.20956760453008,82.73429620940922,139964265
fw,-78.1754150390625,-73.256118774414,-118.07075007952903,75.36317980744562,139980932
fw,-80.7751235961914,-74.1072387695312,-157.15217355046147,68.27247045300305,139997599
fw,-83.9352493286132,-74.7408218383789,-194.31705766711886,62.049595005040835,140014266
fw,-87.3183212280273,-75.5767059326171,-225.9848815560258,57.081871035882386,140030933
fw,-89.0037765502929,-76.4925231933593,-248.67092647952813,53.46187726918172,140047600
fw,-84.2276229858398,-77.4381332397461,-259.6614742476957,50.998073712186304,140064267
fw,-78.3253860473632,-78.2539596557617,-257.66776559507827,49.31465167632563,140080934
fw,-73.9358596801757,-79.11572265625,-243.24096413237808,47.98698600911086,140097601
fw,-71.0582885742187,-80.0624923706054,-218.75618464460004,46.6617058796326,140114268
fw,-68.4382705688476,-81.1864852905273,-187.9197620373769,45.135164497558655,140130935
fw,-65.857177734375,-82.2806243896484,-154.94721286998833,43.385283719887475,140147602
fw,-63.7218208312988,-83.0277633666992,-123.67009630145662,41.55982735977675,140164269
fw,-62.2960166931152,-83.5731887817382,-96.80661334146636,39.9280100830338,140180936
fw,-61.2991256713867,-84.1410064697265,-75.53638193384407,38.81104755515329,140197603
fw,-60.6549491882324,-84.7956085205078,-59.43469668085834,38.51380595409537,140214270
fw,-59.9477500915527,-85.5393676757812,-46.76241464096103,39.270821258787855,140230937
fw,-59.1305656433105,-86.2934494018554,-35.04911430512668,41.19884084442025,140247604
fw,-58.5090866088867,-86.9881210327148,-21.83971929601911,44.23581034824053,140264271
fw,-58.1384201049804,-87.5744857788086,-5.421522930899059,48.05935364736692,140280938
fw,-58.101993560791,-88.0451583862304,14.659298732997902,52.010232746614584,140297605
fw,-58.3170852661132,-88.3425903320312,37.43403507352826,55.07351441211969,140314272
fw,-59.3905868530273,-88.2791061401367,60.750699372481954,55.96802999224157,140330939
fw,-61.5791435241699,-87.7334213256836,81.85305123139885,53.35723101658706,140347606
fw,-63.4722442626953,-86.9811782836914,98.1324220358032,46.138958202312715,140364273
fw,-65.4348449707031,-86.3103408813476,107.83272114005875,33.72774914253837,140380940
fw,-67.0257568359375,-85.900032043457,110.51807151264784,16.234874545105097,140397607
fw,-68.7991333007812,-85.9110794067382,107.20495953369971,-5.517457567742896,140414274
fw,-70.9228286743164,-86.2929763793945,100.1562533623583,-30.155569767687815,140430941
fw,-72.863037109375,-86.9039001464843,92.38887819971433,-56.03866991812731,140447608
fw,-74.4597015380859,-87.3184661865234,86.97250558398954,-81.58130073570557,140464275
fw,-75.3109512329101,-86.7301483154296,86.23582861407249,-105.51724593871792,140480942
fw,-75.9288787841796,-85.2013092041015,91.06228464138009,-127.02760830348201,140497609
fw,-77.0099029541015,-83.0721359252929,100.50338960274985,-145.69981298131924,140514276
fw,-78.6387481689453,-80.510383605957,111.89972597703081,-161.34222171362555,140530943
fw,-80.6922760009765,-77.7013854980468,121.55619166990972,-173.73341603615467,140547610
fw,-83.1205444335937,-74.7071990966796,125.81936113036919,-182.41692078813318,140564277
fw,-85.5547637939453,-71.657974243164,122.23651090883904,-186.647180400418,140580944
fw,-86.7821655273437,-68.8014678955078,110.40762995074914,-185.54599823800686,140597611
fw,-85.8064270019531,-65.4921951293945,92.20759524595535,-178.44697709273916,140614278
fw,-85.2428894042968,-62.1312675476074,71.25585320486549,-165.31042934521327,140630945
fw,-85.0017776489257,-59.3199806213378,51.7952281743196,-147.02300517794052,140647612
fw,-84.9351959228515,-57.4456138610839,37.39158895515153,-125.40401410300969,140664279
fw,-84.9347686767578,-56.1569862365722,29.94291292469012,-102.8460501552397,140680946
fw,-84.7918853759765,-55.4730415344238,29.336631597627576,-81.68135691507608,140697613
fw,-84.2467346191406,-55.1243362426757,33.803564817215346,-63.50240431009917,140714280
fw,-83.183853149414,-54.6026191711425,40.74143806688168,-48.703275677475865,140730947
fw,-82.0276489257812,-53.8309249877929,47.63998990683735,-36.42903052407273,140747614
fw,-81.2335739135742,-53.0212707519531,52.767815831333095,-24.959523430901264,140764281
fw,-80.4960632324218,-52.3771629333496,55.43894999504034,-12.38425776782506,140780948
fw,-79.7038040161132,-52.0442657470703,55.87629299427167,2.680154446421993,140797615
fw,-78.9247055053711,-51.9876861572265,54.83193576930523,20.58163429847468,140814282
fw,-78.1055603027343,-52.1341209411621,53.159032592511174,40.50039937198304,140830949
fw,-77.3287353515625,-53.4020118713378,51.47483125740643,60.72694906412523,140847616
fw,-76.6289596557617,-55.6658782958984,49.969905122598504,79.24110041515812,140864283
fw,-75.9807205200195,-57.8483161926269,48.35577174243045,94.36881089700573,140880950
fw,-75.2973937988281,-59.381118774414,45.918098285564334,105.26138524144964,140897617
fw,-74.5531234741211,-60.9795265197753,41.64272361595235,112.025872613497,140914284
fw,-73.8871536254882,-62.7370910644531,34.38692606092016,115.49871170964411,140930951
fw,-73.5096740722656,-64.081802368164,23.070640113728814,116.80059470502404,140947618
fw,-73.6066818237304,-65.8533935546875,6.8663591574794465,116.86728022061848,140964285
fw,-74.0592422485351,-67.1210632324218,-14.624576244106125,116.12187599401243,140980952
fw,-74.6818618774414,-68.3858337402343,-41.2163470619818,114.38454714289728,140997619
fw,-75.626106262207,-70.0192108154296,-72.02080234560091,111.0399031054182,141014286
fw,-77.0802993774414,-71.9575576782226,-105.40567917938763,105.40653843212777,141030953
fw,-79.2411346435546,-74.1679000854492,-139.07665910390463,97.1762005728874,141047620
fw,-81.7727127075195,-75.9915084838867,-170.31059841420148,86.73514156843152,141064287
fw,-84.2879028320312,-76.812759399414,-196.3253466545607,75.19751776738467,141080954
fw,-86.4317932128906,-77.0712890625,-214.7323289663012,64.09974951669105,141097621
fw,-85.5703506469726,-77.3822631835937,-223.99091612913654,54.87949873848383,141114288
fw,-81.3062057495117,-77.8820724487304,-223.75916958753683,48.383704160519514,141130955
fw,-77.4722824096679,-78.8233108520507,-215.0194471427901,44.63208155590792,141147622
fw,-74.8563232421875,-80.0105056762695,-199.8878608770162,42.92114414935396,141164289
fw,-72.2300033569336,-81.1618881225586,-181.11841247762948,42.18604908926126,141180956
fw,-69.3957901000976,-82.1542282104492,-161.43852442745148,41.43832688570789,141197623
fw,-66.9175338745117,-82.8669128417968,-142.91415175498852,40.09991902428636,141214290
fw,-65.1229553222656,-83.4430999755859,-126.5093450583676,38.13149010904967,141230957
fw,-63.7161865234375,-84.0249252319336,-111.93081566585832,35.95449797643359,141247624
fw,-62.2189445495605,-84.7036514282226,-97.7879442744997,34.24307321040898,141264291
fw,-60.830997467041,-85.3738708496093,-82.0487650407307,33.68210448370051,141280958
fw,-59.6147575378418,-85.8605728149414,-62.70680293499676,34.754944727760694,141297625
fw,-58.5851364135742,-86.1876754760742,-38.50003305364946,37.577033768772665,141314292
fw,-57.90132522583,-86.4647674560546,-9.478858315668562,41.77403741409291,141330959
fw,-57.8354530334472,-86.698501586914,22.764879495822157,46.42297710208838,141347626
fw,-58.5473442077636,-86.7910003662109,55.31409313983512,50.10108238726329,141364293
fw,-60.9452667236328,-86.5951538085937,84.56049895141041,51.082073115427725,141380960
fw,-63.3639183044433,-86.0652847290039,107.08461307665883,47.672149860956296,141397627
fw,-65.1527099609375,-85.411880493164,120.51936092311885,38.61075961036137,141414294
fw,-67.1942901611328,-84.9312896728515,124.15028295721218,23.4140163970993,141430961
fw,-69.4642868041992,-84.8903656005859,119.11111594399445,2.5426992450964443,141447628
fw,-71.6298294067382,-85.3239593505859,108.15546046770638,-22.66547208346934,141464295
fw,-73.2247619628906,-86.0701141357421,95.06863995573075,-50.2761955023582,141480962
fw,-74.4380645751953,-86.9527130126953,83.8380338713567,-78.15956090748091,141497629
fw,-75.2059555053711,-87.3837890625,77.75225977430057,-104.39170667248267,141514296
fw,-75.9268417358398,-86.4700851440429,78.63933396922755,-127.55149880044426,141530963
fw,-77.2417907714843,-84.3587493896484,86.4433419893698,-146.8472155784619,141547630
fw,-78.9941101074218,-81.6934051513671,99.2578909984631,-162.05838113697928,141564297
fw,-81.1055221557617,-78.8078918457031,113.80632503767795,-173.32763599874335,141580964
fw,-83.224365234375,-75.7487411499023,126.2385898382749,-180.88051858880223,141597631
fw,-85.1509170532226,-72.6088180541992,133.04937077016714,-184.7776569732101,141614298
fw,-86.8136520385742,-69.4910125732421,131.91635295268583,-184.8005877127496,141630965
fw,-86.7957000732421,-66.4217987060546,122.281432725609,-180.52978724273393,141647632
fw,-84.7203598022461,-63.1823120117187,105.52981986282465,-171.59651244934213,141664299
fw,-83.395263671875,-60.2163162231445,84.68027473241494,-158.00402519115246,141680966
fw,-82.8731689453125,-57.7398529052734,63.61871540865935,-140.36069890339277,141697633
fw,-82.8660354614257,-55.7166900634765,46.073540745604625,-119.88554708347415,141714300
fw,-82.9699325561523,-54.5228881835937,34.657795107135634,-98.14081535095578,141730967
fw,-82.792251586914,-54.176170349121,30.29650608118394,-76.578201046272,141747634
fw,-82.1978302001953,-54.0047416687011,32.20361012524482,-56.09237453801188,141764301
fw,-81.2129821777343,-53.5295639038085,38.35251782520082,-36.79806403271132,141780968
fw,-79.9090347290039,-52.8008880615234,46.20893025711606,-18.157065480580588,141797635
fw,-78.695442199707,-52.1255416870117,53.43670789308516,0.588632384520677,141814302
fw,-77.7921600341796,-51.4937705993652,58.35409696242746,19.88343263285874,141830969
fw,-77.0390319824218,-51.6472969055175,60.06033904634893,39.49145146420339,141847636
fw,-76.3101959228515,-53.0056228637695,58.297230598874954,58.4841909551058,141864303
fw,-75.5556182861328,-55.6190299987793,53.19093691548371,75.58467994004785,141880970
fw,-74.8021621704101,-57.8583908081054,45.012274668867086,89.67685407015317,141897637
fw,-74.1952590942382,-59.1497650146484,34.02581982303798,100.20672357021284,141914304
fw,-73.7971572875976,-60.3636207580566,20.423450212462523,107.28818199457743,141930971
fw,-73.6839828491211,-62.0931701660156,4.299661698480651,111.51441399959316,141947638
fw,-74.0561981201171,-63.8778076171875,-14.364426509890784,113.62416512555227,141964305
fw,-74.9520416259765,-65.7194213867187,-35.7023569262911,114.1953871955181,141980972
fw,-76.1742324829101,-67.4986724853515,-59.907261905695435,113.46963599859124,141997639
fw,-77.5779647827148,-68.8998870849609,-87.07716525046033,111.33206139575756,142014306
fw,-79.3082962036132,-70.4155654907226,-116.96067180097776,107.42812594505332,142030973
fw,-81.4929656982421,-71.949592590332,-148.67167745632094,101.37985350798273,142047640
fw,-84.1939086914062,-73.705337524414,-180.49486533922337,93.0451059414718,142064307
fw,-87.300064086914,-75.5201034545898,-209.90729303109288,82.73476909664454,142080974
fw,-88.5947265625,-76.7605590820312,-233.8890264739036,71.28693996483538,142097641
fw,-84.85205078125,-77.3845443725586,-249.50371558683383,59.93010267871936,142114308
fw,-79.4815292358398,-77.9009017944336,-254.61960301022503,49.95791472769649,142130975
fw,-73.7926559448242,-78.4643325805664,-248.5419886087182,42.34186806382796,142147642
fw,-69.9896163940429,-79.2832794189453,-232.2961573247416,37.45293060103468,142164309
fw,-67.3345184326171,-80.3973083496093,-208.3979280313867,35.013030031877015,142180976
fw,-65.2041625976562,-81.4643173217773,-180.16559874135,34.283434960867766,142197643
fw,-63.0592384338378,-82.3357391357421,-150.83808097661026,34.390261438057465,142214310
fw,-60.8265647888183,-82.8791351318359,-122.82856359307189,34.643357576693944,142230977
fw,-59.0859603881835,-83.3721466064453,-97.33631144755189,34.73367973620854,142247644
fw,-57.790298461914,-83.9522705078125,-74.36095722829222,34.76478629541557,142264311
fw,-57.0643615722656,-84.6623764038086,-53.02899302663801,35.14120886883547,142280978
fw,-56.5470657348632,-85.3894348144531,-32.09148613127342,36.37099709486011,142297645
fw,-56.1730880737304,-85.9446487426757,-10.454896953648564,38.842110849833475,142314312
fw,-56.0515251159668,-86.3390579223632,12.378831218303821,42.62251000534854,142330979
fw,-56.2884826660156,-86.6656951904296,36.07129737252929,47.32764945577433,142347646
fw,-57.0835342407226,-86.9235534667968,59.47895354447585,52.094284939067855,142364313
fw,-58.9081497192382,-87.0326461791992,80.958398320829,55.683148192050204,142380980
fw,-61.1644477844238,-86.8942337036132,98.85161064242936,56.69985253218703,142397647
fw,-63.3866577148437,-86.5299987792968,111.9804156503144,53.88367262207851,142414314
fw,-65.5258865356445,-86.0209350585937,119.97144606471994,46.38585173005974,142430981
fw,-67.1062850952148,-85.5596618652343,123.30850586315117,33.9567845772365,142447648
fw,-68.8382186889648,-85.3360366821289,123.1282676125046,16.98812794381598,142464315
fw,-71.0084762573242,-85.4077835083007,120.8675008137974,-3.5967372520075527,142480982
fw,-73.2962875366211,-85.6317977905273,117.88888171710536,-26.56077917087787,142497649
fw,-75.456558227539,-85.8719482421875,115.17067084248315,-50.60577895266752,142514316
fw,-76.7957916259765,-85.9385681152343,113.09981763706499,-74.58362643395981,142530983
fw,-78.182991027832,-85.5268783569336,111.39962900771913,-97.61364133442974,142547650
fw,-79.8428192138671,-84.4567031860351,109.23409986113593,-119.08622227212004,142564317
fw,-81.5146026611328,-82.8192749023437,105.50896374351365,-138.56694394464765,142580984
fw,-83.4041748046875,-80.6310119628906,99.31388048662791,-155.64610781035572,142597651
fw,-85.3440704345703,-78.1738357543945,90.36036140064417,-169.80167495470863,142614318
fw,-86.9177093505859,-75.4295196533203,79.22982327459944,-180.3485035258947,142630985
fw,-87.4844131469726,-72.3793792724609,67.29511191272032,-186.5233958085499,142647652
fw,-87.4223022460937,-68.9849472045898,56.31056821793529,-187.70041639921823,142664319
fw,-87.1359786987304,-65.2491226196289,47.82549970549371,-183.65827636708585,142680986
fw,-86.8167266845703,-62.727481842041,42.67710422251617,-174.76946246176152,142697653
fw,-86.397232055664,-60.6587142944335,40.79154555116923,-161.9954550028068,142714320
fw,-85.5684432983398,-58.8231315612793,41.368789708560726,-146.6626237067476,142730987
fw,-84.5313339233398,-56.8444366455078,43.33248475048528,-130.10364477352147,142747654
fw,-83.6078186035156,-54.9799346923828,45.803075758910865,-113.30447804152699,142764321
fw,-82.8405380249023,-53.7314262390136,48.36623708033934,-96.67656041473631,142780988
fw,-82.1173553466796,-52.8053970336914,51.039077021896176,-80.01839262784415,142797655
fw,-81.3978729248046,-51.8616638183593,53.99864560837125,-62.679049956182595,142814322
fw,-80.6786499023437,-50.8659782409668,57.24340051430228,-43.88738571201232,142830989
fw,-79.8923645019531,-50.0531387329101,60.3677304311767,-23.15347674641598,142847656
fw,-78.9452056884765,-49.7065048217773,62.55643300356267,-0.6019090892901333,142864323
fw,-77.8828964233398,-49.9265213012695,62.796555107499096,22.900884351125335,142880990
fw,-76.808235168457,-50.7982292175293,60.2094555019277,45.89358256568693,142897657
fw,-75.8073120117187,-52.4427680969238,54.36171639392964,66.69906691404735,142914324
fw,-74.9210891723632,-54.2212181091308,45.428230528580116,83.89479221828377,142930991
fw,-74.3208770751953,-55.8543090820312,34.13928631317821,96.69672887685724,142947658
fw,-74.115966796875,-57.6661415100097,21.520854609216173,105.12300602723948,142964325
fw,-74.2220764160156,-59.6074562072753,8.510153307290635,109.90044936995888,142980992
fw,-74.5132598876953,-61.3034362792968,-4.423575365506797,112.17188375059239,142997659
fw,-74.9073486328125,-62.903938293457,-17.516990510548567,113.11436541669084,143014326
fw,-75.4855346679687,-64.4144515991211,-31.713130642791135,113.58558156204693,143030993
fw,-76.3506317138671,-66.1142044067382,-48.3998363620804,113.89322689925088,143047660
fw,-77.3945846557617,-67.6884613037109,-68.93925391350798,113.74313255436196,143064327
fw,-78.6285247802734,-69.1388549804687,-94.10494453463282,112.37618151218614,143080994
fw,-80.2048950195312,-70.6489562988281,-123.58174149806625,108.86113226439332,143097661
fw,-82.2522506713867,-72.4737396240234,-155.6891276979728,102.47263312870054,143114328
fw,-84.7122802734375,-74.458267211914,-187.4521626189798,93.0475705867815,143130995
fw,-86.6592407226562,-76.1132888793945,-215.06456467716598,81.18964571159763,143147662
fw,-85.9959106445312,-76.9897155761718,-234.68215284360906,68.21528126442588,143164329
fw,-81.86474609375,-77.3900604248046,-243.37259896535824,55.82539722468696,143180996
fw,-75.2553405761718,-77.6951522827148,-239.95034010405735,45.614205809090386,143197663
fw,-71.6970825195312,-78.1372299194336,-225.38880849977247,38.61081643965107,143214330
fw,-69.4702453613281,-78.8919372558593,-202.59916866754838,35.034824267991944,143230997
fw,-67.3171463012695,-79.9228210449218,-175.61005018053277,34.34370072459772,143247664
fw,-65.2195968627929,-80.9970016479492,-148.44812000676836,35.521153762757315,143264331
fw,-63.2924079895019,-81.987319946289,-124.1246836164852,37.46722510876175,143280998
fw,-61.51806640625,-82.8444290161132,-104.03139498085523,39.33453552916984,143297665
fw,-60.0861663818359,-83.5671844482421,-87.84919296571063,40.70388109795296,143314332
fw,-58.87154006958,-84.2405090332031,-73.90671454161803,41.57323609834108,143330999
fw,-57.7715034484863,-84.9496841430664,-59.83396707794212,42.20632547918585,143347666
fw,-56.9041557312011,-85.6493606567382,-43.3269981203258,42.9219775378015,143364333
fw,-56.3078918457031,-86.2578582763671,-22.842523233232534,43.90074746055379,143381000
fw,-56.0243759155273,-86.7462310791015,1.934053779303543,45.05900498972834,143397667
fw,-56.1211013793945,-87.1001815795898,29.957142666537656,46.013027783521615,143414334
fw,-56.9513359069824,-87.2983245849609,59.06335937716013,46.13429477094262,143431001
fw,-58.8937034606933,-87.2943420410156,86.52805281439294,44.67880264656284,143447668
fw,-62.0523872375488,-87.0839538574218,109.77165643257992,40.954636046306334,143464335
fw,-64.2306365966796,-86.7625122070312,126.98408520932138,34.47755443392095,143481002
fw,-66.2966003417968,-86.4908905029296,137.460607075217,25.0638832923635,143497669
fw,-68.2785949707031,-86.3867568969726,141.57115145572865,12.83030649468527,143514336
fw,-70.2722091674804,-86.4855346679687,140.446924256506,-1.8929876746962655,143531003
fw,-72.2016372680664,-86.6934051513671,135.56313826088552,-18.69164008879472,143547670
fw,-74.806770324707,-86.7792510986328,128.38089655488082,-37.17528324482618,143564337
fw,-77.3371505737304,-86.5292053222656,120.1214049473477,-57.01120576116951,143581004
fw,-79.1892166137695,-85.9208602905273,111.65625765967498,-77.86700828255593,143597671
fw,-80.3506088256836,-85.0349731445312,103.46808579699565,-99.2910045477583,143614338
fw,-81.4347076416015,-83.6479110717773,95.66986095912178,-120.58941611475291,143631005
fw,-82.8270950317382,-81.6006164550781,88.11074508475966,-140.7608362791923,143647672
fw,-84.6179885864257,-79.1516723632812,80.57879128134707,-158.52616023655733,143664339
fw,-86.1782302856445,-76.3903656005859,73.03840584503124,-172.46393105691362,143681006
fw,-87.1648941040039,-73.331802368164,65.78178789456516,-181.23836707180072,143697673
fw,-87.5897903442382,-70.0768814086914,59.393397851406135,-183.88503502996505,143714340
fw,-87.487678527832,-66.5077819824218,54.52422622964575,-180.0878636793131,143731007
fw,-86.983772277832,-63.4216384887695,51.58539767419573,-170.3503617159692,143747674
fw,-86.3818817138671,-61.3781852722168,50.52431858801488,-155.96603316144632,143764341
fw,-85.5498809814453,-59.7712860107421,50.80564969768954,-138.7541436776543,143781008
fw,-84.4758605957031,-58.1797637939453,51.60807135210774,-120.62668329475481,143797675
fw,-83.5227966308593,-56.4971084594726,52.134674058696135,-103.12683496294515,143814342
fw,-82.8097763061523,-55.1374282836914,51.887114830778245,-87.08166414287076,143831009
fw,-82.2064056396484,-54.319465637207,50.791725613523504,-72.45833450334345,143847676
fw,-81.5112915039062,-53.6226119995117,49.153472942675684,-58.453124944369094,143864343
fw,-80.7247085571289,-52.8746109008789,47.4914262573671,-43.79677030457931,143881010
fw,-79.9444503784179,-52.1324119567871,46.33882951715962,-27.21261929573515,143897677
fw,-79.2673645019531,-51.5911216735839,46.07442104285386,-7.908488226436926,143914344
fw,-78.6438522338867,-51.456745147705,46.81678455966267,14.053896529931208,143931011
fw,-77.9711990356445,-51.9206466674804,48.384645795960516,37.64961709310803,143947678
fw,-77.2431564331054,-53.0225067138671,50.31118309263175,61.09693169584513,143964345
fw,-76.4831619262695,-55.1108741760253,51.89662906792282,82.31749145142729,143981012
fw,-75.7184295654296,-57.1753120422363,52.285948774760016,99.48721575593116,143997679
fw,-74.9809036254882,-59.0572853088378,50.56303645887116,111.47957061978852,144014346
fw,-74.2506942749023,-61.1948280334472,45.85493322027737,118.05605901116515,144031013
fw,-73.5282745361328,-63.2460556030273,37.43573440475971,119.77169879063527,144047680
fw,-73.0122451782226,-64.5413742065429,24.812962190647387,117.67485531895291,144064347
fw,-72.9753112792968,-66.0969772338867,7.778734582003136,112.94275115999916,144081014
fw,-73.4436798095703,-67.5858764648437,-13.578038708635539,106.59250963614636,144097681
fw,-74.2554321289062,-68.9263839721679,-38.87941767887726,99.35222920777731,144114348
fw,-75.3258819580078,-70.6936645507812,-67.45473495922246,91.69308751254472,144131015
fw,-76.8936920166015,-72.2607269287109,-98.30771322891432,83.95078335284464,144147682
fw,-78.916633605957,-73.1796417236328,-130.07041934574156,76.43798885837563,144164349
fw,-81.5283126831054,-73.9563980102539,-160.99016694121985,69.48007508641754,144181016
fw,-84.4394454956054,-74.7145080566406,-189.00260692261085,63.37123124475679,144197683
fw,-87.5932006835937,-75.5728530883789,-211.92657915729532,58.30087416600423,144214350
fw,-88.0294036865234,-76.4944458007812,-227.7812947482178,54.30692699724891,144231017
fw,-84.0804977416992,-77.3693389892578,-235.1784992601537,51.28005902111314,144247684
fw,-79.2524108886718,-78.2461242675781,-233.6869604149151,49.00647162307268,144264351
fw,-75.0098876953125,-79.1074905395507,-224.02748306814777,47.22346967255786,144281018
fw,-71.9795837402343,-80.2146987915039,-207.97557445416902,45.67131901651096,144297685
fw,-69.2490615844726,-81.3748626708984,-187.94748801080027,44.137743042733334,144314352
fw,-66.5116806030273,-82.2983169555664,-166.38146518162935,42.494345862604064,144331019
fw,-64.2567138671875,-83.253547668457,-145.1151768414284,40.72199137023981,144347686
fw,-62.5793876647949,-84.2574844360351,-124.95575442491916,38.92365228658916,144364353
fw,-61.0538520812988,-85.196533203125,-105.56600461190243,37.32352425941835,144381020
fw,-59.6784515380859,-85.960464477539,-85.69754642784609,36.24178896284798,144397687
fw,-58.4541397094726,-86.5542373657226,-63.71026015950987,36.02475048769571,144414354
fw,-57.3852005004882,-87.0826797485351,-38.23474491304094,36.92011319335867,144431021
fw,-56.801586151123,-87.5728759765625,-8.78032503912494,38.92015393486988,144447688
fw,-56.8195915222168,-87.949966430664,23.907400366358903,41.63060137251542,144464355
fw,-57.6338386535644,-88.1459655761718,57.86639925993607,44.23399186060085,144481022
fw,-59.5289306640625,-88.1107330322265,90.3202300724517,45.591491261665205,144497689
fw,-62.6678123474121,-87.7501449584961,118.3314269383148,44.47463829246541,144514356
fw,-65.0263519287109,-87.1277847290039,139.48267763174857,39.860305312619815,144531023
fw,-67.4756927490234,-86.4889373779296,152.36338620752048,31.18586035462053,144547690
fw,-70.0198822021484,-86.0688095092773,156.7397017574366,18.468233261748384,144564357
fw,-72.4669494628906,-85.985855102539,153.42594925026356,2.2426222345438562,144581024
fw,-74.3239593505859,-86.18212890625,143.97427510386112,-16.6475980117806,144597691
fw,-76.4886016845703,-86.4132461547851,130.3210596266573,-37.314763382831025,144614358
fw,-78.678726196289,-86.4433975219726,114.48800408231708,-59.03019332963596,144631025
fw,-80.8170547485351,-86.1012268066406,98.36725771213612,-81.28619575879041,144647692
fw,-82.0733108520507,-85.3106994628906,83.56449502212689,-103.70435899026614,144664359
fw,-82.8258666992187,-83.8746566772461,71.26614066366274,-125.84558903457771,144681026
fw,-83.6158905029296,-81.7186431884765,62.13328524897269,-147.01503799483328,144697693
fw,-84.6261215209961,-79.0942230224609,56.25936402369739,-166.1529533387586,144714360
fw,-85.4546432495117,-76.1432037353515,53.22251487935334,-181.87109900341392,144731027
fw,-86.0650787353515,-72.8386993408203,52.22694677812506,-192.6497164841197,144747694
fw,-86.6748046875,-69.3310546875,52.29860793785735,-197.16000019154112,144764361
fw,-86.9540023803711,-65.7250061035156,52.49523272195304,-194.62636832407262,144781028
fw,-86.6600036621093,-62.6350898742675,52.09571419542489,-185.1075322194882,144797695
fw,-85.9456558227539,-60.2523765563964,50.735617346505954,-169.5820064124338,144814362
fw,-85.16455078125,-58.2195358276367,48.45842440873101,-149.78403394848797,144831029
fw,-84.4165802001953,-56.4212532043457,45.66485836750178,-127.82557726997764,144847696
fw,-83.869400024414,-54.9181785583496,42.967973223476356,-105.71352933499027,144864363
fw,-83.5850982666015,-54.096378326416,40.99440719629954,-84.90115504561685,144881030
fw,-83.3235092163086,-53.4337692260742,40.198270730812645,-66.00306279000921,144897697
fw,-82.8179931640625,-52.762092590332,40.75428883217081,-48.76400373261936,144914364
fw,-82.0509033203125,-52.1459655761718,42.56183905053512,-32.302815838844396,144931031
fw,-81.1578903198242,-51.677635192871,45.33642594611915,-15.561181588477279,144947698
fw,-80.3259048461914,-51.3744888305664,48.722822150057574,2.194549063785994,144964365
fw,-79.5636444091796,-51.439640045166,52.361145842664946,21.000953169768223,144981032
fw,-78.8262557983398,-51.8982238769531,55.87367904757737,40.09886543892039,144997699
fw,-78.0863876342773,-52.7932662963867,58.7916356256801,58.15698443505367,145014366
fw,-77.2913589477539,-54.8572235107421,60.47730264382415,73.74290793651653,145031033
fw,-76.3924560546875,-57.0875396728515,60.10105340232542,85.85740139930093,145047700
fw,-75.4589920043945,-58.7830390930175,56.70633763286035,94.30334059648489,145064367
fw,-74.5969085693359,-60.1375274658203,49.354126345788906,99.72098825112201,145081034
fw,-73.8363189697265,-61.4855422973632,37.30153279532029,103.27231711678455,145097701
fw,-73.3242263793945,-62.6507225036621,20.15380474053717,106.12016342327787,145114368
fw,-73.3491897583007,-63.9571189880371,-2.0583578465613552,108.93344563880872,145131035
fw,-74.1539993286132,-65.8665542602539,-28.887101111611813,111.6224982463963,145147702
fw,-75.4055862426757,-67.5838470458984,-59.5271828335786,113.39814747545185,145164369
fw,-76.9506072998046,-69.5142364501953,-92.86712128130549,113.11486374619622,145181036
fw,-78.9672775268554,-71.4208526611328,-127.48743370362267,109.7578078409434,145197703
fw,-81.4047698974609,-73.3986434936523,-161.61478638602694,102.89355769276926,145214370
fw,-84.2139587402343,-75.2477874755859,-193.09853239826933,92.92314705457534,145231037
fw,-87.0586242675781,-76.5131301879882,-219.50266636255688,81.04175978496696,145247704
fw,-87.9652938842773,-77.09619140625,-238.38413955443102,68.91060770340154,145264371
fw,-84.0888519287109,-77.3700866699218,-247.7564417480732,58.159128472297795,145281038
fw,-78.4319152832031,-77.8092422485351,-246.62905756395165,49.91147957329348,145297705
fw,-73.6545028686523,-78.5735092163086,-235.41505415521772,44.5218208559254,145314372
fw,-70.7988586425781,-79.7058563232421,-215.9899225143222,41.604341517259584,145331039
fw,-68.5003814697265,-81.1155090332031,-191.31348902339477,40.31033864871023,145347706
fw,-65.9684753417968,-82.4125061035156,-164.7311257134983,39.70809205235512,145364373
fw,-63.3600730895996,-83.2060165405273,-139.20706364136043,39.10348539393781,145381040
fw,-61.4905967712402,-83.762092590332,-116.72766690238056,38.19584715818581,145397707
fw,-60.1110610961914,-84.1935043334961,-97.99932942871978,37.056093304036686,145414374
fw,-58.9400939941406,-84.7169494628906,-82.45972084269013,35.99154688746254,145431041
fw,-57.8212547302246,-85.3933029174804,-68.56413993624926,35.385472230191525,145447708
fw,-56.7560844421386,-86.0300979614257,-54.274565647182854,35.56842212767625,145464375
fw,-55.9244766235351,-86.5811614990234,-37.64359459800426,36.72874123160803,145481042
fw,-55.5679283142089,-87.0755767822265,-17.360167447362997,38.842691174812096,145497709
fw,-55.5834655761718,-87.4992294311523,6.869362194137568,41.614809014565736,145514376
fw,-55.9750785827636,-87.7804412841796,34.190193254410545,44.44715634347877,145531043
fw,-56.8376502990722,-87.8368072509765,62.744074363276994,46.47184616978834,145547710
fw,-58.6953201293945,-87.6318130493164,90.05391632908568,46.66845340969617,145564377
fw,-61.0920600891113,-87.2119598388671,113.55363677020554,44.05269711524555,145581044
fw,-63.3442687988281,-86.7025375366211,131.12854004042245,37.885508873024214,145597711
fw,-65.6418685913086,-86.2516937255859,141.53203872964457,27.833578768984914,145614378
fw,-67.9288101196289,-86.0020370483398,144.59350074856377,14.024974220386605,145631045
fw,-70.1589584350586,-86.0046768188476,141.2006049480351,-3.017545444140962,145647712
fw,-73.0513763427734,-86.2256622314453,133.08533028803626,-22.534604304006294,145664379
fw,-75.4371566772461,-86.4350357055664,122.45350059953688,-43.713342335279066,145681046
fw,-76.9696273803711,-86.3288040161132,111.50418434530951,-65.823303285165,145697713
fw,-77.9264450073242,-85.9046630859375,101.92305541406097,-88.25927183564978,145714380
fw,-78.8975372314453,-85.0655670166015,94.4915843633981,-110.49075261183094,145731047
fw,-80.1342239379882,-83.5573425292968,88.96869060947175,-131.95787996255987,145747714
fw,-81.7966079711914,-81.3041687011718,84.3230151642075,-151.9685270117101,145764381
fw,-83.6354217529296,-78.6886672973632,79.24635434513173,-169.64153160313,145781048
fw,-85.2931442260742,-75.7853469848632,72.74667928671632,-183.92330312306734,145797715
fw,-86.6614151000976,-72.5641098022461,64.58008899671326,-193.69173956722955,145814382
fw,-87.245864868164,-69.2599105834961,55.354574472583295,-197.9458363478524,145831049
fw,-87.097412109375,-65.7071533203125,46.284904991598566,-196.0491633436598,145847716
