Label,Left_Hip_q,Right_Hip_q,Left_Hip_qd,Right_Hip_qd,SampleTimeFine
fw,-76.3361053466796,-59.1504974365234,34.6345748901367,109.222023010253,4147625815
fw,-76.3816146850586,-61.0192222595214,-5.533574896351945,113.10397263321158,4147642482
fw,-77.2826843261718,-62.9496612548828,-53.59218372243953,114.73110065568373,4147659149
fw,-78.9937515258789,-64.7552871704101,-100.71134290791964,116.26999124784568,4147675816
fw,-81.158218383789,-66.7047653198242,-145.71297075366562,117.51822824204885,4147692483
fw,-83.6843490600586,-68.3912811279296,-186.9438821752592,118.06242412221562,4147709150
fw,-86.1356353759765,-69.899055480957,-222.2008762423472,117.25851909669736,4147725817
fw,-86.5165405273437,-71.3261947631836,-248.87882730935587,114.31176860277264,4147742484
fw,-83.9711761474609,-72.9217834472656,-264.4041563765375,108.47594949550478,4147759151
fw,-78.9949722290039,-75.0533218383789,-266.91435850607456,99.35078540408512,4147775818
fw,-72.5313949584961,-77.4521255493164,-255.9919553352283,87.18625007895528,4147792485
fw,-68.6126098632812,-79.1272964477539,-233.14214300870466,73.04000566308564,4147809152
fw,-65.5415649414062,-79.701057434082,-201.73017559738838,58.64687874463898,4147825819
fw,-63.2268371582031,-79.8568344116211,-166.30340414623558,45.98215637105033,4147842486
fw,-61.9433403015136,-80.2138290405273,-131.50282499957783,36.67559553968483,4147859153
fw,-60.9071884155273,-81.0978393554687,-100.94670932326294,31.53409313362857,4147875820
fw,-59.6854362487793,-81.9944763183593,-76.45858058740423,30.37673652062344,4147892487
fw,-58.4704360961914,-82.6637191772461,-57.852658040140035,32.22051115015215,4147909154
fw,-57.5820617675781,-83.459716796875,-43.28041679662002,35.697847308941526,4147925821
fw,-57.0957603454589,-84.4712829589843,-29.97576172564148,39.51953819239391,4147942488
fw,-56.8380241394043,-85.4582138061523,-15.162087752413406,42.816984918834535,4147959155
fw,-56.601089477539,-86.2486114501953,3.1099843137699414,45.2677176516096,4147975822
fw,-56.4780731201171,-86.9165725708007,25.383904139669067,46.99658298351132,4147992489
fw,-56.6895904541015,-87.6144332885742,50.61433682908641,48.32546951757341,4148009156
fw,-57.8412170410156,-88.3257980346679,76.44000498098386,49.48749217501324,4148025823
fw,-60.8661651611328,-88.8744735717773,99.85174036430949,50.412505811622665,4148042490
fw,-63.5147895812988,-88.8341674804687,118.05375607593487,50.64432742808199,4148059157
fw,-65.8803939819336,-88.3232192993164,129.230101525427,49.39587246440957,4148075824
fw,-67.5643768310546,-87.7005844116211,132.97093751957814,45.70785764180533,4148092491
fw,-69.5873718261718,-87.0916900634765,130.2705068515632,38.655643787871384,4148109158
fw,-71.5204315185546,-86.5215988159179,123.17562387467507,27.545158542197772,4148125825
fw,-73.6130447387695,-86.1468505859375,114.24258830653413,12.049850858661287,4148142492
fw,-75.5389022827148,-86.0922012329101,105.94463094534565,-7.73645392242474,4148159159
fw,-77.3287353515625,-86.2776412963867,100.12546929646494,-31.326369985518202,4148175826
fw,-78.4187622070312,-86.4542007446289,97.57666177481683,-57.91445795242789,4148192493
fw,-79.2279357910156,-86.3080596923828,97.83318669742484,-86.45823726507574,4148209160
fw,-80.3674087524414,-85.4553298950195,99.28875966868596,-115.72964680302162,4148225827
fw,-82.0626907348632,-83.8122100830078,99.67542342861788,-144.3268657857446,4148242494
fw,-83.9800872802734,-81.476203918457,96.81992715712997,-170.668122221417,4148259161
fw,-85.7526397705078,-78.5827865600586,89.44088505603524,-193.01493932588863,4148275828
fw,-86.4983749389648,-75.2011260986328,77.68065819187555,-209.57876294884548,4148292495
fw,-86.3393783569336,-71.6563186645507,63.13850714787031,-218.7422726531514,4148309162
fw,-85.9854660034179,-68.0723571777343,48.372528056683066,-219.3764231638616,4148325829
fw,-85.749641418457,-64.141975402832,36.0721056719616,-211.17256594584467,4148342496
fw,-85.832893371582,-60.5903701782226,28.24115258622431,-194.86340875335017,4148359163
fw,-85.8494720458984,-58.0602493286132,25.697324096778523,-172.2089537636329,4148375830
fw,-85.7585067749023,-56.2292671203613,28.017761819652662,-145.69285647825913,4148392497
fw,-85.3113632202148,-54.5952720642089,33.86302287957405,-117.9905088603673,4148409164
fw,-84.526611328125,-53.5247535705566,41.489784944677496,-91.37206816689404,4148425831
fw,-83.6294555664062,-52.7696189880371,49.24825041888813,-67.23582605235246,4148442498
fw,-82.6836471557617,-52.0664329528808,55.92076952467915,-45.9205955510146,4148459165
fw,-81.7050704956054,-51.5509643554687,60.84557580142567,-26.849230417926414,4148475832
fw,-80.6560821533203,-51.2156867980957,63.844425849472344,-8.945957373716471,4148492499
fw,-79.6999359130859,-50.976276397705,65.01679660703776,8.819150992810913,4148509166
fw,-78.9071197509765,-50.9035758972168,64.48031947271072,26.948728043035267,4148525833
fw,-78.0675735473632,-50.8858604431152,62.140021318680155,45.17438478165675,4148542500
fw,-77.1030731201171,-52.0506362915039,57.55910235915969,62.54853609045658,4148559167
fw,-76.1244201660156,-54.5490951538085,49.97228474755603,77.83991758437882,4148575834
fw,-75.2663116455078,-56.6472244262695,38.43080939751547,90.05872288494223,4148592501
fw,-74.7518157958984,-58.0041542053222,22.019547089748173,98.86382448008187,4148609168
fw,-74.7619400024414,-59.4726295471191,0.0709585316077666,104.66527214852125,4148625835
fw,-75.4585342407226,-61.3317337036132,-27.672626428348657,108.39913455253445,4148642502
fw,-76.7101593017578,-63.0346298217773,-60.9479810911843,111.10576607702998,4148659169
fw,-78.3938980102539,-64.6176300048828,-98.87675172849707,113.50136054569974,4148675836
fw,-80.4588012695312,-66.4659729003906,-139.8628122746518,115.69981340867928,4148692503
fw,-83.1035232543945,-68.1243057250976,-181.50629165145105,117.166248975756,4148709170
fw,-86.00732421875,-69.9648742675781,-220.61760934313955,116.90300263250712,4148725837
fw,-87.3813247680664,-71.8364791870117,-253.44035243427518,113.80326024143521,4148742504
fw,-85.0842666625976,-73.5240478515625,-276.15957440439576,107.06750213404923,4148759171
fw,-80.059700012207,-75.3456115722656,-285.67426263820755,96.56403810973693,4148775838
fw,-72.8486709594726,-77.1334686279296,-280.46026678139384,83.02128131206467,4148792505
fw,-67.7616348266601,-78.36865234375,-261.20445368321737,67.96724925002107,4148809172
fw,-64.2031784057617,-78.8305969238281,-230.87256514526072,53.39608148612719,4148825839
fw,-61.625389099121,-79.1099166870117,-194.06335499723752,41.245983615452936,4148842506
fw,-60.085578918457,-79.6393127441406,-155.82059782360696,32.87398091486386,4148859173
fw,-58.8135299682617,-80.6581573486328,-120.32319196769005,28.733738985677427,4148875840
fw,-57.5150985717773,-81.6271286010742,-89.91033836895767,28.36998878622603,4148892507
fw,-56.3323211669921,-82.3259658813476,-64.73731187254481,30.692498309453757,4148909174
fw,-55.5549964904785,-83.0584106445312,-43.11117247099571,34.38062299988065,4148925841
fw,-55.1414909362793,-83.8659210205078,-22.340872984238292,38.24833265776724,4148942508
fw,-54.7500495910644,-84.6144256591796,0.18664188297072049,41.45239378485099,4148959175
fw,-54.4339561462402,-85.2542266845703,26.023740476587,43.50923798455004,4148975842
fw,-54.3674812316894,-85.8679122924804,55.054328926170584,44.16512023967605,4148992509
fw,-55.9422760009765,-86.4544830322265,85.44129580136165,43.21545604411419,4149009176
fw,-59.1379623413085,-87.0087966918945,114.14174159978809,40.374586352363224,4149025843
fw,-61.7835006713867,-87.455322265625,137.8064576929576,35.2564926615182,4149042510
fw,-64.3785858154296,-87.7112503051757,153.74918749335524,27.463629650176433,4149059177
fw,-67.0037231445312,-87.7899932861328,160.68092585128113,16.727557422441343,4149075844
fw,-69.9960784912109,-87.7726974487304,159.02958836082198,3.0243107567376084,4149092511
fw,-72.7334289550781,-87.6400909423828,150.80829845976396,-13.395081841859446,4149109178
fw,-75.0512237548828,-87.1747131347656,139.09281332341456,-32.073154863933404,4149125845
fw,-77.061408996582,-86.1575393676757,127.23067765954639,-52.47535488009691,4149142512
fw,-78.8038635253906,-84.7218856811523,117.96098199991174,-74.10626083759422,4149159179
fw,-79.8242721557617,-83.061782836914,112.67117678181032,-96.53885190103586,4149175846
fw,-80.7124481201171,-81.0293350219726,111.02462958184634,-119.32309321033995,4149192513
fw,-82.1859130859375,-78.8273162841796,111.12440808377772,-141.80430242615918,4149209180
fw,-84.3959732055664,-76.4083786010742,110.22070353786319,-162.94036937482326,4149225847
fw,-86.4936218261718,-73.5958404541015,105.75655841665382,-181.231518402923,4149242514
fw,-86.4301528930664,-70.1874084472656,96.37410637384129,-194.85045858000194,4149259181
fw,-85.4298019409179,-66.5582809448242,82.48109362400385,-201.9849201914789,4149275848
fw,-84.9105377197265,-62.6190605163574,66.14826117134096,-201.3026841302983,4149292515
fw,-84.648696899414,-59.536880493164,50.399590790921664,-192.369643852915,4149309182
fw,-84.172004699707,-57.051887512207,38.213851300681284,-175.84581896011932,4149325849
fw,-83.7389373779296,-54.9074821472168,31.64112498409573,-153.36729448025542,4149342516
fw,-83.4580993652343,-53.1614761352539,31.328606331777785,-127.14979214596723,4149359183
fw,-83.0029144287109,-51.9225540161132,36.53705128119729,-99.45167410483401,4149375850
fw,-82.0456924438476,-51.1718673706054,45.53424523211993,-72.07132603373745,4149392517
fw,-80.8266067504882,-50.7291107177734,56.147918193589916,-46.03187509882353,4149409184
fw,-79.657958984375,-50.4012222290039,66.26127754758348,-21.544102493533348,4149425851
fw,-78.5602416992187,-50.1588134765625,74.1174393825452,1.75102154688024,4149442518
fw,-77.5125045776367,-50.1357765197753,78.4173931898629,24.357012684260898,4149459185
fw,-76.4384613037109,-50.3963394165039,78.28842718114781,46.483941382108796,4149475852
fw,-75.2264862060546,-50.8264007568359,73.22304601850016,67.78088108209373,4149492519
fw,-74.0996551513671,-52.4529457092285,63.046523621832684,87.35699500111033,4149509186
fw,-73.28466796875,-55.3571243286132,47.90833430987638,104.08118030735105,4149525853
fw,-72.8324432373046,-57.8463897705078,28.25600123572581,117.0107682705494,4149542520
fw,-72.7603912353515,-59.8072891235351,4.757922811303962,125.7315064449025,4149559187
fw,-73.238655090332,-61.6749610900878,-21.820071177230897,130.44963523068648,4149575854
fw,-74.2704238891601,-63.6520919799804,-50.74010593275143,131.82546181026308,4149592521
fw,-75.7806625366211,-65.5732879638671,-81.35743238448343,130.66864788109527,4149609188
fw,-77.6673965454101,-67.4529190063476,-113.07744894088604,127.6519245695486,4149625855
fw,-79.9082565307617,-69.2726058959961,-145.1999454547481,123.15254735209082,4149642522
fw,-82.6129455566406,-70.7502059936523,-176.70207037526268,117.25542689132996,4149659189
fw,-85.3761978149414,-72.5493011474609,-206.05690224818125,109.88959170854471,4149675856
fw,-87.2601928710937,-74.2675170898437,-231.2005853272187,101.03125935980327,4149692523
fw,-86.1584548950195,-75.8480834960937,-249.738595897224,90.89012141113592,4149709190
fw,-82.3313369750976,-77.275764465332,-259.41286928851184,80.00145345168619,4149725857
fw,-76.4014282226562,-78.3486785888671,-258.7338704077593,69.1783472626335,4149742524
fw,-71.1300277709961,-79.0876159667968,-247.5517465238135,59.33079182275917,4149759191
fw,-67.6190109252929,-79.6451416015625,-227.28951028795274,51.21555280349548,4149775858
fw,-64.7652740478515,-80.3276062011718,-200.66840816737528,45.21929443314129,4149792525
fw,-62.606216430664,-81.4256744384765,-170.98691172325385,41.27269693323383,4149809192
fw,-60.6069793701171,-82.7113418579101,-141.22362088084262,38.93651492925108,4149825859
fw,-58.847843170166,-83.6482543945312,-113.29358370863888,37.61642394086628,4149842526
fw,-57.4603805541992,-84.3286437988281,-87.69343202230507,36.8025763781052,4149859193
fw,-56.5506858825683,-84.8820114135742,-63.61103363831888,36.22850803288079,4149875860
fw,-55.9819297790527,-85.4630889892578,-39.433962137496785,35.894210203788724,4149892527
fw,-55.6286430358886,-86.0860366821289,-13.498409674630143,35.96106413298991,4149909194
fw,-55.3250389099121,-86.7577438354492,15.132275556755587,36.57022446688785,4149925861
fw,-55.2316360473632,-87.3937606811523,46.09052886424728,37.65274420412022,4149942528
fw,-55.8005256652832,-87.8254318237304,77.53246845794956,38.794626769691895,4149959195
fw,-58.4752502441406,-87.952163696289,106.47203699648004,39.200783289672984,4149975862
fw,-61.377098083496,-87.8266067504882,129.55080789851422,37.775592169005876,4149992529
fw,-64.0429229736328,-87.5585556030273,143.999995555075,33.30882098029965,4150009196
fw,-66.6477813720703,-87.2418212890625,148.47568052697628,24.72592639682529,4150025863
fw,-69.2873458862304,-87.0352249145507,143.50986021221223,11.336740389795668,4150042530
fw,-71.7295608520507,-87.0502471923828,131.46330800118625,-6.990758240854977,4150059197
fw,-73.6787033081054,-87.2399063110351,116.00800165979533,-29.783476557672852,4150075864
fw,-75.1616134643554,-87.4101867675781,101.2707086609134,-56.049742340360254,4150092531
fw,-76.4849853515625,-87.0115509033203,90.83990720372728,-84.45820344369479,4150109198
fw,-77.3122253417968,-85.6644668579101,86.87704414490999,-113.53955179216226,4150125865
fw,-78.1210403442382,-83.396484375,89.56626020635925,-141.84187813163302,4150142532
fw,-79.3985595703125,-80.563117980957,97.07082540980986,-167.99599437069568,4150159199
fw,-81.2319793701171,-77.4825210571289,106.04089749791073,-190.68924003781197,4150175866
fw,-83.2167053222656,-74.2898406982421,112.56107086964096,-208.59478876343124,4150192533
fw,-84.8272857666015,-70.83154296875,113.28695077428982,-220.34122196970716,4150209200
fw,-86.1250076293945,-67.1203689575195,106.4472753592674,-224.60907717880875,4150225867
fw,-85.4942474365234,-63.0044746398925,92.40399072043891,-220.38901587178287,4150242534
fw,-84.5301971435546,-59.0469322204589,73.56818772226505,-207.34261889652507,4150259201
fw,-84.3322067260742,-56.1191329956054,53.6610560767309,-186.12169010310882,4150275868
fw,-84.7957611083984,-53.6986389160156,36.54986659806115,-158.4831679393889,4150292535
fw,-85.5341033935546,-51.3726234436035,25.07794602070726,-127.10057526076474,4150309202
fw,-85.8805847167968,-50.0878677368164,20.32512528489477,-95.08153666786185,4150325869
fw,-85.3140869140625,-49.8217086791992,21.546214515274418,-65.30572446533125,4150342536
fw,-84.0020370483398,-49.8601608276367,26.732263610367998,-39.77334401914147,4150359203
fw,-82.8551254272461,-49.9844398498535,33.48398642540001,-19.18014576239035,4150375870
fw,-82.2705688476562,-50.0117950439453,39.805914592184465,-2.8825047115666913,4150392537
fw,-81.7134552001953,-49.8927345275878,44.542010108709505,10.715710720829595,4150409204
fw,-81.0392608642578,-49.8205604553222,47.386023240307736,23.483561004300316,4150425871
fw,-80.4090423583984,-49.8041954040527,48.582891966249825,36.83722617328094,4150442538
fw,-79.8709030151367,-49.9513282775878,48.51519829848604,51.23729023751334,4150459205
fw,-79.3172836303711,-51.157299041748,47.348700436461165,66.0934455455665,4150475872
fw,-78.6002960205078,-53.6334724426269,44.84067420798606,80.09246164113412,4150492539
fw,-77.7359924316406,-55.8059501647949,40.33332995342224,91.77939929496175,4150509206
fw,-76.9580917358398,-57.1935653686523,32.88617280904558,100.11703816211543,4150525873
fw,-76.4705963134765,-58.3678398132324,21.466601750770106,104.7939246949047,4150542540
fw,-76.4897689819336,-60.1773147583007,5.129811442178276,106.21330303003677,4150559207
fw,-77.0536880493164,-61.5199851989746,-16.83321994582456,105.25287799438424,4150575874
fw,-77.9857635498046,-63.2589645385742,-44.75106878280706,102.94525560413388,4150592541
fw,-79.2449111938476,-64.7785949707031,-78.38778080527537,100.19624331805052,4150609208
fw,-81.0035324096679,-66.0884170532226,-116.71365527474883,97.59499239352125,4150625875
fw,-83.297119140625,-67.5340347290039,-157.69377420119562,95.32360909264997,4150642542
fw,-86.0464096069336,-68.7443389892578,-198.21444718323156,93.15648508079177,4150659209
fw,-88.1016311645507,-69.8070983886718,-234.27610867335912,90.54265732365211,4150675876
fw,-85.822151184082,-71.1253662109375,-261.5269448292,86.77127982532934,4150692543
fw,-81.4325103759765,-72.7089920043945,-276.10111394373007,81.21058281826143,4150709210
fw,-74.4568939208984,-74.4010391235351,-275.5793621357042,73.57321765248068,4150725877
fw,-69.1426315307617,-75.5486984252929,-259.760240969607,64.11483570850578,4150742544
fw,-65.8660202026367,-76.2552413940429,-230.91210223652027,53.664958534206434,4150759211
fw,-63.1342124938964,-76.8855743408203,-193.34045113921886,43.4489061990665,4150775878
fw,-61.347900390625,-77.5394744873046,-152.39057567362843,34.75845041867022,4150792545
fw,-60.0035896301269,-78.2818527221679,-113.23465232966048,28.601092147523676,4150809212
fw,-58.8262901306152,-78.9509582519531,-79.83445300080494,25.45961204322892,4150825879
fw,-57.819465637207,-79.4617004394531,-54.34167213598081,25.234569373130494,4150842546
fw,-56.9763107299804,-79.9385910034179,-37.00410331606714,27.36489558673227,4150859213
fw,-56.4125289916992,-80.5396194458007,-26.48533089033635,31.062023334039946,4150875880
fw,-55.9740753173828,-81.2631607055664,-20.426017246645596,35.56521370277527,4150892547
fw,-55.7487106323242,-82.0171432495117,-16.07471224581665,40.329697211349874,4150909214
fw,-55.7170333862304,-82.7692642211914,-10.862616862802916,45.090875957931566,4150925881
fw,-55.7105255126953,-83.488410949707,-2.8510277520631524,49.797740019446,4150942548
fw,-55.6492004394531,-84.16259765625,8.983683587317804,54.457969772665734,4150959215
fw,-55.6556816101074,-84.8390884399414,24.648968744537303,58.9647040047982,4150975882
fw,-56.5014839172363,-85.558120727539,43.23110853511544,62.97065871860124,4150992549
fw,-57.93989944458,-86.1889572143554,63.16938978378082,65.84653768268124,4151009216
fw,-59.5645713806152,-86.6435089111328,82.64156212544039,66.72641778822444,4151025883
fw,-61.4079513549804,-86.8864288330078,99.9528468164792,64.62071901720903,4151042550
fw,-63.066047668457,-86.8978958129882,113.82918570331883,58.57211888059626,4151059217
fw,-64.7889251708984,-86.6380920410156,123.57136325652506,47.83143834247086,4151075884
fw,-66.9255828857421,-86.2344894409179,129.08842684251792,32.02635620661014,4151092551
fw,-69.3054122924804,-85.9818572998046,130.85141671103028,11.284864055265993,4151109218
fw,-72.0723037719726,-86.0849380493164,129.78255796556485,-13.728685490529951,4151125885
fw,-74.7930068969726,-86.5379028320312,127.05652827717304,-41.889181427627946,4151142552
fw,-76.3985595703125,-87.0358200073242,123.79273537682602,-71.78262033635126,4151159219
fw,-77.6066284179687,-86.6229858398437,120.6849009964356,-101.91630335761438,4151175886
fw,-78.8533935546875,-84.840835571289,117.70801597472166,-130.88868970656662,4151192553
fw,-80.3199920654296,-82.4533309936523,114.07912595282471,-157.4565999733957,4151209220
fw,-82.2843399047851,-79.8673706054687,108.56904124622736,-180.48927339448483,4151225887
fw,-84.5202026367187,-77.1442565917968,100.09317158262692,-198.8659206489294,4151242554
fw,-86.3696746826171,-73.9549407958984,88.34696461924376,-211.42079010223065,4151259221
fw,-86.9553527832031,-70.248794555664,74.1918111375532,-217.03227808249085,4151275888
fw,-86.3719940185546,-66.5427703857421,59.58191167697751,-214.88079270400948,4151292555
fw,-85.7907638549804,-62.7517356872558,47.01858056700772,-204.79615254947413,4151309222
fw,-85.5453491210937,-59.6757125854492,38.733918640586616,-187.53855669986805,4151325889
fw,-85.5764083862304,-57.1131629943847,35.93309808190222,-164.85563641643623,4151342556
fw,-85.6493606567382,-55.149185180664,38.3996520717966,-139.2367446782168,4151359223
fw,-85.3820419311523,-53.5767135620117,44.608451436814256,-113.40466607826535,4151375890
fw,-84.335205078125,-52.5862197875976,52.27858697504739,-89.68849108347638,4151392557
fw,-82.846565246582,-51.9976425170898,59.12876206662059,-69.47145933472464,4151409224
fw,-81.6114730834961,-51.4070281982421,63.538477195262296,-52.89348881389686,4151425891
fw,-80.6789474487304,-50.8073196411132,64.88712751016884,-38.915658746450596,4151442558
fw,-79.8653869628906,-50.2750396728515,63.49904950544406,-25.74135666504602,4151459225
fw,-79.1053924560546,-49.7639656066894,60.282610600895424,-11.471258519352157,4151475892
fw,-78.3899230957031,-49.5245208740234,56.24201630881594,5.210727891293169,4151492559
fw,-77.7192916870117,-49.3954277038574,52.04218963525422,24.537967418156104,4151509226
fw,-77.0989303588867,-49.7956848144531,47.74999490372805,45.510723779964664,4151525893
fw,-76.466567993164,-51.5012130737304,42.79979280565023,66.14728208937629,4151542560
fw,-75.7629318237304,-53.5563163757324,36.16174557935913,84.05240602310452,4151559227
fw,-75.0472030639648,-55.074462890625,26.636963136904015,97.10838751444614,4151575894
fw,-74.5736236572265,-56.5720520019531,13.173398434321914,104.0672336942178,4151592561
fw,-74.6152725219726,-58.2387084960937,-4.897412496784867,104.89082818697837,4151609228
fw,-75.3689880371093,-59.9825096130371,-27.755827798960627,100.79110467066437,4151625895
fw,-76.5694580078125,-61.711627960205,-55.105123620389904,93.99360086084288,4151642562
fw,-78.1371459960937,-63.3215866088867,-86.22655716273236,87.27055609705975,4151659229
fw,-80.1092987060546,-64.3541183471679,-120.00087580781151,83.30265333826385,4151675896
fw,-82.3526077270507,-65.1589965820312,-154.86462257250963,83.96944651662399,4151692563
fw,-84.9476623535156,-65.7591323852539,-188.73810866271134,89.73466451814032,4151709230
fw,-86.838882446289,-66.5881958007812,-219.01516824173382,99.3390168403954,4151725897
fw,-86.176643371582,-68.0754928588867,-242.71996569340266,109.98195886210029,4151742564
fw,-83.3142013549804,-70.3351516723632,-256.90521191551016,118.03786596073031,4151759231
fw,-79.0403594970703,-73.058349609375,-259.282976045056,120.14626430439972,4151775898
fw,-72.8198623657226,-75.9355087280273,-248.9471882140498,114.33044098635068,4151792565
fw,-68.1748657226562,-78.5187149047851,-226.91483878238705,100.73216766384692,4151809232
fw,-64.8903656005859,-80.1568222045898,-196.18338951746867,81.65460321619827,4151825899
fw,-62.5190849304199,-80.5325164794921,-161.15238048246334,60.859037552634476,4151842566
fw,-61.7656135559082,-80.162353515625,-126.53753340016056,42.368097169393,4151859233
fw,-61.2829322814941,-80.1707687377929,-96.15304162188518,29.243639396371336,4151875900
fw,-60.3233451843261,-80.6844100952148,-72.00635651715763,22.80823232392861,4151892567
fw,-58.9783782958984,-81.4420471191406,-54.00922144028346,22.555658778766063,4151909234
fw,-57.7687721252441,-82.2591476440429,-40.34440236226258,26.67800423092409,4151925901
fw,-56.9861946105957,-83.2911224365234,-28.281363593230886,32.899418711274535,4151942568
fw,-56.521499633789,-84.3621215820312,-15.118527687503835,39.24645377705646,4151959235
fw,-56.5644645690918,-85.2195510864257,1.0369999232546792,44.48651244617708,4151975902
fw,-56.8747215270996,-85.8611907958984,20.823297099519614,48.15204758276203,4151992569
fw,-57.2849693298339,-86.4000549316406,43.55737063051708,50.251999927227494,4152009236
fw,-58.4435882568359,-87.0048065185546,67.50301680353279,50.881238017263776,4152025903
fw,-60.727928161621,-87.7313461303711,90.36498447250311,49.93548879535842,4152042570
fw,-63.0413970947265,-88.1619796752929,109.85877166345162,47.040010646414046,4152059237
fw,-64.8411254882812,-87.9149398803711,124.1963792774404,41.66967023238187,4152075904
fw,-66.5991897583007,-87.5249633789062,132.37885714941888,33.34910909383123,4152092571
fw,-68.8825073242187,-87.3809432983398,134.2806392863012,21.811662683772326,4152109238
fw,-71.1637649536132,-87.4350967407226,130.5837570944112,7.050301619612011,4152125905
fw,-73.3988494873046,-87.5883255004882,122.62476338919912,-10.733070220948703,4152142572
fw,-75.5928573608398,-87.7719116210937,112.17420840866636,-31.22366849344361,4152159239
fw,-77.872329711914,-87.5905151367187,101.13591382739033,-54.06608466105931,4152175906
fw,-79.0496520996093,-86.6675109863281,91.16996472630753,-78.85976304195692,4152192573
fw,-79.464973449707,-85.0673599243164,83.30784069709453,-105.05897296229855,4152209240
fw,-80.0006637573242,-83.1240005493164,77.69945002098773,-131.80467140139297,4152225907
fw,-81.2455902099609,-80.8856124877929,73.64121059379288,-157.763613315387,4152242574
fw,-83.2730560302734,-78.2115859985351,69.93482663477305,-181.07910944720143,4152259241
fw,-85.2188568115234,-75.110855102539,65.45507616645676,-199.52419236790033,4152275908
fw,-86.7678451538086,-71.4973678588867,59.674611077796584,-210.88210068709049,4152292575
fw,-87.5784454345703,-67.302017211914,52.902186368167904,-213.47780907534982,4152309242
fw,-87.6731719970703,-63.1405906677246,46.13760155247661,-206.69025337673958,4152325909
fw,-87.7975311279296,-60.3114929199218,40.63782517924934,-191.24260934802766,4152342576
fw,-87.9815216064453,-58.2035446166992,37.41197977746476,-169.13371318765698,4152359243
fw,-88.2871932983398,-56.1275901794433,36.86388008564332,-143.2144694842932,4152375910
fw,-88.6831512451171,-54.4559364318847,38.704672117182845,-116.54682211460673,4152392577
fw,-88.5668716430664,-53.2617607116699,42.130852192681715,-91.73781458025442,4152409244
fw,-87.5605697631836,-52.4264030456543,46.16077097278372,-70.41754467295559,4152425911
fw,-86.5341720581054,-51.7247581481933,49.97531358605117,-52.97314844309818,4152442578
fw,-85.7191619873046,-51.1740112304687,53.12651008679012,-38.58999784453583,4152459245
fw,-84.915542602539,-50.7483863830566,55.550354726091676,-25.587253780439475,4152475912
fw,-84.0430679321289,-50.5275421142578,57.40890730631521,-11.970054907834006,4152492579
fw,-83.165054321289,-50.4087295532226,58.8472297965736,3.931990514689263,4152509246
fw,-82.3315963745117,-50.4347114562988,59.764579699276084,22.898833216361584,4152525913
fw,-81.4672393798828,-50.5726242065429,59.67888339096655,44.484064083924835,4152542580
fw,-80.5149383544921,-51.0704536437988,57.72749766403575,67.02884143286539,4152559247
fw,-79.478775024414,-52.7939758300781,52.804169184742825,88.06125776673984,4152575914
fw,-78.4664535522461,-55.369457244873,43.78735164395386,104.98943103745397,4152592581
fw,-77.6685485839843,-57.6653137207031,29.781934091564327,115.86896533775221,4152609248
fw,-77.3032531738281,-59.5153312683105,10.293130492838841,119.97446058024401,4152625915
fw,-77.6891632080078,-61.1335754394531,-14.712557865470785,117.98046633150923,4152642582
fw,-78.9300765991211,-62.6761512756347,-44.839484955509334,111.72220553911438,4152659249
fw,-80.6227722167968,-63.8754501342773,-79.30828768206507,103.65970299001829,4152675916
fw,-82.3824844360351,-65.5178298950195,-116.92339487366846,96.23432383669217,4152692583
fw,-84.394790649414,-67.0181655883789,-155.93235154033567,91.28335201171888,4152709250
fw,-86.5744018554687,-67.9909439086914,-193.85491784687127,89.61895435612232,4152725917
fw,-87.1932830810546,-68.8921432495117,-227.44761001498418,90.83702852479493,4152742584
fw,-84.6566848754882,-69.7075958251953,-252.97194104022202,93.41123838279601,4152759251
fw,-81.0540084838867,-71.0961608886718,-266.8335486857483,95.1086759894685,4152775918
fw,-74.86279296875,-73.2092666625976,-266.4853223001903,93.68594366316722,4152792585
fw,-69.0920867919921,-75.7115859985351,-251.30735863255657,87.68891186000522,4152809252
fw,-65.469009399414,-77.534683227539,-223.0897742272645,77.06262211459808,4152825919
fw,-62.5365028381347,-78.5656280517578,-185.8423910767141,63.28707708039993,4152842586
fw,-60.8479423522949,-79.1012268066406,-144.92366065884278,48.934314103500654,4152859253
fw,-60.0325012207031,-79.2473602294921,-105.77118097531333,36.81079878970086,4152875920
fw,-59.4736137390136,-79.4124755859375,-72.66315095943574,29.045195579660614,4152892587
fw,-58.5572052001953,-79.7208099365234,-47.889552789259156,26.48857938272076,4152909254
fw,-57.6735725402832,-80.3150558471679,-31.52207043032215,28.624420873853342,4152925921
fw,-57.0524597167968,-81.2440414428711,-21.74925103163485,33.95036785498602,4152942588
fw,-56.7483100891113,-82.3228683471679,-15.586794464841402,40.61240989576709,4152959255
fw,-56.6580123901367,-83.3625106811523,-9.727384778737903,47.01009623280796,4152975922
fw,-56.7497673034668,-84.2768630981445,-1.3347362131689453,52.15265627767661,4152992589
fw,-56.7787322998046,-85.0414123535156,11.349349985929317,55.68748789194948,4153009256
fw,-56.5828666687011,-85.6824874877929,28.67204646470551,57.67473947469779,4153025923
fw,-56.7959785461425,-86.2641448974609,49.571520385464524,58.27482668227964,4153042590
fw,-58.3871765136718,-86.6059875488281,71.92860941615854,57.513750611235395,4153059257
fw,-61.1626167297363,-86.5425491333007,93.18747340847409,55.211165349379556,4153075924
fw,-63.6030693054199,-86.2776412963867,111.04989487009121,51.0544091403238,4153092591
fw,-65.3350677490234,-86.0791854858398,124.00155864401734,44.73452876159933,4153109258
fw,-66.9855194091796,-86.0008087158203,131.51206773375355,36.052082737902296,4153125925
fw,-69.2075119018554,-85.9979248046875,133.91730629575804,24.939812712001455,4153142592
fw,-71.2585220336914,-86.0754470825195,132.12280459861807,11.406263413364975,4153159259
fw,-73.4747161865234,-86.231948852539,127.28438790675978,-4.550507950295944,4153175926
fw,-75.928596496582,-86.5089569091796,120.55414512262207,-22.995052082974446,4153192593
fw,-78.1072845458984,-86.8143310546875,112.90197802211928,-44.025765844197444,4153209260
fw,-79.3821487426757,-86.8742599487304,104.99064762106445,-67.6561273387693,4153225927
fw,-80.5432891845703,-86.3703689575195,97.10334764001549,-93.63614132273604,4153242594
fw,-81.8526153564453,-85.1887130737304,89.16110109269468,-121.2705533441968,4153259261
fw,-83.4530868530273,-83.3385314941406,80.86771966614359,-149.29875872445015,4153275928
fw,-85.10302734375,-80.7752304077148,71.96143576440181,-175.89406797351754,4153292595
fw,-86.4552536010742,-77.7008590698242,62.475331523008734,-198.8195873690242,4153309262
fw,-87.3885116577148,-74.1511840820312,52.87862347460803,-215.74438876674205,4153325929
fw,-87.6226501464843,-70.256965637207,44.01742200706992,-224.67819089568022,4153342596
fw,-87.3954849243164,-66.1176071166992,36.87087513614075,-224.43231250018397,4153359263
fw,-87.245376586914,-61.9916496276855,32.22942043990736,-214.97446156474186,4153375930
fw,-87.2449417114257,-58.8891067504882,30.43548570596315,-197.5405362120944,4153392597
fw,-87.18603515625,-56.6444816589355,31.288717031689664,-174.42285044195464,4153409264
fw,-87.1249237060546,-54.6265029907226,34.13614712005293,-148.46517470092212,4153425931
fw,-86.8802719116211,-52.8580932617187,38.09162457490404,-122.40836430793543,4153442598
fw,-86.3064193725586,-51.5861167907714,42.29258620292603,-98.28380403020535,4153459265
fw,-85.5149383544921,-50.6330757141113,46.10860147122107,-77.0272518986071,4153475932
fw,-84.6840057373046,-49.7719917297363,49.247084530814305,-58.41094033510485,4153492599
fw,-83.8946533203125,-49.0111083984375,51.73840851011979,-41.30013595140435,4153509266
fw,-83.1363067626953,-48.3755683898925,53.815245634129184,-24.151232199077477,4153525933
fw,-82.3230209350586,-48.0125846862793,55.72541566142993,-5.600058637690074,4153542600
fw,-81.4884414672851,-47.9361114501953,57.53185481874894,15.037693666128572,4153559267
fw,-80.6495590209961,-48.1250610351562,58.95634962198101,37.50610916777151,4153575934
fw,-79.7770233154296,-49.1352577209472,59.315001588912885,60.66690668831889,4153592601
fw,-78.8030929565429,-51.0602340698242,57.57248742619703,82.84788841197853,4153609268
fw,-77.812873840332,-53.2245788574218,52.51004613880589,102.34716158148012,4153625935
fw,-76.9904861450195,-55.243049621582,42.96610147103534,117.89749701021645,4153642602
fw,-76.3689041137695,-57.2951774597168,28.083079150446224,128.9219041380965,4153659269
fw,-76.130012512207,-59.5671195983886,7.493117212387966,135.51754141379283,4153675936
fw,-76.5604629516601,-61.7066955566406,-18.597712319739376,138.2281979338224,4153692603
fw,-77.6927490234375,-63.5444602966308,-49.422910587641184,137.73967912205592,4153709270
fw,-79.1002883911132,-65.7089767456054,-83.72381536325278,134.63313467916984,4153725937
fw,-80.8768692016601,-67.5571136474609,-119.8205087060819,129.27539490075628,4153742604
fw,-83.1161270141601,-69.1510543823242,-155.66380902558674,121.85003452112117,4153759271
fw,-85.6387481689453,-70.6522140502929,-188.8971367795783,112.47870330186477,4153775938
fw,-86.8937377929687,-72.1352920532226,-216.99091018536748,101.36992623302453,4153792605
fw,-85.3858184814453,-73.7955932617187,-237.50543485885748,88.94730296834284,4153809272
fw,-81.9029922485351,-75.2456893920898,-248.48768819818488,75.9204005526186,4153825939
fw,-75.9840469360351,-76.1554107666015,-248.9224392666991,63.26199624463734,4153842606
fw,-71.7377014160156,-76.6687316894531,-239.07326285528325,52.068092378081516,4153859273
fw,-68.9933853149414,-77.2331466674804,-220.53530521282138,43.321505460283646,4153875940
fw,-66.0425720214843,-77.9600830078125,-195.92792543472586,37.63671841403242,4153892607
fw,-63.2040252685546,-78.8339385986328,-168.32281900740918,35.089088057986054,4153909274
fw,-60.9081916809082,-79.8176956176757,-140.60431011353,35.20165618823693,4153925941
fw,-59.031810760498,-80.7393417358398,-114.93884411553542,37.095703882842734,4153942608
fw,-57.6439704895019,-81.6035614013671,-92.45089140810289,39.746166320926065,4153959275
fw,-56.6262321472168,-82.3416595458984,-73.13772707206043,42.250265296110975,4153975942
fw,-55.8021240234375,-83.0879440307617,-56.02043436928246,44.02561470508569,4153992609
fw,-55.1601867675781,-83.9333419799804,-39.500581021698416,44.891543102365155,4154009276
fw,-54.7537803649902,-84.8272171020507,-21.857289238281787,45.03152343950293,4154025943
fw,-54.5736007690429,-85.6274948120117,-1.7834607269882585,44.86430171664322,4154042610
fw,-54.6738052368164,-86.2138977050781,21.1628629556711,44.861799795835104,4154059277
fw,-55.0077285766601,-86.5946960449218,46.313299831151305,45.354009118939956,4154075944
fw,-56.0977401733398,-86.8659362792968,71.93563895076653,46.36443285942453,4154092611
fw,-58.0903511047363,-87.1207809448242,95.58711173042242,47.519978902325455,4154109278
fw,-60.2122650146484,-87.2861785888671,114.6973171631402,48.06533213304268,4154125945
fw,-62.7370376586914,-87.192512512207,127.22488477145718,46.98133660144098,4154142612
fw,-64.9653015136718,-86.8627548217773,132.2061389283372,43.1725443326503,4154159279
fw,-67.0021591186523,-86.5208129882812,130.0526432716129,35.66977549834527,4154175946
fw,-69.238540649414,-86.2731704711914,122.53001897723304,23.799226762506574,4154192613
fw,-71.6680603027343,-86.116828918457,112.42153171853151,7.2930990487531995,4154209280
fw,-73.7003707885742,-86.0840377807617,102.92870591381367,-13.660368875836799,4154225947
fw,-74.8002471923828,-86.1861801147461,96.90629135108216,-38.42044371365703,4154242614
fw,-75.5507431030273,-86.3240127563476,96.09275701962369,-65.94608092015699,4154259281
fw,-76.6557159423828,-86.1318359375,100.55762176273217,-94.89197928741972,4154275948
fw,-78.2197647094726,-85.1468353271484,108.57999496801911,-123.73404882115591,4154292615
fw,-80.1332473754882,-83.3290252685546,117.06128304842956,-150.89718750209983,4154309282
fw,-82.2931900024414,-80.7862091064453,122.39567080492968,-174.85778551449516,4154325949
fw,-84.5306930541992,-77.7893295288086,121.55565065237235,-194.21208718752166,4154342616
fw,-86.5936660766601,-74.4258804321289,113.05991163181749,-207.72956741757048,4154359283
fw,-86.5770950317382,-70.9316329956054,97.50186373179905,-214.4283102076348,4154375950
fw,-85.7141723632812,-67.6005477905273,77.43443879642095,-213.701737363382,4154392617
fw,-85.5279312133789,-63.9076957702636,56.620271995122074,-205.490062740669,4154409284
fw,-85.6675872802734,-60.444236755371,38.90520596308446,-190.43796733476498,4154425951
fw,-85.7936477661132,-57.5654716491699,27.135806038157,-169.94139077635023,4154442618
fw,-85.6669082641601,-55.3389892578125,22.5109166600637,-145.9966660305469,4154459285
fw,-85.2151718139648,-53.6542205810546,24.541259940491155,-120.83699326415304,4154475952
fw,-84.3620147705078,-52.5493278503418,31.519050380465224,-96.44285198312222,4154492619
fw,-83.2977676391601,-51.7872581481933,41.22026587261378,-74.0882350375186,4154509286
fw,-82.3177795410156,-51.1506767272949,51.54235853111405,-54.09254190914376,4154525953
fw,-81.2589111328125,-50.419750213623,60.88716884438328,-35.88162901731143,4154542620
fw,-80.1904754638671,-49.6365203857421,68.24938772639568,-18.34502316250794,4154559287
fw,-79.1887588500976,-49.2176399230957,73.08916467448455,-0.3575624379287868,4154575954
fw,-78.1515426635742,-49.4036293029785,75.11788575207238,18.732047378686158,4154592621
fw,-77.1215133666992,-49.5990409851074,74.11439024223755,38.82478222983078,4154609288
fw,-76.0895080566406,-50.356388092041,69.84044730292283,59.09650882667821,4154625955
fw,-74.9952011108398,-52.4384117126464,62.064287157708605,78.29553776021623,4154642622
fw,-73.9450531005859,-54.7094802856445,50.64874972011353,95.17658368334752,4154659289
fw,-73.1277618408203,-56.379108428955,35.63253824202913,108.8813278402582,4154675956
fw,-72.7746658325195,-58.0691566467285,17.241599129207934,119.1109375035417,4154692623
fw,-73.1819839477539,-59.9800720214843,-4.186435173671466,126.05092782349382,4154709290
fw,-74.1678085327148,-62.1218147277832,-28.318053033408134,130.13112354320342,4154725957
fw,-75.3138732910156,-63.931957244873,-54.88962784838296,131.75913470002524,4154742624
fw,-76.5040206909179,-65.9813461303711,-83.64518088748247,131.1444606203611,4154759291
fw,-78.0958480834961,-67.9666061401367,-114.13923932903727,128.27007827008558,4154775958
fw,-80.2430114746093,-69.9141159057617,-145.48586423309172,123.00405349348078,4154792625
fw,-83.0539245605468,-71.7182388305664,-176.18294350793002,115.293114873832,4154809292
fw,-85.9931259155273,-73.5269088745117,-204.1238352424275,105.35461267098428,4154825959
fw,-88.1611251831054,-75.290542602539,-226.84659153021013,93.78696142954674,4154842626
fw,-85.8897705078125,-76.6884078979492,-241.99632928714726,81.54541732773586,4154859293
fw,-80.8229904174804,-77.3895111083984,-247.89871937372476,69.77287001128332,4154875960
fw,-75.2526473999023,-77.7749099731445,-244.0655776423897,59.5301075085414,4154892627
fw,-71.7847824096679,-78.2385025024414,-231.4185520458238,51.521843898920054,4154909294
fw,-68.9599151611328,-78.9896926879882,-212.08909382482196,45.932256040398165,4154925961
fw,-66.0659942626953,-80.1277084350586,-188.8306142815775,42.443047714213485,4154942628
fw,-63.4029121398925,-81.3018646240234,-164.25344394487726,40.422392006361115,4154959295
fw,-61.2242317199707,-82.2586364746093,-140.1505674318305,39.194006048217474,4154975962
fw,-59.6226806640625,-83.0863342285156,-117.11690470031209,38.26875119974189,4154992629
fw,-58.3984336853027,-83.7253036499023,-94.55440530767784,37.45489241230048,4155009296
fw,-57.2555274963378,-84.2901000976562,-71.05469351615717,36.82858444736239,4155025963
fw,-56.2843894958496,-84.8832397460937,-45.061936313003706,36.60551762544439,4155042630
fw,-55.5347175598144,-85.5621795654296,-15.635099771872834,36.98311455941012,4155059297
fw,-55.0904464721679,-86.254768371582,16.92769196485212,38.013645516886584,4155075964
fw,-55.2519836425781,-86.804573059082,50.83250947961699,39.534752316264374,4155092631
fw,-56.8438491821289,-87.1770706176757,83.03646188283699,41.15148158363265,4155109298
fw,-59.736457824707,-87.4145736694336,109.96684635143596,42.25420176337083,4155125965
fw,-62.0996894836425,-87.5786056518554,128.50178991003705,42.06804751854444,4155142632
fw,-64.5902786254882,-87.6066589355468,136.89674199663258,39.74087676685988,4155159299
fw,-67.1031875610351,-87.4145736694336,135.36399578842102,34.469730068183225,4155175966
fw,-69.688606262207,-87.0787277221679,126.1342227926686,25.642572494805634,4155192633
fw,-71.892105102539,-86.8362808227539,112.97687593441611,12.953091400366283,4155209300
fw,-73.0929107666015,-86.8196792602539,100.2878421795567,-3.548959094906422,4155225967
fw,-74.0065841674804,-86.9710845947265,91.96524659415267,-23.480448491254354,4155242634
fw,-74.8386154174804,-87.0977554321289,90.37435583021448,-46.19571354189537,4155259301
fw,-75.9786529541015,-87.0233001708984,95.70761706070682,-70.86569462855248,4155275968
fw,-77.6151580810546,-86.4593429565429,105.94668701249374,-96.53555997396982,4155292635
fw,-79.707778930664,-85.0969924926757,117.4541946953042,-122.15269281560485,4155309302
fw,-81.9272994995117,-82.9578094482421,126.03122325327791,-146.57317354334404,4155325969
fw,-84.1491775512695,-80.1766128540039,128.13952127961736,-168.56156007074398,4155342636
fw,-86.104995727539,-76.9765167236328,121.94034672491854,-186.8028982390921,4155359303
fw,-86.3134765625,-73.5290222167968,107.84515042713925,-199.95250325632867,4155375970
fw,-85.0910415649414,-70.2179870605468,88.39578181502218,-206.75346596887493,4155392637
fw,-84.5623550415039,-66.9249191284179,67.48557786938139,-206.2410120072775,4155409304
fw,-84.4404296875,-63.0158576965332,49.16558357782715,-198.0132583126464,4155425971
fw,-84.528335571289,-59.5926361083984,36.458999652471874,-182.4839328436231,4155442638
fw,-84.3231124877929,-56.8623924255371,30.614340218061297,-160.9837120125388,4155459305
fw,-83.809326171875,-54.8672981262207,31.029832926196534,-135.59769290736813,4155475972
fw,-82.9986801147461,-53.542366027832,35.781849381306145,-108.73064886622628,4155492639
fw,-82.0222778320312,-52.8409767150878,42.45629108902311,-82.5256444050263,4155509306
fw,-81.2212600708007,-52.486228942871,48.92346360933184,-58.34742827481972,4155525973
fw,-80.4356918334961,-52.0715637207031,53.80683837807078,-36.533615505623025,4155542640
fw,-79.5104827880859,-51.5144004821777,56.5804552326395,-16.516151535970728,4155559307
fw,-78.6278991699218,-51.0960350036621,57.381925845838836,2.734846363438989,4155575974
fw,-77.8701705932617,-51.1337051391601,56.69096789816921,22.12520626418831,4155592641
fw,-77.1215744018554,-51.5607643127441,55.005779739516655,41.941679084784845,4155609308
fw,-76.3357620239257,-52.129093170166,52.59560954428796,61.635333018418486,4155625975
fw,-75.5980682373046,-53.3503723144531,49.356918604157066,79.95799307680299,4155642642
fw,-74.9752960205078,-55.8566703796386,44.77024162256416,95.39151464039385,4155659309
fw,-74.46630859375,-58.4752464294433,37.94574877837562,106.69250925359921,4155675976
fw,-74.048110961914,-60.5474967956543,27.748279154553888,113.32071994161481,4155692643
fw,-73.854751586914,-62.281005859375,12.994379372743179,115.57130458343096,4155709310
fw,-74.0573806762695,-63.2843742370605,-7.293268550350271,114.38071433397116,4155725977
fw,-74.6773681640625,-64.9907531738281,-33.603474944997984,110.9366732838663,4155742644
fw,-75.5311737060546,-66.6099548339843,-65.67267547440814,106.29366889628919,4155759311
fw,-76.9726867675781,-68.044075012207,-102.3001155275291,101.14611622146847,4155775978
fw,-79.2287216186523,-69.6086273193359,-141.30574826228442,95.79853048170382,4155792645
fw,-82.3222274780273,-71.1169891357421,-179.6756339232753,90.27681194476827,4155809312
fw,-85.5962905883789,-72.1732025146484,-213.89905753473184,84.48954988191556,4155825979
fw,-87.9317092895507,-73.4332733154296,-240.4594794698967,78.36745254442525,4155842646
fw,-86.0296554565429,-74.7518463134765,-256.41584455673745,71.95074799200508,4155859313
fw,-81.1370086669921,-75.9670639038086,-259.988860748135,65.42319579370397,4155875980
fw,-75.3167037963867,-76.8092880249023,-251.02411456721038,59.09442974220329,4155892647
fw,-71.7944030761718,-77.4041061401367,-231.16364867748632,53.33038373644647,4155909314
fw,-68.9848480224609,-77.9674987792968,-203.59431149437304,48.44846225812745,4155925981
fw,-66.1691741943359,-78.8912811279296,-172.3843595295703,44.621284707262234,4155942648
fw,-63.9287414550781,-80.0628280639648,-141.5869776523742,41.838390963150516,4155959315
fw,-62.3292999267578,-81.1145858764648,-114.36824614765534,39.944991264747976,4155975982
fw,-61.1235008239746,-81.8799896240234,-92.38512797300591,38.73262754002705,4155992649
fw,-60.1259040832519,-82.4344711303711,-75.55235662141794,38.03290975429043,4156009316
fw,-59.1225471496582,-82.9145965576171,-62.240842742809164,37.774904772892796,4156025983
fw,-58.1804733276367,-83.4560241699218,-49.85346861786027,37.99306051514101,4156042650
fw,-57.3526535034179,-84.1245346069336,-35.634627464614816,38.79203199972216,4156059317
fw,-56.7445373535156,-84.8853454589843,-17.509160706803677,40.27851157462902,4156075984
fw,-56.4416580200195,-85.6392440795898,5.265428177723029,42.46713678124564,4156092651
fw,-56.6076583862304,-86.2682876586914,31.806765353956777,45.17150809083162,4156109318
fw,-57.4584083557128,-86.7122955322265,59.758722989433586,47.906330635566704,4156125985
fw,-59.6420249938964,-86.99267578125,85.84882406372999,49.84277284819678,4156142652
fw,-61.8699035644531,-87.1815872192382,106.69438112988178,49.85979941659075,4156159319
fw,-64.0720062255859,-87.2480697631836,119.62536207560605,46.708939984271886,4156175986
fw,-66.0246353149414,-87.078125,123.30308256180412,39.2638847928273,4156192653
fw,-67.9421691894531,-86.7935638427734,118.0041006437469,26.781478684410583,4156209320
fw,-69.7642211914062,-86.7555084228515,105.55172749083563,9.085302029522778,4156225987
fw,-71.4657135009765,-86.9979553222656,88.95553237993802,-13.388125435197374,4156242654
fw,-72.8682250976562,-87.3753509521484,71.84933897264965,-39.680851877710815,4156259321
fw,-73.4426879882812,-87.4206390380859,57.827676561107204,-68.48769265725522,4156275988
fw,-73.7283401489257,-86.596076965332,49.79503382027284,-98.33718304905457,4156292655
fw,-74.4744110107421,-84.8046112060546,49.453479724142504,-127.72088664159857,4156309322
fw,-75.5926208496093,-82.4844360351562,57.03062413923496,-155.1507542395682,4156325989
fw,-77.0845565795898,-79.7898712158203,71.28105813646022,-179.16288126409498,4156342656
fw,-78.7406921386718,-76.7366333007812,89.71723977527493,-198.31399127961694,4156359323
fw,-80.2683181762695,-73.0993118286132,108.9929155679765,-211.22664105105508,4156375990
fw,-81.7147598266601,-69.2107467651367,125.38786494332983,-216.7219935804868,4156392657
fw,-83.1105194091796,-65.4274063110351,135.38744312983272,-214.03454935926345,4156409324
fw,-84.4523162841796,-61.7846908569335,136.35329106563591,-203.0491465971002,4156425991
fw,-85.2167663574218,-58.8615798950195,127.20874536805826,-184.46662414174534,4156442658
fw,-83.7526397705078,-56.4715003967285,108.94180025106822,-159.81344007234486,4156459325
fw,-82.2235260009765,-54.6013107299804,84.65368636838342,-131.26120612746905,4156475992
fw,-82.2632598876953,-53.1421585083007,58.96231511653723,-101.28813523516726,4156492659
fw,-83.3222122192382,-52.0357055664062,36.8312552415663,-72.26221244824406,4156509326
fw,-84.1159057617187,-51.414794921875,22.2045722023691,-46.04025106269728,4156525993
fw,-83.9122161865234,-51.3436012268066,16.970140307242794,-23.66799820609472,4156542660
fw,-83.1523818969726,-51.6958618164062,20.632649794853876,-5.250750854667457,4156559327
fw,-82.2712020874023,-52.1713218688964,30.743346330266824,9.957037618059267,4156575994
fw,-81.3240737915039,-52.7018585205078,43.821529023081766,23.235001172358317,4156592661
fw,-80.2115402221679,-52.702465057373,56.37325753495497,35.913635671603835,4156609328
fw,-79.0805282592773,-52.5693206787109,65.67609887879343,48.86647709442063,4156625995
fw,-77.9002227783203,-53.1118125915527,70.1628752761605,62.16840369177673,4156642662
fw,-76.8208465576171,-54.5790405273437,69.40392544560629,75.07637434391796,4156659329
fw,-75.9669952392578,-56.6001930236816,63.80087081090732,86.35891755003551,4156675996
fw,-75.2455749511718,-58.8230018615722,54.150360927351514,94.83313737425983,4156692663
fw,-74.6331024169921,-61.0993156433105,41.2249718988819,99.86309763473268,4156709330
fw,-74.3747253417968,-62.4974899291992,25.475757951043306,101.59878272720057,4156725997
fw,-74.5751419067382,-63.4620132446289,6.913292446305963,100.87459944870788,4156742664
fw,-75.0901718139648,-64.8490142822265,-14.81514526861386,98.85423938958526,4156759331
fw,-75.6401214599609,-66.2101898193359,-40.170530916192895,96.60727515023063,4156775998
fw,-76.3963470458984,-67.6065063476562,-69.3518616341417,94.79039857355713,4156792665
fw,-77.7087478637695,-68.9830093383789,-101.92071359939563,93.51954516074726,4156809332
fw,-79.8931198120117,-70.2610397338867,-136.55225113578473,92.42852902671754,4156825999
fw,-82.8819503784179,-71.4859848022461,-171.01492583627433,90.85766823711917,4156842666
fw,-86.1225357055664,-72.829231262207,-202.40983143777422,88.10247638124112,4156859333
fw,-88.9420471191406,-74.2280120849609,-227.62739962247485,83.65886029051374,4156876000
fw,-86.2775344848632,-75.8174743652343,-243.93378967125827,77.41006351435196,4156892667
fw,-81.7133865356445,-77.0815963745117,-249.57260089958592,69.70700119439185,4156909334
fw,-76.0218276977539,-77.8207168579101,-244.23499737514922,61.30882806431092,4156926001
fw,-72.2340698242187,-78.3812942504882,-229.22826097020422,53.18906162280998,4156942668
fw,-69.4400787353515,-78.9474334716796,-207.21980279860026,46.26768967871151,4156959335
fw,-66.7219085693359,-79.7622680664062,-181.5788993984073,41.16804918800039,4156976002
fw,-64.4126892089843,-80.730728149414,-155.51099447175156,38.08763678137075,4156992669
fw,-62.578929901123,-81.7269210815429,-131.26611136097952,36.81695879455425,4157009336
fw,-61.0044784545898,-82.611083984375,-109.66335393007937,36.874481455591706,4157026003
fw,-59.7257766723632,-83.314582824707,-90.0571605791241,37.68599290317518,4157042670
fw,-58.5133972167968,-83.8768310546875,-70.74065714304831,38.737833824821536,4157059337
fw,-57.4844779968261,-84.4382781982421,-49.66728461958815,39.66333670702084,4157076004
fw,-56.7135467529296,-85.0775756835937,-25.287083534380727,40.256440472784156,4157092671
fw,-56.1838760375976,-85.7034530639648,2.74611362580553,40.42894145512642,4157109338
fw,-56.0844001770019,-86.2492904663086,33.22070937114809,40.13664778392858,4157126005
fw,-56.7964744567871,-86.676040649414,63.50407602381446,39.30200559471231,4157142672
fw,-59.4145050048828,-86.9861068725586,90.1609886881256,37.76025775585847,4157159339
fw,-62.0308151245117,-87.1589660644531,109.87413484046476,35.24902266418922,4157176006
fw,-64.2559585571289,-87.1872177124023,120.36542936761217,31.443468812083722,4157192673
fw,-66.3155670166015,-87.1181259155273,121.01809616835658,26.016024958582452,4157209340
fw,-68.2445068359375,-87.080337524414,113.02818291676847,18.684805850500428,4157226007
fw,-69.7741241455078,-87.1561431884765,99.09108411265018,9.22228985904869,4157242674
fw,-70.942138671875,-87.3317184448242,82.76339936944217,-2.5740305194000817,4157259341
fw,-71.8672485351562,-87.5332794189453,67.69829041985489,-16.91211327372962,4157276008
fw,-72.6948776245117,-87.6924209594726,56.94611401680616,-33.98624586479354,4157292675
fw,-73.2563934326171,-87.6301574707031,52.463997297837544,-53.879620137851205,4157309342
fw,-74.2696762084961,-87.0600204467773,54.906004568938485,-76.40663843606254,4157326009
fw,-75.6935043334961,-85.8087158203125,63.685232179371255,-100.95488850685273,4157342676
fw,-77.2938537597656,-83.840950012207,77.22922974479677,-126.3972403805305,4157359343
fw,-78.881477355957,-81.2851028442382,93.31576794013166,-151.1195718469612,4157376010
fw,-80.4330368041992,-78.3102035522461,109.3965976069054,-173.16891558158903,4157392677
fw,-81.9777221679687,-74.9293441772461,122.88139263457484,-190.49549264259372,4157409344
fw,-83.654556274414,-71.1978149414062,131.4173742944892,-201.2494492892496,4157426011
fw,-85.0942840576171,-67.5437545776367,133.2143703012197,-204.08926045222367,4157442678
fw,-85.8182983398437,-64.0333404541015,127.4154734541479,-198.4513156295335,4157459345
fw,-85.0941162109375,-61.0479927062988,114.42658832768299,-184.7208396379144,4157476012
fw,-83.3432159423828,-58.6477966308593,96.04665305867695,-164.24742570540138,4157492679
fw,-82.2804794311523,-56.5408248901367,75.2425683590917,-139.1747709843781,4157509346
fw,-82.2367630004882,-54.70166015625,55.52409173449732,-112.0973011908362,4157526013
fw,-82.8932876586914,-53.5115623474121,40.06454933744882,-85.59899718015897,4157542680
fw,-83.2808761596679,-52.8628120422363,30.876767581721722,-61.762209521977965,4157559347
fw,-82.8018341064453,-52.6681404113769,28.370508366759843,-41.75696017247304,4157576014
fw,-81.6579284667968,-52.7904014587402,31.45405376478121,-25.628059917776092,4157592681
fw,-80.3002243041992,-52.84175491333,38.08863173980834,-12.370535439782373,4157609348
fw,-79.1212158203125,-52.75825881958,46.01167656290278,-0.31170910841579946,4157626015
fw,-78.3289566040039,-52.5303726196289,53.31724565245032,12.286632967777239,4157642682
fw,-77.6688690185546,-52.13472366333,58.71043199992383,26.592587863235206,4157659349
fw,-76.8731307983398,-52.089241027832,61.43938046285811,42.7673732511099,4157676016
fw,-76.0314178466796,-53.3377227783203,61.04505136622246,59.91044612760088,4157692683
fw,-75.21044921875,-55.5439147949218,57.102867588655975,76.42005390047152,4157709350
fw,-74.349136352539,-57.7644729614257,49.07870313785268,90.61134259056347,4157726017
fw,-73.5976943969726,-59.597785949707,36.33695008308225,101.30980540113985,4157742684
fw,-73.2386245727539,-61.4102401733398,18.268823707702932,108.16500812275353,4157759351
fw,-73.4401092529296,-62.4898033142089,-5.520722095234607,111.5908360103258,4157776018
fw,-74.2140197753906,-63.8831710815429,-35.02042068152836,112.42677135661746,4157792685
fw,-75.3700408935546,-65.5107803344726,-69.64277857645233,111.52106034561014,4157809352
fw,-77.0457000732421,-67.2206649780273,-108.09254521628141,109.42294038045654,4157826019
fw,-79.4160995483398,-68.6735916137695,-148.29973356526511,106.27691171483552,4157842686
fw,-82.4483337402343,-70.1544036865234,-187.46280618730728,101.90960721637971,4157859353
fw,-85.8945922851562,-71.5313186645507,-222.25333436894647,96.0379897153166,4157876020
fw,-89.7052536010742,-72.9759445190429,-249.21391214213503,88.51050664154172,4157892687
fw,-86.5411376953125,-74.4602432250976,-265.33559534112817,79.5011038480501,4157909354
fw,-81.2351455688476,-76.0274276733398,-268.7277696516884,69.59380940475577,4157926021
fw,-74.9661026000976,-77.0455932617187,-259.1997866697618,59.72042405724857,4157942688
fw,-70.8446044921875,-77.4298400878906,-238.5107224163514,50.9535511454576,4157959355
fw,-68.1272888183593,-77.7258148193359,-210.09688934333138,44.214246867288,4157976022
fw,-65.8800811767578,-78.350830078125,-178.28420333764532,40.00476806676223,4157992689
fw,-63.9296646118164,-79.5334320068359,-147.22924930985178,38.28055758710236,4158009356
fw,-62.0554504394531,-80.7051239013671,-119.94863775016006,38.51394392664333,4158026023
fw,-60.3837509155273,-81.6424102783203,-97.73103297915121,39.90994557409427,4158042690
fw,-59.1519584655761,-82.3968505859375,-80.05681870762778,41.67231443321074,4158059357
fw,-58.2585639953613,-83.0186920166015,-64.98855442339799,43.216985699236844,4158076024
fw,-57.405044555664,-83.6535034179687,-49.89481245855512,44.27384841573094,4158092691
fw,-56.5826683044433,-84.3736419677734,-32.32116514332232,44.86885187097345,4158109358
fw,-55.9323997497558,-85.1329269409179,-10.799526851564854,45.21204756047624,4158126025
fw,-55.5971908569335,-85.7895050048828,14.611777203854853,45.53033843017569,4158142692
fw,-55.8419342041015,-86.2540969848632,42.21930579794995,45.88644208791914,4158159359
fw,-57.371166229248,-86.5095138549804,69.07339902825456,46.02758869055017,4158176026
fw,-59.845775604248,-86.6561431884765,91.7404069044507,45.30911055394245,4158192693
fw,-61.975299835205,-86.8107070922851,107.23443575867955,42.73020113641738,4158209360
fw,-63.9650573730468,-86.9130783081054,113.81874979866689,37.092837059091636,4158226027
fw,-65.8176193237304,-86.8886947631836,111.44898524850888,27.25381396205016,4158242694
fw,-67.609992980957,-86.8911437988281,101.77004083613343,12.4029907964733,4158259361
fw,-69.0689849853515,-87.0255279541015,87.71542280569315,-7.710437491379594,4158276028
fw,-70.2966766357421,-87.2955017089843,72.84184588400255,-32.661814255811386,4158292695
fw,-71.1537551879882,-87.4894714355468,60.56595192958194,-61.36574635321947,4158309362
fw,-71.2929534912109,-87.0103073120117,53.47581911035273,-92.20621925319757,4158326029
fw,-71.8659744262695,-85.3756866455078,52.87225106047674,-123.24124399030589,4158342696
fw,-73.2593231201171,-82.8539428710937,58.63868189212437,-152.427970798806,4158359363
fw,-74.8280410766601,-79.8907470703125,69.43832009062375,-177.81598138187522,4158376030
fw,-76.5549545288086,-76.6665649414062,83.12878337656522,-197.6784619880744,4158392697
fw,-78.13623046875,-73.2636795043945,97.23177506142295,-210.59010143833746,4158409364
fw,-79.6343765258789,-69.6205520629882,109.33041580739612,-215.4969083297785,4158426031
fw,-81.29150390625,-65.9798049926757,117.35546419147592,-211.8283864608077,4158442698
fw,-83.019416809082,-62.2086791992187,119.79583710775871,-199.66265562053096,4158459365
fw,-84.6147918701171,-58.9932518005371,115.8835600518309,-179.8885882667248,4158476032
fw,-85.8360443115234,-56.7592735290527,105.76161548760791,-154.2617685378377,4158492699
fw,-86.4562454223632,-54.8210334777832,90.5819771982246,-125.26350279301512,4158509366
fw,-86.3426971435546,-53.3747329711914,72.44407426137072,-95.7423037290918,4158526033
fw,-86.1842269897461,-52.5380897521972,54.10285452663225,-68.40329145579891,4158542700
fw,-86.2172088623046,-52.261604309082,38.45593000353023,-45.2725203079169,4158559367
fw,-86.2320480346679,-52.2801055908203,27.926431080160665,-27.286384793350614,4158576034
fw,-86.0496368408203,-52.2838668823242,23.928156121525014,-14.137908917884573,4158592701
fw,-85.7040863037109,-52.2861976623535,26.583889571268468,-4.447914075371534,4158609368
fw,-85.199348449707,-52.3252182006835,34.77340302002938,3.7699343397852596,4158626035
fw,-84.2798156738281,-52.2482833862304,46.46842024778211,12.481480832670584,4158642702
fw,-82.9790954589843,-52.1534538269043,59.22429733156878,23.03422185790627,4158659369
fw,-81.7322463989257,-52.4769821166992,70.67101773777536,35.778040460107334,4158676036
fw,-80.5518646240234,-53.4430274963378,78.87923331598893,50.021830883551836,4158692703
fw,-79.3153686523437,-54.6813354492187,82.54873374702677,64.3255160665896,4158709370
fw,-78.0209045410156,-55.9634780883789,81.0387386447643,77.00951928301691,4158726037
fw,-76.6734237670898,-57.4239845275878,74.29513148031201,86.69786879909412,4158742704
fw,-75.3790512084961,-59.3858032226562,62.720767087682056,92.7177267810485,4158759371
fw,-74.5012817382812,-61.1367111206054,47.007348134243145,95.23964407909341,4158776038
fw,-74.2272033691406,-62.3091049194335,27.937260671006715,95.1312469536437,4158792705
fw,-74.5107650756836,-63.3669357299804,6.185287260834989,93.5923648379549,4158809372
fw,-75.0346221923828,-64.5372467041015,-17.817386471462065,91.71586333339567,4158826039
fw,-75.7281494140625,-65.6886291503906,-43.88892270545582,90.1401632964539,4158842706
fw,-76.6437072753906,-66.770034790039,-71.94619794473006,88.9120130773219,4158859373
fw,-78.0592575073242,-68.208511352539,-101.74250165349912,87.58667217621671,4158876040
fw,-80.114273071289,-69.8702163696289,-132.5948314804943,85.50007077449361,4158892707
fw,-82.8708801269531,-71.1745452880859,-163.21117109550045,82.08816212438188,4158909374
fw,-85.8621292114257,-72.2737884521484,-191.69121210556605,77.12413418805635,4158926041
fw,-88.0748138427734,-73.084732055664,-215.72028836975207,70.79705566652869,4158942708
fw,-86.4988784790039,-73.9917526245117,-232.93278967618923,63.636955299817856,4158959375
fw,-82.5809020996093,-74.7503356933593,-241.38665611841057,56.35253907650247,4158976042
fw,-76.9481201171875,-75.3553924560546,-240.04493807579578,49.65887486622694,4158992709
fw,-73.0251693725586,-75.9988861083984,-229.11182738030092,44.144501315594034,4159009376
fw,-70.3834609985351,-76.7663650512695,-210.07606324617788,40.19258982622349,4159026043
fw,-67.6255416870117,-77.5564575195312,-185.41588493769973,37.94939585146234,4159042710
fw,-64.6253967285156,-78.3653869628906,-158.06225506488408,37.32704691311355,4159059377
fw,-62.3788566589355,-79.2107925415039,-130.79345527397751,38.03214870102816,4159076044
fw,-60.9961853027343,-80.0297775268554,-105.71237527730084,39.620524689948745,4159092711
fw,-59.9487915039062,-80.8978729248046,-83.90191756700014,41.582132441630606,4159109378
fw,-59.0265846252441,-81.7572860717773,-65.31715454527499,43.451849064447835,4159126045
fw,-58.1979522705078,-82.5454406738281,-48.94053887006154,44.92440857716079,4159142712
fw,-57.5265312194824,-83.2679214477539,-33.17071412618528,45.93656992992273,4159159379
fw,-57.0420989990234,-83.8989944458007,-16.348257772534545,46.67804341721032,4159176046
fw,-56.8959426879882,-84.5078811645507,2.7218326573856406,47.50956599659987,4159192713
fw,-57.1397972106933,-85.1135635375976,24.39025273499903,48.79748588986448,4159209380
fw,-57.6631889343261,-85.6305847167968,48.023518670109496,50.70808202759604,4159226047
fw,-59.0602416992187,-85.9793701171875,72.13369118434127,53.02830941280018,4159242714
fw,-61.0679969787597,-86.1860275268554,94.73077431129104,55.08227449350974,4159259381
fw,-63.3332252502441,-86.2641448974609,113.78676958529209,55.79005485098256,4159276048
fw,-65.3723983764648,-86.1529464721679,127.67570557845315,53.87071777843104,4159292715
fw,-67.1751327514648,-85.8052062988281,135.48496368634807,48.137385522328806,4159309382
fw,-69.6054992675781,-85.4058227539062,137.15962811649064,37.79128400882274,4159326049
fw,-72.0648498535156,-85.1280670166015,133.49350828581152,22.617013124844377,4159342716
fw,-74.5141372680664,-85.0849456787109,125.98657010125507,3.0198467565782425,4159359383
fw,-76.7986984252929,-85.2722549438476,116.57027962720916,-20.09079585602059,4159376050
fw,-78.616096496582,-85.6415405273437,107.20857620653452,-45.512309954565225,4159392717
fw,-79.53955078125,-85.9674072265625,99.43527211451698,-71.97211796311993,4159409384
fw,-80.3065338134765,-85.8693389892578,93.9610789561945,-98.2934661957228,4159426051
fw,-81.431770324707,-85.0098266601562,90.5151534674044,-123.46770945576753,4159442718
fw,-83.1419067382812,-83.3232116699218,88.02697269058606,-146.63395649186845,4159459385
fw,-85.1023941040039,-80.9205245971679,85.11148796266336,-166.99650083182223,4159476052
fw,-86.9422607421875,-78.1321640014648,80.66866713492222,-183.72978708884943,4159492719
fw,-87.8212051391601,-75.0814819335937,74.3412763948896,-195.9296977164228,4159509386
fw,-87.5582427978515,-71.8262329101562,66.63713767860915,-202.66505972079966,4159526053
fw,-86.9753494262695,-68.5099334716796,58.68256504087812,-203.15521993506806,4159542720
fw,-86.4855346679687,-64.5038833618164,51.745270235310905,-197.0422431474007,4159559387
fw,-86.0294570922851,-61.216022491455,46.75616959740751,-184.65548259850382,4159576054
fw,-85.2826232910156,-58.7674484252929,44.0295553284012,-167.12730896468335,4159592721
fw,-84.5479202270507,-56.8733520507812,43.263035726189464,-146.25676557862238,4159609388
fw,-83.8052062988281,-55.1038284301757,43.76738290689887,-124.12626527249166,4159626055
fw,-82.9644165039062,-53.8320579528808,44.794068343123435,-102.59062201524199,4159642722
fw,-82.1989822387695,-53.008617401123,45.81641220956358,-82.81402022531665,4159659389
fw,-81.4835052490234,-52.2091560363769,46.66668633108904,-65.01402954948222,4159676056
fw,-80.7564392089843,-51.4338264465332,47.50557920707782,-48.501948830530836,4159692723
fw,-80.0341796875,-50.8730278015136,48.6657231320997,-32.01111256779393,4159709390
fw,-79.2881317138671,-50.5718193054199,50.441511124875824,-14.209999979491977,4159726057
fw,-78.4892425537109,-50.4806632995605,52.891593484728645,5.761247535106461,4159742724
fw,-77.6289520263671,-50.6259231567382,55.69660011470131,27.897336066109816,4159759391
fw,-76.739631652832,-51.1647415161132,58.092512517581255,51.202776870631254,4159776058
fw,-75.8369979858398,-52.253547668457,58.887880220543046,73.88726408268342,4159792725
fw,-74.9760055541992,-54.3893928527832,56.56756179621587,93.83715494379571,4159809392
fw,-74.1816864013671,-56.7730293273925,49.47909279574339,109.2181741203136,4159826059
fw,-73.514778137207,-59.0597915649414,36.08500721446107,119.00023750239478,4159842726
fw,-73.219123840332,-61.2761840820312,15.247769690829278,123.21194215163929,4159859393
fw,-73.4705352783203,-63.1372184753418,-13.49779036439515,122.83671381053183,4159876060
fw,-74.3891220092773,-64.3484725952148,-49.72909206096401,119.40733841672018,4159892727
fw,-75.8300552368164,-65.95849609375,-92.01156512871722,114.46982642778494,4159909394
fw,-77.9363784790039,-67.5080108642578,-137.8898496902607,109.12161783187419,4159926061
fw,-80.9241333007812,-68.7624893188476,-184.0154905386305,103.77767244773706,4159942728
fw,-84.4616241455078,-70.2353744506836,-226.42934193462284,98.21671662404593,4159959395
fw,-87.695816040039,-71.7694244384765,-261.00470723013666,91.85821729615586,4159976062
fw,-86.5551986694336,-73.3401870727539,-284.031922205762,84.15107702420349,4159992729
fw,-82.0227279663086,-74.8310089111328,-292.88221380256374,74.92854581720846,4160009396
fw,-75.0543136596679,-76.2685852050781,-286.62088179698304,64.60101585403552,4160026063
fw,-70.1403656005859,-77.1186294555664,-266.3687868788792,54.114187009083565,4160042730
fw,-66.8368682861328,-77.3904037475586,-235.2120258323038,44.6842839412877,4160059397
fw,-64.050666809082,-77.8179473876953,-197.596596540368,37.41365715251857,4160076064
fw,-62.041648864746,-78.6291427612304,-158.36470076252482,32.94815226884532,4160092731
fw,-60.3030242919921,-79.775520324707,-121.74265648856148,31.318276935876963,4160109398
fw,-58.7657661437988,-80.6789855957031,-90.58118435680495,32.01037303799018,4160126065
fw,-57.4763031005859,-81.3592147827148,-66.01387473298267,34.203013801364875,4160142732
fw,-56.693489074707,-82.0101623535156,-47.5412473392915,37.047503315943224,4160159399
fw,-56.2823486328125,-82.7002639770507,-33.44121850854886,39.887398991464835,4160176066
fw,-55.96870803833,-83.427505493164,-21.368133400072303,42.36601382799534,4160192733
fw,-55.6233825683593,-84.2080993652343,-9.004394625995225,44.421644608520594,4160209400
fw,-55.3600006103515,-85.0365142822265,5.3622021657713566,46.19964970818296,4160226067
fw,-55.4140739440918,-85.8044662475586,22.45236492735607,47.91960391313654,4160242734
fw,-56.0022888183593,-86.430419921875,41.88640395530936,49.73274256359774,4160259401
fw,-57.5252265930175,-86.9090805053711,62.3700454956882,51.59902146726995,4160276068
fw,-59.3564262390136,-87.3121261596679,82.10096708039251,53.2097893987048,4160292735
fw,-61.2065467834472,-87.661506652832,99.25190539111314,53.978654729802805,4160309402
fw,-63.0027313232421,-87.7878723144531,112.38080134596275,53.11201445632424,4160326069
fw,-64.5208129882812,-87.5428237915039,120.6816134962598,49.748660658645065,4160342736
fw,-66.5317153930664,-87.0305404663086,124.07561645898281,43.13218171423991,4160359403
fw,-68.6909790039062,-86.4850387573242,123.1917952407335,32.764619500704015,4160376070
fw,-71.1580123901367,-86.1515731811523,119.27052105287972,18.495494036932318,4160392737
fw,-73.5963439941406,-86.1460342407226,113.97632421020438,0.5261132632139293,4160409404
fw,-75.6595001220703,-86.3563232421875,109.08276681462137,-20.656658456466786,4160426071
fw,-76.6878356933593,-86.6233901977539,106.03614225639937,-44.37672899543167,4160442738
fw,-77.7329025268554,-86.6389694213867,105.50068143276586,-69.84871394317602,4160459405
fw,-79.0266799926757,-86.0535507202148,107.06767463877469,-96.21047176731493,4160476072
fw,-80.6113815307617,-84.8685150146484,109.29942991365711,-122.50548447288065,4160492739
fw,-82.5435485839843,-83.1323623657226,110.15931218752702,-147.64075633499814,4160509406
fw,-84.620361328125,-80.66064453125,107.71050820628588,-170.3629287833529,4160526073
fw,-86.5555419921875,-77.6669311523437,100.83664666748518,-189.29388097744015,4160542740
fw,-87.0764465332031,-74.3575210571289,89.70727732345772,-203.04864931808012,4160559407
fw,-86.3079071044921,-70.9374237060546,75.79538432191771,-210.43206222527724,4160576074
fw,-85.5994110107421,-67.6112899780273,61.426634451987454,-210.68395634663653,4160592741
fw,-85.0769424438476,-63.9589920043945,49.0347174143593,-203.716726893417,4160609408
fw,-84.6162796020507,-60.5063171386718,40.420864158114064,-190.26387014604066,4160626075
fw,-84.1954574584961,-57.65034866333,36.299143313271166,-171.8494776773673,4160642742
fw,-83.7810134887695,-55.5510520935058,36.2625147908966,-150.5237053496333,4160659409
fw,-83.1692504882812,-54.0172309875488,39.11436290748529,-128.396555037873,4160676076
fw,-82.2514419555664,-52.7626228332519,43.37496362117094,-107.10528887849534,4160692743
fw,-81.3612365722656,-51.7654495239257,47.742763960018564,-87.4065803321215,4160709410
fw,-80.5186691284179,-50.6459350585937,51.357574133941775,-69.0533257078243,4160726077
fw,-79.73291015625,-49.5554504394531,53.828602912762356,-51.009885058472996,4160742744
fw,-79.0249938964843,-48.7644500732421,55.09371145828799,-31.93047261735337,4160759411
fw,-78.2502670288086,-48.4450645446777,55.22186642230615,-10.733063174272345,4160776078
fw,-77.3218917846679,-48.4973258972168,54.25075300997389,12.919980979099556,4160792745
fw,-76.4033508300781,-48.68306350708,52.095091657902465,38.37969048722268,4160809412
fw,-75.674331665039,-49.6363906860351,48.51145106449709,64.07473678694173,4160826079
fw,-75.1282348632812,-51.4139976501464,43.090707776768085,87.86433029046391,4160842746
fw,-74.679458618164,-53.5646286010742,35.26722461085675,107.57833155703523,4160859413
fw,-74.3372802734375,-55.642276763916,24.357568980339295,121.58150954031159,4160876080
fw,-74.1226654052734,-57.8503646850585,9.645834414116562,129.19056254668368,4160892747
fw,-74.1428451538086,-60.1569175720214,-9.485179291967013,130.827226916884,4160909414
fw,-74.7524261474609,-62.3571090698242,-33.39903029401304,127.87874624658463,4160926081
fw,-75.9882736206054,-64.18603515625,-62.05447798483801,122.31749146251313,4160942748
fw,-77.6014556884765,-65.8276596069336,-94.87393136192759,116.18539075382446,4160959415
fw,-79.7474060058593,-67.2140960693359,-130.6369376893418,111.0749894087472,4160976082
fw,-82.3204956054687,-68.4696655273437,-167.41373944878893,107.73795964819432,4160992749
fw,-85.0666809082031,-69.709716796875,-202.58157598176297,105.92507192387367,4161009416
fw,-87.0057907104492,-70.9232330322265,-232.99032428327482,104.51474284704841,4161026083
fw,-85.9272537231445,-72.5625381469726,-255.33870925092012,101.92281064986571,4161042750
fw,-82.4284057617187,-74.6445922851562,-266.7684668686286,96.70094528364675,4161059417
fw,-76.2903213500976,-76.9230117797851,-265.5766980582697,88.13739264145153,4161076084
fw,-70.8649978637695,-78.4179306030273,-251.8202753385302,76.62165391179363,4161092751
fw,-67.3782043457031,-79.0537338256836,-227.5296367510384,63.58961329052831,4161109418
fw,-64.3292617797851,-79.1259078979492,-196.35019628457212,51.04126922034532,4161126085
fw,-62.2737808227539,-79.3513107299804,-162.66724193110616,40.83672036990956,4161142752
fw,-61.049446105957,-80.0618820190429,-130.50279848398478,34.09070069107029,4161159419
fw,-59.69380569458,-80.9960556030273,-102.56251277523678,30.921280270132428,4161176086
fw,-58.2142639160156,-81.8578491210937,-79.7291222638899,30.612173342040442,4161192753
fw,-56.9141426086425,-82.661018371582,-61.11317415034452,32.05222267473145,4161209420
fw,-56.0586166381835,-83.5314331054687,-44.57865623609992,34.223724973035026,4161226087
fw,-55.5756187438964,-84.3859481811523,-27.539621746179506,36.537095974404714,4161242754
fw,-55.4629516601562,-85.1801681518554,-7.7976272654996865,38.90612894900136,4161259421
fw,-55.4669494628906,-85.8918685913086,15.773990577456201,41.57285338071989,4161276088
fw,-55.6463241577148,-86.5292053222656,42.84126799004881,44.784181946334385,4161292755
fw,-56.1314659118652,-87.003303527832,71.60753455062918,48.4660245294725,4161309422
fw,-58.2005615234375,-87.1651763916015,99.21951039548193,52.02487367124692,4161326089
fw,-61.3636169433593,-87.0076828002929,122.49458782550589,54.34811565742678,4161342756
fw,-63.9163093566894,-86.7383575439453,138.76318305563967,54.00212759368953,4161359423
fw,-66.2593765258789,-86.433609008789,146.56542982055294,49.56525445604905,4161376090
fw,-68.4945755004882,-86.0575714111328,146.00201547514612,39.992975826482564,4161392757
fw,-71.0891723632812,-85.7057723999023,138.67499766693072,24.902081914928555,4161409424
fw,-73.6305999755859,-85.5635910034179,127.27464101408214,4.6849956473567,4161426091
fw,-75.4344940185546,-85.8308792114257,114.92770635681947,-19.57823927005096,4161442758
fw,-76.8763656616211,-86.3749618530273,104.44905672301172,-46.37214377140784,4161459425
fw,-77.7189407348632,-86.7476730346679,97.66682257303998,-74.06765046914387,4161476092
fw,-78.8491744995117,-86.3196411132812,95.00683627841343,-101.20134234851935,4161492759
fw,-80.4088668823242,-85.0403442382812,95.4790497159949,-126.62668001245214,4161509426
fw,-82.3685836791992,-83.1658325195312,97.09013809327199,-149.5091350808713,4161526093
fw,-84.4024887084961,-80.7824325561523,97.554176136098,-169.20031255216412,4161542760
fw,-86.2775344848632,-78.0186386108398,95.06200833495608,-185.07200919000206,4161559427
fw,-87.6852264404296,-74.8414001464843,88.85368740785454,-196.4051952008974,4161576094
fw,-87.7105636596679,-71.4038772583007,79.4180434377132,-202.40722558031825,4161592761
fw,-86.9841613769531,-67.9985046386718,68.27895546791592,-202.3789174116267,4161609428
fw,-86.375503540039,-64.2510070800781,57.467772874483366,-195.98545704066146,4161626095
fw,-86.0368118286132,-61.0295867919921,48.879319392141085,-183.52385505808215,4161642762
fw,-85.701904296875,-58.3447799682617,43.732514994944694,-166.05442407114444,4161659429
fw,-85.3307495117187,-56.1903114318847,42.30043023837838,-145.2981536647639,4161676096
fw,-84.7062072753906,-54.4321975708007,43.96536493133584,-123.2901501673556,4161692763
fw,-83.6903686523437,-53.0988273620605,47.5368898623016,-101.8813130325865,4161709430
fw,-82.5369720458984,-52.3120079040527,51.68700327979835,-82.2497019374182,4161726097
fw,-81.4679107666015,-51.6220970153808,55.33451546240251,-64.59486689867603,4161742764
fw,-80.4866333007812,-50.9110946655273,57.85479269802234,-48.13949843122669,4161759431
fw,-79.6005172729492,-50.1511688232421,59.07611418635894,-31.46401052788129,4161776098
fw,-78.7954940795898,-49.6540412902832,59.107433391260784,-13.081256363997642,4161792765
fw,-77.9859619140625,-49.455711364746,58.09049527078974,7.932943741363549,4161809432
fw,-77.1367492675781,-49.3424339294433,55.974191737737875,31.464491991443726,4161826099
fw,-76.316909790039,-50.193920135498,52.38339056523401,56.20559842814584,4161842766
fw,-75.6498336791992,-51.9198608398437,46.61642617106311,79.8813406435217,4161859433
fw,-75.1187896728515,-53.952880859375,37.76818651728844,99.79372342061366,4161876100
fw,-74.5797958374023,-55.7771644592285,24.943802901145265,113.51633519982484,4161892767
fw,-74.1020278930664,-57.5551071166992,7.50144193901238,119.54064827945908,4161909434
fw,-74.1085815429687,-59.5073814392089,-14.75225351926194,117.71732162392112,4161926101
fw,-74.9395065307617,-61.5322647094726,-41.478658326159284,109.40639847057221,4161942768
fw,-76.3261337280273,-63.4563522338867,-71.85312227553906,97.30259347481037,4161959435
fw,-78.348892211914,-65.0088806152343,-104.69404008936894,84.93643221930527,4161976102
fw,-80.9324340820312,-65.626724243164,-138.58720345771155,75.9034943595216,4161992769
fw,-83.7093276977539,-66.4612045288086,-171.92847252493596,72.96002354859559,4162009436
fw,-86.3749084472656,-66.9730911254882,-202.87060346976713,77.21419133889404,4162026103
fw,-87.8503341674804,-67.7209930419921,-229.24655655467996,87.67967975066487,4162042770
fw,-85.8451766967773,-69.1129531860351,-248.60670793023314,101.39697985871936,4162059437
fw,-82.3593826293945,-71.1592712402343,-258.50289161610885,114.1670348864392,4162076104
fw,-77.7019500732421,-73.8099517822265,-257.05147250682455,121.73050759811453,4162092771
fw,-71.6732025146484,-76.8657836914062,-243.63501972449566,121.04536658126648,4162109438
fw,-67.3265762329101,-79.9044494628906,-219.44456739071083,111.24275296052136,4162126105
fw,-63.9657402038574,-81.9814910888671,-187.53805802929844,93.91609516654755,4162142772
fw,-61.6544914245605,-82.6887741088867,-152.25485047288868,72.61390125704517,4162159439
fw,-60.9333534240722,-82.5429916381836,-118.11345245040846,51.703252814219816,4162176106
fw,-60.7242202758789,-82.2710723876953,-88.5724874350994,35.03079184711027,4162192773
fw,-60.2311820983886,-82.4852142333984,-65.11922135403424,24.890937230141887,4162209440
fw,-59.1927642822265,-83.1498870849609,-47.02723028236708,21.652242592711957,4162226107
fw,-58.0687942504882,-83.9711380004882,-31.85599757571687,24.074273796164597,4162242774
fw,-57.1915206909179,-84.8688201904296,-16.47926952222278,30.050963878423335,4162259441
fw,-56.7963027954101,-85.8799743652343,1.7441823744484808,37.39347196672353,4162276108
fw,-56.9857788085937,-86.8494873046875,24.048329360792785,44.34656166752181,4162292775
fw,-57.3166885375976,-87.7053527832031,49.84906301237492,49.73501872259619,4162309442
fw,-58.5428352355957,-88.3431854248046,76.92431587196079,52.83479849023616,4162326109
fw,-61.2572364807128,-88.7226791381836,102.08671814870767,53.16124959891873,4162342776
fw,-63.9653434753418,-88.3871154785156,122.11190648882011,50.33965940190018,4162359443
fw,-66.5215454101562,-87.4734649658203,134.62116353974986,44.116752377399145,4162376110
fw,-68.4030303955078,-86.6294250488281,138.66063650546843,34.46188886285965,4162392777
fw,-70.561653137207,-86.1242446899414,134.85693099875107,21.653864685902672,4162409444
fw,-72.7471237182617,-86.0166091918945,125.18177737760726,6.269224997200077,4162426111
fw,-74.8977508544921,-86.2723770141601,112.44666363124249,-10.945907034130077,4162442778
fw,-76.537971496582,-86.8106460571289,99.66076444188718,-29.270321119104604,4162459445
fw,-78.0653457641601,-87.316421508789,89.3711908276219,-48.182058911555885,4162476112
fw,-78.7892761230468,-87.4083709716796,83.10604151820193,-67.43387806156998,4162492779
fw,-79.5058517456054,-86.8797760009765,81.05186767841622,-86.9951160636922,4162509446
fw,-80.7271499633789,-85.7628021240234,82.07768090410471,-106.88294425668464,4162526113
fw,-82.4270324707031,-83.9996871948242,84.13603355781035,-126.94934486535062,4162542780
fw,-84.2206344604492,-81.6727218627929,84.94216747694269,-146.70099985891076,4162559447
fw,-85.9350051879882,-78.9218597412109,82.71657621546244,-165.21095111399566,4162576114
fw,-87.3806533813476,-75.9737854003906,76.74061000050902,-181.15234888781512,4162592781
fw,-87.772964477539,-72.7039947509765,67.54066075762286,-192.96132894658152,4162609448
fw,-87.4512481689453,-69.3511428833007,56.65507427316086,-199.11616822944953,4162626115
fw,-86.9808578491211,-65.5894927978515,46.09289859258458,-198.48987464121416,4162642782
fw,-86.6744003295898,-61.9535179138183,37.70073282854145,-190.68969045678082,4162659449
fw,-86.3577194213867,-59.103416442871,32.66548722259689,-176.2629764643739,4162676116
fw,-86.0284271240234,-56.8509483337402,31.29745099866542,-156.66352704796424,4162692783
fw,-85.6634292602539,-54.961326599121,33.11101277816133,-133.95031460232383,4162709450
fw,-85.0386428833007,-53.4725952148437,37.112626405795076,-110.29727385777757,4162726117
fw,-84.2771072387695,-52.5870628356933,42.15484000204985,-87.47062805837378,4162742784
fw,-83.4809417724609,-51.8427200317382,47.22732951113066,-66.44555258193597,4162759451
fw,-82.622802734375,-51.0548248291015,51.61286593483868,-47.28659812306646,4162776118
fw,-81.7925491333007,-50.4137229919433,54.904557527803426,-29.324374950226108,4162792785
fw,-81.0003585815429,-50.0504417419433,56.92754816423404,-11.556365084700404,4162809452
fw,-80.179817199707,-49.9425239562988,57.62027900235728,6.87616170937167,4162826119
fw,-79.308479309082,-50.0025062561035,56.917337552713626,26.301977596750636,4162842786
fw,-78.455696105957,-50.3830299377441,54.65647532796411,46.35379823526327,4162859453
fw,-77.662109375,-51.6547546386718,50.519360507146004,66.07441728650579,4162876120
fw,-76.9688949584961,-53.6603317260742,44.011722178779465,84.24794655144969,4162892787
fw,-76.4191589355468,-55.6814422607421,34.48892619788824,99.81554172663678,4162909454
fw,-76.0740127563476,-57.569164276123,21.231081821868234,112.19383956442712,4162926121
fw,-76.0139694213867,-59.3963775634765,3.564942762692156,121.36064118486243,4162942788
fw,-76.3188018798828,-61.2361106872558,-18.978969848362453,127.68768412472495,4162959455
fw,-77.1386795043945,-62.993106842041,-46.491940540510235,131.61916571539876,4162976122
fw,-78.5471954345703,-64.3567733764648,-78.51600421172071,133.3575246928315,4162992789
fw,-80.346939086914,-66.3352966308593,-113.9005447279918,132.70650608048763,4163009456
fw,-82.51416015625,-68.0328063964843,-150.72186524754227,129.14974944854444,4163026123
fw,-85.0551376342773,-69.767951965332,-186.31889763777363,122.14068233880016,4163042790
fw,-87.2894973754882,-71.6698532104492,-217.50784059382693,111.48618607838975,4163059457
fw,-86.6305923461914,-73.620376586914,-241.01641053639673,97.65999374491918,4163076124
fw,-82.8493347167968,-75.2089462280273,-254.10853300351692,81.8999181081875,4163092791
fw,-76.4798278808593,-76.092529296875,-255.2604251190304,66.02039766030732,4163109458
fw,-71.9126739501953,-76.38232421875,-244.64854866153723,51.98416817166397,4163126125
fw,-68.7915115356445,-76.4864120483398,-224.20713025353638,41.38177917140403,4163142792
fw,-66.0635757446289,-76.9429473876953,-197.16330207117792,35.01529510378144,4163159459
fw,-63.8975410461425,-77.8565673828125,-167.1933114893825,32.742433869233125,4163176126
fw,-61.9151992797851,-79.1234436035156,-137.50671665011822,33.62374606448703,4163192793
fw,-59.954002380371,-80.195083618164,-110.1612788437983,36.28688120247661,4163209460
fw,-58.4602470397949,-81.0755386352539,-85.77906890522758,39.348158542560874,4163226127
fw,-57.5252418518066,-81.8998641967773,-63.67867882013643,41.744498006619445,4163242794
fw,-57.0225868225097,-82.6375579833984,-42.3329624193613,42.901596813696464,4163259461
fw,-56.6794242858886,-83.3389129638671,-20.016369397414294,42.741823157954464,4163276128
fw,-56.4314155578613,-84.0619506835937,4.510109314100444,41.57995512774586,4163292795
fw,-56.3821792602539,-84.7211074829101,31.440623990470478,39.96157971048136,4163309462
fw,-56.8305511474609,-85.1626892089843,59.65576119610094,38.48260392615943,4163326129
fw,-58.0104904174804,-85.3787765502929,86.8586986200198,37.61026827805084,4163342796
fw,-60.7274780273437,-85.4630126953125,110.1196066049601,37.52258795959388,4163359463
fw,-63.4053497314453,-85.5686721801757,126.6838461534766,37.99373171261836,4163376130
fw,-65.9768753051757,-85.78564453125,134.78659600924934,38.360906933620306,4163392797
fw,-68.3961639404296,-86.0508728027343,134.20667619309737,37.597806255996254,4163409464
fw,-70.3673553466796,-86.2243194580078,126.39301723325332,34.48999234849755,4163426131
fw,-72.1664428710937,-86.2349090576171,114.14726834209381,27.873292452939733,4163442798
fw,-74.0757141113281,-86.1390838623046,100.96965586668306,16.87517666944202,4163459465
fw,-75.7088394165039,-86.0296554565429,90.23694136990663,1.1003087207177844,4163476132
fw,-76.8543243408203,-86.0346450805664,84.39481773897828,-19.27852145271357,4163492799
fw,-77.4900207519531,-86.1147155761718,84.3441812290703,-43.53452603115885,4163509466
fw,-78.3291625976562,-85.9982147216796,89.18926362656737,-70.48896674192194,4163526133
fw,-79.7530441284179,-85.3281478881836,96.46553008158097,-98.66283005971124,4163542800
fw,-81.7307510375976,-83.9053573608398,102.84617362926457,-126.43110342216221,4163559467
fw,-84.0715942382812,-81.7823333740234,105.15823227160926,-152.1424529231612,4163576134
fw,-86.4935684204101,-79.1038436889648,101.39645537605965,-174.19501127494414,4163592801
fw,-88.0027694702148,-76.0362243652343,91.38343673164132,-191.09307922349544,4163609468
fw,-87.5451278686523,-72.6265869140625,76.82389089442475,-201.5307216252827,4163626135
fw,-87.2483596801757,-69.3892974853515,60.71698247473762,-204.54077787432928,4163642802
fw,-87.0511779785156,-66.0182495117187,46.3452005847768,-199.70834473079222,4163659469
fw,-86.8864974975586,-62.2725028991699,36.23467381185663,-187.38822147431247,4163676136
fw,-86.5701217651367,-59.1923751831054,31.48173987908829,-168.81457992550762,4163692803
fw,-86.1101760864257,-57.2664909362793,31.658608116256755,-145.98986403951915,4163709470
fw,-85.2618637084961,-55.6897468566894,35.248480127335654,-121.31523162635831,4163726137
fw,-84.2273178100586,-54.4045066833496,40.35506176773649,-97.04797730483403,4163742804
fw,-83.3314132690429,-53.695743560791,45.37045809403282,-74.76732679034303,4163759471
fw,-82.5060119628906,-53.0617523193359,49.37008812515897,-55.04222407248723,4163776138
fw,-81.6446685791015,-52.354076385498,52.16453571568508,-37.423833668196785,4163792805
fw,-80.8438415527343,-51.6994094848632,54.083960002413264,-20.767971707578628,4163809472
fw,-80.0830154418945,-51.2990036010742,55.639739974154026,-3.7738147862265725,4163826139
fw,-79.2990646362304,-51.1623764038085,57.19845821942,14.450810996481644,4163842806
fw,-78.4836120605468,-51.3458023071289,58.75385541176846,33.993644731082156,4163859473
fw,-77.633560180664,-51.5734481811523,59.83204206872196,54.04848409396687,4163876140
fw,-76.726333618164,-53.0708084106445,59.530063131174884,73.16545801889652,4163892807
fw,-75.7050628662109,-55.7045249938964,56.66419424471884,89.74982585050904,4163909474
fw,-74.6868591308593,-57.8190002441406,49.98444020269246,102.60772423109606,4163926141
fw,-73.8867874145507,-59.5186920166015,38.39724898295422,111.30371803443354,4163942808
fw,-73.5813903808593,-61.4043579101562,21.141240868593826,116.18276976588267,4163959475
fw,-73.8599700927734,-62.7107353210449,-2.110683333930975,118.07982532227736,4163976142
fw,-74.6891098022461,-64.1325302124023,-31.205441588034926,117.88826832815289,4163992809
fw,-75.8115463256836,-65.7610168457031,-65.47225348319085,116.20166136709295,4164009476
fw,-77.2721710205078,-67.3725891113281,-103.65605452156177,113.17620387130023,4164026143
fw,-79.2469177246093,-68.9816513061523,-143.83485987908475,108.6382044308896,4164042810
fw,-81.9740524291992,-70.6857681274414,-183.39113523244194,102.3505784685559,4164059477
fw,-84.9080734252929,-72.2997512817382,-219.13041796848782,94.30034749716513,4164076144
fw,-86.8637542724609,-73.7766952514648,-247.6147988065871,84.88087960142323,4164092811
fw,-85.4653396606445,-75.0680999755859,-265.7158132897423,74.89649503625317,4164109478
fw,-80.3695220947265,-75.7836837768554,-271.3016083566324,65.38697203666635,4164126145
fw,-73.8796920776367,-76.1278228759765,-263.8666694810036,57.33653679446966,4164142812
fw,-69.9616165161132,-76.6448745727539,-244.84033686928493,51.379783795667656,4164159479
fw,-67.1131820678711,-77.4944305419921,-217.36464738483315,47.62432203907374,4164176146
fw,-64.4510879516601,-78.6667785644531,-185.53924487566923,45.662722105498915,4164192813
fw,-62.2323188781738,-79.9315567016601,-153.37389278749205,44.762236202018066,4164209480
fw,-60.483341217041,-81.096450805664,-123.80592461912765,44.14619806342671,4164226147
fw,-59.1910743713378,-82.0076751708984,-98.08558601600583,43.25463721378645,4164242814
fw,-58.1014060974121,-82.6521453857421,-75.68408159782702,41.89733794659818,4164259481
fw,-57.2631301879882,-83.2407989501953,-54.722832404828544,40.266970676713235,4164276148
fw,-56.5400161743164,-83.8712005615234,-32.79190136667138,38.83326566068545,4164292815
fw,-55.9391403198242,-84.5534286499023,-7.928205214323885,38.16835772300759,4164309482
fw,-55.5921096801757,-85.1354293823242,20.52833936724828,38.75145004486331,4164326149
fw,-55.7234916687011,-85.5628890991211,51.471339501048476,40.78296944658935,4164342816
fw,-56.5368194580078,-85.8768768310546,82.13706992861633,44.02967346228493,4164359483
fw,-59.2320823669433,-86.0959548950195,108.798282044802,47.73284697233788,4164376150
fw,-62.7069625854492,-86.258071899414,127.847826716552,50.62596783804677,4164392817
fw,-65.4284896850586,-86.3374557495117,136.91448888617535,51.099924276856086,4164409484
fw,-67.6502685546875,-86.2087326049804,135.629167014794,47.51114201068446,4164426151
fw,-69.5093994140625,-85.8363265991211,125.8006635338613,38.56519347747697,4164442818
fw,-71.4030838012695,-85.4497299194336,110.98448315292968,23.659497307339755,4164459485
fw,-73.1298904418945,-85.3616027832031,95.61063639098705,3.066271215036149,4164476152
fw,-74.3099899291992,-85.6373138427734,83.91759244001483,-22.110214245318943,4164492819
fw,-75.1259231567382,-86.1276321411132,78.94513913614944,-50.18323942071408,4164509486
fw,-75.8810348510742,-86.4215545654296,81.81320164389615,-79.24573802972724,4164526153
fw,-77.2046661376953,-85.9127578735351,91.46245536337214,-107.51738798993755,4164542820
fw,-79.0744552612304,-84.5053482055664,104.93647719786853,-133.56784690793768,4164559487
fw,-81.2733001708984,-82.4775466918945,118.14828448818253,-156.36566607574838,4164576154
fw,-83.3927688598632,-79.910400390625,126.94107152352963,-175.17563712305846,4164592821
fw,-85.5300750732421,-76.9075317382812,128.17482065736874,-189.3861876655566,4164609488
fw,-87.5056610107421,-73.550308227539,120.56311458517536,-198.37053457815787,4164626155
fw,-86.6726913452148,-70.186050415039,105.03219723872395,-201.4655402947371,4164642822
fw,-85.5114517211914,-67.0578460693359,84.47194803292834,-198.1019986778267,4164659489
fw,-85.7731170654296,-63.7233009338378,62.91304394633329,-188.05540150370402,4164676156
fw,-86.5115356445312,-60.4073219299316,44.377557059578045,-171.72131911337482,4164692823
fw,-86.7124710083007,-57.6221275329589,31.80701239105933,-150.27603791175187,4164709490
fw,-86.0504760742187,-55.5679817199707,26.44689735821963,-125.59489442376028,4164726157
fw,-85.001350402832,-54.3477821350097,27.846509149525254,-99.88839288644058,4164742824
fw,-83.7825927734375,-53.9109268188476,34.3517674682688,-75.15239180071502,4164759491
fw,-82.6918029785156,-53.7146987915039,43.794065446112384,-52.64226544473749,4164776158
fw,-81.9474868774414,-53.3667373657226,54.082505304437724,-32.60136371431108,4164792825
fw,-81.1056137084961,-52.6673965454101,63.54153859848453,-14.376199562472083,4164809492
fw,-79.9301681518554,-51.8020553588867,70.99580375824569,3.1252542309716467,4164826159
fw,-78.607551574707,-51.5938339233398,75.70173258414029,20.83895398621981,4164842826
fw,-77.3165435791015,-51.9318885803222,77.23506724225822,39.07975884999342,4164859493
fw,-76.0561981201171,-52.722068786621,75.39672008618223,57.39613021218329,4164876160
fw,-74.8262176513671,-54.4091339111328,70.146661519644,74.77303425780677,4164892827
fw,-73.7277755737304,-56.570327758789,61.54688647034656,90.05268835055942,4164909494
fw,-72.9575653076171,-58.279800415039,49.69445403743775,102.36048335905602,4164926161
fw,-72.5481567382812,-59.7753639221191,34.64649808723058,111.3487151761385,4164942828
fw,-72.508071899414,-61.675926208496,16.36736249509478,117.18254008082766,4164959495
fw,-72.7990341186523,-63.2535095214843,-5.256022117032259,120.3237454137607,4164976162
fw,-73.2794494628906,-64.9606399536132,-30.298344097569256,121.247958388195,4164992829
fw,-73.9225997924804,-66.841079711914,-58.592946286575,120.23375022543199,4165009496
fw,-75.0088958740234,-68.3973693847656,-89.51107701974111,117.30735681090854,4165026163
fw,-76.7583465576171,-69.9328155517578,-121.82505272942993,112.34993631547516,4165042830
fw,-79.4081115722656,-71.5701065063476,-153.7384785534751,105.30689790614849,4165059497
fw,-82.6371002197265,-73.3193893432617,-183.10053984693323,96.40067865687769,4165076164
fw,-85.8923034667968,-74.8155288696289,-207.7455976276941,86.24687414953131,4165092831
fw,-88.2523574829101,-76.0489730834961,-225.8599289122876,75.808693189054,4165109498
fw,-85.9081573486328,-76.7830352783203,-236.28842035029396,66.18785003247466,4165126165
fw,-81.5006332397461,-77.0848541259765,-238.72526829244725,58.32041146260143,4165142832
fw,-76.8769836425781,-77.4727325439453,-233.74795328363007,52.69521464406831,4165159499
fw,-73.4939575195312,-78.1507339477539,-222.65901592170192,49.2146516240602,4165176166
fw,-70.4106140136718,-79.2052841186523,-207.13588983545637,47.263057308045596,4165192833
fw,-67.2807540893554,-80.3638153076171,-188.76570084087172,45.95693653840009,4165209500
fw,-64.6785583496093,-81.4735717773437,-168.61034469954768,44.47211632628226,4165226167
fw,-62.5074996948242,-82.5431518554687,-146.95370466198762,42.31961585842509,4165242834
fw,-60.7448959350585,-83.3435134887695,-123.32769124350713,39.47984759300803,4165259501
fw,-59.1997108459472,-83.9596710205078,-96.83168057793159,36.37205273898955,4165276168
fw,-57.9724960327148,-84.4943389892578,-66.67396111815867,33.69454019853737,4165292835
fw,-56.9834556579589,-84.9976272583007,-32.78362480636464,32.19916075413894,4165309502
fw,-56.2488632202148,-85.3972549438476,3.7140709593736267,32.458191653156,4165326169
fw,-56.2001724243164,-85.6539993286132,40.36553502229393,34.65895103064509,4165342836
fw,-57.399673461914,-85.8302154541015,73.72432272703362,38.445845868061994,4165359503
fw,-60.5239105224609,-85.947639465332,100.11704598912584,42.83588050667031,4165376170
fw,-63.0154762268066,-85.9944458007812,116.61648996893854,46.25130762257001,4165392837
fw,-65.1961135864257,-85.9162521362304,121.88843991963641,46.71364704586487,4165409504
fw,-67.0916519165039,-85.6477355957031,116.61930411465602,42.20562494921611,4165426171
fw,-69.1634216308593,-85.1813125610351,103.39776522652517,31.138500238599594,4165442838
fw,-70.5654754638671,-84.6904907226562,86.11232123666294,12.796133719892842,4165459505
fw,-70.9954147338867,-84.5883255004882,69.0580963762669,-12.39432445130255,4165476172
fw,-71.2949447631836,-84.9604415893554,56.008413388980685,-42.87001546288738,4165492839
fw,-71.6688003540039,-85.4443969726562,49.504803927859385,-76.22520050520698,4165509506
fw,-72.7912368774414,-85.2356491088867,50.54142780371248,-109.69057140120806,4165526173
fw,-74.2864074707031,-83.8884353637695,58.67200848782325,-140.63722600955765,4165542840
fw,-76.1736068725586,-81.7770538330078,72.40794168364141,-166.95159428173093,4165559507
fw,-78.0129699707031,-79.1891632080078,89.6886837384829,-187.19967950794327,4165576174
fw,-79.5143737792968,-76.1919937133789,108.23679900753773,-200.5969247231261,4165592841
fw,-80.8897094726562,-72.7330932617187,125.73601963334201,-206.874116847473,4165609508
fw,-82.4636001586914,-69.0892333984375,139.91133013114168,-206.14570946398706,4165626175
fw,-83.9812622070312,-65.6888122558593,148.65946335071715,-198.84562697099616,4165642842
fw,-85.1059951782226,-62.4694557189941,150.33712609934307,-185.72955454876524,4165659509
fw,-85.1453857421875,-59.8824348449707,144.18993161027464,-167.89191330271655,4165676176
fw,-83.5471572875976,-57.6411743164062,130.76685044678646,-146.73346389190078,4165692843
fw,-81.4547729492187,-55.6560668945312,112.08785108221961,-123.83998568742,4165709510
fw,-80.1071548461914,-54.0123291015625,91.37189872284738,-100.7740257593564,4165726177
fw,-79.7894897460937,-52.8873023986816,72.29882160271856,-78.81933893209313,4165742844
fw,-79.9045639038086,-52.1643486022949,58.007705135763636,-58.7425558245032,4165759511
fw,-79.7807693481445,-51.8171768188476,50.200784408754345,-40.64814716535074,4165776178
fw,-79.1794967651367,-51.7090988159179,48.71449352729565,-23.99568922068718,4165792845
fw,-77.9965133666992,-51.712833404541,51.72709455084446,-7.813574530795859,4165809512
fw,-76.306037902832,-51.6700592041015,56.49641054930107,8.919845209834037,4165826179
fw,-74.4875335693359,-51.5098342895507,60.30582381104008,26.832000092798157,4165842846
fw,-73.1442184448242,-51.455093383789,61.24111811503127,45.80917808859249,4165859513
fw,-72.3856506347656,-52.2082595825195,58.53500817879116,64.90617073038574,4165876180
fw,-72.0903701782226,-54.0689392089843,52.429230668712066,82.58796292153113,4165892847
fw,-71.7770156860351,-56.5012702941894,43.70530758346512,97.230990526656,4165909514
fw,-71.2698898315429,-58.7287826538085,33.132835442146444,107.67398263855594,4165926181
fw,-70.8541183471679,-60.8965530395507,21.05469488320935,113.57197599954381,4165942848
fw,-70.8064498901367,-62.7199325561523,7.22162915020926,115.40456443156182,4165959515
fw,-71.153205871582,-63.7980461120605,-9.119071438856011,114.16425737610348,4165976182
fw,-71.7110137939453,-65.211685180664,-28.940057580173114,110.90189118053628,4165992849
fw,-72.3182830810546,-66.739761352539,-53.04192162439752,106.35618447260681,4166009516
fw,-73.2594451904296,-68.3541641235351,-81.65505031977561,100.82722594135396,4166026183
fw,-74.7946395874023,-70.2608795166015,-114.14724760004913,94.31386638980132,4166042850
fw,-77.2654418945312,-71.7987518310546,-148.93177963455102,86.80125819781533,4166059517
fw,-80.6939697265625,-72.7116241455078,-183.61243614892427,78.52469776741405,4166076184
fw,-84.4342269897461,-73.6837463378906,-215.3235980800984,70.07121146041935,4166092851
fw,-88.0395584106445,-74.7198944091796,-241.169817467587,62.27868686487882,4166109518
fw,-87.575942993164,-75.6488571166992,-258.67120741364766,55.99062372440865,4166126185
fw,-83.4845809936523,-76.1555709838867,-266.1588791126165,51.77525874414892,4166142852
fw,-78.385009765625,-76.6228942871093,-263.0851063078167,49.71768030659116,4166159519
fw,-73.2195205688476,-77.4712448120117,-250.18689981422338,49.36358725908369,4166176186
fw,-69.5126876831054,-78.6844863891601,-229.4078354654058,49.844805686148305,4166192853
fw,-66.474739074707,-80.1076583862304,-203.5139203775228,50.15227450447791,4166209520
fw,-63.8546066284179,-81.4994125366211,-175.4544151644012,49.46003165155961,4166226187
fw,-61.7782287597656,-82.5830459594726,-147.64825971968713,47.37776286816401,4166242854
fw,-60.207763671875,-83.3807678222656,-121.431193663291,44.0411139023305,4166259521
fw,-58.8854179382324,-84.0690231323242,-96.85082663645944,40.02384444401943,4166276188
fw,-57.6762351989746,-84.6255645751953,-72.88158901231515,36.1301467690252,4166292855
fw,-56.5928764343261,-85.1133270263671,-47.995344202597515,33.15713608635491,4166309522
fw,-55.6694030761718,-85.5843887329101,-20.904458961483837,31.697955672200386,4166326189
fw,-55.0913505554199,-86.0519180297851,8.771866707064055,32.01216337505253,4166342856
fw,-55.5281257629394,-86.547248840332,40.15025752929342,33.95756779333184,4166359523
fw,-57.1439399719238,-86.991958618164,71.16087028554048,36.97244948542446,4166376190
fw,-59.5949096679687,-87.2738723754882,99.02490810617242,40.10999647998595,4166392857
fw,-61.7849426269531,-87.3461303710937,120.95285672234152,42.137431735639225,4166409524
fw,-63.884536743164,-87.2111206054687,134.83105434850364,41.70629151087501,4166426191
fw,-66.0610885620117,-86.8883819580078,139.71767586479328,37.57739922595452,4166442858
fw,-68.4478912353515,-86.5157012939453,136.07237038655276,28.856263608873643,4166459525
fw,-70.680679321289,-86.2783203125,125.72061789535437,15.17846735643,4166476192
fw,-72.9617843627929,-86.2761154174804,111.57720044864847,-3.208491409296255,4166492859
fw,-74.9709701538086,-86.5332717895507,97.15318609234363,-25.491424066374595,4166509526
fw,-76.1879196166992,-86.8801498413086,85.8914591688859,-50.45152322051792,4166526193
fw,-76.7890243530273,-86.9701080322265,80.43344392577433,-76.69100222293791,4166542860
fw,-77.6455535888671,-86.1952285766601,81.98742027512687,-102.86150181806966,4166559527
fw,-78.9568939208984,-84.5088119506836,89.990638850019,-127.82990265081246,4166576194
fw,-80.6914978027343,-82.2205505371093,102.19410215760311,-150.73486408115284,4166592861
fw,-82.7362899780273,-79.531494140625,115.17086271917482,-170.92156594382908,4166609528
fw,-84.7400665283203,-76.619026184082,125.12241846823336,-187.78807893390385,4166626195
fw,-86.2795333862304,-73.3058090209961,128.78708315067212,-200.62012200552914,4166642862
fw,-86.7044372558593,-69.8917846679687,124.24363093121548,-208.50989758704304,4166659529
fw,-85.0752639770507,-66.4130096435546,111.4257737339558,-210.43213356831902,4166676196
fw,-83.1559906005859,-62.7093200683593,92.20335778690837,-205.48703348589902,4166692863
fw,-82.2820281982421,-59.5136451721191,69.96416784441418,-193.23885094896625,4166709530
fw,-81.9814910888671,-56.5936317443847,48.76685417911824,-174.0186578399475,4166726197
fw,-82.156982421875,-53.9610328674316,32.29637538541252,-149.05320158751692,4166742864
fw,-82.4388580322265,-51.96333694458,22.949512208839987,-120.33435422901265,4166759531
fw,-82.473403930664,-50.9515571594238,21.339952732122672,-90.23523160688686,4166776198
fw,-81.9941101074218,-50.639404296875,26.35136868604966,-60.97935076167086,4166792865
fw,-80.9142532348632,-50.6402854919433,35.66104796660666,-34.14281368582937,4166809532
fw,-79.5132827758789,-50.6998329162597,46.497400418997756,-10.377153110156291,4166826199
fw,-78.3771591186523,-50.5914115905761,56.344424200484205,10.538100354235297,4166842866
fw,-77.5723342895507,-50.5182609558105,63.377256355447116,29.34289553139426,4166859533
fw,-76.8315734863281,-50.6209564208984,66.56184277217355,46.806844731634605,4166876200
fw,-76.0009384155273,-51.1507492065429,65.49817973911942,63.32312502643821,4166892867
fw,-75.0622100830078,-52.6995773315429,60.159182773240644,78.75778663207157,4166909534
fw,-74.1346969604492,-55.1224288940429,50.65858206480603,92.58985806482839,4166926201
fw,-73.4796600341796,-57.3131637573242,37.11135204551608,104.22539057182178,4166942868
fw,-73.2314071655273,-59.0879669189453,19.587189336423744,113.29011896936082,4166959535
fw,-73.4725189208984,-60.7797508239746,-1.8658266996591522,119.74817521614291,4166976202
fw,-74.1200637817382,-62.8132286071777,-27.141234262893352,123.81904234703599,4166992869
fw,-75.0626754760742,-64.2643508911132,-55.941063205564255,125.7788014285909,4167009536
fw,-76.1805191040039,-66.2878799438476,-87.60570695669739,125.77131474383205,4167026203
fw,-77.8788375854492,-68.0536651611328,-120.9571245025423,123.72383308273093,4167042870
fw,-80.3690795898437,-69.5394134521484,-154.23207919197264,119.39895542108192,4167059537
fw,-83.5874252319336,-71.0903244018554,-185.17036812665557,112.55732678907194,4167076204
fw,-86.6991577148437,-72.7814025878906,-211.27319092377172,103.17049382385939,4167092871
fw,-88.4347686767578,-74.7126846313476,-230.19114275370282,91.60760910769125,4167109538
fw,-85.2761993408203,-76.3616180419921,-240.1667656741824,78.71528061460756,4167126205
fw,-80.1889114379882,-77.1178817749023,-240.4356150323102,65.72759214926097,4167142872
fw,-75.6764907836914,-77.4674911499023,-231.46833454465568,54.002891409446875,4167159539
fw,-72.8289794921875,-77.9280319213867,-214.94095331372327,44.67256666839341,4167176206
fw,-70.1210021972656,-78.5010604858398,-193.3948722513676,38.347750332103445,4167192873
fw,-67.2759628295898,-79.4109497070312,-169.6714372916145,35.01061941557356,4167209540
fw,-64.6135482788086,-80.5190048217773,-146.29046453982278,34.12433405620623,4167226207
fw,-62.5642738342285,-81.3527755737304,-124.93381592300099,34.89028590978686,4167242874
fw,-61.1570243835449,-82.0351333618164,-106.13433735876573,36.526871609582244,4167259541
fw,-60.1740226745605,-82.672492980957,-89.22381911241139,38.46217807910347,4167276208
fw,-59.2662162780761,-83.24951171875,-72.57009886012601,40.39641898050095,4167292875
fw,-58.28857421875,-83.8554763793945,-54.0936021788696,42.25213557384551,4167309542
fw,-57.3416519165039,-84.5818099975586,-31.974510179698648,44.06153723367896,4167326209
fw,-56.6456069946289,-85.3401107788086,-5.369886517413104,45.83947689051332,4167342876
fw,-56.5285758972168,-85.9752807617187,25.08928518245874,47.47306570465651,4167359543
fw,-57.0541114807128,-86.4250030517578,57.215684814240085,48.64378482165548,4167376210
fw,-59.1840934753418,-86.7216491699218,87.66970785534696,48.79601205542411,4167392877
fw,-61.5821113586425,-86.9583663940429,112.75391374338514,47.172002661562495,4167409544
fw,-64.1043472290039,-87.1390533447265,129.36066854461745,42.930073286624996,4167426211
fw,-66.465217590332,-87.0971450805664,135.7886714542801,35.336477566985415,4167442878
fw,-68.7179412841796,-86.8319473266601,132.20712056832502,23.978642041617725,4167459545
fw,-70.9049911499023,-86.57275390625,120.67162567654755,8.915116018311888,4167476212
fw,-72.5786972045898,-86.5968246459961,104.71526601685491,-9.314787913254456,4167492879
fw,-74.4181137084961,-86.9675903320312,88.61508766157166,-29.843270775793503,4167509546
fw,-75.8686599731445,-87.1773529052734,76.4743177465368,-51.7307493925367,4167526213
fw,-76.7399368286132,-86.7632980346679,71.28768016276608,-74.21114358117899,4167542880
fw,-76.8778228759765,-85.8218231201171,74.18667098955868,-96.80939679762989,4167559547
fw,-77.5864486694336,-84.3888778686523,84.07696297467803,-119.2752156223617,4167576214
fw,-79.1658172607421,-82.5450210571289,97.83322290638367,-141.36389580150987,4167592881
fw,-81.325454711914,-80.1778945922851,111.07479453902324,-162.5633223380481,4167609548
fw,-83.9780654907226,-77.4034881591796,119.3467558154486,-181.8901448171494,4167626215
fw,-86.1690673828125,-73.9873275756836,119.3716916212212,-197.85755059286845,4167642882
fw,-87.3652267456054,-70.2464141845703,109.99793251586472,-208.66318029552636,4167659549
fw,-86.3901214599609,-66.5654144287109,92.55805398288025,-212.57169311423127,4167676216
fw,-85.2599258422851,-62.7342414855957,70.52191306415135,-208.39017725254934,4167692883
fw,-84.8886413574218,-59.1471366882324,48.53295215187629,-195.8815623173974,4167709550
fw,-84.935073852539,-56.4118614196777,31.11330307805334,-175.95912369264857,4167726217
fw,-85.1162567138671,-54.3765792846679,21.449161997235432,-150.56863635431372,4167742884
fw,-85.2225036621093,-52.4868583679199,20.64847074477386,-122.27519217076093,4167759551
fw,-84.9299774169921,-51.3210945129394,27.680536314459392,-93.67806520946785,4167776218
fw,-83.9276275634765,-50.6749763488769,39.9398971588148,-66.83223991872175,4167792885
fw,-82.5305557250976,-50.3496360778808,54.153173653947896,-42.84870791867982,4167809552
fw,-81.3403015136718,-50.1444854736328,67.26754275297988,-21.79127695254027,4167826219
fw,-80.3163146972656,-49.8170928955078,77.04192954736915,-2.8987179049063165,4167842886
fw,-79.2795104980468,-49.689338684082,82.241924510565,14.945428159497723,4167859553
fw,-78.1564712524414,-49.8364524841308,82.51117838119463,32.662809929531704,4167876220
fw,-76.9386596679687,-50.1621398925781,78.07703867497025,50.55032155843612,4167892887
fw,-75.7996978759765,-51.0536575317382,69.43739427307676,68.12720426745982,4167909554
fw,-74.8626174926757,-52.9269866943359,57.115038552421694,84.30903210807293,4167926221
fw,-74.2307662963867,-55.0788421630859,41.508136469993865,97.82670341864967,4167942888
fw,-73.9654312133789,-56.8821372985839,22.835399615062332,107.70943046651855,4167959555
fw,-74.0325927734375,-58.4846496582031,1.167218077277767,113.63688733738452,4167976222
fw,-74.4051055908203,-60.136661529541,-23.46834200959011,116.04307841702148,4167992889
fw,-75.1510848999023,-62.0180892944335,-50.92570736694142,115.96738874385436,4168009556
fw,-76.2811050415039,-63.7965011596679,-80.76613790900284,114.72805242562396,4168026223
fw,-78.0304718017578,-65.6784133911132,-112.11686206963113,113.51875959248723,4168042890
fw,-80.3958740234375,-66.8682022094726,-143.61165357687818,113.02765399856055,4168059557
fw,-83.2874984741211,-68.0540695190429,-173.43723599838887,113.17864859449675,4168076224
fw,-85.9710540771484,-69.3563995361328,-199.48311465044245,113.09422292442156,4168092891
fw,-87.384765625,-71.0141296386718,-219.58074187787446,111.34612888469223,4168109558
fw,-85.9537887573242,-73.1987152099609,-231.8232459165877,106.47186697462077,4168126225
fw,-82.1837539672851,-75.7333831787109,-234.9493573513195,97.6071934288307,4168142892
fw,-76.6083297729492,-77.6630477905273,-228.72168962693033,84.98265288313003,4168159559
fw,-72.9366607666015,-78.6630325317382,-214.15333644548528,70.03550240881106,4168176226
fw,-70.3329849243164,-78.8991470336914,-193.42464918655008,55.034408627088865,4168192893
fw,-67.8201217651367,-78.8648147583007,-169.44214691589613,42.3473565716155,4168209560
fw,-65.7691421508789,-79.2191543579101,-145.16364058744915,33.66943204585647,4168226227
fw,-64.0167160034179,-80.054328918457,-122.92084748071007,29.54538817363736,4168242894
fw,-62.3021736145019,-80.970458984375,-103.95218812624807,29.360978218445464,4168259561
fw,-60.835033416748,-81.7268524169921,-88.25635674620693,31.745028455493184,4168276228
fw,-59.5376319885253,-82.4552993774414,-74.76419326341482,35.158843470137775,4168292895
fw,-58.4915199279785,-83.2615127563476,-61.74604057911418,38.41806513519725,4168309562
fw,-57.7343673706054,-84.0035400390625,-47.335433911086504,40.97030466036262,4168326229
fw,-57.1621322631835,-84.6137390136718,-30.048976981683147,42.875795191989894,4168342896
fw,-56.7961654663085,-85.1942977905273,-9.199518607964883,44.55433488394687,4168359563
fw,-56.7791938781738,-85.8203659057617,14.876675941420359,46.435309024040485,4168376230
fw,-57.3577156066894,-86.3928298950195,40.82649930230488,48.65855505830399,4168392897
fw,-59.0691375732421,-86.6971969604492,66.5199847410347,50.92573482144123,4168409564
fw,-60.7437629699707,-86.6656341552734,89.46333768889153,52.52593990231622,4168426231
fw,-62.409610748291,-86.4217681884765,107.28132429973186,52.49490043373689,4168442898
fw,-64.0602722167968,-86.1083679199218,118.16860466857307,49.83647654680727,4168459565
fw,-65.9071502685546,-85.7822113037109,121.25158498878581,43.736714887122695,4168476232
fw,-68.0956649780273,-85.4616241455078,116.8365661192714,33.72129384487672,4168492899
fw,-70.4944763183593,-85.1883468627929,106.51070145545461,19.733201136083192,4168509566
fw,-72.7071914672851,-85.0178756713867,93.02645892501998,2.129969925103724,4168526233
fw,-74.4040985107421,-84.9285507202148,79.89467902493254,-18.38555479172676,4168542900
fw,-75.004035949707,-84.907730102539,70.68117567601526,-40.88022861664868,4168559567
fw,-75.2127151489257,-84.9234085083007,68.13524287006021,-64.32849271351837,4168576234
fw,-75.9658737182617,-84.8504486083984,73.40153096520814,-87.7475346860937,4168592901
fw,-77.2440490722656,-84.3675155639648,85.59178453469872,-110.29917060640514,4168609568
fw,-79.0006484985351,-83.2833557128906,101.88954404521627,-131.32703438512266,4168626235
fw,-81.0381393432617,-81.5351028442382,118.18373966274818,-150.3122293601999,4168642902
fw,-82.9980087280273,-79.3018569946289,130.06686815626688,-166.76344812787968,4168659569
fw,-84.9136886596679,-76.5340118408203,133.94512002808185,-180.0938501177631,4168676236
fw,-86.2976303100586,-73.5114059448242,127.98866773964282,-189.5535744182444,4168692903
fw,-85.4692306518554,-70.538833618164,112.6745916122145,-194.27206532479747,4168709570
fw,-83.6188735961914,-67.7733078002929,90.73944846420738,-193.42588850308744,4168726237
fw,-82.7258148193359,-64.7444915771484,66.48997559490466,-186.49980342507234,4168742904
fw,-83.0134887695312,-61.4013404846191,44.62678745156099,-173.56054273462527,4168759571
fw,-83.7888107299804,-58.4191398620605,28.948834383625396,-155.42613785458332,4168776238
fw,-84.1119079589843,-56.4137573242187,21.396544590203444,-133.61740771519285,4168792905
fw,-83.7655258178711,-55.1042098999023,21.769123090841916,-110.0490422079014,4168809572
fw,-82.8204498291015,-54.3129730224609,28.15843426276717,-86.5383564526988,4168826239
fw,-81.405891418457,-53.8264389038085,37.837739148673926,-64.31386858282396,4168842906
fw,-80.2395477294921,-53.3995399475097,48.19240605538661,-43.7280316991356,4168859573
fw,-79.50341796875,-52.8964881896972,57.341194092555014,-24.30344576079244,4168876240
fw,-78.7313690185546,-52.3640365600585,64.3042471928523,-5.1059110545412665,4168892907
fw,-77.8429794311523,-52.0767707824707,68.79574134117851,14.699146812866312,4168909574
fw,-76.9210662841796,-52.2491302490234,70.84508463493151,35.330354785777345,4168926241
fw,-75.895149230957,-52.8373260498046,70.44953948104693,56.126902092261574,4168942908
fw,-74.7488708496093,-53.8963813781738,67.37688736405102,75.65314462528895,4168959575
fw,-73.658821105957,-56.0563621520996,61.13761078802241,92.13979761908637,4168976242
fw,-72.8153533935546,-58.863166809082,51.079570697113446,104.0876305574263,4168992909
fw,-72.2618103027343,-61.2739067077636,36.538849675547894,110.7803203227426,4169009576
fw,-72.0018234252929,-62.3825035095214,16.99746453874088,112.4886169466511,4169026243
fw,-72.2175979614257,-63.4335174560546,-7.771944782964518,110.2997571722836,4169042910
fw,-72.8807144165039,-65.0396194458007,-37.57525497646514,105.69047301969886,4169059577
fw,-73.9036331176757,-66.7227172851562,-71.68210486960274,100.05919858522132,4169076244
fw,-75.4823760986328,-67.9049987792968,-108.74688605025668,94.39648245030239,4169092911
fw,-77.7657241821289,-69.2211151123046,-146.8022586677803,89.16384401948461,4169109578
fw,-81.0326385498046,-70.4068908691406,-183.36036082000754,84.35818063211866,4169126245
fw,-84.5600891113281,-71.5810470581054,-215.63195696584376,79.694668599839,4169142912
fw,-87.6473159790039,-73.0436935424804,-240.8440567068112,74.8320846568918,4169159579
fw,-87.3557357788086,-74.5954513549804,-256.62378249939,69.570905432822,4169176246
fw,-83.0721893310546,-75.7555618286132,-261.41166311489405,63.967386934931376,4169192913
fw,-77.2837677001953,-76.3880157470703,-254.83771401610923,58.32982488295028,4169209580
fw,-73.1611785888671,-76.9132995605468,-237.93961064035133,53.10472762256364,4169226247
fw,-70.2544174194336,-77.6242370605468,-213.08928193040654,48.71046947940268,4169242914
fw,-67.4073486328125,-78.6127624511718,-183.57983580970253,45.40038457562058,4169259581
fw,-64.8490982055664,-79.7990570068359,-152.9673663615451,43.21291639931616,4169276248
fw,-62.9344635009765,-80.8111343383789,-124.3566872093116,42.01085286424605,4169292915
fw,-61.5588035583496,-81.6642608642578,-99.81820488087133,41.56717714399037,4169309582
fw,-60.5142555236816,-82.3867111206054,-80.06411812926497,41.64791177181976,4169326249
fw,-59.5678634643554,-82.9817504882812,-64.44442494443912,42.06495330388583,4169342916
fw,-58.6803741455078,-83.6001815795898,-51.256086587326685,42.69894877635936,4169359583
fw,-57.8572235107421,-84.3464279174804,-38.288589052682646,43.50427458218073,4169376250
fw,-57.2290649414062,-85.1435241699218,-23.46936587285604,44.501724026987695,4169392917
fw,-56.9516830444335,-85.8829193115234,-5.4460547719393375,45.750265543654315,4169409584
fw,-57.1030235290527,-86.5126037597656,16.038268286403355,47.2838218018924,4169426251
fw,-57.5407028198242,-87.0003662109375,40.06199852700195,49.012616921800145,4169442918
fw,-59.0215911865234,-87.3732604980468,64.7390762541349,50.61554714114875,4169459585
fw,-60.8815002441406,-87.583137512207,87.6552181738767,51.471681774493085,4169476252
fw,-62.8301734924316,-87.5223541259765,106.39506866813629,50.6777939803081,4169492919
fw,-64.8246154785156,-87.1740951538086,119.02042943731018,47.17120486650285,4169509586
fw,-66.6378784179687,-86.7294235229492,124.40445483733626,39.93614971575576,4169526253
fw,-68.5469818115234,-86.3304595947265,122.396205251226,28.237660669005336,4169542920
fw,-70.5686264038086,-86.0427932739257,113.83821555736,11.81445074572528,4169559587
fw,-72.6953125,-85.9806365966796,100.4619737122766,-9.025639075540735,4169576254
fw,-74.7052612304687,-86.2115249633789,84.66040178563428,-33.43368533190695,4169592921
fw,-75.4947128295898,-86.5596923828125,69.12880044135204,-60.158527522480924,4169609588
fw,-75.7460784912109,-86.4694137573242,56.40840077089446,-87.74847572780023,4169626255
fw,-76.0873260498046,-85.4788360595703,48.43793383630165,-114.74948381068415,4169642922
fw,-76.9683227539062,-83.7612838745117,46.25080256590419,-139.8415713041211,4169659589
fw,-78.2082977294921,-81.4812469482421,49.9008045285436,-161.88901728542425,4169676256
fw,-79.6452941894531,-78.7630615234375,58.58790949903245,-179.92424484142083,4169692923
fw,-80.9093627929687,-75.5555801391601,70.87240166157497,-193.11779484633362,4169709590
fw,-82.065559387207,-72.1014175415039,84.87146654065137,-200.7897119367752,4169726257
fw,-83.0669860839843,-68.825454711914,98.41375587973968,-202.48912619525876,4169742924
fw,-84.0151901245117,-65.6125869750976,109.21600488195044,-198.12328096344828,4169759591
fw,-84.9205551147461,-62.2100791931152,115.17201953906562,-188.07590144838662,4169776258
fw,-85.4068832397461,-59.3855781555175,114.78208804457974,-173.23687294948814,4169792925
fw,-84.9399948120117,-57.2830162048339,107.63041615619626,-154.88600826230567,4169809592
fw,-83.540054321289,-55.5472679138183,94.71170700681314,-134.43518809923225,4169826259
fw,-82.4244918823242,-53.9317092895507,78.39391254833339,-113.1074510576984,4169842926
fw,-81.9700469970703,-52.6204681396484,61.91917600713404,-91.6712118170754,4169859593
fw,-81.876220703125,-51.489818572998,48.54712078972922,-70.32766355546532,4169876260
fw,-81.7331924438476,-50.7611389160156,40.62471013737548,-48.78861397458153,4169892927
fw,-81.3404312133789,-50.4349861145019,38.918055756838584,-26.518160223718553,4169909594
fw,-80.6783981323242,-50.3121490478515,42.435104301481296,-3.067189415687334,4169926261
fw,-79.6718368530273,-50.4708099365234,48.76779079811977,21.59390743897093,4169942928
fw,-78.4175186157226,-50.8614273071289,54.79203984695769,46.84660234744965,4169959595
fw,-77.1749725341796,-51.2642173767089,57.46379422487757,71.39111095122819,4169976262
fw,-76.0596542358398,-52.8354377746582,54.46244628323239,93.45904272698347,4169992929
fw,-75.2602920532226,-55.2447166442871,44.53097142120532,111.24287167075562,4170009596
fw,-74.9449462890625,-57.4672050476074,27.490056709814645,123.41569609153247,4170026263
fw,-75.188850402832,-59.6610870361328,4.010885188012664,129.55266447273047,4170042930
fw,-75.9067916870117,-62.0434226989746,-24.71130504364054,130.28794989913152,4170059597
fw,-77.0409851074218,-63.5249671936035,-57.24076635001371,127.14172684468024,4170076264
fw,-78.5311813354492,-65.3086166381836,-92.04901481770713,122.0735554896693,4170092931
fw,-80.4254760742187,-66.7824935913086,-127.5115099189105,116.90625763109655,4170109598
fw,-82.5705642700195,-67.6039428710937,-161.8139604360364,112.7960756119203,4170126265
fw,-84.754280090332,-68.4710388183593,-192.8749685796393,109.9101622878998,4170142932
fw,-85.7351989746093,-69.7261810302734,-218.39291235545323,107.42698108874171,4170159599
fw,-84.7089080810546,-71.5802459716796,-236.08428024867223,103.89559205571918,4170176266
fw,-81.9308700561523,-73.8852386474609,-244.10873095638755,97.86722758044131,4170192933
fw,-76.7818984985351,-76.2209701538086,-241.5825354669376,88.5776701551846,4170209600
fw,-72.2509460449218,-77.8974990844726,-228.99136190908055,76.3898872400407,4170226267
fw,-69.1560287475586,-78.4885940551757,-208.28509369715422,62.77450011549067,4170242934
fw,-66.0750350952148,-78.3452606201171,-182.52796485287504,49.808839383336974,4170259601
