Label,Left_Hip_q,Right_Hip_q,Left_Hip_qd,Right_Hip_qd,SampleTimeFine
fw,-69.6342544555664,-86.2735900878906,157.812942504882,-29.4316272735595,3878187093
fw,-72.8712844848632,-86.2286758422851,192.2217082280865,-66.90168772680448,3878203760
fw,-74.8041687011718,-85.886489868164,143.39934432662614,-87.12193159749448,3878220427
fw,-75.7390975952148,-85.1109161376953,100.07207309236705,-107.73312683015554,3878237094
fw,-76.3359756469726,-83.5737380981445,66.83217089648181,-129.0197184223727,3878253761
fw,-76.4585189819336,-81.4360198974609,46.22870228387838,-150.69311968460994,3878270428
fw,-77.0358200073242,-78.9276351928711,38.46170035261685,-171.78167897168473,3878287095
fw,-78.2054214477539,-76.029296875,41.684657351531655,-190.70577249470074,3878303762
fw,-80.0159759521484,-72.5929183959961,52.7459821260536,-205.52003770123932,3878320429
fw,-81.7245559692382,-68.8502655029296,68.07150962319034,-214.26937720083802,3878337096
fw,-83.0243682861328,-64.979248046875,84.38900058868951,-215.3794496311262,3878353763
fw,-84.2129745483398,-61.3618545532226,99.12128715167982,-207.9903808237481,3878370430
fw,-85.2597579956054,-58.3568840026855,110.45653980487519,-192.1522689636095,3878387097
fw,-85.9833221435546,-55.7243156433105,117.24098258058889,-168.83551531000137,3878403764
fw,-86.0587158203125,-53.5228080749511,118.8690575916654,-139.758554892837,3878420431
fw,-85.5433273315429,-52.0243415832519,115.27769101726368,-107.0818207781235,3878437098
fw,-84.4687423706054,-50.9314575195312,107.03953353473764,-73.04483631468858,3878453765
fw,-82.7508392333984,-50.3530616760253,95.45170730498441,-39.62919705800682,3878470432
fw,-80.9916915893554,-50.3478088378906,82.47220801333175,-8.318031784284784,3878487099
fw,-79.9815826416015,-50.8589706420898,70.39144373517142,20.00051229883324,3878503766
fw,-79.6788864135742,-51.7313804626464,61.24346051193936,44.96727804791337,3878520433
fw,-79.6033477783203,-52.6547813415527,56.11589924036866,66.54205942460018,3878537100
fw,-79.269660949707,-53.6450080871582,54.62295368986043,84.71473797031695,3878553767
fw,-78.4798965454101,-54.8004837036132,54.78656528505645,99.24626255435014,3878570434
fw,-77.299446105957,-56.5327072143554,53.4252030946301,109.55824089710316,3878587101
fw,-76.0241928100586,-58.7544746398925,46.95150241539834,114.84285837193157,3878603768
fw,-74.9799041748046,-60.7045173645019,32.32810097153357,114.37232808561558,3878620435
fw,-74.5093078613281,-62.5221061706543,7.887396564294646,107.89751936183444,3878637102
fw,-74.7633895874023,-64.195083618164,-26.211827424384925,95.98664090670748,3878653769
fw,-75.9335174560546,-65.4331741333007,-67.98316900547489,80.17653096410866,3878670436
fw,-77.825698852539,-66.5469741821289,-114.01603344198811,62.86773412538498,3878687103
fw,-80.7472152709961,-66.9598693847656,-160.13043180568135,46.96546764215265,3878703770
fw,-84.1995849609375,-67.2135543823242,-202.09153932775428,35.33914559816177,3878720437
fw,-86.6739807128906,-67.368667602539,-236.21866131207818,30.231186327645524,3878737104
fw,-85.717788696289,-67.7920608520507,-259.7983716956027,32.77115735586172,3878753771
fw,-82.610855102539,-68.6398620605468,-271.30240669119985,42.72510221913876,3878770438
fw,-78.3681259155273,-69.9725265502929,-270.4666615856975,58.534417406578434,3878787105
fw,-72.4456939697265,-71.5918960571289,-258.26989789367957,77.60730120490197,3878803772
fw,-68.6964416503906,-73.1631851196289,-236.78372215749314,96.76717716061997,3878820439
fw,-66.0038909912109,-74.7146072387695,-208.83656727456687,112.76395352052721,3878837106
fw,-63.4704704284668,-76.5570220947265,-177.50341097980314,122.79484617130876,3878853773
fw,-61.0771903991699,-78.9362487792968,-145.54500777239818,125.00673688345749,3878870440
fw,-58.9485626220703,-81.7031784057617,-114.9621302695251,118.92240837810407,3878887107
fw,-57.2702598571777,-84.38525390625,-86.76789874996943,105.6675694429193,3878903774
fw,-56.4185104370117,-85.9951858520507,-60.9875873318412,87.84467739747053,3878920441
fw,-56.2438507080078,-86.3046722412109,-36.847902397298085,68.9698476384516,3878937108
fw,-56.4214973449707,-86.0465087890625,-13.120879202439827,52.56072071634888,3878953775
fw,-56.631778717041,-85.8223342895507,11.409231097306069,41.1480836043772,3878970442
fw,-56.5264472961425,-85.8865356445312,37.42652973356231,35.55824037570628,3878987109
fw,-56.338092803955,-86.1822738647461,64.65149322271616,34.71483365248096,3879003776
fw,-57.9368743896484,-86.4585647583007,91.67335528078453,35.99421531511313,3879020443
fw,-60.7004318237304,-86.7310409545898,116.1639566410308,35.965791448130915,3879037110
fw,-63.3159294128418,-87.0381317138671,135.44015590240787,31.258118840824412,3879053777
fw,-65.7887420654296,-87.3033981323242,147.19535392956843,19.323615819275304,3879070444
fw,-67.8524856567382,-87.398941040039,150.17488356128183,-1.0324495644277014,3879087111
fw,-70.3668518066406,-87.5097427368164,144.62576459932365,-29.411193594475257,3879103778
fw,-73.7279052734375,-87.7946014404296,132.42564991693555,-63.877982353851266,3879120445
fw,-76.5505981445312,-87.7948684692382,116.83180271378302,-101.30728067799804,3879137112
fw,-78.1990890502929,-86.3364944458007,101.82403676832774,-137.96694341999148,3879153779
fw,-78.9496917724609,-83.2953338623046,91.11694709583948,-170.23405958757363,3879170446
fw,-78.9483947753906,-79.3431243896484,87.08438215033634,-195.27369934985575,3879187113
fw,-79.6349487304687,-75.3501510620117,89.96798251751264,-211.493841478686,3879203780
fw,-81.1905212402343,-71.5636978149414,97.71237871491824,-218.64680841717023,3879220447
fw,-83.4966354370117,-68.1332702636718,106.55913206686553,-217.57145030326714,3879237114
fw,-85.5934448242187,-64.748306274414,112.23767168053357,-209.70472039416484,3879253781
fw,-87.2095031738281,-61.9051208496093,111.359463440361,-196.56574936368142,3879270448
fw,-86.5372848510742,-59.4633331298828,102.54467071164507,-179.39709677023657,3879287115
fw,-84.5783081054687,-56.849998474121,86.89637890930763,-159.05691054389777,3879303782
fw,-83.8859939575195,-54.1890830993652,67.65020993350052,-136.13780828661194,3879320449
fw,-84.1608810424804,-51.9677124023437,49.11654414725181,-111.18916069258661,3879337116
fw,-84.8588333129882,-50.5081634521484,35.30626966410086,-84.88245853372553,3879353783
fw,-85.320068359375,-50.0376358032226,28.75642400548968,-58.01107745274367,3879370450
fw,-84.9934005737304,-50.0876083374023,29.966431261295995,-31.333989858804724,3879387117
fw,-83.8223876953125,-50.4201965332031,37.56845695051779,-5.385620551589347,3879403784
fw,-82.121467590332,-50.8173370361328,49.04064100494095,19.593416268896522,3879420451
fw,-80.5223846435546,-51.2261238098144,61.5845430302544,43.51974485497972,3879437118
fw,-79.4551925659179,-51.8293762207031,72.80001826151664,66.16894511319171,3879453785
fw,-78.6603698730468,-52.5028953552246,80.96691095677944,86.87219957350509,3879470452
fw,-77.7439575195312,-53.7400360107421,84.97050707320614,104.39647739678583,3879487119
fw,-76.5014953613281,-56.2273445129394,84.06173965696703,117.12475269232904,3879503786
fw,-75.0915222167968,-59.0454292297363,77.65887093237465,123.50553214018682,3879520453
fw,-73.8425521850586,-61.2225379943847,65.30147714818138,122.5975266291172,3879537120
fw,-72.9063110351562,-63.1526412963867,46.74454607954556,114.4857211734976,3879553787
fw,-72.4351425170898,-64.3328475952148,22.105321281289793,100.41926119137459,3879570454
fw,-72.6046371459961,-65.2708435058593,-8.0292336006004,82.65731274527039,3879587121
fw,-73.366455078125,-66.5302352905273,-42.584410572050686,64.10933789764196,3879603788
fw,-74.6679077148437,-67.2085418701171,-80.06829370389958,47.87475760163235,3879620455
fw,-76.6150970458984,-67.6695175170898,-118.6969130636342,36.75401149364018,3879637122
fw,-79.1231002807617,-67.8318557739257,-156.53158107153217,32.779245590777656,3879653789
fw,-82.3620071411132,-68.2099914550781,-191.59433380371524,36.82494553280642,3879670456
fw,-85.7051773071289,-69.0169143676757,-221.9447054057986,48.38016823291395,3879687123
fw,-87.7631454467773,-70.146011352539,-245.72792083872048,65.55466372271628,3879703790
fw,-85.5695114135742,-71.5747909545898,-261.2399511955671,85.34450825866155,3879720457
fw,-81.7769622802734,-73.1342239379882,-267.07739812748855,104.12628300835277,3879737124
fw,-77.015151977539,-74.8872375488281,-262.4129457376586,118.30786186010329,3879753791
fw,-71.7526092529296,-77.0198287963867,-247.34746533527402,125.03740341504513,3879770458
fw,-68.0049057006836,-79.666030883789,-223.1854151316235,122.843556029708,3879787125
fw,-64.66259765625,-82.7098617553711,-192.44548307012815,112.04712724304021,3879803792
fw,-61.7807846069335,-85.1854171752929,-158.4968166803262,94.77780062033027,3879820459
fw,-59.6556510925293,-86.098159790039,-124.86075808206648,74.49717659836094,3879837126
fw,-58.9984703063964,-85.6040420532226,-94.3609335133435,55.09178353047078,3879853793
fw,-59.11328125,-84.7364196777343,-68.39318550970324,39.80191015621331,3879870460
fw,-58.9685974121093,-84.4399719238281,-46.5958100493122,30.371312301570704,3879887127
fw,-58.142765045166,-84.956558227539,-27.098933144886836,26.73455580155504,3879903794
fw,-57.0819969177246,-85.9745025634765,-7.320614709207628,27.317521094495454,3879920461
fw,-56.2636566162109,-86.9154891967773,14.960131670411444,29.753812022531925,3879937128
fw,-56.3177223205566,-87.5584869384765,40.655431563472625,31.676884838467743,3879953795
fw,-57.9658088684082,-87.9670257568359,68.89474988665357,31.294514570492378,3879970462
fw,-60.0363540649414,-88.3240356445312,97.16898582102111,27.620785487636518,3879987129
fw,-62.1603775024414,-88.5061645507812,121.99887763577374,20.41004953908934,3880003796
fw,-64.5247344970703,-88.495979309082,139.88440418392855,9.9250447319813,3880020463
fw,-66.8214416503906,-88.4474563598632,148.26800573255275,-3.32983263875327,3880037130
fw,-69.6487655639648,-88.500015258789,146.29546521789504,-18.82662154609664,3880053797
fw,-72.6198120117187,-88.4700546264648,135.213611054493,-36.14643562255436,3880070464
fw,-75.5395584106445,-87.9861755371093,118.28401491197735,-55.014948207739415,3880087131
fw,-77.2532882690429,-87.2066345214843,100.15413535881382,-75.24188457462739,3880103798
fw,-78.3459243774414,-86.0480499267578,85.75432292598609,-96.58522621991742,3880120465
fw,-78.3110122680664,-84.2166366577148,78.96728135789975,-118.58937787812012,3880137132
fw,-78.5647201538086,-81.8872680664062,81.46281073257454,-140.46417497389274,3880153799
fw,-79.7478256225586,-79.0655746459961,92.10433862970598,-161.05916417672117,3880170466
fw,-81.7014770507812,-76.0220947265625,107.17443762190307,-178.9500327153754,3880187133
fw,-84.1191711425781,-72.5882492065429,121.39275064997742,-192.61489130125346,3880203800
fw,-86.3402404785156,-68.9612884521484,129.43408144461182,-200.6554608666575,3880220467
fw,-87.7864532470703,-65.2476119995117,127.4999615048015,-202.0135778837798,3880237134
fw,-85.7370376586914,-62.2174987792968,114.48204816401767,-196.14090356131175,3880253801
fw,-83.0893173217773,-59.7255020141601,92.35836261584325,-183.09582478362805,3880270468
fw,-82.6437454223632,-57.0247611999511,65.66866215059392,-163.5600353934707,3880287135
fw,-83.3394393920898,-54.3474998474121,40.20777870772076,-138.77425871399876,3880303802
fw,-84.5600128173828,-52.4946708679199,21.37049244397154,-110.3845541071308,3880320469
fw,-85.4045867919921,-51.502944946289,12.722334846819395,-80.19284398922157,3880337136
fw,-85.0278778076171,-51.1934852600097,15.253956603150574,-49.84575885640544,3880353803
fw,-83.7710647583007,-51.4119796752929,27.459838788038407,-20.559061109049203,3880370470
fw,-81.8390808105468,-51.6598968505859,46.043710353738106,6.996133874605378,3880387137
fw,-80.1508407592773,-51.7649269104003,66.8622119469988,32.56825164721721,3880403804
fw,-79.221435546875,-52.1061630249023,85.74244548507673,55.99885253113978,3880420471
fw,-78.3811416625976,-52.8557929992675,98.99704997666633,76.8489996750612,3880437138
fw,-77.0789260864257,-53.9061317443847,103.68025505952119,94.17837861326323,3880453805
fw,-75.2542572021484,-56.0976219177246,97.74421434431942,106.61925171174022,3880470472
fw,-73.4449768066406,-58.7259063720703,80.21570945419487,112.75295970849277,3880487139
fw,-72.2325363159179,-60.4288368225097,51.383522124333545,111.65839140552032,3880503806
fw,-71.845718383789,-61.778823852539,12.88331479999049,103.43328893496107,3880520473
fw,-72.3711624145507,-63.7383689880371,-32.43803230691238,89.51022493791326,3880537140
fw,-73.7179870605468,-65.5855407714843,-80.91511960563821,72.65363718053807,3880553807
fw,-76.0421524047851,-66.2728500366211,-128.64299385335843,56.58648979448562,3880570474
fw,-79.36669921875,-66.6123123168945,-172.09307291180355,45.26753798627846,3880587141
fw,-83.0935668945312,-66.7141494750976,-208.59278144189028,41.95042297565114,3880603808
fw,-86.4939041137695,-66.91748046875,-236.5333575465888,48.27183514962022,3880620475
fw,-87.0073623657226,-67.7172775268554,-255.2652541294366,63.66058234706764,3880637142
fw,-84.4019241333007,-69.1363754272461,-264.76640681481024,85.28738705914311,3880653809
fw,-81.1232986450195,-71.0638732910156,-265.27048666467687,108.6131109981688,3880670476
fw,-76.9394607543945,-73.127685546875,-257.05832168265346,128.4149623484683,3880687143
fw,-72.0508499145507,-75.2536468505859,-240.5209473320952,140.04329392394246,3880703810
fw,-68.5355987548828,-78.0805892944336,-216.4421856665025,140.60503809829683,3880720477
fw,-65.423469543457,-81.8762893676757,-186.3176849510421,129.76391391096394,3880737144
fw,-61.7288513183593,-84.9677200317382,-152.49620507202008,109.88781853904617,3880753811
fw,-59.0220489501953,-86.0945510864257,-117.99266517707301,85.40466674773833,3880770478
fw,-58.3810501098632,-85.2594680786132,-85.94357925841909,61.48751551297723,3880787145
fw,-58.8899612426757,-83.9392547607421,-58.834026269467884,42.50353531915962,3880803812
fw,-59.1827774047851,-83.6876373291015,-37.77837035876252,30.830932021828463,3880820479
fw,-58.8547439575195,-84.5588989257812,-22.18299742047073,26.50637575368952,3880837146
fw,-58.0708351135253,-85.739013671875,-9.984544953270651,27.755695599448885,3880853813
fw,-57.5435600280761,-86.2573318481445,1.6000628675277655,32.03379089450367,3880870480
fw,-57.1393814086914,-86.7089004516601,15.100365654125653,37.0209711856214,3880887147
fw,-57.117431640625,-87.2849578857421,31.958106552797087,41.16873672328996,3880903814
fw,-58.2537879943847,-88.0996780395507,52.10520737399327,43.71360361180291,3880920481
fw,-60.2135353088378,-88.4814834594726,74.04342087688502,44.35745210692832,3880937148
fw,-61.9473838806152,-87.9789962768554,95.32851029727985,42.90707998889684,3880953815
fw,-63.8702888488769,-87.0613555908203,113.25221580104783,39.0799828259301,3880970482
fw,-65.8548507690429,-86.1039886474609,125.51435256627092,32.519395541968976,3880987149
fw,-67.8764266967773,-85.3764495849609,130.74819757578263,22.930414566758902,3881003816
fw,-70.504653930664,-85.138442993164,128.8345704809727,10.209422495809351,3881020483
fw,-72.9015960693359,-85.3264770507812,120.97382903526447,-5.516911203063048,3881037150
fw,-74.7206344604492,-85.8804931640625,109.49507194786527,-23.949020786032765,3881053817
fw,-76.3399810791015,-86.6761093139648,97.40635241032054,-44.71575539266475,3881070484
fw,-78.0210418701171,-87.637939453125,87.74409759950376,-67.4536185699876,3881087151
fw,-79.2171096801757,-88.3182144165039,82.84419569925907,-91.81970821924753,3881103818
fw,-79.9654769897461,-87.0729675292968,83.70403481505987,-117.42507155472245,3881120485
fw,-80.8072204589843,-84.7370910644531,89.61957808960649,-143.70043497302518,3881137152
fw,-82.2046203613281,-82.0102844238281,98.24904838321824,-169.73038755574808,3881153819
fw,-84.12890625,-78.9995346069336,106.15696949903759,-194.12074371280457,3881170486
fw,-86.351806640625,-75.5275573730468,109.74079764512231,-214.98378570571774,3881187153
fw,-88.4902648925781,-71.5559921264648,106.29408857622508,-230.11078980977717,3881203820
fw,-88.1607055664062,-67.2620162963867,94.88298911818957,-237.33787016300894,3881220487
fw,-85.9810714721679,-63.3537673950195,76.74319124714819,-235.0215414873864,3881237154
fw,-85.1620407104492,-59.6937217712402,55.039967455104666,-222.47229947010806,3881253821
fw,-85.1878585815429,-56.1214256286621,34.04226050552453,-200.18796914929084,3881270488
fw,-85.6712036132812,-53.5596656799316,17.974636102232274,-169.7893379804724,3881287155
fw,-86.2463150024414,-51.8045921325683,9.930570501443263,-133.6646351965138,3881303822
fw,-86.4053344726562,-50.828758239746,11.187444526008706,-94.43989370039314,3881320489
fw,-85.752456665039,-50.5725784301757,21.078028438223278,-54.466331760850494,3881337156
fw,-84.5015335083007,-50.6249656677246,37.34663100442368,-15.515175181694914,3881353823
fw,-83.1235122680664,-50.609935760498,56.763422528910866,21.21629962808275,3881370490
fw,-81.906867980957,-50.875373840332,75.74802863513618,54.825754811037335,3881387157
fw,-80.7062301635742,-51.6575355529785,90.84771644738153,84.32598946484799,3881403824
fw,-79.4358825683593,-52.7656593322753,99.05233880251289,108.39421757827817,3881420491
fw,-77.9752960205078,-54.8493576049804,98.022150107909,125.42624820209652,3881437158
fw,-76.3894348144531,-58.05513381958,86.30920714702036,133.9254966857585,3881453825
fw,-74.9216690063476,-60.5858268737793,63.58328665462291,133.08848796734495,3881470492
fw,-73.9498825073242,-62.2846374511718,30.788360378074778,123.3458760266357,3881487159
fw,-73.9353408813476,-64.4005126953125,-9.880972971749863,106.63267416021058,3881503826
fw,-75.0985794067382,-65.8022842407226,-55.25245988481899,86.2656545970912,3881520493
fw,-76.9855575561523,-66.8273544311523,-101.6695419202822,66.42595448544763,3881537160
fw,-79.5033950805664,-67.0016326904296,-145.57765031060708,51.340267185043395,3881553827
fw,-82.6384124755859,-67.1768188476562,-184.03238268202617,44.332281952504424,3881570494
fw,-85.6226119995117,-67.2971954345703,-214.98787128856407,46.97895283268115,3881587161
fw,-86.2357940673828,-67.9460067749023,-237.3080057904886,58.62222466190453,3881603828
fw,-84.4229049682617,-69.1060714721679,-250.55153666465077,76.42118510838444,3881620495
fw,-81.614875793457,-70.9735946655273,-254.67808343863967,95.9832556968069,3881637162
fw,-77.9440765380859,-73.0703735351562,-249.8573801094583,112.43426964148668,3881653829
fw,-73.2695999145507,-75.2084732055664,-236.5001412085901,121.6467006733328,3881670496
fw,-69.5374908447265,-78.0062179565429,-215.4855831870044,121.29095552706202,3881687163
fw,-66.0870742797851,-81.2392883300781,-188.4234815438021,111.41046789328834,3881703830
fw,-62.5886116027832,-83.2836151123046,-157.7417490399749,94.33314653490476,3881720497
fw,-59.8681983947753,-83.7083587646484,-126.45062372453151,73.91641876241319,3881737164
fw,-58.9195899963378,-83.1226348876953,-97.56674689796598,54.35866370744748,3881753831
fw,-59.0815620422363,-82.4557952880859,-73.34409811178664,39.00240699869012,3881770498
fw,-59.09419631958,-82.5701141357421,-54.59775767870966,29.57219011103989,3881787165
fw,-58.4900398254394,-83.2663803100586,-40.433039371581636,26.083942280340658,3881803832
fw,-57.461814880371,-84.2384643554687,-28.551920213643278,27.338405791189103,3881820499
fw,-56.5625572204589,-85.1783828735351,-16.058578130424067,31.65915138789894,3881837166
fw,-55.8569755554199,-86.038101196289,-0.46819048406838293,37.49200782106215,3881853833
fw,-55.6039924621582,-86.761604309082,19.44806664853923,43.64275674404854,3881870500
fw,-56.5107078552246,-87.44189453125,43.257910297412565,49.17110050623703,3881887167
fw,-58.6001625061035,-88.0080642700195,68.99000479221269,53.13627227815643,3881903834
fw,-60.1782760620117,-88.2014770507812,93.6789046870572,54.42462918140683,3881920501
fw,-62.0259399414062,-87.6157455444336,114.11990020895351,51.79574288675526,3881937168
fw,-63.7051467895507,-86.6302413940429,127.62714965789166,44.135325271425906,3881953835
fw,-65.762336730957,-85.7700119018554,132.66277379692968,30.785515972131535,3881970502
fw,-68.6826171875,-85.3849716186523,129.26162355476535,11.7888431689068,3881987169
fw,-71.512580871582,-85.62109375,119.17569491595027,-12.066179914778154,3882003836
fw,-73.8478012084961,-86.2837982177734,105.64424049196083,-39.412596316540544,3882020503
fw,-75.3125457763671,-87.1252670288086,92.73703992960256,-68.6111909310547,3882037170
fw,-76.0099716186523,-87.4864349365234,84.3508650831884,-98.07569100728742,3882053837
fw,-76.3879013061523,-86.1401443481445,83.10932457176175,-126.50223626429879,3882070504
fw,-77.2046813964843,-83.9143753051757,89.52070196854844,-152.93026562910393,3882087171
fw,-78.6799774169921,-81.2997436523437,101.71017263143173,-176.62679388837003,3882103838
fw,-80.8984146118164,-78.4957199096679,115.86410758226397,-196.85957253110888,3882120505
fw,-83.3096542358398,-75.263198852539,127.28333037150965,-212.68192226108255,3882137172
fw,-85.5027236938476,-71.4930877685546,131.74231327135814,-222.86183212393783,3882153839
fw,-87.1462478637695,-67.4959945678711,126.75856367915918,-226.034959986891,3882170506
fw,-85.8724212646484,-63.4135856628418,112.39594919544389,-221.06225809282768,3882187173
fw,-83.7389755249023,-59.7029571533203,91.33447601168712,-207.47128652748063,3882203840
fw,-83.2366180419921,-56.7876815795898,68.13092416368411,-185.8040025460657,3882220507
fw,-83.8720932006836,-53.996295928955,47.86119909993315,-157.71113189022626,3882237174
fw,-84.7125015258789,-51.9150466918945,34.595313835638294,-125.71711542102913,3882253841
fw,-85.0440216064453,-50.7764244079589,30.25929244570897,-92.69617252490735,3882270508
fw,-84.4205474853515,-50.6491775512695,34.28720774780608,-61.211672644226205,3882287175
fw,-82.6119079589843,-50.776626586914,44.12147092298287,-32.943064611141445,3882303842
fw,-80.6147689819336,-50.7350730895996,56.26498855735763,-8.418669965046012,3882320509
fw,-79.2983245849609,-50.5914459228515,67.40684700754403,12.833412860786158,3882337176
fw,-78.3085479736328,-50.4282608032226,75.20545840497442,31.77787761318448,3882353843
fw,-77.3083343505859,-50.706916809082,78.54874736973362,49.227365420716076,3882370510
fw,-76.3103713989257,-50.9926490783691,77.36344251570112,65.34018651962091,3882387177
fw,-75.3722686767578,-51.9077033996582,72.18640904218458,79.47789209696172,3882403844
fw,-74.5541229248046,-54.5439682006835,63.71589793048197,90.48164021455379,3882420511
fw,-73.7507171630859,-57.345401763916,52.48567672441677,97.23498172950697,3882437178
fw,-72.9601745605468,-58.8051223754882,38.714490945968535,99.24545147883589,3882453845
fw,-72.392822265625,-59.9972915649414,22.312335419623913,96.98171119048499,3882470512
fw,-72.3538665771484,-61.3300323486328,2.9875443972357285,91.84739907128072,3882487179
fw,-72.8292770385742,-62.4818611145019,-19.60147989718916,85.8491141260246,3882503846
fw,-73.7286605834961,-64.0778045654296,-45.680146823153954,81.10684750989701,3882520513
fw,-74.9050674438476,-65.5168151855468,-75.18243335740347,79.34313230818594,3882537180
fw,-76.5889053344726,-66.5794601440429,-107.57182640469408,81.44051154084627,3882553847
fw,-78.7794799804687,-67.2369995117187,-141.68790954033256,87.14050363082652,3882570514
fw,-81.6009979248046,-67.995620727539,-175.6726229346911,94.97589964515028,3882587181
fw,-84.7713088989257,-69.4552230834961,-207.03331421305484,102.53085200350154,3882603848
fw,-87.6366958618164,-71.628173828125,-232.87924765462844,107.05142280117548,3882620515
fw,-86.9091491699218,-74.2917556762695,-250.3351211060006,106.28001216305535,3882637182
fw,-83.2626571655273,-76.6646499633789,-257.0927478133876,99.23651522669121,3882653849
fw,-78.0029678344726,-78.3158187866211,-252.0006608790781,86.62584374139229,3882670516
fw,-72.4531784057617,-79.1767501831054,-235.51593454092065,70.67250949616373,3882687183
fw,-69.3096694946289,-79.3249893188476,-209.80772803136531,54.42229072510203,3882703850
fw,-67.2493057250976,-79.3807907104492,-178.3843776259003,40.78443828640712,3882720517
fw,-65.3555450439453,-79.8743209838867,-145.3135343107858,31.691765605624244,3882737184
fw,-63.8157501220703,-80.6724777221679,-114.2956715622216,27.680924255861786,3882753851
fw,-62.518325805664,-81.5102005004882,-87.90178774208208,27.99108312181842,3882770518
fw,-61.2720413208007,-82.3543014526367,-67.18306018494972,31.059739550308517,3882787185
fw,-60.2478828430175,-83.2020568847656,-51.69745683187919,35.163882103916514,3882803852
fw,-59.6399574279785,-83.9089279174804,-39.869757760135734,38.95233539938596,3882820519
fw,-59.1730232238769,-84.4352874755859,-29.542631346669864,41.71347773833391,3882837186
fw,-58.8398323059082,-84.9384460449218,-18.57501323644648,43.36055156357312,3882853853
fw,-58.6253089904785,-85.5287628173828,-5.3681690375269895,44.22917485662259,3882870520
fw,-58.4803314208984,-86.1556549072265,10.775348586654697,44.82205670973349,3882887187
fw,-58.5534858703613,-86.6182327270507,29.530495665424066,45.59961966116197,3882903854
fw,-59.4406929016113,-86.7977752685546,49.69666645813689,46.842660419679596,3882920521
fw,-61.2821922302246,-86.8536529541015,69.57401869808463,48.560299971194496,3882937188
fw,-63.2175865173339,-86.9470672607421,87.44796507647084,50.41422972438903,3882953855
fw,-65.0623779296875,-87.0175094604492,102.01238910591925,51.66701544655848,3882970522
fw,-66.5984878540039,-86.8777084350586,112.59270993672483,51.19886119885437,3882987189
fw,-68.4721374511718,-86.4394302368164,119.13099741299612,47.63864526391647,3883003856
fw,-70.4491195678711,-85.7455978393554,122.00317961501588,39.61434251338286,3883020523
fw,-72.0697250366211,-85.1372375488281,121.78964182375523,26.06890313043011,3883037190
fw,-74.1269607543945,-84.8698577880859,119.10112118189174,6.546981128565985,3883053857
fw,-76.7555160522461,-85.0033493041992,114.49943680022874,-18.63901967786033,3883070524
fw,-78.8009414672851,-85.5782241821289,108.4863016249569,-48.409896036736725,3883087191
fw,-80.0829391479492,-86.3599777221679,101.50196740785056,-81.07227827946927,3883103858
fw,-81.2111511230468,-86.7223129272461,93.90060088804222,-114.56080880805295,3883120525
fw,-82.5458068847656,-85.6923370361328,85.92478098302567,-146.69361023232446,3883137192
fw,-84.1884994506836,-83.3500823974609,77.72612068119676,-175.38250647664597,3883153859
fw,-85.5550308227539,-80.3356857299804,69.44466432066314,-198.77614205183383,3883170526
fw,-86.5002746582031,-77.0904998779296,61.304363189520316,-215.35353449910764,3883187193
fw,-87.4373092651367,-73.6082916259765,53.66082280595581,-224.01124066526572,3883203860
fw,-87.8498764038086,-69.8409423828125,46.96431468171048,-224.1831582632623,3883220527
fw,-87.7247085571289,-65.7089233398437,41.64979726641693,-215.9901230116175,3883237194
fw,-87.8487777709961,-61.9761390686035,38.006464499070816,-200.3539050254966,3883253861
fw,-87.8152847290039,-59.6323318481445,36.09255713932992,-178.97405462949223,3883270528
fw,-87.4479446411132,-57.6185874938964,35.73812450052956,-154.10019327635845,3883287195
fw,-87.0481948852539,-55.5721626281738,36.63181226238126,-128.12533565991794,3883303862
fw,-86.6541442871093,-53.9111518859863,38.44900466024208,-103.11131684797743,3883320529
fw,-86.0840377807617,-52.9610328674316,40.96881713309991,-80.38372968052013,3883337196
fw,-85.2812957763671,-52.3589782714843,44.139798828870894,-60.309890586785514,3883353863
fw,-84.4681320190429,-51.8161506652832,48.071278442233066,-42.330411020269864,3883370530
fw,-83.6338195800781,-51.3119049072265,52.94341481048849,-25.257713454494322,3883387197
fw,-82.7575225830078,-50.9426536560058,58.84942162122224,-7.776755181191858,3883403864
fw,-81.8104553222656,-50.6528205871582,65.60853528497304,10.99719036178162,3883420531
fw,-80.7777252197265,-50.6022644042968,72.60792676469434,31.09286359379919,3883437198
fw,-79.6121215820312,-50.7465019226074,78.73407071419375,51.55698522733187,3883453865
fw,-78.2498474121093,-52.317886352539,82.43454257948041,70.70205599660595,3883470532
fw,-76.7664337158203,-54.8207397460937,81.91408189518333,86.65709962476727,3883487199
fw,-75.3310165405273,-56.858055114746,75.42566372779602,98.01019806243328,3883503866
fw,-74.1205978393554,-58.2947959899902,61.58492934365189,104.28061874811661,3883520533
fw,-73.3842468261718,-59.4241561889648,39.630185039319194,106.04451183508114,3883537200
fw,-73.3250122070312,-60.9932975769043,9.575670221180198,104.70886871166033,3883553867
fw,-74.0054168701171,-62.5654678344726,-27.747901744236735,102.06553129667985,3883570534
fw,-75.3133087158203,-64.5172882080078,-70.72929667094228,99.78857462806619,3883587201
fw,-76.9985580444336,-66.0294342041015,-117.04129612979135,98.99316741018276,3883603868
fw,-79.3456039428711,-66.9863891601562,-163.7140618107632,99.92764238563527,3883620535
fw,-82.3423538208007,-67.8937835693359,-207.24660016683333,101.8626386426001,3883637202
fw,-85.2379455566406,-68.9476165771484,-243.82042268582964,103.2466042426175,3883653869
fw,-86.1344680786132,-70.8599395751953,-269.676734655904,102.15962499448263,3883670536
fw,-83.9359588623046,-73.3738098144531,-281.67737335728344,96.98953075273108,3883687203
fw,-79.7648849487304,-75.8160400390625,-277.9941125324171,87.1145731256937,3883703870
fw,-72.940071105957,-77.3565521240234,-258.762682575444,73.30065817359328,3883720537
fw,-68.3663482666015,-78.055305480957,-226.43576504535818,57.59374659430712,3883737204
fw,-66.0058135986328,-78.2445983886718,-185.57393196024793,42.70502442089414,3883753871
fw,-64.5421066284179,-78.1152114868164,-142.0015746699886,31.132989972279756,3883770538
fw,-63.7355690002441,-78.4034271240234,-101.54920298660407,24.393793055844593,3883787205
fw,-63.0192337036132,-79.0634613037109,-68.80355736478393,22.665275232445936,3883803872
fw,-62.2008819580078,-79.7946319580078,-46.26159620150813,24.93995048340207,3883820539
fw,-61.2687034606933,-80.5662078857421,-34.08187894273639,29.554448510889372,3883837206
fw,-60.5542984008789,-81.3174591064453,-30.39327846997614,34.83255939095068,3883853873
fw,-60.0070457458496,-82.0285339355468,-31.970928652843902,39.58518994949763,3883870540
fw,-59.3840904235839,-82.6361694335937,-35.05349987163953,43.31828584962999,3883887207
fw,-58.8193855285644,-83.1650009155273,-36.11834065283328,46.141985921375046,3883903874
fw,-58.2146034240722,-83.7129135131836,-32.49541148036011,48.48832906719606,3883920541
fw,-57.6297340393066,-84.2949752807617,-22.752002399342416,50.791329641916164,3883937208
fw,-57.336856842041,-84.8284301757812,-6.815388864767948,53.256620582562256,3883953875
fw,-57.6499328613281,-85.2121810913086,14.164668745128175,55.77617058488866,3883970542
fw,-58.6780891418457,-85.4199905395507,38.1653228463557,57.970416875477,3883987209
fw,-60.1745262145996,-85.5487823486328,62.753811998482995,59.2988435382096,3884003876
fw,-61.5874900817871,-85.6323776245117,85.54197374834744,59.17848849421537,3884020543
fw,-62.823486328125,-85.6181869506836,104.53687273202812,57.07346989307347,3884037210
fw,-64.5583038330078,-85.4485702514648,118.36052710679441,52.545004313613234,3884053877
fw,-66.9325103759765,-85.1804580688476,126.37030669916994,45.26641845396307,3884070544
fw,-69.3805465698242,-84.9399948120117,128.71422673189417,35.01254166153178,3884087211
fw,-71.6857070922851,-84.8906707763671,126.30971397637764,21.637311254509225,3884103878
fw,-74.205322265625,-85.026496887207,120.69485181684979,5.061602389380583,3884120545
fw,-76.3898773193359,-85.1346588134765,113.71339474624381,-14.702993643183206,3884137212
fw,-77.4564514160156,-85.3312072753906,107.06239744114987,-37.481633381563924,3884153879
fw,-78.3160324096679,-85.6853942871093,101.82308911408332,-62.83145043605063,3884170546
fw,-79.519660949707,-86.1498489379882,98.15801809271116,-89.94862293240122,3884187213
fw,-81.2039108276367,-86.1280364990234,95.33237012738832,-117.63590184118088,3884203880
fw,-83.175910949707,-84.9457626342773,92.09047126728325,-144.35718592991174,3884220547
fw,-85.0855407714843,-82.6940841674804,87.25167923395284,-168.37407265570104,3884237214
fw,-86.8277587890625,-79.7939987182617,80.27986547648536,-187.93855920464713,3884253881
fw,-87.6690521240234,-76.5107727050781,71.58551108918815,-201.5126403374176,3884270548
fw,-87.4695129394531,-73.0077896118164,62.43150101584575,-207.98976621945417,3884287215
fw,-87.1344757080078,-69.3097076416015,54.4819681925254,-206.89103548551057,3884303882
fw,-86.9336318969726,-65.5240402221679,49.18762617955762,-198.4960904378966,3884320549
fw,-86.6645202636718,-62.6210479736328,47.26967008945958,-183.85681679553733,3884337216
fw,-85.9155349731445,-60.2047309875488,48.50973146779976,-164.65317373437676,3884353883
fw,-84.9575653076171,-58.2320747375488,51.90381277024499,-142.89488586852886,3884370550
fw,-83.8692092895507,-56.2805137634277,56.076033242340245,-120.53035182441684,3884387217
fw,-82.7064743041992,-54.7687683105468,59.755554812093216,-99.0606893470925,3884403884
fw,-81.6531982421875,-54.1459617614746,62.12970863328305,-79.25923970432494,3884420551
fw,-80.6635208129882,-53.5043563842773,62.97218740631131,-61.07710077319023,3884437218
fw,-79.6729202270507,-52.8565216064453,62.55042446677496,-43.77907675841359,3884453885
fw,-78.7476119995117,-52.1832046508789,61.390420020165905,-26.292290891441983,3884470552
fw,-77.856201171875,-51.7374763488769,60.0000945313075,-7.669067517617073,3884487219
fw,-77.0041580200195,-51.7521324157714,58.63512426802963,12.49308511814346,3884503886
fw,-76.2385025024414,-51.9682693481445,57.15899196461142,33.828072657078124,3884520553
fw,-75.4718322753906,-53.120506286621,55.01904675494656,55.25729747369529,3884537220
fw,-74.6097869873046,-55.1706733703613,51.33516140177457,75.2989125900742,3884553887
fw,-73.6898040771484,-57.0508842468261,45.07245052138165,92.50197279517704,3884570554
fw,-72.9053268432617,-58.8298072814941,35.24580138907369,105.83226873731215,3884587221
fw,-72.4413223266601,-60.525333404541,21.09403025751248,114.87611712443478,3884603888
fw,-72.4867782592773,-62.4687538146972,2.1788418437242427,119.82587604490486,3884620555
fw,-73.1531600952148,-64.4112701416015,-21.593005943635337,121.30087845342592,3884637222
fw,-74.3381958007812,-66.3014526367187,-49.97910013554268,120.09484728368936,3884653889
fw,-75.7347946166992,-67.92236328125,-82.37846220279101,116.93331848030948,3884670556
fw,-77.4310684204101,-69.3481674194336,-117.74147595341596,112.3035192177716,3884687223
fw,-79.5642547607421,-70.7622756958007,-154.44286363384526,106.39892651220138,3884703890
fw,-82.5353088378906,-72.1287536621093,-190.2081467880173,99.19437943972723,3884720557
fw,-85.6558074951171,-73.8199768066406,-222.1983934985746,90.62798765685964,3884737224
fw,-87.5647430419921,-75.556411743164,-247.31780709233942,80.82003911486504,3884753891
fw,-85.5253448486328,-76.956558227539,-262.7356106232711,70.22778401821077,3884770558
fw,-80.346939086914,-77.7025527954101,-266.5274408516383,59.64605314577907,3884787225
fw,-74.0588302612304,-78.1406555175781,-258.25194009096936,50.03037193757663,3884803892
fw,-70.3733901977539,-78.5895385742187,-239.2249420269416,42.21485682455605,3884820559
fw,-67.6753234863281,-79.2490615844726,-212.31190033364788,36.661186777231634,3884837226
fw,-64.9122161865234,-80.1829757690429,-181.2482672490455,33.35994064046032,3884853893
fw,-62.714054107666,-81.2451248168945,-149.70925408152422,31.91967550616345,3884870560
fw,-61.0260200500488,-82.166519165039,-120.44264400139893,31.779394575782494,3884887227
fw,-59.6697883605957,-82.9150390625,-94.7208202377215,32.42746353421687,3884903894
fw,-58.6169090270996,-83.4747543334961,-72.23783451945597,33.52828753841847,3884920561
fw,-57.8709373474121,-83.9896011352539,-51.44794943132288,34.92459941917039,3884937228
fw,-57.231029510498,-84.6484375,-30.237177048837967,36.550921463715376,3884953895
fw,-56.6930198669433,-85.4141769409179,-6.741231780911331,38.324408834426954,3884970562
fw,-56.3158340454101,-86.1414642333984,19.92032800770733,40.06638129467958,3884987229
fw,-56.4287719726562,-86.7749938964843,49.21647709990841,41.4744040141119,3885003896
fw,-57.7513046264648,-87.2907943725586,79.22953785128645,42.138993135131436,3885020563
fw,-60.7001113891601,-87.7512741088867,107.13372083281448,41.590806258394224,3885037230
fw,-63.2332038879394,-88.1562347412109,129.96281718836255,39.36403334676891,3885053897
fw,-65.461555480957,-88.3608779907226,145.40021773399593,35.05818170270214,3885070564
fw,-68.2436752319336,-88.3161163330078,152.34511857755717,28.374551527265897,3885087231
fw,-71.1598510742187,-88.2221603393554,151.12416656215336,19.10703830756631,3885103898
fw,-73.4678726196289,-88.2918930053711,143.34316134681606,7.088166310501174,3885120565
fw,-75.3348236083984,-88.5384826660156,131.45731842072766,-7.875664952198056,3885137232
fw,-77.4391479492187,-88.648681640625,118.18507064716206,-26.021664528857748,3885153899
fw,-79.3497543334961,-88.4441757202148,105.90940751874311,-47.550140930673614,3885170566
fw,-80.5500259399414,-87.7863693237304,96.200777191273,-72.43958606784877,3885187233
fw,-81.3971176147461,-86.4533157348632,89.56547649527035,-100.21105174235494,3885203900
fw,-82.7228775024414,-84.4427871704101,85.48307598656511,-129.7353431279335,3885220567
fw,-84.5319137573242,-81.8917694091796,82.73335406166287,-159.17325583698923,3885237234
fw,-86.5095825195312,-78.9098510742187,79.91889481083007,-186.1000582647121,3885253901
fw,-88.3075408935546,-75.6364135742187,76.00127579172734,-207.81555801413552,3885270568
fw,-89.1062774658203,-71.8027648925781,70.65112327067091,-221.79633429953577,3885287235
fw,-88.7000503540039,-67.2715530395507,64.29308928185102,-226.20478580898083,3885303902
fw,-88.0262298583984,-62.6326904296875,57.86555121648194,-220.32858801501968,3885320569
fw,-87.4491729736328,-59.5815696716308,52.432046206318255,-204.8061442525938,3885337236
fw,-86.8581390380859,-56.8637962341308,48.817378719795585,-181.53455701584008,3885353903
fw,-86.1034927368164,-54.5772743225097,47.3946896726875,-153.2588065152662,3885370570
fw,-85.1987838745117,-52.6497116088867,48.06418639698219,-122.95237300030888,3885387237
fw,-84.2056655883789,-51.4626350402832,50.38508417995392,-93.16340374242583,3885403904
fw,-83.1855163574218,-51.0376319885253,53.77461061957989,-65.50599075459589,3885420571
fw,-82.0921249389648,-50.5494194030761,57.680966015121854,-40.440749824714416,3885437238
fw,-81.0078048706054,-50.1694145202636,61.667302328226036,-17.416745595545354,3885453905
fw,-79.9863891601562,-49.892349243164,65.3929409018858,4.662697015535332,3885470572
fw,-78.9580841064453,-49.8185539245605,68.52190429694124,26.80566306417566,3885487239
fw,-77.8386001586914,-49.9100379943847,70.61082437129052,49.35773586265085,3885503906
fw,-76.6961135864257,-50.3113098144531,71.02603595695693,71.70838647377103,3885520573
fw,-75.5887756347656,-52.2331619262695,68.92228856405866,92.40065938278266,3885537240
fw,-74.6012802124023,-55.2102394104003,63.29568669379628,109.60706492565855,3885553907
fw,-73.8397750854492,-57.7826423645019,53.10843893687705,121.77245944240047,3885570574
fw,-73.2240295410156,-59.6327857971191,37.47091886284996,128.1516420588503,3885587241
fw,-72.7645187377929,-61.2997589111328,15.85196765337707,129.04051757728138,3885603908
fw,-72.7817764282226,-63.2548484802246,-11.727925044195285,125.66322198730347,3885620575
fw,-73.5155258178711,-65.4008636474609,-44.57288012428362,119.81185172377803,3885637242
fw,-74.8863830566406,-67.0949401855468,-81.29507643098624,113.37117151791057,3885653909
fw,-76.9441146850586,-67.7911834716796,-119.9092411604252,107.83675484188666,3885670576
fw,-79.6281356811523,-68.5758438110351,-158.00806108374428,103.92521186480604,3885687243
fw,-82.5777511596679,-69.4665374755859,-192.97521395970918,101.3917624346206,3885703910
fw,-85.4584350585937,-71.1259078979492,-222.20729769841267,99.15759113360747,3885720577
fw,-86.7357711791992,-73.1512603759765,-243.34820897809786,95.75750115294416,3885737244
fw,-85.1870803833007,-75.4002914428711,-254.56561232771196,89.96994184299024,3885753911
fw,-81.488166809082,-77.2113647460937,-254.88691827453087,81.37536222712488,3885770578
fw,-75.5164184570312,-78.2310638427734,-244.54129734502192,70.59215611831495,3885787245
fw,-71.2963409423828,-78.6309814453125,-225.155768904575,59.07891099823565,3885803912
fw,-68.5959014892578,-78.8024520874023,-199.62129649141343,48.597274655309576,3885820579
fw,-66.1057434082031,-79.1751327514648,-171.5548017650931,40.58764573704093,3885837246
fw,-64.2546310424804,-79.9695358276367,-144.4848663389784,35.733257391757334,3885853913
fw,-62.7657318115234,-81.0595169067382,-121.03567500074625,33.87118322900931,3885870580
fw,-61.0980911254882,-81.9786758422851,-102.38106152582225,34.22743410862912,3885887247
fw,-59.4305419921875,-82.7445297241211,-88.11694333886702,35.81319132330635,3885903914
fw,-57.9563827514648,-83.50390625,-76.54375561654105,37.78646733184914,3885920581
fw,-56.8708724975585,-84.2716293334961,-65.2330992673246,39.648976288003965,3885937248
fw,-55.9830093383789,-85.0247650146484,-51.706603848288374,41.24972586810409,3885953915
fw,-55.3820266723632,-85.6875228881836,-34.06969065255475,42.644786044532246,3885970582
fw,-54.9468421936035,-86.1763305664062,-11.483032083991423,43.89440636918462,3885987249
fw,-54.8755645751953,-86.4534301757812,15.60751679072275,44.8748392813465,3886003916
fw,-55.3267974853515,-86.5621948242187,45.52611937291259,45.16306790923813,3886020583
fw,-57.0964584350585,-86.6224670410156,75.70130131623081,44.029847999908995,3886037250
fw,-59.2426986694335,-86.6603012084961,103.20506431854776,40.549715905712944,3886053917
fw,-61.2349891662597,-86.5844802856445,125.36120185803986,33.80254778392236,3886070584
fw,-63.577163696289,-86.3673019409179,140.27373030379374,23.105971503053613,3886087251
fw,-65.8081741333007,-86.2370986938476,147.1707990802065,8.199295015091048,3886103918
fw,-68.4356079101562,-86.4224777221679,146.52444308049627,-10.685405533327101,3886120585
fw,-71.1620712280273,-86.8955612182617,139.94620416277806,-32.881750652378635,3886137252
fw,-73.9716644287109,-87.3813247680664,129.86603467302652,-57.43704371906765,3886153919
fw,-75.9598159790039,-87.4147186279296,119.01121727365329,-83.27568482081534,3886170586
fw,-77.5124435424804,-86.5052642822265,109.75105499829536,-109.31002781311295,3886187253
fw,-78.0926132202148,-84.7186203002929,103.46059786029322,-134.46911451701698,3886203920
fw,-78.7978134155273,-82.4105148315429,100.12820946211423,-157.66237579237324,3886220587
fw,-80.3489303588867,-79.6385345458984,98.41117724489435,-177.72826215297633,3886237254
fw,-82.7108306884765,-76.5625839233398,96.19452891995414,-193.4270012791299,3886253921
fw,-85.3515625,-73.1082611083984,91.48119550691645,-203.5225445406113,3886270588
fw,-87.4005279541015,-69.4375610351562,83.26002835931767,-206.96623490043402,3886287255
fw,-87.9196395874023,-65.8064880371093,71.97846743682524,-203.15134213499405,3886303922
fw,-87.484878540039,-62.1667175292968,59.41387372685279,-192.16425293437476,3886320589
fw,-87.2537689208984,-58.9974670410156,48.00768637198179,-174.9308722810951,3886337256
fw,-87.2482147216796,-56.6899147033691,39.962049232360684,-153.16586188694345,3886353923
fw,-87.3261413574218,-54.9370994567871,36.4857096287712,-129.0894412840241,3886370590
fw,-87.1994247436523,-53.4079971313476,37.48059932984173,-104.96533346148568,3886387257
fw,-86.5483856201171,-52.4191246032714,41.74180993634298,-82.59110299003653,3886403924
fw,-85.4406967163086,-51.9507331848144,47.51881759996209,-62.901141466629404,3886420591
fw,-84.3289184570312,-51.2517166137695,53.16138842836428,-45.81496535691182,3886437258
fw,-83.3850326538086,-50.7388038635253,57.59044879455728,-30.391056722108534,3886453925
fw,-82.5047531127929,-50.3597030639648,60.45773165576357,-15.248291417807991,3886470592
fw,-81.5930709838867,-50.027904510498,62.00878638472229,0.8764205017070155,3886487259
fw,-80.7155151367187,-50.0018196105957,62.767388796805506,18.61873195044154,3886503926
fw,-79.8643035888671,-50.0489044189453,63.18580050792307,37.70232494760035,3886520593
fw,-78.8717803955078,-50.9046363830566,63.37252608093043,56.98688703337628,3886537260
fw,-77.7554244995117,-52.9879341125488,62.95312465744466,74.83951555887838,3886553927
fw,-76.6884536743164,-55.0373001098632,61.06818758314024,89.68987665303023,3886570594
fw,-75.8116683959961,-56.7267951965332,56.48093918975043,100.5464107337276,3886587261
fw,-75.1913528442382,-58.3487358093261,47.759521349864634,107.27209364848007,3886603928
fw,-74.7103576660156,-59.9229507446289,33.50773095241808,110.53763563749386,3886620595
fw,-74.4028396606445,-61.6039772033691,12.625627210096972,111.51164436686803,3886637262
fw,-74.6014862060546,-63.1739234924316,-15.423579065295643,111.43218825328726,3886653929
fw,-75.39697265625,-64.6725463867187,-50.37684986535255,111.21061427735098,3886670596
fw,-76.8028793334961,-66.3654327392578,-91.00856564015615,111.17486781479951,3886687263
fw,-78.9393692016601,-67.8455734252929,-135.08066333671817,111.00319085404624,3886703930
fw,-81.8766098022461,-69.2250671386718,-179.43313521237212,109.85195894002193,3886720597
fw,-85.23486328125,-70.4497528076171,-220.23168917425187,106.64827077692921,3886737264
fw,-87.6385192871093,-72.317024230957,-253.38219722135645,100.48907440938879,3886753931
fw,-86.0988693237304,-74.4485855102539,-275.11101615989776,91.0497331117132,3886770598
fw,-81.8481369018554,-76.4003143310546,-282.6735509401717,78.86180287026552,3886787265
fw,-74.6715393066406,-77.2273254394531,-275.06519357896667,65.31574275905271,3886803932
fw,-69.4234161376953,-77.4534912109375,-253.494433574526,52.32860505142598,3886820599
fw,-66.5439147949218,-77.6472015380859,-221.34609767215812,41.77582530471406,3886837266
fw,-64.2904281616211,-78.2253189086914,-183.51549785104345,34.92191558544811,3886853933
fw,-62.7052955627441,-79.2564239501953,-145.27841397619193,32.09248080730891,3886870600
fw,-61.263313293457,-80.3565368652343,-111.08050529982954,32.70026854042659,3886887267
fw,-59.9007377624511,-81.3311386108398,-83.63859851840932,35.56478662116993,3886903934
fw,-58.6295928955078,-82.2535934448242,-63.57796373445679,39.35551624160496,3886920601
fw,-57.7095184326171,-83.0880126953125,-49.61780889350029,42.98157200671014,3886937268
fw,-57.1411628723144,-83.9105377197265,-39.167364546726084,45.814492436780434,3886953935
fw,-56.6432380676269,-84.7473754882812,-29.13605527967421,47.71400020409508,3886970602
fw,-56.1929702758789,-85.6071090698242,-16.765563802975237,48.893597336129574,3886987269
fw,-55.8296585083007,-86.3691329956054,-0.3176355572294242,49.699094522729574,3887003936
fw,-55.7610740661621,-86.9376525878906,20.518866839137115,50.37864394218137,3887020603
fw,-56.0894660949707,-87.2982482910156,44.59306886312115,50.90772009356675,3887037270
fw,-57.6690559387207,-87.5388412475586,69.64167839457076,50.90943577446418,3887053937
fw,-60.1382331848144,-87.7679595947265,92.92595355417491,49.68611571694698,3887070604
fw,-62.1646652221679,-87.7740173339843,111.95942875454159,46.35183147505931,3887087271
fw,-64.475471496582,-87.4052734375,125.10016082601832,40.027922703618984,3887103938
fw,-66.3418807983398,-86.9118118286132,131.8502955436106,30.04212377459147,3887120605
fw,-68.3583984375,-86.6048889160156,132.83410512083498,16.069703567539698,3887137272
fw,-70.3933410644531,-86.6712799072265,129.53429497319556,-1.8207117795820877,3887153939
fw,-72.79296875,-87.0654907226562,123.90202786096948,-23.211398119639306,3887170606
fw,-75.4979553222656,-87.5456924438476,117.92577091418603,-47.426111360937675,3887187273
fw,-77.3277816772461,-87.7451019287109,113.20129620158545,-73.6113914588418,3887203940
fw,-78.3475799560546,-87.1349487304687,110.54641194852934,-100.77367602141913,3887220607
fw,-79.3276062011718,-85.5867385864257,109.75560864147107,-127.77422723272147,3887237274
fw,-80.6928329467773,-83.2506713867187,109.62869103601707,-153.31253232005506,3887253941
fw,-82.7868118286132,-80.3529663085937,108.3551509276716,-175.9364158408317,3887270608
fw,-85.2176666259765,-77.044937133789,104.1847514999509,-194.10832753342982,3887287275
fw,-87.1442642211914,-73.4282302856445,96.14987587248194,-206.34318224444104,3887303942
fw,-87.3944396972656,-69.9132232666015,84.53853600208713,-211.4178468615948,3887320609
fw,-86.6411819458007,-66.3474502563476,70.90232900937802,-208.6301827583713,3887337276
fw,-86.0038452148437,-62.2579040527343,57.58272220271664,-198.04950722591707,3887353943
fw,-85.6181411743164,-58.8999519348144,46.9481245885905,-180.65990113799134,3887370610
fw,-85.2288208007812,-56.7814292907714,40.64672068763804,-158.2900910319383,3887387277
fw,-84.8244171142578,-55.0948829650878,39.148793967508745,-133.28609138842663,3887403944
fw,-84.3933181762695,-53.6331520080566,41.711138949379475,-107.99854758384535,3887420611
fw,-83.6194839477539,-52.5787467956543,46.72555979476941,-84.25148491800712,3887437278
fw,-82.4938201904296,-51.8506507873535,52.284928105216494,-62.97255219340617,3887453945
fw,-81.3437194824218,-51.285717010498,56.75044482569934,-44.101850195992576,3887470612
fw,-80.3560256958007,-50.7848281860351,59.13802103567865,-26.799624979530833,3887487279
fw,-79.5018081665039,-50.4227218627929,59.236516681781374,-9.877878473669984,3887503946
fw,-78.7219848632812,-50.293846130371,57.47684603565742,7.689449722824085,3887520613
fw,-77.9490966796875,-50.3135757446289,54.640099514449886,26.348144556817235,3887537280
fw,-77.1805114746093,-51.0227394104003,51.50876653232538,45.774868044544064,3887553947
fw,-76.4826889038086,-52.7163505554199,48.54660003698947,64.9703682493997,3887570614
fw,-75.8803405761718,-54.498550415039,45.6674741676785,82.57912745438375,3887587281
fw,-75.3252868652343,-56.0176048278808,42.13548720454573,97.29911462731957,3887603948
fw,-74.8273010253906,-57.615062713623,36.623691441718925,108.23644078333365,3887620615
fw,-74.4324874877929,-59.4512519836425,27.436921356694867,115.1176438717152,3887637282
fw,-74.1826934814453,-61.5257835388183,12.871425463575017,118.34094089388753,3887653949
fw,-74.2518081665039,-63.7061309814453,-8.352582828055647,118.87772903690013,3887670616
fw,-74.7175827026367,-65.7791519165039,-36.67702680165779,118.03279418983935,3887687283
fw,-75.6385040283203,-67.3607788085937,-71.41038951398876,117.0801526248677,3887703950
fw,-77.3583297729492,-68.2976837158203,-110.63358437056468,116.8398398831476,3887720617
fw,-79.9059982299804,-69.4429168701171,-151.34964285366723,117.32985673450725,3887737284
fw,-83.1001663208007,-70.7070922851562,-189.86268349069923,117.66104367398795,3887753951
fw,-86.2645645141601,-72.4452590942382,-222.3181805873029,116.29122521554761,3887770618
fw,-87.5213241577148,-74.8102951049804,-245.31024408599274,111.61494651300099,3887787285
fw,-85.0597381591796,-77.4119491577148,-256.46644449979345,102.68997508564067,3887803952
fw,-80.295181274414,-79.3253402709961,-254.9267162356343,89.78444939446945,3887820619
fw,-74.194107055664,-80.2446823120117,-241.60763791624348,74.45927761377042,3887837286
fw,-70.9394760131836,-80.4790954589843,-219.11377476142715,59.101168501889,3887853953
fw,-68.6613311767578,-80.4828720092773,-191.2099054618341,46.09987055499877,3887870620
fw,-66.5365905761718,-80.9291458129882,-161.93750476877005,37.0503346310576,3887887287
fw,-64.7613906860351,-81.8401870727539,-134.64526479225734,32.33400768445685,3887903954
fw,-63.1406517028808,-83.0328063964843,-111.26006373038166,31.216274511746292,3887920621
fw,-61.5837516784668,-84.0978469848632,-92.01663233495564,32.33558603284229,3887937288
fw,-59.9758796691894,-84.9299774169921,-75.68004258291663,34.304996651329375,3887953955
fw,-58.8148765563964,-85.5970077514648,-60.13827480506156,36.155840189105035,3887970622
fw,-58.1184692382812,-86.233657836914,-43.16230412824833,37.4827735718982,3887987289
fw,-57.8033981323242,-86.8461990356445,-23.128783513733985,38.31025358149201,3888003956
fw,-57.5002899169921,-87.2544784545898,0.4550698501496978,38.813010952237356,3888020623
fw,-57.3041954040527,-87.3038330078125,26.73121281769182,39.0484713112722,3888037290
fw,-57.7639427185058,-86.9866256713867,53.63174452212053,38.80798163771239,3888053957
fw,-59.9549522399902,-86.4848098754882,78.36966952111152,37.61127073425781,3888070624
fw,-62.0712165832519,-86.0408706665039,98.16762546826939,34.8026433127434,3888087291
fw,-64.1589660644531,-85.8066101074218,111.01740876366607,29.682362685020742,3888103958
fw,-66.0671920776367,-85.7706604003906,116.24122721759028,21.61985077391606,3888120625
fw,-67.9436645507812,-85.9410781860351,114.70010561887482,10.129380481877618,3888137292
fw,-70.2046813964843,-86.2002182006836,108.61396005064638,-5.076969722504168,3888153959
fw,-71.9612503051757,-86.4718627929687,101.05493045148538,-24.029716964907482,3888170626
fw,-73.1949920654296,-86.8304672241211,95.23290718830462,-46.422299985495464,3888187293
fw,-74.3468780517578,-87.2957153320312,93.72945837123778,-71.53499603882486,3888203960
fw,-75.7166061401367,-87.3872375488281,97.8580826563987,-98.21389459834784,3888220627
fw,-77.6107788085937,-86.199348449707,107.3113384659639,-124.94673749492648,3888237294
fw,-79.5751953125,-83.8697891235351,120.18636687953747,-150.03235518555385,3888253961
fw,-81.648452758789,-80.9959259033203,133.38602904556348,-171.79295355313795,3888270628
fw,-83.7978057861328,-77.7929992675781,143.31435687350134,-188.76376037976047,3888287295
fw,-85.8223342895507,-74.4005432128906,146.73675315361112,-199.82040529503885,3888303962
fw,-87.5072326660156,-71.1163253784179,141.6401305270874,-204.248237141154,3888320629
fw,-86.2857437133789,-67.8879623413086,127.88987598426428,-201.7868702703998,3888337296
fw,-83.362190246582,-64.5744094848632,107.45914512303435,-192.67726779990804,3888353963
fw,-82.1604843139648,-61.5990943908691,84.06054016209575,-177.70125103181869,3888370630
fw,-82.3208312988281,-58.7941589355468,62.189007294690676,-158.1618050621692,3888387297
fw,-83.0309219360351,-56.3478622436523,45.84541258471442,-135.7418756232484,3888403964
fw,-83.3452758789062,-54.6064643859863,37.403003385278566,-112.21671074454622,3888420631
fw,-82.8487091064453,-53.7393760681152,37.05483200603962,-89.06826413595388,3888437298
fw,-81.5233535766601,-53.2869834899902,43.0277464625011,-67.12610952059259,3888453965
fw,-79.674690246582,-52.8378639221191,52.40954280226078,-46.39370574598511,3888470632
fw,-77.6813812255859,-52.2320861816406,62.19431914972411,-26.175691992676146,3888487299
fw,-76.2632293701171,-51.5731201171875,70.11520618526485,-5.502909548102607,3888503966
fw,-75.3959579467773,-51.1074600219726,74.99398994561192,16.290196923527894,3888520633
fw,-74.8733520507812,-51.2821006774902,76.59238414177626,39.0695658144871,3888537300
fw,-74.102424621582,-52.2727355957031,75.1647176212195,61.703203662280586,3888553967
fw,-72.8283462524414,-53.6424903869628,70.98646364669148,82.2582874807516,3888570634
fw,-71.3028869628906,-55.8125381469726,64.05608439254232,98.52964107567587,3888587301
fw,-70.1766815185546,-58.1780090332031,54.018005926725856,108.70625141353939,3888603968
fw,-69.6765747070312,-60.0151786804199,40.24036956352149,111.93938482148884,3888620635
fw,-69.6351013183593,-61.6079940795898,21.96047940223987,108.63037178548146,3888637302
fw,-69.8006362915039,-63.1832466125488,-1.541910157144148,100.37382642596621,3888653969
fw,-70.2310714721679,-64.3814697265625,-30.73823719179177,89.60832468548597,3888670636
fw,-71.096809387207,-65.7401275634765,-65.609169777102,79.08925280544831,3888687303
fw,-72.6393280029296,-66.6940231323242,-105.40386221050002,71.30434391776258,3888703970
fw,-75.0189743041992,-67.4760665893554,-148.47058247712633,67.93574277765161,3888720637
fw,-78.201919555664,-68.003662109375,-192.22654146495603,69.46458444475563,3888737304
fw,-82.2663040161132,-68.6221313476562,-233.30087087073505,75.0161371135626,3888753971
fw,-86.3683776855468,-69.7014923095703,-267.8464536246647,82.52799017718212,3888770638
fw,-88.0413589477539,-71.3373413085937,-291.9993655117592,89.25919956213568,3888787305
fw,-84.7013931274414,-73.4304046630859,-302.4684297333925,92.54362340688553,3888803972
fw,-79.9495162963867,-75.3630676269531,-297.22413411898117,90.57258066009217,3888820639
fw,-73.2415924072265,-77.1100921630859,-276.1799367910536,82.94284757114333,3888837306
fw,-67.6734924316406,-78.5614624023437,-241.63513254869076,70.7709260232047,3888853973
fw,-64.3593368530273,-79.4711608886718,-198.18945349483022,56.33277720403316,3888870640
fw,-62.6214294433593,-80.0332870483398,-151.96775953462608,42.36613267665398,3888887307
fw,-62.0189781188964,-80.3855285644531,-109.28934895697623,31.290393352856338,3888903974
fw,-61.7772102355957,-80.7117691040039,-75.19777321846328,24.610642623143374,3888920641
fw,-61.0846786499023,-81.0804443359375,-52.34676665907545,22.679796414735954,3888937308
fw,-60.078140258789,-81.6004562377929,-40.580573992115696,24.84239783143059,3888953975
fw,-59.0687751770019,-82.4134368896484,-37.266713623770784,29.841385141654744,3888970642
fw,-58.2113876342773,-83.3626327514648,-38.19136974348247,36.29112378023254,3888987309
fw,-57.5787353515625,-84.2694778442382,-38.70837357571231,43.03029149044361,3889003976
fw,-56.9611511230468,-85.0471801757812,-34.842983720380424,49.25355709192011,3889020643
fw,-56.1355857849121,-85.6744155883789,-24.129149767888556,54.43703363642813,3889037310
fw,-55.5646858215332,-86.2355880737304,-6.043585070647432,58.16324336241007,3889053977
fw,-55.6474685668945,-86.7760238647461,18.022988202927355,59.97708317579405,3889070644
fw,-57.1550254821777,-87.0922927856445,45.22798216416897,59.36105759595298,3889087311
fw,-58.8599700927734,-86.9840316772461,72.03675975683294,55.83620194896362,3889103978
fw,-60.692569732666,-86.5959091186523,95.0622156201541,49.12025289319888,3889120645
fw,-62.2312545776367,-86.2482452392578,111.76527708508823,39.2431637503551,3889137312
fw,-63.9714584350585,-86.075698852539,120.88457058159344,26.542690689903996,3889153979
fw,-66.3408737182617,-86.1710128784179,122.57529673386739,11.52402618381087,3889170646
fw,-68.3833541870117,-86.6425857543945,118.29955048452031,-5.361988639799346,3889187313
fw,-70.7038955688476,-87.3023834228515,110.50783708583413,-23.917979902486405,3889203980
fw,-73.0850219726562,-87.755630493164,102.13135945570554,-44.2676481256916,3889220647
fw,-74.2184600830078,-87.8613739013671,95.9215890205923,-66.73197806224607,3889237314
fw,-74.9232482910156,-87.3361892700195,93.74343840060675,-91.53921783613372,3889253981
fw,-75.9235458374023,-86.0883865356445,96.01360314908744,-118.47275658288697,3889270648
fw,-77.239875793457,-84.0748443603515,101.5030490422661,-146.59331014214962,3889287315
fw,-79.0165786743164,-81.4052963256836,107.6390606793372,-174.14704319187985,3889303982
fw,-81.2489624023437,-78.2218856811523,111.26934657356394,-198.71042520195908,3889320649
fw,-83.5827484130859,-74.4733200073242,109.6709630012511,-217.55513242387065,3889337316
fw,-85.7459640502929,-70.3882522583007,101.4800622700762,-228.1601215685052,3889353983
fw,-86.8730697631836,-66.3597640991211,87.22301048200877,-228.75881387775613,3889370650
fw,-86.6309967041015,-62.4910697937011,69.24595034892158,-218.7906936261265,3889387317
fw,-86.5256576538086,-59.1123085021972,51.04160033232488,-199.13456830399892,3889403984
fw,-86.538589477539,-56.2275390625,36.19842005931144,-172.03944826770083,3889420651
fw,-86.6051177978515,-54.0710868835449,27.352297192580846,-140.73588149565978,3889437318
fw,-86.8819046020507,-52.4879341125488,25.516365134885337,-108.79416655018062,3889453985
fw,-87.0549011230468,-51.686180114746,29.992219996452445,-79.37586102453005,3889470652
fw,-86.5130004882812,-51.4741020202636,38.8175006228271,-54.575644212256115,3889487319
fw,-85.3311691284179,-51.0992469787597,49.50703856267252,-35.04675312549282,3889503986
fw,-84.1968078613281,-50.7116012573242,59.77819017366656,-20.030488436004052,3889520653
fw,-83.1697082519531,-50.2425918579101,68.02114083325786,-7.781694929764969,3889537320
fw,-82.1480712890625,-49.8357353210449,73.42658163816945,3.754365853748541,3889553987
fw,-81.1251525878906,-49.7850303649902,75.8331409582978,16.24281539875724,3889570654
fw,-80.1200256347656,-49.8280563354492,75.43977350746165,30.465425236604407,3889587321
fw,-79.0601348876953,-50.2828216552734,72.52846702398702,46.17960563093616,3889603988
fw,-77.8995742797851,-52.0164794921875,67.28762629579037,62.34812616258592,3889620655
fw,-76.7698211669921,-54.0054626464843,59.75574324859927,77.61945191561173,3889637322
fw,-75.8228149414062,-55.6074104309082,49.848825894702394,90.8435066717684,3889653989
fw,-75.0701293945312,-57.09761428833,37.410646273418905,101.40888573739502,3889670656
fw,-74.6677780151367,-58.5797538757324,22.235824494249513,109.29325677668302,3889687323
fw,-74.7265625,-60.262767791748,4.052752186462858,114.86546802995737,3889703990
fw,-75.2701873779296,-61.8284797668457,-17.501600248088327,118.57850086913461,3889720657
fw,-76.3224411010742,-63.4748954772949,-42.85092370492237,120.7064521756992,3889737324
fw,-77.6427383422851,-65.5809707641601,-72.32944728897338,121.22457792501736,3889753991
fw,-79.1879577636718,-67.7167739868164,-105.89300449151216,119.85053748986503,3889770658
fw,-81.1446380615234,-69.3498764038086,-142.74935749978906,116.1967684481886,3889787325
fw,-83.7655258178711,-70.5784225463867,-181.0427128858424,109.95773726936146,3889803992
fw,-86.7965545654296,-71.9353713989257,-217.76037613194487,101.07553273683376,3889820659
fw,-87.9373092651367,-73.6358184814453,-248.9943612628587,89.86148203145424,3889837326
fw,-84.7916564941406,-75.4429779052734,-270.59415362572724,77.0596658393125,3889853993
fw,-79.3778533935546,-76.7658081054687,-279.1104720148385,63.81659609715617,3889870660
fw,-72.6065902709961,-77.2550811767578,-272.78117133184315,51.513526636761895,3889887327
fw,-67.9612579345703,-77.5159301757812,-252.20798904374055,41.46699540621432,3889903994
fw,-64.5779190063476,-78.1319351196289,-220.4104865183812,34.5914472712798,3889920661
fw,-62.4178352355957,-79.1582489013671,-182.1638951894849,31.16922990517176,3889937328
fw,-61.0891380310058,-80.2465515136718,-142.83109698827866,30.83103584665997,3889953995
fw,-59.6954498291015,-81.0210342407226,-107.1008077840819,32.7411376165893,3889970662
fw,-58.1869964599609,-81.7657928466796,-78.03438367345649,35.889502243664026,3889987329
fw,-57.0012893676757,-82.5268249511718,-56.64432633944235,39.371383644595326,3890003996
fw,-56.305320739746,-83.1949081420898,-42.00950756248221,42.57181854271523,3890020663
fw,-55.8270530700683,-83.8836135864257,-31.787635783998603,45.22520503884159,3890037330
fw,-55.4291076660156,-84.6525497436523,-22.94381850919828,47.36254426404872,3890053997
fw,-55.1917762756347,-85.4697952270507,-12.533554674564567,49.18513598712432,3890070664
fw,-55.2012214660644,-86.2291946411132,1.5929416884030234,50.9122412447515,3890087331
fw,-55.1829071044921,-86.7875900268554,20.280308226969805,52.64233978940554,3890103998
fw,-55.3651695251464,-87.12744140625,42.85001758320555,54.25154897437695,3890120665
fw,-56.5935325622558,-87.3687973022461,67.2380832528005,55.34021192968847,3890137332
fw,-58.2658233642578,-87.4854965209961,90.48305440091248,55.23437475087692,3890153999
fw,-60.3583221435546,-87.3690185546875,109.4644740164839,53.04795860302518,3890170666
fw,-62.5719528198242,-87.0243530273437,121.7101374203127,47.80599773099397,3890187333
fw,-64.7779312133789,-86.52294921875,126.06254809717066,38.61609869305841,3890204000
fw,-67.3978500366211,-86.1200561523437,123.02909545132707,24.85800031315924,3890220667
fw,-69.7750854492187,-85.9763031005859,114.71359827157572,6.348061500445686,3890237334
fw,-71.4961395263671,-86.177505493164,104.31798196321654,-16.5653585786646,3890254001
fw,-72.9474792480468,-86.7528533935546,95.30791856943532,-43.00536060238568,3890270668
fw,-73.5835418701171,-87.9050140380859,90.44592534344075,-71.67188174709808,3890287335
fw,-74.2919006347656,-88.7089614868164,90.97283258336083,-101.01973724887684,3890304002
fw,-75.6066360473632,-87.097412109375,96.2129936184038,-129.45309916010868,3890320669
fw,-77.4979705810546,-84.5213165283203,103.76456384271782,-155.47362257100804,3890337336
fw,-79.6483383178711,-81.5972518920898,110.24346942938311,-177.74334545378673,3890354003
fw,-81.9152221679687,-78.4112319946289,112.35672245318904,-195.07096814785925,3890370670
fw,-84.244384765625,-75.0227508544921,107.96679043690293,-206.3775567126785,3890387337
fw,-86.4328994750976,-71.6723709106445,96.80794752838132,-210.71892424973743,3890404004
fw,-87.2227249145507,-68.3286514282226,80.61829328308391,-207.42196066502737,3890420671
fw,-86.9679794311523,-64.58251953125,62.63210700731828,-196.33170626803104,3890437338
fw,-86.7306213378906,-61.0558319091796,46.59628853775051,-178.08376849389492,3890454005
fw,-86.7281646728515,-58.209789276123,35.65562058912185,-154.25399847240624,3890470672
fw,-86.9532241821289,-56.2686157226562,31.501113822492524,-127.24435172205943,3890487339
fw,-87.2936935424804,-54.7004928588867,34.055023943242574,-99.8584962085722,3890504006
fw,-87.193000793457,-54.0379257202148,41.736382832469936,-74.6619158739029,3890520673
fw,-86.1935806274414,-53.9889297485351,52.13072912512383,-53.33621225804865,3890537340
fw,-84.8373031616211,-53.6741371154785,62.771264177038866,-36.26969303163968,3890554007
fw,-83.638069152832,-53.1179771423339,71.7539392271565,-22.556311492852654,3890570674
fw,-82.5031280517578,-52.349739074707,78.02595070423918,-10.422813778657433,3890587341
fw,-81.3589096069336,-51.8099632263183,81.33990828616042,2.0669655717019495,3890604008
fw,-80.1566543579101,-51.4825706481933,81.98188581943845,16.289362206034575,3890620675
fw,-78.8594360351562,-51.4832420349121,80.41972459073448,32.5742235967533,3890637342
fw,-77.6249847412109,-52.6802864074707,76.98934536559287,50.10390179715411,3890654009
fw,-76.5758285522461,-54.4784965515136,71.68416695197052,67.1940275952908,3890670676
fw,-75.710693359375,-55.8500442504882,64.0721452454136,81.81757647483526,3890687343
fw,-74.9632034301757,-57.0779304504394,53.34485020069732,92.17789465141409,3890704010
fw,-74.3266525268554,-58.4391403198242,38.489961209064155,97.17528248150785,3890720677
fw,-73.8559188842773,-59.9379844665527,18.55772004354394,96.69627006800815,3890737344
fw,-73.6774749755859,-61.509220123291,-7.036528692688969,91.71307283493918,3890754011
fw,-74.1484298706054,-63.3439483642578,-38.25154205951808,84.1861906126971,3890770678
fw,-75.3292236328125,-65.0194778442382,-74.27211951690558,76.74784050667714,3890787345
fw,-77.427490234375,-65.7993850708007,-113.50672517754214,72.15854987378744,3890804012
fw,-80.060432434082,-66.4449310302734,-153.71149122609086,72.59991437349537,3890820679
fw,-82.9641952514648,-66.8797912597656,-192.18559659876416,78.97185391050735,3890837346
fw,-85.4882049560546,-67.8540725708007,-225.9884669334246,90.4384246099586,3890854013
fw,-86.0688095092773,-69.3873138427734,-252.17430542393922,104.44452507610202,3890870680
fw,-84.0569992065429,-71.518440246582,-268.09055406996407,117.28715382436177,3890887347
fw,-80.5854568481445,-73.9322814941406,-271.7932583072137,125.1200813994586,3890904014
fw,-74.9770736694336,-76.5121765136718,-262.5583870731382,125.09199753088627,3890920681
fw,-69.5109329223632,-79.240478515625,-241.3342479003374,116.24227166635113,3890937348
fw,-65.9679794311523,-81.4065246582031,-210.8804638203255,99.83421893468683,3890954015
fw,-63.0926933288574,-82.2217864990234,-175.38449301888681,78.9825640837873,3890970682
fw,-60.9857902526855,-81.9991607666015,-139.55233178734406,57.68796803206797,3890987349
fw,-60.2356567382812,-81.5380096435546,-107.42066790838095,39.63589367608138,3891004016
fw,-60.094970703125,-81.3273315429687,-81.2909171370169,27.220148344417527,3891020683
fw,-59.645336151123,-81.5400466918945,-61.17512784115321,21.133414592074825,3891037350
fw,-58.634593963623,-82.1505279541015,-44.979340709976185,20.584618079128855,3891054017
fw,-57.4601135253906,-83.0495452880859,-29.387165317458265,23.920120402301382,3891070684
fw,-56.4614105224609,-83.9715270996093,-11.14406700535585,29.292692793109794,3891087351
fw,-55.873435974121,-84.8039398193359,11.705985283528335,35.083566439457755,3891104018
fw,-55.8223800659179,-85.6108169555664,39.05412194931954,39.974924631166374,3891120685
fw,-57.135986328125,-86.277847290039,68.67354970790416,42.77645359120446,3891137352
fw,-59.8601341247558,-86.7291183471679,96.86616542252679,42.22542758848748,3891154019
fw,-62.3152656555175,-86.8641891479492,119.55789238472168,36.96004957539047,3891170686
fw,-64.6742477416992,-86.5669784545898,133.46631823900074,25.739415053803352,3891187353
fw,-66.742919921875,-86.1231918334961,136.99382345575032,7.83032805134101,3891204020
fw,-69.2994384765625,-85.8991241455078,130.64024516972617,-16.61671158192857,3891220687
fw,-72.1951751708984,-86.066177368164,116.88436366487412,-46.38214204264225,3891237354
fw,-73.5400466918945,-86.3675689697265,99.59500958484347,-79.28199228415305,3891254021
fw,-74.1000366210937,-85.8608093261718,83.11750370028649,-112.54576983075465,3891270688
fw,-74.4782562255859,-83.6813049316406,71.26489141927608,-143.348436598751,3891287355
fw,-75.494873046875,-80.7846527099609,66.48912684434995,-169.32422282837715,3891304022
fw,-77.0765304565429,-77.8485260009765,69.45122018801123,-188.90455924583986,3891320689
fw,-78.808967590332,-74.7758483886718,79.05545050732813,-201.40039944216932,3891337356
fw,-80.5390090942382,-71.5248641967773,92.8510154619576,-206.85545978917804,3891354023
fw,-82.1217727661132,-68.0672836303711,107.62763530892795,-205.77748520568022,3891370690
fw,-83.6644744873046,-64.5501632690429,120.05556024970379,-198.87324927545578,3891387357
fw,-85.2090759277343,-61.3969268798828,127.28726984095391,-186.87509483783583,3891404024
fw,-86.4507217407226,-58.8829727172851,127.47802602675196,-170.4869446286128,3891420691
fw,-86.2133865356445,-56.5181007385253,120.16846492402912,-150.4280230409269,3891437358
fw,-84.7719802856445,-54.3179740905761,106.43359180811493,-127.52324473462325,3891454025
fw,-83.4432983398437,-52.3781394958496,88.69770282972193,-102.77498449135665,3891470692
fw,-82.8149871826171,-50.969425201416,70.18676694372958,-77.3517890083446,3891487359
fw,-83.0599136352539,-50.1464385986328,54.127163788215064,-52.45697672702273,3891504026
fw,-83.279296875,-50.0237617492675,42.93301682206602,-29.097798664348783,3891520693
fw,-82.9231033325195,-50.3735466003418,37.66588707831235,-7.842392628182971,3891537360
fw,-82.064224243164,-50.8811111450195,37.95496758472444,11.312035324201952,3891554027
fw,-80.7353286743164,-51.3633270263671,42.3704496081856,28.86189376561703,3891570694
fw,-79.1178359985351,-51.6089134216308,49.04990164777668,45.50107057030281,3891587361
fw,-77.8223037719726,-51.6789665222168,56.28861579268379,61.71147370107028,3891604028
fw,-76.9972839355468,-52.1686096191406,62.85917985516753,77.42796530754462,3891620695
fw,-76.2113571166992,-53.5345573425293,67.98438839846065,91.95808652271835,3891637362
fw,-75.3466644287109,-55.90962600708,71.06135083388094,104.22268672360028,3891654029
fw,-74.4444351196289,-58.6673965454101,71.33554007610454,113.21143212291449,3891670696
fw,-73.4756698608398,-60.836009979248,67.71637109981363,118.42009706640486,3891687363
fw,-72.4882049560546,-62.3089408874511,58.83789372839908,120.04469286726533,3891704030
fw,-71.5145721435546,-63.4000358581543,43.354868569846424,118.85154329864154,3891720697
fw,-70.9425430297851,-64.8088912963867,20.37281494099466,115.8234975622319,3891737364
fw,-71.0275573730468,-66.4308776855468,-10.13394881754779,111.78177970510687,3891754031
fw,-71.5446166992187,-67.8882369995117,-47.05505300557944,107.15664967454622,3891770698
fw,-72.6848831176757,-69.3722991943359,-88.12045169480287,101.97556166378516,3891787365
fw,-74.7880477905273,-70.5063781738281,-130.14818215735625,96.03133867718836,3891804032
fw,-77.9685516357421,-71.702407836914,-169.51979168797828,89.13126058685056,3891820699
fw,-81.7830276489257,-73.2105331420898,-202.7722333812664,81.3179564548694,3891837366
fw,-85.6306762695312,-74.7099990844726,-227.15543888516277,72.97927896344264,3891854033
fw,-88.8133773803711,-75.6287307739257,-241.022399283789,64.80667318373703,3891870700
fw,-86.768928527832,-75.9911422729492,-243.9921571911764,57.61065651584533,3891887367
fw,-82.6437911987304,-76.4162139892578,-236.90752376681442,52.057127787263795,3891904034
fw,-78.4217910766601,-77.1962432861328,-221.64287453261255,48.432901653552335,3891920701
fw,-75.1586685180664,-78.3055648803711,-200.79850516468247,46.548036172030066,3891937368
fw,-72.4914093017578,-79.5601425170898,-177.2968984746992,45.82079268517693,3891954035
fw,-69.9778366088867,-80.7675628662109,-153.91390715746033,45.50168908927102,3891970702
fw,-67.6833267211914,-81.8407974243164,-132.81787781958008,44.93303557913737,3891987369
fw,-65.9653244018554,-82.7193984985351,-115.20919712979442,43.74114828418978,3892004036
fw,-64.5438385009765,-83.3786315917968,-101.13865133874363,41.90699607153346,3892020703
fw,-63.1980400085449,-83.9498443603515,-89.55256692370375,39.719313260586,3892037370
fw,-61.9538879394531,-84.5105285644531,-78.57609811679326,37.65006285279167,3892054037
fw,-60.8490982055664,-84.994888305664,-65.99889799313688,36.19677542765207,3892070704
fw,-59.8429985046386,-85.4027023315429,-49.87266466198673,35.722998509050676,3892087371
fw,-58.97310256958,-85.7897872924804,-29.08503613705808,36.31755889665825,3892104038
fw,-58.5567550659179,-86.1753616333007,-3.75878066036553,37.69598261065617,3892120705
fw,-58.6125297546386,-86.5240249633789,24.64741804444389,39.17570302949773,3892137372
fw,-59.7980613708496,-86.760757446289,53.586752170187474,39.7532919377616,3892154039
fw,-61.8389472961425,-86.7679595947265,79.9660488165039,38.28581501975114,3892170706
fw,-63.7598838806152,-86.5181732177734,100.83071780475481,33.7357875605306,3892187373
fw,-65.5322875976562,-86.1221771240234,114.00547237838731,25.402166324395516,3892204040
fw,-67.0281906127929,-85.7681198120117,118.54795309110868,13.053145603992643,3892220707
fw,-68.9879302978515,-85.6316146850586,114.95986431964916,-3.0886147652118563,3892237374
fw,-71.1579208374023,-85.7260284423828,105.16008375554908,-22.49269714761636,3892254041
fw,-73.4129333496093,-85.8188247680664,92.22325577494838,-44.51935087991044,3892270708
fw,-75.2691802978515,-85.6143493652343,79.86454795535266,-68.5612177953633,3892287375
fw,-76.3977737426757,-85.1017913818359,71.67695430422255,-94.04967204772659,3892304042
fw,-76.4904632568359,-84.1365585327148,70.23078558572499,-120.32427643224804,3892320709
fw,-76.6831741333007,-82.5302124023437,76.27672122649346,-146.44566451523247,3892337376
fw,-77.5745849609375,-80.0096359252929,88.3552791568974,-171.06898566500766,3892354043
fw,-79.427131652832,-76.8654479980468,103.03236843133928,-192.46658423085722,3892370710
fw,-81.6963348388671,-73.2942123413086,115.76819706651642,-208.71859503389032,3892387377
fw,-83.8344268798828,-69.5114059448242,122.18769192724992,-218.0245235223757,3892404044
fw,-85.9229278564453,-65.7799682617187,119.36814381001227,-219.05733187641147,3892420711
fw,-86.1555480957031,-62.4750442504882,106.74444337374169,-211.28046264288565,3892437378
fw,-84.8229751586914,-59.1155662536621,86.34116838704635,-195.15729198921255,3892454045
fw,-83.874526977539,-56.3538970947265,62.24125476100066,-172.19128986453416,3892470712
fw,-83.6394958496093,-54.2442283630371,39.44685973566784,-144.75309654632312,3892487379
fw,-84.1081466674804,-52.5846443176269,22.496970919466765,-115.69340858019444,3892504046
fw,-84.8291854858398,-51.5744476318359,14.286217998474907,-87.8059567853794,3892520713
fw,-85.2998123168945,-51.0645713806152,15.443949157467477,-63.26678978521581,3892537380
fw,-85.1782989501953,-50.7248191833496,24.4221603365295,-43.20335829537377,3892554047
fw,-84.1633987426757,-50.4109344482421,38.188754416180714,-27.52308116071452,3892570714
fw,-82.6148910522461,-50.0305213928222,53.22219092079023,-15.059712006993232,3892587381
fw,-81.4109191894531,-49.6915016174316,66.43367736452677,-3.9994915213093614,3892604048
fw,-80.4804763793945,-49.5984420776367,75.7324825100175,7.537328145168724,3892620715
fw,-79.6437759399414,-49.6469116210937,80.14817828193301,20.92947222516329,3892637382
fw,-78.7283782958984,-49.8909072875976,79.61942708738297,36.663855079283174,3892654049
fw,-77.6537780761718,-50.6674537658691,74.65178866420041,54.22647428835771,3892670716
fw,-76.4330902099609,-52.1835327148437,66.01354740671356,72.29173181437561,3892687383
fw,-75.3077011108398,-53.877140045166,54.53477505363893,89.13063164624027,3892704050
fw,-74.5444793701171,-55.425006866455,40.98223814285507,103.09189621718983,3892720717
fw,-74.1819458007812,-57.0563049316406,25.952238714791612,113.00686712951985,3892737384
fw,-74.0743560791015,-58.7986755371093,9.753747149412094,118.42537008452301,3892754051
fw,-74.2597579956054,-60.8386077880859,-7.692724713057383,119.66130203894895,3892770718
fw,-74.9317245483398,-62.8077163696289,-26.87950113065737,117.67104944033456,3892787385
fw,-76.006362915039,-64.7093734741211,-48.59869790405189,113.8013590276741,3892804052
fw,-77.2991104125976,-66.4186401367187,-73.66559635163966,109.45027088529339,3892820719
fw,-78.8204040527343,-67.7910461425781,-102.51200219648213,105.7027781856635,3892837386
fw,-80.5231094360351,-68.6590957641601,-134.75221945054818,103.02842703919681,3892854053
fw,-82.9363403320312,-69.5663986206054,-168.87328337483396,101.14353303090266,3892870720
fw,-85.5731430053711,-71.0950164794921,-202.19737601373703,99.12136436397556,3892887387
fw,-86.9559936523437,-72.9968109130859,-231.19810807601635,95.7586368504549,3892904054
fw,-84.90869140625,-75.1363830566406,-252.14730262584038,90.08790065231679,3892920721
fw,-80.7234191894531,-76.6652221679687,-261.959982943075,81.82667249571023,3892937388
fw,-74.5572280883789,-77.6320114135742,-259.01545506453647,71.5554194891598,3892954055
fw,-70.2794113159179,-78.2438278198242,-243.68776073507982,60.540000507237,3892970722
fw,-67.2887496948242,-78.7219696044921,-218.3674520973659,50.29060323565453,3892987389
fw,-64.3222122192382,-79.324234008789,-186.9213942523661,42.068815882358315,3893004056
fw,-61.823486328125,-80.2073822021484,-153.74812932670537,36.55343323946234,3893020723
fw,-60.3241233825683,-81.2270736694336,-122.72269762600648,33.77257165878675,3893037390
fw,-59.3569793701171,-82.1592330932617,-96.33427302161435,33.274396069138035,3893054057
fw,-58.3575859069824,-82.9078750610351,-75.24007262229676,34.41132808105979,3893070724
fw,-57.2603607177734,-83.5599365234375,-58.33670698318798,36.5907002080107,3893087391
fw,-56.3092041015625,-84.2197265625,-43.307620531159074,39.39318901942911,3893104058
fw,-55.5499572753906,-84.8992691040039,-27.473325969339335,42.54107238758046,3893120725
fw,-55.0988273620605,-85.5883865356445,-8.694510386762898,45.76709041324817,3893137392
fw,-55.0402107238769,-86.2272186279296,13.919887093791468,48.665433425767795,3893154059
fw,-55.4022598266601,-86.6808776855468,39.67985426955882,50.59852387564756,3893170726
fw,-56.3433570861816,-86.9115524291992,66.43293413738573,50.702056833224425,3893187393
fw,-58.1807136535644,-86.9588928222656,91.09501341037696,47.99319355055144,3893204060
fw,-60.4394302368164,-86.8874969482421,110.44712551861477,41.55331660155629,3893220727
fw,-62.8994026184082,-86.7455673217773,121.97887004973511,30.732430146202574,3893237394
fw,-65.0405731201171,-86.6420593261718,124.54716803642205,15.312211693001858,3893254061
fw,-67.1574096679687,-86.7291793823242,118.67828161313835,-4.4251902713852544,3893270728
fw,-69.3794021606445,-87.1458358764648,106.44776777953733,-27.744217416548505,3893287395
fw,-70.6494979858398,-87.6387634277343,90.98692772492934,-53.59736420547437,3893304062
fw,-71.3147735595703,-87.5548782348632,75.75831776409109,-80.80310641237179,3893320729
fw,-71.6708221435546,-86.2467346191406,63.80408078851679,-108.18995554300461,3893337396
fw,-72.5838928222656,-84.1953582763671,57.17726110997755,-134.65433982394788,3893354063
fw,-73.8634262084961,-81.8437271118164,56.693952515608224,-159.12201887797073,3893370730
fw,-75.4099578857421,-79.1729660034179,62.01013226458015,-180.4538439615335,3893387397
fw,-77.0518417358398,-76.0512161254882,71.90170362000319,-197.3758245364699,3893404064
fw,-78.4120788574218,-72.3955535888671,84.58299456505902,-208.51724630739204,3893420731
fw,-79.7110900878906,-68.5259933471679,97.95476986204773,-212.59727418663164,3893437398
fw,-81.1164169311523,-64.5594940185546,109.77934141097569,-208.72464773249652,3893454065
fw,-82.4851150512695,-61.0112533569335,117.86367985535232,-196.70493402043195,3893470732
fw,-83.9365463256836,-58.4037818908691,120.34051575893585,-177.2263730428552,3893487399
fw,-85.4692306518554,-56.238842010498,116.06731796787037,-151.83613522552474,3893504066
fw,-86.3467102050781,-54.1789894104003,105.0490574829887,-122.70126708042272,3893520733
fw,-85.6462097167968,-52.8440628051757,88.69410592070763,-92.224136643758,3893537400
fw,-84.9393005371093,-52.128189086914,69.70407568754605,-62.617718086285684,3893554067
fw,-85.350845336914,-51.7884826660156,51.51950857829133,-35.5450302423687,3893570734
fw,-86.0474014282226,-51.7200317382812,37.45462962301379,-11.905209817949414,3893587401
fw,-86.0385971069336,-51.8599853515625,29.830540194275702,8.18940580303902,3893604068
fw,-85.3473968505859,-52.2533988952636,29.43079106023191,25.250698342959247,3893620735
fw,-84.4514389038086,-53.1348342895507,35.441115673513266,40.117007853176126,3893637402
fw,-83.3947296142578,-53.9407234191894,45.81015312206419,53.59587954772088,3893654069
fw,-82.1494216918945,-54.4253540039062,57.8201281511633,66.1340754394351,3893670736
fw,-80.9845504760742,-55.1835670471191,68.64264777742807,77.60987026856334,3893687403
fw,-79.8775024414062,-56.3886184692382,75.73847738223161,87.33701650961625,3893704070
fw,-78.6490020751953,-58.1502838134765,77.0707207411655,94.31994639384604,3893720737
fw,-77.4179992675781,-60.232494354248,71.18223325413058,97.70099314664752,3893737404
fw,-76.4883575439453,-61.9381217956543,57.21574521937331,97.24036973409555,3893754071
fw,-75.989631652832,-63.1921653747558,34.93683254047569,93.63313500816858,3893770738
fw,-75.9731674194336,-65.0228958129882,4.7821236022388725,88.51663864432486,3893787405
fw,-76.3267440795898,-66.6753921508789,-32.079809916643974,84.1236798943065,3893804072
fw,-77.3558578491211,-67.2357864379882,-73.71165335498124,82.64736924546203,3893820739
fw,-79.230712890625,-67.593032836914,-117.44170985898167,85.48665550561526,3893837406
fw,-81.7859878540039,-67.9949722290039,-160.0078332850569,92.62313646681626,3893854073
fw,-84.3259124755859,-69.1063690185546,-197.82487552483536,102.39594559825107,3893870740
fw,-85.9197540283203,-70.9868850708007,-227.36654830361994,111.84361144218481,3893887407
fw,-85.3777236938476,-73.6744537353515,-245.64297706265162,117.57564420239663,3893904074
fw,-82.6401138305664,-76.6625671386718,-250.74127564750808,116.90116161403454,3893920741
fw,-77.4020690917968,-79.2529067993164,-242.34402125019798,108.79191604069288,3893937408
fw,-72.4599227905273,-80.8740310668945,-222.05471151793628,94.28217176304722,3893954075
fw,-69.7802352905273,-81.5159835815429,-193.3191505463623,76.12123067830802,3893970742
fw,-67.5190734863281,-81.5513381958007,-160.82782270891155,57.81364242223731,3893987409
fw,-65.7164916992187,-81.6820449829101,-129.50045917076847,42.45481434644737,3894004076
fw,-64.8452377319336,-82.1509475708007,-103.3532666031245,31.848606912626497,3894020743
fw,-63.8876762390136,-82.6677627563476,-84.60639442767742,26.232790324404192,3894037410
fw,-62.6736106872558,-83.2057800292968,-73.29396419724854,24.634352085189935,3894054077
fw,-61.3000259399414,-83.947998046875,-67.46112448701246,25.60049451989514,3894070744
fw,-60.0041809082031,-84.7650146484375,-63.84986848148483,27.9295180952171,3894087411
fw,-58.7153205871582,-85.5658416748046,-58.848496391988164,31.082423479770075,3894104078
fw,-57.8077583312988,-86.3983154296875,-49.4404303470646,35.136859683090925,3894120745
fw,-56.9590148925781,-87.1393966674804,-33.92749841301084,40.362224573073576,3894137412
fw,-56.3250999450683,-87.7097091674804,-12.285236076539817,46.65580679001124,3894154079
fw,-56.4840965270996,-88.0766525268554,13.897476972467498,53.12072226780844,3894170746
fw,-57.8997116088867,-88.0550918579101,41.846328810680866,57.98324775136371,3894187413
fw,-59.4604454040527,-87.3990173339843,68.26082515040076,58.892890023532644,3894204080
fw,-61.0093879699707,-86.3946304321289,90.01797736615849,53.49545216237466,3894220747
fw,-62.1945266723632,-85.561782836914,104.75519809967946,40.07485307277222,3894237414
fw,-63.7897605895996,-85.2291107177734,111.25153424585015,18.05080352688968,3894254081
fw,-65.9831161499023,-85.4545516967773,109.60786928464456,-11.811341650888128,3894270748
fw,-68.2758102416992,-86.1968688964843,101.24523651001974,-47.514125930595306,3894287415
fw,-70.3160858154296,-87.4226837158203,88.70669256540334,-86.2022250884225,3894304082
fw,-71.6028442382812,-88.3206558227539,75.23280522346496,-124.67665467850233,3894320749
fw,-71.7439956665039,-86.31103515625,64.13734513949964,-159.91251822579022,3894337416
fw,-72.0094909667968,-83.0007781982421,58.11520238336025,-189.45964247234733,3894354083
fw,-73.077880859375,-79.5252380371093,58.683700707952305,-211.6479876445384,3894370750
fw,-74.5999679565429,-75.9048919677734,65.92076070324337,-225.58734869650664,3894387417
fw,-76.4404830932617,-72.0977706909179,78.53473312713632,-231.02587343175924,3894404084
fw,-78.0467453002929,-68.2570266723632,94.17575081492646,-228.17774358872146,3894420751
fw,-79.563720703125,-64.5012283325195,109.86187923015758,-217.6172830572629,3894437418
fw,-81.0414810180664,-60.5415611267089,122.44504756517853,-200.26906101110683,3894454085
fw,-82.7536544799804,-57.6964263916015,129.10944207360583,-177.44191933258958,3894470752
fw,-84.4246597290039,-55.4630622863769,127.9059860678774,-150.81331644813818,3894487419
fw,-85.7593307495117,-53.593391418457,118.26420167525933,-122.29717969136644,3894504086
fw,-85.9599838256836,-52.1853904724121,101.33298588837339,-93.799389613452,3894520753
fw,-85.2780990600586,-51.343334197998,79.96062442867064,-66.92705390897838,3894537420
fw,-85.0933609008789,-50.7850112915039,58.19181746739508,-42.73998592493803,3894554087
fw,-85.2982635498046,-50.3885765075683,40.334675097546736,-21.619770246621627,3894570754
fw,-85.3740768432617,-50.4905624389648,29.85184428727062,-3.2983839405718673,3894587421
fw,-85.2649307250976,-50.9341926574707,28.437190848495774,12.954044981136878,3894604088
fw,-85.0339889526367,-51.3406829833984,35.584447470798274,28.024308252204914,3894620755
fw,-84.3758697509765,-51.6347427368164,48.77097188281917,42.61050087367323,3894637422
fw,-82.9427337646484,-52.3441200256347,64.16517419714964,56.934164211892316,3894654089
fw,-81.0535507202148,-53.4759521484375,77.60741636866084,70.6043270550928,3894670756
fw,-79.369270324707,-54.7522201538085,85.5570406461838,82.68534210997052,3894687423
fw,-78.0177307128906,-56.1425628662109,85.75071061980512,91.95332884695978,3894704090
fw,-76.8553390502929,-57.6963348388671,77.4493357640975,97.26717776066938,3894720757
fw,-75.9026260375976,-59.6877059936523,61.29808751170107,97.95171282240868,3894737424
fw,-75.2350311279296,-60.9070777893066,38.92229899785164,94.09220715834165,3894754091
fw,-75.0222930908203,-62.1311798095703,12.409820118053075,86.66293427509802,3894770758
fw,-75.5281524658203,-63.4669914245605,-16.187872505020785,77.44958256092121,3894787425
fw,-76.5599060058593,-64.8634567260742,-45.23308174606603,68.76349130114798,3894804092
fw,-78.0454330444336,-65.6786575317382,-73.68381369804985,62.978794205028905,3894820759
fw,-79.6446533203125,-66.3218688964843,-101.04540396029591,61.9635087899702,3894837426
fw,-81.3247985839843,-66.7678833007812,-127.11732874412803,66.52997645707521,3894854093
fw,-83.275390625,-67.4308853149414,-151.6306578528355,76.07468184073707,3894870760
fw,-85.3210296630859,-68.7128067016601,-173.92004505481182,88.56886171494428,3894887427
fw,-86.6317520141601,-70.631721496582,-192.77328065304866,100.97472716416492,3894904094
fw,-85.8583068847656,-72.9818267822265,-206.54731488760729,110.01631771875084,3894920761
fw,-83.177864074707,-75.2984390258789,-213.54990597295594,113.08801050518147,3894937428
fw,-78.936050415039,-77.6352233886718,-212.58425835188143,109.00661450023404,3894954095
fw,-74.9533081054687,-79.6936111450195,-203.46847686595027,98.3441256004621,3894970762
fw,-71.9994049072265,-80.7645645141601,-187.31437891033568,83.21111589808581,3894987429
fw,-69.1060714721679,-81.1753692626953,-166.41587261757107,66.55550513030059,3895004096
fw,-66.3945922851562,-81.2072372436523,-143.73766359069774,51.233325225040495,3895020763
fw,-65.0014953613281,-81.4243927001953,-122.14301057467412,39.20979810329397,3895037430
fw,-64.3016891479492,-81.8956527709961,-103.59808816080019,31.189685018898864,3895054097
fw,-63.3714523315429,-82.5316619873046,-88.61929278357009,26.768704790520275,3895070764
fw,-62.0704498291015,-83.3305892944336,-76.17315297394762,24.954812062195533,3895087431
fw,-60.6287498474121,-84.2372741699218,-64.09080430009924,24.763769479430277,3895104098
fw,-59.2772941589355,-85.1092376708984,-49.86813202002423,25.61076345134354,3895120765
fw,-58.4439010620117,-85.9081115722656,-31.579940312242375,27.362812818692706,3895137432
fw,-57.9062614440918,-86.588264465332,-8.606163221684742,30.092744812281968,3895154099
fw,-57.6793899536132,-87.0638885498046,18.053856296653887,33.698403136706546,3895170766
fw,-58.5757446289062,-87.3739318847656,45.96345778478968,37.58221920743363,3895187433
fw,-60.6531105041503,-87.6133728027343,71.85726345561073,40.53792587726477,3895204100
fw,-62.561595916748,-87.6891174316406,92.47649120059413,40.89856693386447,3895220767
fw,-64.4795379638671,-87.4202575683593,105.37023423166788,36.89898082970255,3895237434
fw,-65.9613647460937,-87.0520477294921,109.44093359059072,27.127773234890423,3895254101
fw,-67.8417358398437,-86.9666900634765,105.1265830597886,10.91457551957225,3895270768
fw,-69.8145065307617,-87.2532730102539,94.22956297035114,-11.47122214290599,3895287435
fw,-71.357421875,-87.8396072387695,79.46912225745055,-38.85977522796738,3895304102
fw,-72.3731384277343,-88.3650588989257,63.86094640369914,-69.42432997374651,3895320769
fw,-72.5061340332031,-87.5120239257812,50.053408551050396,-101.03488364584008,3895337436
fw,-72.4287872314453,-85.1971130371093,39.78470790472542,-131.6049139749034,3895354103
fw,-72.9046096801757,-82.5296630859375,33.62750292521261,-159.32978962036182,3895370770
fw,-73.7836227416992,-79.6221389770507,31.11324186383421,-182.76617279015068,3895387437
fw,-74.8060531616211,-76.517333984375,31.186951103530177,-200.77439365962482,3895404104
fw,-75.8379211425781,-73.0940856933593,32.806518605643774,-212.41007532267176,3895420771
fw,-76.6658020019531,-69.3579025268554,35.44683342011543,-216.87179726451708,3895437438
fw,-77.3398208618164,-65.4742431640625,39.322046448140526,-213.5735699876539,3895454105
fw,-78.0852661132812,-61.4394798278808,45.25977489959541,-202.33265660039103,3895470772
fw,-78.9173431396484,-58.6053466796875,54.287445185216335,-183.58740320329605,3895487439
fw,-79.7552719116211,-56.3181838989257,67.07891465949649,-158.53049557358676,3895504106
fw,-80.7442855834961,-54.16304397583,83.44571522144079,-129.0750167538831,3895520773
fw,-81.9890899658203,-52.3875350952148,102.04722907189725,-97.63422027136674,3895537440
fw,-83.5328903198242,-51.3144493103027,120.44472265527466,-66.74977403402373,3895554107
fw,-85.29248046875,-50.9751014709472,135.5397416904256,-38.63876412690236,3895570774
fw,-86.9071197509765,-51.1631851196289,144.3269263411699,-14.762359395222,3895587441
fw,-86.6112365722656,-51.7809944152832,144.77425001439428,4.455089780271059,3895604108
fw,-83.8976135253906,-52.42626953125,136.55243271371012,19.63894138551838,3895620775
fw,-81.0011672973632,-52.737621307373,121.31615550333507,32.162389082450915,3895637442
fw,-79.3138046264648,-52.8708343505859,102.3389566108748,43.599595685938255,3895654109
fw,-78.986099243164,-53.2998466491699,83.52737202746128,55.11516656748827,3895670776
fw,-79.2355346679687,-54.280029296875,68.11360208056495,67.01538649614129,3895687443
fw,-79.258544921875,-55.8253326416015,57.510179185583716,78.62952620239012,3895704110
fw,-78.8593292236328,-57.6351051330566,50.78668357757018,88.55613540902043,3895720777
fw,-77.7666397094726,-59.3768768310546,44.990635708853645,95.17046860363591,3895737444
fw,-76.1341934204101,-60.7893753051757,36.19440806821215,97.21175082302449,3895754111
fw,-74.390754699707,-62.1045494079589,20.86447929724106,94.27160846577257,3895770778
fw,-73.5773773193359,-63.4380340576171,-2.96102327895523,87.05722840074343,3895787445
fw,-74.2994232177734,-65.1692657470703,-35.09473259166761,77.36244970967459,3895804112
fw,-76.1520767211914,-66.1336441040039,-73.35937726370368,67.7323961384781,3895820779
fw,-78.7502365112304,-66.6406478881836,-114.31286396624085,60.86893423975869,3895837446
fw,-81.7330017089843,-66.9962387084961,-154.17072659499976,58.9064639477309,3895854113
fw,-84.5042419433593,-67.4833984375,-189.55471987140083,62.762578698313895,3895870780
fw,-86.3607864379882,-68.452651977539,-217.86313158251036,71.78350698162943,3895887447
fw,-86.2365188598632,-70.021499633789,-237.28964702290364,83.83057665176571,3895904114
fw,-84.0397720336914,-71.9035339355468,-246.69077101839602,95.8124283805689,3895920781
fw,-80.6040115356445,-73.8615264892578,-245.53268096077585,104.51668637941002,3895937448
fw,-75.1781387329101,-76.1389770507812,-234.02760999383693,107.49421245932109,3895954115
fw,-70.8828201293945,-78.5383605957031,-213.37550889147354,103.72938912738235,3895970782
fw,-68.1254959106445,-80.5528793334961,-185.89258059880427,93.8886843067229,3895987449
fw,-65.6695175170898,-81.7329788208007,-154.83317413387684,80.06211401170472,3896004116
fw,-63.4273223876953,-82.2289047241211,-123.86965928198558,65.07727511296164,3896020783
fw,-62.1501579284668,-82.2265853881836,-96.36261775489606,51.626719329867676,3896037450
fw,-61.6191520690918,-82.2688674926757,-74.63789792775803,41.53091870155048,3896054117
fw,-61.0207824707031,-82.6967391967773,-59.48550336277191,35.4014253443688,3896070784
fw,-60.2372283935546,-83.5374374389648,-50.03560591517692,32.785246013877014,3896087451
fw,-59.270652770996,-84.5295486450195,-44.06000188012352,32.65452312492421,3896104118
fw,-58.2973327636718,-85.4097824096679,-38.61569071064153,33.97131590350617,3896120785
fw,-57.5454978942871,-86.1371536254882,-30.842924112886777,36.06934546861457,3896137452
fw,-57.2259178161621,-86.7721481323242,-18.697430999618078,38.72662029369015,3896154119
fw,-56.9256591796875,-87.2856750488281,-1.436994108464531,41.96595882862292,3896170786
fw,-56.8318290710449,-87.5899505615234,20.23669541579764,45.729789793976934,3896187453
fw,-57.7477264404296,-87.6708984375,44.39080715995981,49.59816495329422,3896204120
fw,-59.6868515014648,-87.4542388916015,68.35233421953109,52.671376714622234,3896220787
fw,-61.5221290588378,-86.9024429321289,89.32724068660508,53.657895893077274,3896237454
fw,-63.2234230041503,-86.1684036254882,104.97005615531961,51.129065786408816,3896254121
fw,-64.5308074951171,-85.4577407836914,113.77532155780776,43.848658313319376,3896270788
fw,-66.2551345825195,-84.9014205932617,115.2643399164807,31.07018126129394,3896287455
fw,-68.2701416015625,-84.6728897094726,110.02006252433813,12.716041893445352,3896304122
fw,-70.3124389648437,-84.8604278564453,99.6240463117071,-10.602321948207337,3896320789
fw,-72.3511886596679,-85.3918533325195,86.49136219783617,-37.71259694017844,3896337456
fw,-73.9798049926757,-86.2025375366211,73.55325463965231,-67.10510210561402,3896354123
fw,-74.4760131835937,-86.9422607421875,63.76016495306316,-97.17692516285942,3896370790
fw,-74.9110336303711,-86.5090713500976,59.467136788074605,-126.42432003237872,3896387457
fw,-75.6738052368164,-84.7750167846679,61.859596097908664,-153.53591969294163,3896404124
fw,-76.9130096435546,-82.3279342651367,70.60593016528077,-177.38138913679433,3896420791
fw,-78.4964370727539,-79.4133682250976,83.85785101743974,-196.93652066866505,3896437458
fw,-80.1599349975586,-75.9841613769531,98.60522352325704,-211.21573740629748,3896454125
fw,-81.8170318603515,-72.2592239379882,111.29907134437653,-219.27938728796906,3896470792
fw,-83.4675750732421,-68.5642623901367,118.61614449806149,-220.34624613328,3896487459
fw,-85.1174163818359,-64.9255142211914,118.22913306193108,-213.98876080371852,3896504126
fw,-86.7966766357421,-61.2208442687988,109.43192503945758,-200.34206178778805,3896520793
fw,-86.4838714599609,-58.4469871520996,93.44573606080083,-180.2359421629968,3896537460
fw,-85.6116180419921,-56.2996673583984,73.24689057378293,-155.1741646566606,3896554127
fw,-85.6304016113281,-54.0682830810546,52.870767895844736,-127.13515201493671,3896570794
fw,-86.2327804565429,-52.2416954040527,36.352723802796554,-98.227868712358,3896587461
fw,-86.7390747070312,-51.5461349487304,26.656115392492534,-70.2814434619074,3896604128
fw,-86.6302413940429,-51.5244827270507,24.971980822086024,-44.47633429636005,3896620795
fw,-85.8633193969726,-51.5427665710449,30.612492626471315,-21.141978779282173,3896637462
fw,-84.5436096191406,-51.5484886169433,41.45540168965867,0.17378872949237445,3896654129
fw,-83.0628509521484,-51.5903854370117,54.68181640274148,20.341537618333966,3896670796
fw,-81.8150177001953,-51.7045707702636,67.48677268421972,40.09678789464625,3896687463
fw,-80.7159576416015,-52.0400047302246,77.53318178035707,59.50375477850024,3896704130
fw,-79.6366958618164,-52.4594573974609,83.08921604429665,77.66941968301653,3896720797
fw,-78.4786682128906,-53.9837074279785,82.94002039289468,92.86781847827544,3896737464
fw,-77.3331832885742,-56.8634796142578,76.23210188132246,103.07752150835567,3896754131
fw,-76.445571899414,-59.1891708374023,62.38588608927539,106.75112930971115,3896770798
fw,-75.7817764282226,-60.611701965332,41.13619147349989,103.51898524017076,3896787465
fw,-75.3705520629882,-62.0754699707031,12.678280794688838,94.55460183429328,3896804132
fw,-75.4428024291992,-63.1320114135742,-22.160365978194402,82.47384409925264,3896820799
fw,-76.1883010864257,-64.4799728393554,-61.82069388097038,70.80125298869463,3896837466
fw,-77.9036102294921,-65.3009185791015,-104.05737728163213,63.13946040388506,3896854133
fw,-80.5384521484375,-65.5505065917968,-146.13920476697467,62.22838749014671,3896870800
fw,-83.7224655151367,-65.9128952026367,-185.14531278486464,69.11708879432092,3896887467
fw,-86.4096984863281,-66.5023422241211,-218.2613211250761,82.69159847961,3896904134
fw,-86.4528732299804,-67.6779556274414,-243.004326789163,99.7644060021791,3896920801
fw,-84.0875244140625,-69.7063674926757,-257.38175714117165,115.80048349853037,3896937468
fw,-80.8259658813476,-72.4631958007812,-260.060918519252,126.14773608231785,3896954135
fw,-76.191162109375,-75.5468444824218,-250.6246799644415,127.42752169008763,3896970802
fw,-71.1806945800781,-78.7971496582031,-229.88941724982163,118.6186260221264,3896987469
fw,-67.3399353027343,-81.2586212158203,-200.1248192861957,101.41330303580406,3897004136
fw,-64.1773834228515,-82.3498382568359,-164.9563265120891,79.65872424092024,3897020803
fw,-62.0440597534179,-82.1398315429687,-128.8208052278249,58.057599714933374,3897037470
fw,-61.2978477478027,-81.5405578613281,-96.04534937724351,40.63191770389399,3897054137
fw,-61.311466217041,-81.5056762695312,-69.81609932970456,29.56794458435997,3897070804
fw,-61.0533752441406,-81.8897628784179,-51.39583974764444,24.873166330898997,3897087471
fw,-60.3059196472168,-82.6659469604492,-39.88634698915547,24.885838272088105,3897104138
fw,-59.3039512634277,-83.7198333740234,-32.634000855583615,27.303859589938984,3897120805
fw,-58.3137092590332,-84.9237976074218,-26.135248935129546,30.224958946523653,3897137472
fw,-57.6106262207031,-85.8632278442382,-17.127191100361433,32.76483367665574,3897154139
fw,-57.3308334350585,-86.5825881958007,-3.5146181209451455,35.07026053299142,3897170806
fw,-57.1014404296875,-87.1441268920898,15.124632370052055,37.833357834798655,3897187473
fw,-57.5661125183105,-87.5908432006836,37.559171235977395,41.607747322378735,3897204140
fw,-59.4066696166992,-87.9722290039062,61.38851949885045,46.257515959729425,3897220807
fw,-61.6255874633789,-88.0113143920898,83.79786451983885,50.755892705144156,3897237474
fw,-63.5903129577636,-87.4732284545898,102.31829288668595,53.37424911225527,3897254141
fw,-65.0004653930664,-86.6076583862304,115.36018675508991,52.14898482689292,3897270808
fw,-66.5275573730468,-85.7648391723632,122.41656316523543,45.43364250583996,3897287475
fw,-68.9875564575195,-85.2428894042968,123.98107101746608,32.344999472373836,3897304142
fw,-70.9344940185546,-85.2236557006836,121.29989213201483,12.976760584399168,3897320809
fw,-72.9051208496093,-85.6061325073242,116.05695976089008,-11.649573244928005,3897337476
fw,-75.498306274414,-86.2855377197265,110.03373030385119,-39.83839300533602,3897354143
fw,-77.4328689575195,-87.162483215332,104.75187212562989,-69.5703353447679,3897370810
fw,-78.2882537841796,-87.8907623291015,101.12516060761024,-98.8406342623042,3897387477
fw,-79.116714477539,-87.1455612182617,99.20361799105406,-125.90984085995936,3897404144
fw,-80.3952102661132,-85.0784072875976,98.13859400443248,-149.434502008113,3897420811
fw,-82.3868637084961,-82.4400482177734,96.46333212605431,-168.48390020332533,3897437478
fw,-84.6312255859375,-79.4907150268554,92.65122803249787,-182.47794464593625,3897454145
fw,-86.8087997436523,-76.3385696411132,85.75627146749109,-191.09813889234252,3897470812
fw,-88.5523376464843,-73.1445617675781,75.86538903180904,-194.22494867871373,3897487479
fw,-88.645637512207,-70.0249481201171,64.15639878290655,-191.9387729499824,3897504146
fw,-88.2669830322265,-66.6593933105468,52.52887013204096,-184.58770279287663,3897520813
fw,-88.1116638183593,-63.2466239929199,42.9685766882849,-172.87805453246636,3897537480
fw,-87.9616394042968,-60.4864425659179,36.91801297919458,-157.90342073655617,3897554147
fw,-87.5745697021484,-58.5386695861816,34.900140972134906,-141.03005613994264,3897570814
fw,-87.0049362182617,-56.9758605957031,36.50539809303667,-123.62078658874202,3897587481
fw,-86.1692199707031,-55.5939788818359,40.68658103991043,-106.67664066032707,3897604148
fw,-85.2112808227539,-54.4112510681152,46.1947014878926,-90.54086842034965,3897620815
fw,-84.2496719360351,-53.3082008361816,51.96877836117855,-74.8016208194993,3897637482
fw,-83.3348770141601,-52.3102264404296,57.35131465270437,-58.45700843899251,3897654149
fw,-82.4277267456054,-51.5293731689453,62.09514893601526,-40.3096525359045,3897670816
fw,-81.4533920288086,-50.9259223937988,66.20794947081968,-19.475104411177895,3897687483
fw,-80.3386306762695,-50.6260833740234,69.71888928915122,4.156898571838582,3897704150
fw,-79.1687316894531,-50.7506675720214,72.44907440387045,29.6672061814505,3897720817
fw,-78.0581588745117,-51.2653350830078,73.84468798843318,55.16671605416749,3897737484
fw,-77.0413818359375,-52.6724586486816,72.91109962950868,78.18782715276903,3897754151
fw,-76.0354461669921,-55.3237991333007,68.27303172800625,96.31041552949756,3897770818
fw,-75.0888977050781,-57.3397178649902,58.37010452611486,107.82578842663344,3897787485
fw,-74.3109664916992,-58.6935119628906,41.76776014228214,112.21584276903839,3897804152
fw,-73.8172912597656,-60.1888923645019,17.524389020741705,110.301529306326,3897820819
fw,-73.8544845581054,-61.9384994506835,-14.474952770648944,104.04823357753146,3897837486
fw,-74.6887969970703,-63.6384773254394,-53.3100590169512,96.1141143261377,3897854153
fw,-76.2375869750976,-65.0299606323242,-97.00240996468875,89.25040392151892,3897870820
fw,-78.6369094848632,-65.8097229003906,-142.6840157112396,85.6533911829655,3897887487
fw,-81.958267211914,-66.3599472045898,-186.9123012077577,86.38288063673413,3897904154
fw,-85.6937026977539,-66.9405136108398,-226.05400154101991,91.00185422411863,3897920821
fw,-87.7062911987304,-68.1643905639648,-256.6651648671062,97.60382538613365,3897937488
fw,-85.2036361694336,-70.0587844848632,-275.83522708544683,103.31986440592944,3897954155
fw,-81.5831527709961,-72.7020797729492,-281.51681151712444,105.22594448846834,3897970822
fw,-76.9389190673828,-75.5043106079101,-272.8775156146013,101.36885198794837,3897987489
fw,-71.107063293457,-77.8069152832031,-250.64472389533796,91.51357976366982,3898004156
fw,-66.9696502685546,-79.2700653076171,-217.3005217071654,77.28206120695928,3898020823
fw,-63.9811706542968,-79.9324874877929,-176.92741691043344,61.59888530428762,3898037490
fw,-61.9047164916992,-79.8494873046875,-134.5938854405751,47.668025268984096,3898054157
fw,-61.0936851501464,-79.8755645751953,-95.36991751361872,37.91162374702389,3898070824
fw,-60.9565773010253,-80.2808303833007,-63.249592299718415,33.29747166282285,3898087491
fw,-60.6402244567871,-81.11767578125,-40.321618885947615,33.27699548883679,3898104158
fw,-59.9828987121582,-82.1547698974609,-26.445521297506634,36.26943105917445,3898120825
fw,-59.4014167785644,-83.213752746582,-19.50911006855134,40.40869809424476,3898137492
fw,-58.9171104431152,-84.1686782836914,-16.149535848877882,44.209961867237254,3898154159
fw,-58.5632247924804,-84.9909744262695,-12.69779965930813,46.91319883708254,3898170826
fw,-58.2769660949707,-85.6796798706054,-6.0850540142821945,48.44748680859647,3898187493
fw,-57.9226951599121,-86.2407913208007,5.498680950600841,49.13231420691927,3898204160
fw,-57.965030670166,-86.7462844848632,22.318387177864896,49.315375846594236,3898220827
fw,-59.0810089111328,-87.1135101318359,43.208912755191925,49.12090507975543,3898237494
fw,-60.8451271057128,-87.1305084228515,66.01522512051403,48.38532773341643,3898254161
fw,-62.70894241333,-86.7865524291992,88.19286833302927,46.750802371195675,3898270828
fw,-64.6324081420898,-86.3207550048828,107.37345212689229,43.823079900261384,3898287495
fw,-65.9270629882812,-85.8802490234375,121.75683483569668,39.29485949526477,3898304162
fw,-67.8771667480468,-85.5545959472656,130.30234094782082,32.97506059057865,3898320829
fw,-70.473892211914,-85.3751831054687,132.77819403670367,24.72167153546097,3898337496
fw,-72.7685241699218,-85.3739929199218,129.73587995895784,14.327978091337673,3898354163
fw,-75.1313247680664,-85.4281311035156,122.42171397729192,1.4416512048232144,3898370830
fw,-77.4976806640625,-85.4054412841796,112.58935675025702,-14.40998636932399,3898387497
fw,-78.963996887207,-85.2666625976562,102.18510908953768,-33.66020563266733,3898404164
fw,-79.8330688476562,-85.0313110351562,92.94047633698416,-56.447451385798374,3898420831
fw,-80.9462051391601,-84.8975448608398,85.98175258173873,-82.35929058699718,3898437498
fw,-82.104751586914,-84.5784072875976,81.59863261491536,-110.28553382631337,3898454165
fw,-83.3723220825195,-83.4841918945312,79.26938181320922,-138.45461563179126,3898470832
fw,-84.7277221679687,-81.4252166748046,77.93861228363959,-164.65878012184842,3898487499
fw,-86.1313323974609,-78.6982116699218,76.44268839475461,-186.60667718428823,3898504166
fw,-87.2378463745117,-75.5347671508789,73.92411755568587,-202.30799643220567,3898520833
fw,-87.3227767944336,-72.1393127441406,70.08630857582033,-210.40272791589007,3898537500
fw,-86.6337890625,-68.6117172241211,65.20945385091461,-210.37963163140427,3898554167
fw,-85.9070053100586,-64.9195251464843,59.95184045789962,-202.65660151462276,3898570834
fw,-85.2837905883789,-61.9366416931152,55.049216421679745,-188.5079261702238,3898587501
fw,-84.5460128784179,-59.5207824707031,51.050638340313114,-169.8343107333555,3898604168
fw,-83.7771682739257,-57.4666786193847,48.1857429679918,-148.80104421860358,3898620835
fw,-83.0005645751953,-55.5954437255859,46.381632668911486,-127.41333106459516,3898637502
fw,-82.2388381958007,-53.8292541503906,45.382513836427705,-107.12720419867658,3898654169
fw,-81.5421905517578,-52.7449111938476,44.89770283287725,-88.59101550295063,3898670836
fw,-80.7994003295898,-51.92964553833,44.71501975069904,-71.58476660202301,3898687503
fw,-80.0107192993164,-51.0791969299316,44.74973926221542,-55.18608870061383,3898704170
fw,-79.223403930664,-50.3606262207031,45.03029778325131,-38.140758311223394,3898720837
fw,-78.4379119873046,-49.7249870300293,45.63652329021873,-19.35103189373739,3898737504
fw,-77.6742248535156,-49.4498443603515,46.60731498251821,1.6615494577038104,3898754171
fw,-77.0284347534179,-49.2562980651855,47.83502701430862,24.477062200782132,3898770838
fw,-76.436538696289,-50.0222282409668,48.97105314470734,47.79381533965309,3898787505
fw,-75.8140716552734,-52.0212135314941,49.3762953482254,69.7515048164745,3898804172
fw,-75.0717849731445,-54.0828018188476,48.1476322554065,88.44912452885134,3898820839
fw,-74.2138900756836,-55.6441040039062,44.22816958866959,102.46319879692781,3898837506
fw,-73.4076461791992,-57.4126319885253,36.57273823154779,111.18483461889889,3898854173
fw,-72.8908767700195,-59.3360137939453,24.313693580063376,114.89421955328758,3898870840
fw,-72.8493499755859,-61.3501739501953,6.876949890388778,114.60406962085108,3898887507
fw,-73.3977584838867,-63.0797004699707,-15.964286153330013,111.76270589525147,3898904174
fw,-74.428970336914,-64.8836669921875,-44.06409636478081,107.90813766779036,3898920841
fw,-75.7089462280273,-66.627082824707,-76.85193460743349,104.33950916837492,3898937508
fw,-77.3969345092773,-68.0377502441406,-113.22511220722656,101.84930554519826,3898954175
fw,-79.5320205688476,-69.1669464111328,-151.41729105425293,100.55293699670216,3898970842
fw,-82.3973159790039,-70.1543731689453,-188.93103913080913,99.86273371098835,3898987509
fw,-85.7359390258789,-71.6891632080078,-222.63627463444104,98.65791150933353,3899004176
fw,-87.8066177368164,-73.7860946655273,-249.09854785477583,95.66090200399199,3899020843
fw,-85.4306564331054,-76.0364913940429,-265.13201975497503,89.93197170063264,3899037510
fw,-81.1633377075195,-77.7336273193359,-268.492987165881,81.29267149133331,3899054177
fw,-74.7870635986328,-78.8820114135742,-258.5453864137195,70.47406914740444,3899070844
fw,-69.7707824707031,-79.3981170654296,-236.65758848426054,58.89858933526784,3899087511
fw,-67.0576782226562,-79.7266998291015,-206.09803623273038,48.187242029825185,3899104178
fw,-65.0621185302734,-80.3286056518554,-171.35333187568517,39.62184608666691,3899120845
fw,-63.5969657897949,-81.3154754638671,-137.04865685626547,33.79971575407585,3899137512
fw,-62.2789573669433,-82.3116836547851,-106.84194348963054,30.600487713779085,3899154179
fw,-60.9631004333496,-83.1157302856445,-82.66265883146976,29.42365922695507,3899170846
fw,-59.7191505432128,-83.737190246582,-64.49792656395063,29.54575580273595,3899187513
fw,-58.7087059020996,-84.3562545776367,-50.71463367541336,30.43055981095159,3899204180
fw,-57.9292449951171,-84.961799621582,-38.74989951293727,31.88299799646283,3899220847
fw,-57.3532066345214,-85.532356262207,-25.939972948681007,34.01863157075109,3899237514
fw,-57.0644340515136,-86.1265182495117,-10.27212360361696,37.08953345163903,3899254181
fw,-56.8848075866699,-86.7159805297851,9.101171141216229,41.247970439334274,3899270848
fw,-57.1070365905761,-87.205581665039,31.67894839523781,46.3386858159724,3899287515
fw,-58.0302772521972,-87.6314010620117,55.779601000290235,51.792481824287535,3899304182
fw,-60.2111511230468,-87.950439453125,78.9986631472544,56.65652901439496,3899320849
fw,-62.168285369873,-87.904914855957,98.81660293670758,59.75080885226887,3899337516
fw,-64.0574951171875,-87.3478240966796,113.17730476195257,59.89794011279944,3899354183
fw,-65.6838760375976,-86.5855712890625,120.89148783160473,56.15021726685395,3899370850
fw,-67.7723007202148,-85.8846817016601,121.80962033173036,47.94389436418841,3899387517
fw,-69.936653137207,-85.3689956665039,116.79325779196594,35.14454512988346,3899404184
fw,-71.6231536865234,-85.1284255981445,107.54432806211116,17.992558096473957,3899420851
fw,-73.3306350708007,-85.163459777832,96.33658268218196,-3.006640198333324,3899437518
fw,-75.1997451782226,-85.402961730957,85.66914977476958,-27.19154921812354,3899454185
fw,-76.9121627807617,-85.8065643310546,77.85314838120493,-53.810454940809514,3899470852
fw,-77.7619323730468,-86.1604843139648,74.55846385610427,-82.03014544378449,3899487519
fw,-78.4580383300781,-85.9442062377929,76.39298199706879,-110.90060307484872,3899504186
fw,-79.3374786376953,-84.8242263793945,82.64057165020071,-139.30474874118153,3899520853
fw,-80.5876693725586,-82.7628021240234,91.29626311663591,-165.92687956916225,3899537520
fw,-82.2759475708007,-80.0062866210937,99.4701527832496,-189.27103101421176,3899554187
fw,-84.1328506469726,-76.6412811279296,104.104928277176,-207.75266836979094,3899570854
fw,-86.2057342529296,-72.8746871948242,102.82557665006465,-219.87183179534492,3899587521
fw,-87.6306610107421,-69.1398239135742,94.66717949515062,-224.45214711535644,3899604188
fw,-86.837646484375,-65.4165573120117,80.43455670837874,-220.90142686560245,3899620855
fw,-85.9775695800781,-61.7305603027343,62.544773273178926,-209.42301301193163,3899637522
fw,-85.6888885498046,-58.5264358520507,44.37685420620908,-191.0933829490522,3899654189
fw,-85.4961547851562,-56.0817680358886,29.34306381722302,-167.7375941326306,3899670856
fw,-85.3003463745117,-54.4209861755371,20.005115409813286,-141.59247278081756,3899687523
fw,-85.2298965454101,-52.7848930358886,17.5197913968307,-114.83285504513427,3899704190
fw,-85.050666809082,-51.6250495910644,21.538790212882223,-89.10321922319397,3899720857
fw,-84.422622680664,-50.954605102539,30.504635962071948,-65.20692372119687,3899737524
fw,-83.488166809082,-50.4870223999023,42.16623913080589,-43.05781165777171,3899754191
fw,-82.5609359741211,-50.0731925964355,54.11645323354829,-21.918548811878207,3899770858
fw,-81.6638870239257,-49.6475524902343,64.21249776795177,-0.8577135657312438,3899787525
fw,-80.7211303710937,-49.4992408752441,70.83258673436093,20.7263851113016,3899804192
fw,-79.6653366088867,-49.5965309143066,72.99559463106829,42.70990357123998,3899820859
fw,-78.5078582763671,-50.505199432373,70.39247846672261,64.1388707987037,3899837526
fw,-77.354866027832,-52.6372680664062,63.35433337561427,83.46913298341752,3899854193
fw,-76.4162292480468,-54.9236488342285,52.747023482157346,99.05671123939344,3899870860
fw,-75.7685470581054,-56.7189788818359,39.770969588213184,109.69479881086264,3899887527
fw,-75.449348449707,-58.4917182922363,25.668772956377943,114.98735923863694,3899904194
fw,-75.4066543579101,-60.3474807739257,11.388751700567411,115.44522367932514,3899920861
fw,-75.6291122436523,-61.9610176086425,-2.7077650418034347,112.31724110691866,3899937528
fw,-76.1339340209961,-63.4606895446777,-16.995686561793804,107.25200176518815,3899954195
fw,-76.880142211914,-65.0179367065429,-32.51645759507041,101.90485553474849,3899970862
fw,-77.7315597534179,-66.6760787963867,-50.66920651864343,97.58344655959829,3899987529
fw,-78.763198852539,-67.895637512207,-72.71551888784883,94.9920002807412,3900004196
fw,-80.0311584472656,-68.9890747070312,-99.22113166273193,94.11023541842059,3900020863
fw,-81.7600326538086,-70.0497207641601,-129.6006970013151,94.23263063912638,3900037530
fw,-84.1763763427734,-71.6051330566406,-161.92500398614226,94.18252098301514,3900054197
fw,-86.7547836303711,-73.4159240722656,-193.08893018243376,92.67849642621782,3900070864
fw,-87.4864349365234,-75.4779891967773,-219.34229276585592,88.7648017725296,3900087531
fw,-84.7117614746093,-77.1867904663086,-237.08565636463533,82.15855292850904,3900104198
fw,-79.9843673706054,-78.2234802246093,-243.74841429860504,73.36722680251698,3900120865
fw,-74.1944961547851,-78.7455139160156,-238.504586936411,63.51385061180241,3900137532
fw,-70.4480972290039,-79.0899047851562,-222.57088588842547,53.93980631662144,3900154199
fw,-67.7984771728515,-79.5423049926757,-198.92602417985785,45.759991497533754,3900170866
fw,-65.8026275634765,-80.4032135009765,-171.49966806162539,39.55955357700088,3900187533
fw,-64.0087280273437,-81.6058883666992,-144.1052790108443,35.34056916793054,3900204200
fw,-62.2838134765625,-82.7040557861328,-119.49113045939792,32.70126632430649,3900220867
fw,-60.5976028442382,-83.4243392944336,-98.8049140698126,31.12925226803764,3900237534
fw,-59.02294921875,-83.920913696289,-81.5802028321527,30.262335081946755,3900254201
fw,-57.8496322631835,-84.4110717773437,-66.16948953025401,30.017195971336275,3900270868
fw,-56.9145774841308,-84.9579544067382,-50.43898476982606,30.56472698977559,3900287535
fw,-56.2787055969238,-85.5290222167968,-32.5142148583658,32.19132638391731,3900304202
fw,-55.9467544555664,-86.0309371948242,-11.39401388282622,35.10800707454667,3900320869
fw,-55.7345161437988,-86.4258728027343,12.699516726942374,39.266252343257264,3900337536
fw,-56.0044403076171,-86.705207824707,38.310822101555345,44.22977957424627,3900354203
fw,-57.2407722473144,-86.8640670776367,63.087419442365295,49.14009519188192,3900370870
fw,-59.3425674438476,-86.8817825317382,84.38276873474335,52.79540749882582,3900387537
fw,-61.381046295166,-86.6850662231445,99.95792207904104,53.83338913474728,3900404204
fw,-63.2661781311035,-86.2578582763671,108.57343911730426,50.97485428854127,3900420871
fw,-65.0529556274414,-85.7668228149414,110.30319336098304,43.26277580854996,3900437538
fw,-66.6906356811523,-85.4921112060546,106.5046102598408,30.233572550877003,3900454205
fw,-68.5363540649414,-85.5357284545898,99.48593490441192,11.987021601517606,3900470872
fw,-70.2826919555664,-85.801284790039,91.97353709555637,-10.838618853154596,3900487539
fw,-71.6282806396484,-86.183967590332,86.50023759356738,-37.15362126999752,3900504206
fw,-72.4537124633789,-86.6681594848632,84.83734157331588,-65.53470819663907,3900520873
fw,-73.5655059814453,-86.95361328125,87.59394439061589,-94.36032816398732,3900537540
fw,-75.3052520751953,-86.2430343627929,94.08884627669673,-121.95973184726718,3900554207
fw,-77.3362350463867,-84.3233261108398,102.53768240540573,-146.7640806045834,3900570874
fw,-79.2590026855468,-81.6750793457031,110.50358517310663,-167.4341561842873,3900587541
fw,-81.1068420410156,-78.6657409667968,115.48553315136685,-182.93945903527427,3900604208
fw,-82.9139099121093,-75.4270706176757,115.50230783825151,-192.5827612416555,3900620875
fw,-84.7392120361328,-72.1613845825195,109.55864061348973,-195.99099746279458,3900637542
fw,-86.3771286010742,-69.0961532592773,97.91398686268607,-193.11079759679532,3900654209
fw,-87.2753829956054,-65.9402160644531,82.09458769082576,-184.24184983557993,3900670876
fw,-87.1400833129882,-62.7369270324707,64.61337621246548,-170.1088712097837,3900687543
fw,-86.9351577758789,-60.2066650390625,48.41874075085524,-151.92466233848748,3900704210
fw,-86.8470687866211,-58.0862579345703,36.185148588157865,-131.3639093943987,3900720877
fw,-86.8215866088867,-56.3246383666992,29.64484087450459,-110.38176635095606,3900737544
fw,-86.7271499633789,-55.1020011901855,29.178145532546345,-90.87427155316533,3900754211
fw,-86.380859375,-54.5501136779785,33.800078639563104,-74.2584934323913,3900770878
fw,-85.6409530639648,-54.0932006835937,41.53529771521938,-61.11038445230305,3900787545
fw,-84.5629272460937,-53.4339447021484,50.034806174507374,-51.006730006695,3900804212
fw,-83.3688354492187,-52.6472549438476,57.21802140470385,-42.65861405235357,3900820879
fw,-82.2504577636718,-51.7702598571777,61.74207687169319,-34.31398257471803,3900837546
