Label,Left_Hip_q,Right_Hip_q,Left_Hip_qd,Right_Hip_qd,SampleTimeFine
iw,-65.2705841064453,-78.1715850830078,-211.986083984375,14.5325307846069,873245597
iw,-62.9606018066406,-78.046272277832,-138.57916077825894,-18.488722050143803,873262264
iw,-61.4715270996093,-78.1965026855468,-117.11314778969763,-3.1467992575912676,873278931
iw,-60.3984680175781,-78.8980712890625,-96.83210665621066,10.65619880111375,873295598
iw,-58.9300956726074,-79.7633590698242,-78.66716169649216,21.679036447750274,873312265
iw,-57.5649719238281,-80.3416671752929,-62.97663711058156,29.284795100510852,873328932
iw,-56.8511657714843,-80.7978363037109,-49.45666333555772,33.53789125575633,873345599
iw,-56.614574432373,-81.3472366333007,-37.210783372614564,35.11625351260744,873362266
iw,-56.4036445617675,-81.9382781982421,-24.95041987924263,35.078382824344146,873378933
iw,-56.1133232116699,-82.4589385986328,-11.297139004038891,34.5632360676061,873395600
iw,-55.8665428161621,-82.9442367553711,4.859532027828404,34.50955299933618,873412267
iw,-55.7754783630371,-83.4943161010742,24.033003729849163,35.46545063796368,873428934
iw,-56.5947113037109,-84.0897445678711,45.94442864751287,37.52467013325188,873445601
iw,-58.0184898376464,-84.6912307739257,69.5347314206846,40.37980339025107,873462268
iw,-59.8465194702148,-85.2196807861328,93.17960252342024,43.441507704768405,873478935
iw,-61.91792678833,-85.64990234375,115.02699212808868,45.9569024261856,873495602
iw,-63.9993019104003,-86.0069351196289,133.34843000539288,47.07996863318611,873512269
iw,-66.3335647583007,-86.3278503417968,146.82217210457824,45.89179440243204,873528936
iw,-68.9773864746093,-86.5863723754882,154.7144688542477,41.413047592197586,873545603
iw,-71.738052368164,-86.7235641479492,156.95626262240287,32.66770159660071,873562270
iw,-74.6593399047851,-86.7408142089843,154.114700404356,18.833532641252827,873578937
iw,-77.2670211791992,-86.7160415649414,147.2515790351054,-0.5370274059563964,873595604
iw,-79.4550857543945,-86.6502838134765,137.67283912801648,-25.293059096634483,873612271
iw,-81.1720352172851,-86.5030212402343,126.6149108022942,-54.546269197651306,873628938
iw,-82.5666885375976,-85.8401412963867,114.96433373654875,-86.6821996618858,873645605
iw,-83.8854141235351,-84.3109436035156,103.12538620779345,-119.53107040596046,873662272
iw,-85.2789306640625,-82.1040496826171,91.10542658175993,-150.64894301015661,873678939
iw,-86.8448333740234,-79.4168090820312,78.78779382167875,-177.63042237614928,873695606
iw,-87.8969955444336,-76.4672164916992,66.2586126116033,-198.3875375533209,873712273
iw,-87.9233093261718,-73.2552642822265,54.01204866670348,-211.3692357671945,873728940
iw,-87.8036727905273,-69.3984985351562,42.9146288222011,-215.72723003368887,873745607
iw,-87.6842956542968,-65.0975112915039,33.939265898825056,-211.4310732006891,873762274
iw,-87.4368515014648,-62.222240447998,27.80690387823751,-199.3067322166833,873778941
iw,-87.0278396606445,-59.4944801330566,24.718829601217152,-180.9563983076415,873795608
iw,-86.5230636596679,-56.8475952148437,24.302220297269955,-158.5374467768374,873812275
iw,-85.9547500610351,-54.5879821777343,25.772916498737352,-134.41893785950094,873828942
iw,-85.3457107543945,-53.1814498901367,28.218911152899697,-110.7690237924938,873845609
iw,-84.7008438110351,-52.1424255371093,30.874081298577927,-89.15535679282686,873862276
iw,-84.038330078125,-51.1519432067871,33.28315746627618,-70.26323799945021,873878943
iw,-83.4260711669921,-50.2426300048828,35.322631179946725,-53.82746926206988,873895610
iw,-82.8729095458984,-49.4878501892089,37.10192114539741,-38.81486317562481,873912277
iw,-82.3185501098632,-48.9215240478515,38.80286810049074,-23.80949201973018,873928944
iw,-81.6812896728515,-48.7197570800781,40.51917834144086,-7.488890459975319,873945611
iw,-80.9665145874023,-48.5891075134277,42.13931129614389,10.938633099631335,873962278
iw,-80.2570877075195,-48.7761306762695,43.291272320977995,31.44551093183393,873978945
iw,-79.5864639282226,-49.6293640136718,43.34901063792224,53.114505436235326,873995612
iw,-78.9724731445312,-50.9771347045898,41.49214327747759,74.30247090532244,874012279
iw,-78.3783645629882,-52.5106964111328,36.80835979357367,92.99581928903658,874028946
iw,-77.845962524414,-54.1671333312988,28.423383567302643,107.2696947667686,874045613
iw,-77.4849472045898,-56.0685691833496,15.635511909019385,115.74871317181052,874062280
iw,-77.4469528198242,-58.18994140625,-1.9723030172826799,117.98021286490426,874078947
iw,-77.8689498901367,-60.2970886230468,-24.461700436131427,114.64853072354957,874095614
iw,-78.8419189453125,-62.439167022705,-51.50763991958184,107.56748761029725,874112281
iw,-80.340950012207,-64.5088195800781,-82.38241402039927,99.3999392840154,874128948
iw,-82.2937545776367,-65.8109664916992,-115.92318675547851,93.09407276989175,874145615
iw,-84.3116683959961,-66.7112426757812,-150.47015831128934,91.11196809541661,874162282
iw,-85.8040008544921,-67.3924942016601,-183.8056802787432,94.63864469511705,874178949
iw,-85.9028015136718,-68.2132263183593,-213.17351296689955,103.0419059048065,874195616
iw,-84.1394348144531,-69.6092147827148,-235.48092384051085,113.83802513410403,874212283
iw,-80.9943771362304,-71.6378860473632,-247.75338040021143,123.27861622947958,874228950
iw,-76.5355377197265,-74.3094406127929,-247.81016790914236,127.44883288068284,874245617
iw,-71.2081298828125,-77.3688049316406,-234.98669726930467,123.54522073359435,874262284
iw,-67.0760421752929,-80.5640182495117,-210.6183554028595,110.88013123189819,874278951
iw,-63.4976539611816,-82.7301864624023,-178.00896989853644,91.20595740702245,874295618
iw,-61.3195343017578,-83.2692108154296,-141.77046078448637,68.18129764611159,874312285
iw,-61.1265335083007,-82.4003295898437,-106.67944873918802,46.1511940527244,874328952
iw,-60.9665374755859,-81.4427795410156,-76.42491323874883,28.732500817334873,874345619
iw,-60.5250244140625,-81.4581756591796,-52.69771915449191,17.794813553211718,874362286
iw,-59.6336669921875,-82.0567626953125,-34.94776307187743,13.221357886273386,874378953
iw,-58.6943702697753,-82.8060073852539,-20.86445613255305,13.436805830405731,874395620
iw,-58.1507339477539,-83.5858001708984,-7.3610631369820645,16.340532519042913,874412287
iw,-57.9436149597168,-84.3801956176757,8.30728267481433,20.167833493333557,874428954
iw,-58.1948509216308,-85.0653381347656,27.650949061059258,23.934017869252205,874445621
iw,-58.5819931030273,-85.5552520751953,50.51537472982722,27.379589119411666,874462288
iw,-59.6373481750488,-85.8294143676757,75.18983821702531,30.577956994310565,874478955
iw,-62.0392913818359,-86.1302185058593,98.98007903739216,33.48400556517799,874495622
iw,-64.6206283569336,-86.6222381591796,119.04349850916604,35.66490408562037,874512289
iw,-67.4684219360351,-86.9648208618164,133.21229270143596,36.31173790244462,874528956
iw,-69.5242462158203,-86.8699417114257,140.546756510624,34.4715423896824,874545623
iw,-71.8210906982421,-86.5853424072265,141.47453840404074,29.34601111952379,874562290
iw,-74.1219100952148,-86.4649810791015,137.52724091807113,20.508258691149294,874578957
iw,-76.3108139038086,-86.5513381958007,130.8051263920587,7.966095151246378,874595624
iw,-78.2343597412109,-86.7303848266601,123.34683107574538,-7.909804192980925,874612291
iw,-79.9918594360351,-86.842788696289,116.57356994541921,-26.52107336689835,874628958
iw,-81.237922668457,-86.6509323120117,110.94946703454549,-47.165321906144065,874645625
iw,-82.5460205078125,-85.9571228027343,105.95772483032432,-69.10374390545694,874662292
iw,-84.1191711425781,-84.8861846923828,100.4197074342117,-91.5661382215561,874678959
iw,-86.0004119873046,-83.4176635742187,93.07349350095394,-113.71469394030001,874695626
iw,-87.7179260253906,-81.5183029174804,83.21004069340083,-134.5999459403648,874712293
iw,-87.7741088867187,-79.1718597412109,71.10363171622386,-153.1419032031662,874728960
iw,-87.3315658569336,-76.5788345336914,58.02921784332953,-168.16310573390157,874745627
iw,-87.7037353515625,-73.7005920410156,45.835704758893,-178.4913236256131,874762294
iw,-87.9385375976562,-70.4907531738281,36.2617341579948,-183.13350667197142,874778961
iw,-87.6731719970703,-66.8183975219726,30.312225974505388,-181.49352424877975,874795628
iw,-86.9255294799804,-63.894432067871,27.972470299248275,-173.57089667758464,874812295
iw,-86.0110092163086,-61.4069480895996,28.34758367854079,-160.06051400980076,874828962
iw,-85.1001586914062,-59.3187179565429,30.102461289327614,-142.2957796169948,874845629
iw,-84.4018936157226,-57.30366897583,31.96573571398182,-122.03159498280881,874862296
iw,-84.0158157348632,-55.7252120971679,33.09017420285853,-101.11742474976347,874878963
iw,-83.6985778808593,-54.6481094360351,33.18052828220454,-81.14157310897217,874895630
iw,-83.2521820068359,-53.7575302124023,32.42243219235691,-63.13458258678416,874912297
iw,-82.7021179199218,-52.9705429077148,31.309664870399686,-47.40666306094356,874928964
iw,-82.0944595336914,-52.4771919250488,30.459413545764505,-33.56220323518783,874945631
iw,-81.4777450561523,-52.1068992614746,30.457090482020142,-20.69020586342564,874962298
iw,-80.8624038696289,-51.7342453002929,31.72774188986863,-7.685929628280733,874978965
iw,-80.2937240600586,-51.5219078063964,34.4169113992665,6.375711167373314,874995632
iw,-79.7712249755859,-51.443504333496,38.27970388798407,21.917073025635997,875012299
iw,-79.2040405273437,-51.6180419921875,42.60435775009941,38.688137131906544,875028966
iw,-78.5344085693359,-52.530216217041,46.213495497188156,55.81811483866215,875045633
iw,-77.7227096557617,-53.985107421875,47.57755089714782,72.0820087245439,875062300
iw,-76.8106613159179,-55.5608863830566,45.04060614584105,86.28805869956653,875078967
iw,-75.9314575195312,-57.1574554443359,37.114306903720006,97.6376712138812,875095634
iw,-75.3223419189453,-58.9300460815429,22.764051463803522,105.92380597975553,875112301
iw,-75.2957000732421,-60.8697853088378,1.6126871478032556,111.50736114315525,875128968
iw,-75.9244384765625,-62.6106986999511,-25.976213347920005,115.09869719404637,875145635
iw,-77.0661163330078,-64.2170104980468,-58.919989113127116,117.43323912721047,875162302
iw,-78.528335571289,-66.1046524047851,-95.49218715242968,118.95360002301821,875178969
iw,-80.4275970458984,-67.7402725219726,-133.4080621449062,119.60105604018591,875195636
iw,-82.6982498168945,-69.2715301513671,-169.92238030026664,118.78730841248785,875212303
iw,-84.7968521118164,-70.7448425292968,-201.98984936687444,115.574209255283,875228970
iw,-85.7249298095703,-72.5464324951171,-226.5533520385848,109.03649207620674,875245637
iw,-84.5536727905273,-74.7446594238281,-240.9915879447649,98.71507051990423,875262304
iw,-80.9196166992187,-76.8405227661132,-243.67779423414345,84.99800512859821,875278971
iw,-74.7682266235351,-78.1119689941406,-234.49282492477224,69.2399543315088,875295638
iw,-71.3744277954101,-78.4624557495117,-215.05767164695942,53.503073933876266,875312305
iw,-69.4349899291992,-78.2496795654296,-188.496036019722,39.97189292339867,875328972
iw,-67.5112380981445,-78.1541748046875,-158.73621433434346,30.27455294504438,875345639
iw,-65.5433807373046,-78.6513061523437,-129.59186627579703,25.011035059999276,875362306
iw,-63.6691665649414,-79.6372299194336,-103.94670672784943,23.688564186387914,875378973
iw,-62.1408004760742,-80.6017532348632,-83.26694341618132,25.056352446977783,875395640
iw,-61.0413551330566,-81.2717056274414,-67.49498127887217,27.64829699878534,875412307
iw,-60.3528976440429,-81.8833999633789,-55.26459114948953,30.283822598966537,875428974
iw,-59.8263854980468,-82.4926147460937,-44.34769880226178,32.34881751394602,875445641
iw,-59.3339309692382,-83.036865234375,-32.24863101301272,33.81037858283354,875462308
iw,-58.8727874755859,-83.5919494628906,-16.854608515226378,35.03157352868582,875478975
iw,-58.4545822143554,-84.1962661743164,2.9780508624348965,36.50296962861004,875495642
iw,-58.3192558288574,-84.7387313842773,27.047592187705064,38.5952608077707,875512309
iw,-58.8344459533691,-85.154670715332,53.76863760760206,41.388702346772575,875528976
iw,-60.9733581542968,-85.4005355834961,80.5191204430031,44.58654589111866,875545643
iw,-63.1992073059082,-85.5807037353515,104.29146798947303,47.49681038193369,875562310
iw,-65.3010787963867,-85.7660369873046,122.4542004705647,49.07201448514649,875578977
iw,-67.3693542480468,-85.9848327636718,133.39924623673323,48.01365227993017,875595644
iw,-69.7039337158203,-86.1871032714843,136.91171647791492,42.95596690099471,875612311
iw,-72.5934753417968,-86.2950897216796,134.19463309346256,32.72820264872397,875628978
iw,-75.2390441894531,-86.2105941772461,127.55271423155574,16.657288448563733,875645645
iw,-76.8911590576171,-86.07763671875,119.78950641480255,-5.168667265266149,875662312
iw,-78.1411056518554,-86.0475540161132,113.43907548776637,-31.775232619102017,875678979
iw,-79.2152786254882,-86.2757949829101,110.03635955465592,-61.38986164135724,875695646
iw,-80.5654373168945,-86.1050949096679,109.66867542553517,-91.74780695947283,875712313
iw,-82.2775497436523,-84.8414764404296,110.98646719823778,-120.52854612252969,875728980
iw,-84.2634887695312,-82.8380966186523,111.69441965829904,-145.7720276531064,875745647
iw,-86.0977630615234,-80.4254684448242,109.36847833766258,-166.13168135739832,875762314
iw,-87.0072250366211,-77.7224578857421,102.32883018153407,-180.90099494754116,875778981
iw,-86.2721786499023,-74.8591918945312,90.27972746353072,-189.85694237278582,875795648
iw,-84.9343032836914,-71.7736663818359,74.49763488950285,-193.03912063733725,875812315
iw,-84.2887954711914,-68.8138732910156,57.48822122531889,-190.59555261566655,875828982
iw,-84.4178390502929,-65.7945251464843,42.21387738099017,-182.77640555044945,875845649
iw,-84.8962326049804,-62.6721038818359,31.163838922291582,-170.06983730134442,875862316
iw,-85.011474609375,-59.6545639038085,25.615600451252373,-153.38520931125285,875878983
iw,-84.4887924194336,-57.0744857788085,25.358992285218026,-134.13894350308348,875895650
iw,-83.4430618286132,-55.5893516540527,28.94879197176155,-114.12335777889405,875912317
iw,-82.3525085449218,-54.5792732238769,34.32658841722531,-95.14335121888821,875928984
iw,-81.4826736450195,-53.8564720153808,39.525726641369516,-78.54041087888483,875945651
iw,-80.8149185180664,-53.0606575012207,43.19444151697452,-64.80531152801792,875962318
iw,-80.068000793457,-52.0221633911132,44.80195583253657,-53.45453055412865,875978985
iw,-79.3334503173828,-50.8918647766113,44.54186085983369,-43.226552882963574,875995652
iw,-78.7194747924804,-50.1062660217285,43.043898452808605,-32.51578373883597,876012319
iw,-78.1892929077148,-49.7610893249511,41.02969027867707,-19.87947228883774,876028986
iw,-77.6268157958984,-49.4517860412597,39.021866064587826,-4.456388904592468,876045653
iw,-76.9943389892578,-49.5779800415039,37.169241412511774,13.801205391035289,876062320
iw,-76.3634719848632,-50.3695945739746,35.20308570215246,34.10593791594111,876078987
iw,-75.7865676879882,-51.5049858093261,32.503054084031135,54.99080483299718,876095654
iw,-75.3325729370117,-52.4994926452636,28.232911959955686,74.57991690805713,876112321
iw,-75.006118774414,-53.4876708984375,21.50511554797101,90.91725441609992,876128988
iw,-74.7993774414062,-54.9349632263183,11.541867746234146,102.32394233054671,876145655
iw,-74.8094100952148,-56.9826507568359,-2.190261393468168,107.76966630310466,876162322
iw,-75.0916595458984,-59.2919654846191,-19.8882383044371,107.21396945212791,876178989
iw,-75.7195892333984,-61.6752433776855,-41.37260828460767,101.81279002707957,876195656
iw,-76.8707504272461,-63.8048400878906,-66.09898922104222,93.85292141730487,876212323
iw,-78.6024322509765,-64.9717102050781,-93.20502849570492,86.32430801399114,876228990
iw,-80.6056442260742,-65.7426452636718,-121.56221674005035,82.16918021782728,876245657
iw,-82.7130966186523,-66.3549499511718,-149.80083815125604,83.40274130671762,876262324
iw,-84.8592071533203,-67.2840576171875,-176.29985156553053,90.39905175597485,876278991
iw,-86.5536041259765,-68.7162628173828,-199.17648010426902,101.6167575362445,876295658
iw,-86.0647811889648,-70.4036712646484,-216.34788999970488,113.90360860504981,876312325
iw,-83.3953857421875,-72.3937606811523,-225.74049779235114,123.32654917943442,876328992
iw,-80.2444381713867,-74.7557830810546,-225.6769503563162,126.30140163980481,876345659
iw,-75.880500793457,-77.595474243164,-215.3838715185584,120.69185346453051,876362326
iw,-71.707160949707,-80.5160598754882,-195.4631385877898,106.52922971860623,876378993
iw,-68.247085571289,-82.5493392944336,-168.106235926709,86.08415240899207,876395660
iw,-65.469970703125,-83.2891387939453,-136.86368170071577,63.211006145977436,876412327
iw,-64.5635375976562,-82.7363967895507,-105.93100214311453,42.15776374848241,876428994
iw,-64.513671875,-82.1449203491211,-79.1260083590479,26.276900646519533,876445661
iw,-64.2045135498046,-82.0965423583984,-58.899192132137635,17.137685091155767,876462328
iw,-63.5373382568359,-82.5757217407226,-45.738173950785104,14.358071521511462,876478995
iw,-62.5799560546875,-83.1985931396484,-38.17594769770298,16.138858703224816,876495662
iw,-61.6249809265136,-83.7985916137695,-33.37284043175211,20.185249918029687,876512329
iw,-60.7836418151855,-84.5264663696289,-28.04187303047042,24.588522013902338,876528996
iw,-60.2940635681152,-85.2762756347656,-19.408669140392494,28.332948846875944,876545663
iw,-60.000431060791,-85.829231262207,-5.938048128539898,31.308089819084618,876562330
iw,-59.8610000610351,-86.2406311035156,12.333113604371933,33.93040250937529,876578997
iw,-60.6203880310058,-86.6271057128906,33.89558461286486,36.61947346225872,876595664
iw,-62.0978050231933,-87.1306457519531,56.23043333935943,39.389802542444606,876612331
iw,-63.5854148864746,-87.7572021484375,76.48398077735199,41.72163871081815,876628998
iw,-64.8922882080078,-87.9517822265625,92.17111045558252,42.721946664888726,876645665
iw,-66.1500167846679,-87.5176162719726,101.75010253109589,41.45496638475011,876662332
iw,-68.4514389038086,-87.0540313720703,104.9733798181887,37.268908787920545,876678999
iw,-70.9602279663086,-86.7842941284179,102.96298799966594,29.98309654875605,876695666
iw,-73.2062835693359,-86.672866821289,97.97343510582209,19.89081480514866,876712333
iw,-74.5106811523437,-86.6513366699218,92.8348563854479,7.618493786452197,876729000
iw,-75.1786956787109,-86.6941757202148,90.16310711922227,-6.07785807904789,876745667
iw,-75.7758560180664,-86.7341537475586,91.55210221187373,-20.503867205323747,876762334
iw,-77.1123962402343,-86.7698974609375,97.03339563518051,-35.158578303544395,876779001
iw,-79.0198974609375,-86.8157424926757,105.02453676455923,-49.786593292284536,876795668
iw,-81.2535858154296,-86.7369155883789,112.80774130971253,-64.34789350620738,876812335
iw,-83.5233459472656,-86.3510055541992,117.37934856461432,-78.91640789153792,876829002
iw,-85.702896118164,-85.4842987060546,116.38683550383243,-93.53535480159132,876845669
iw,-87.7996673583984,-84.1360244750976,108.85998042206232,-108.07428400457316,876862336
iw,-88.4198379516601,-82.2849502563476,95.51980044880628,-122.13696581829359,876879003
iw,-87.4373092651367,-80.1062622070312,78.57251212687473,-135.0531903952967,876895670
iw,-87.1837387084961,-77.7001876831054,61.0451497718086,-145.95894125265878,876912337
iw,-87.5979232788086,-75.2612838745117,45.875399094079015,-153.94466362582253,876929004
iw,-87.7760467529296,-72.6816711425781,35.07607395770475,-158.23949054072907,876945671
iw,-87.2845916748046,-69.8863830566406,29.278971607256807,-158.39504654734156,876962338
iw,-86.1413650512695,-67.301513671875,27.80043570863243,-154.42573694878146,876979005
iw,-84.9334564208984,-64.5944671630859,29.139026032873414,-146.85404357991027,876995672
iw,-84.0612564086914,-62.1732673645019,31.64547696025062,-136.61503583042062,877012339
iw,-83.5549087524414,-60.6038513183593,34.08219779431471,-124.8117139969534,877029006
iw,-83.161376953125,-59.429874420166,35.89848231445412,-112.38061637551172,877045673
iw,-82.6914825439453,-57.9823150634765,37.20141926394899,-99.79095589450365,877062340
iw,-82.0077819824218,-56.2929382324218,38.514566314753104,-86.90819659707931,877079007
iw,-81.2179412841796,-54.7364997863769,40.45126722671776,-73.08419068160718,877095674
iw,-80.4647140502929,-53.7030334472656,43.405460286822574,-57.43459255794255,877112341
iw,-79.7313232421875,-53.0855178833007,47.32095276732635,-39.19976854504041,877129008
iw,-78.9725952148437,-52.6037979125976,51.56994525992216,-18.08399604834033,877145675
iw,-78.1833724975586,-52.2856063842773,54.95746804700497,5.501983798777375,877162342
iw,-77.3103561401367,-52.520881652832,55.858400108880915,30.346833826216585,877179009
iw,-76.3860168457031,-53.0545997619628,52.476000658736076,54.53135927244521,877195676
iw,-75.5078964233398,-54.3093223571777,43.18338400549947,75.72090660965748,877212343
iw,-74.8185195922851,-55.768756866455,26.880717331190436,91.62285659484319,877229010
iw,-74.6097259521484,-57.119873046875,3.2853259995282413,100.52282814621037,877245677
iw,-75.0255508422851,-58.7402000427246,-26.91914851319666,101.78088993626325,877262344
iw,-76.0286178588867,-60.7910423278808,-62.114256745190225,96.16190369020015,877279011
iw,-77.590591430664,-63.321060180664,-99.9514856591946,85.88232594368247,877295678
iw,-80.05029296875,-64.684585571289,-137.67941083882278,74.28524358330483,877312345
iw,-83.2089309692382,-64.9353866577148,-172.51344733499184,65.13683149484419,877329012
iw,-86.3477325439453,-65.2390670776367,-201.9593778193457,61.678279692951676,877345679
iw,-87.3686447143554,-65.7587127685546,-224.02173876902393,65.70473495924098,877362346
iw,-85.1815490722656,-66.8439102172851,-237.28209041357235,76.98129424164466,877379013
iw,-81.9615859985351,-68.4472427368164,-240.89919078578916,93.20738852949201,877395680
iw,-77.9013290405273,-70.3798141479492,-234.61658816524812,110.55717304398428,877412347
iw,-73.9175567626953,-72.3693084716796,-218.83251128952358,124.64591956849114,877429014
iw,-71.1714782714843,-74.4258117675781,-194.71559166616248,131.66448145768723,877445681
iw,-68.4693374633789,-77.001838684082,-164.29327892914625,129.39431013178572,877462348
iw,-65.3611831665039,-80.117317199707,-130.4227867934441,117.83728586027966,877479015
iw,-62.6583404541015,-82.7187576293945,-96.55959899437823,99.25386396990793,877495682
iw,-61.6799278259277,-83.8071975708007,-66.26589321516364,77.5274507303478,877512349
iw,-62.0408287048339,-83.2349700927734,-42.49016306898556,56.98982434007165,877529016
iw,-62.8375091552734,-81.9970779418945,-26.80139201653057,41.09461285933496,877545683
iw,-63.2200889587402,-81.568977355957,-18.880582495200223,31.457371942941613,877562350
iw,-62.6723480224609,-82.1297760009765,-16.53950125630802,27.654040702836717,877579017
iw,-61.6592254638671,-83.0886611938476,-16.333848728504982,27.812978842705476,877595684
iw,-60.7296180725097,-83.6633605957031,-14.578172757982509,29.655584700626076,877612351
iw,-60.0311279296875,-84.0366516113281,-8.403015004976023,31.466512411853994,877629018
iw,-59.9229316711425,-84.5389785766601,3.4995072319914353,32.58695417338225,877645685
iw,-60.6478385925293,-85.1485366821289,20.64388155318194,33.315886818216555,877662352
iw,-61.8611679077148,-85.9077758789062,41.03026998433684,34.387401261253686,877679019
iw,-63.0585250854492,-86.5486145019531,61.769915768626966,36.33601429245196,877695686
iw,-64.2864685058593,-86.9853286743164,79.83167871218619,39.0428687869234,877712353
iw,-65.7713851928711,-87.0099792480468,92.72169691823603,41.625164000931576,877729020
iw,-67.2599639892578,-86.4724731445312,98.98837966937519,42.66509600615218,877745687
iw,-69.2895278930664,-85.6024322509765,98.50598441350232,40.64340717746135,877762354
iw,-71.6668090820312,-84.8146514892578,92.5093559010649,34.38998863608376,877779021
iw,-72.9982376098632,-84.38232421875,83.35722462569424,23.3933734634346,877795688
iw,-73.7705078125,-84.3218383789062,74.03734789066286,7.891252196830312,877812355
iw,-74.3768768310546,-84.5288314819336,67.50599699117974,-11.248202239084511,877829022
iw,-75.3179550170898,-84.9334945678711,66.02967667836982,-32.78216184187668,877845689
iw,-76.6622543334961,-85.4837799072265,70.70319043447333,-55.388952837896646,877862356
iw,-78.3424758911132,-85.898452758789,81.24318078601523,-77.91427935260157,877879023
iw,-80.0390853881836,-85.8159561157226,96.05559339197822,-99.50872605665046,877895690
iw,-81.6585693359375,-84.950927734375,112.51612293211508,-119.63925236166563,877912357
iw,-83.269905090332,-83.260009765625,127.40479202728653,-137.99616597932666,877929024
iw,-85.0275268554687,-81.0305404663086,137.4641007112497,-154.3400010846769,877945691
iw,-86.8246688842773,-78.4176025390625,140.05000887665733,-168.33892030093804,877962358
iw,-87.3816223144531,-75.6201248168945,133.78917915484837,-179.44670377623135,877979025
iw,-85.0656051635742,-72.9837188720703,119.0697180218953,-186.87058327361893,877995692
iw,-82.6095733642578,-70.3066482543945,98.1450051769754,-189.67010655057592,878012359
iw,-81.7868499755859,-67.2619476318359,74.69511106867996,-186.9971716528865,878029026
iw,-82.2889175415039,-63.6828269958496,52.88816193764353,-178.42514064625723,878045693
iw,-83.2702865600586,-60.2605209350585,36.234266065089436,-164.24089425671698,878062360
iw,-83.3829269409179,-57.5407371520996,26.670145118370538,-145.53918833797198,878079027
iw,-82.2599868774414,-55.9705543518066,24.232132927912236,-124.01390067236943,878095694
iw,-80.6216201782226,-55.0352210998535,27.394601393851282,-101.48166824330005,878112361
iw,-79.2869644165039,-54.3262252807617,33.839415465206464,-79.32519551175142,878129028
iw,-78.4385986328125,-53.6525840759277,41.266625175391624,-58.108949240249274,878145695
iw,-77.9329528808593,-52.7074165344238,47.925311580969165,-37.55194802911858,878162362
iw,-77.4251022338867,-51.6785087585449,52.754047773878895,-16.875653530756143,878179029
iw,-76.7276153564453,-51.0274963378906,55.22482050651778,4.6311511516664,878195696
iw,-75.810302734375,-51.1177253723144,55.07881035051068,27.084505223121763,878212363
iw,-74.8707046508789,-51.6909065246582,52.11570405971262,49.74097677326452,878229030
iw,-73.9922409057617,-53.0131645202636,46.10617439401646,71.09613567907068,878245697
iw,-73.2473983764648,-54.9295578002929,36.80894007067245,89.289167637337,878262364
iw,-72.8010711669921,-56.6431274414062,24.031143072817933,102.64740946840409,878279031
iw,-72.7837142944336,-58.118366241455,7.678179648319194,110.18190754366495,878295698
iw,-73.1377563476562,-59.9160041809082,-12.224025051971406,111.89935197497991,878312365
iw,-73.8656921386718,-62.1183395385742,-35.51428422310421,108.87391550580823,878329032
iw,-74.845947265625,-64.0857849121093,-61.85576177435218,103.071763972852,878345699
iw,-76.2210617065429,-65.9235763549804,-90.6543736530591,96.93920922647122,878362366
iw,-78.1461105346679,-66.7557983398437,-120.95473651294289,92.7966756421857,878379033
iw,-80.5596237182617,-67.380615234375,-151.35886987142464,92.15509183249232,878395700
iw,-83.3074264526367,-67.9553146362304,-180.01657318600468,95.16159630879274,878412367
iw,-85.7901992797851,-68.9426193237304,-204.72311958850102,100.41688398119726,878429034
iw,-87.0851669311523,-70.6610946655273,-223.14475577834304,105.32543846609157,878445701
iw,-85.3801803588867,-73.0341720581054,-233.17724297495835,106.94178001369865,878462368
iw,-82.0755844116211,-75.7033996582031,-233.40882748144048,103.04035304600036,878479035
iw,-76.9711456298828,-77.9733963012695,-223.59117322688462,92.98899208863976,878495702
iw,-72.7650756835937,-79.4087905883789,-204.9437353538337,78.04391600097267,878512369
iw,-69.9215469360351,-79.791015625,-180.09865375593756,60.91567889673701,878529036
iw,-67.5600662231445,-79.4886169433593,-152.59469425184054,44.78339070556029,878545703
iw,-66.2090301513671,-79.3276062011718,-126.02253793089501,32.19468810140803,878562370
iw,-65.3192672729492,-79.9777221679687,-103.09672021004137,24.332176364202972,878579037
iw,-64.2918701171875,-80.9892349243164,-84.97870676232002,20.918955117328398,878595704
iw,-62.9487800598144,-81.7192153930664,-71.08202276105503,20.700712694674404,878612371
iw,-61.5974349975585,-82.1043472290039,-59.409423431892186,22.183694292119906,878629038
iw,-60.6247100830078,-82.6603775024414,-47.289754427152346,24.25820331882743,878645705
iw,-60.0522193908691,-83.2825088500976,-32.2724937796902,26.474107021807587,878662372
iw,-59.772045135498,-83.9007263183593,-12.925361484730644,28.938062926477876,878679039
iw,-59.3515319824218,-84.5038223266601,10.665822762302858,31.96145040607485,878695706
iw,-59.0553817749023,-85.0233078002929,36.81958932716713,35.65444434020917,878712373
iw,-60.4919929504394,-85.4447402954101,62.63990286641651,39.63834527930807,878729040
iw,-63.1273880004882,-85.6808090209961,84.77500513323736,42.9683270187144,878745707
iw,-65.1585235595703,-85.6817626953125,100.34130844818395,44.26778636464675,878762374
iw,-66.8805999755859,-85.5822601318359,107.72709711986494,42.0107280609688,878779041
iw,-68.3707580566406,-85.5317840576171,107.04157205944884,34.86353151609907,878795708
iw,-70.3420028686523,-85.6155471801757,100.11635427887842,22.003172845100842,878812375
iw,-72.1974945068359,-85.8293228149414,90.09865634511492,3.347740400249177,878829042
iw,-73.7501373291015,-86.1168746948242,80.74074885729081,-20.346351246195454,878845709
iw,-74.8861236572265,-86.4783554077148,75.5167564979885,-47.54915353324906,878862376
iw,-75.5311813354492,-86.6015472412109,76.73327821488625,-76.18869173999997,878879043
iw,-76.3065338134765,-85.7448120117187,84.84411069804308,-104.01443278032647,878895710
iw,-77.6312789916992,-83.7590103149414,98.18410413743115,-129.0086946625817,878912377
iw,-79.3583755493164,-81.2344055175781,113.26140342986362,-149.72664094841815,878929044
iw,-81.3875122070312,-78.435676574707,125.59823957933746,-165.45268067161024,878945711
iw,-83.7355575561523,-75.6167907714843,130.9398523345124,-176.12163307109557,878962378
iw,-86.3888168334961,-72.8928604125976,126.51590872932097,-182.0471395292993,878979045
iw,-87.6783065795898,-70.1847534179687,111.97476576261992,-183.58535938087687,878995712
iw,-85.8329849243164,-67.4732971191406,89.64639767957948,-180.89584113986848,879012379
iw,-85.4130706787109,-64.501220703125,63.958329087307085,-173.9204296361936,879029046
iw,-86.4404220581054,-61.5474433898925,40.12745436516992,-162.59613940904896,879045713
iw,-87.4688949584961,-58.816120147705,22.57368854534242,-147.19523611673546,879062380
iw,-87.5854110717773,-56.1740608215332,13.66107627731075,-128.60619169770217,879079047
iw,-87.132698059082,-54.059829711914,13.2386205080808,-108.3753978977719,879095714
iw,-86.0043334960937,-53.061180114746,19.08345746406187,-88.4260286475112,879112381
iw,-84.6229476928711,-52.7326316833496,27.95518453778625,-70.52351853348725,879129048
iw,-83.6193618774414,-52.5596237182617,36.76123225131287,-55.7002400432688,879145715
iw,-83.2042541503906,-52.0146865844726,43.38477492242086,-43.903916085008234,879162382
iw,-82.8342895507812,-51.0096855163574,46.96480816291071,-34.048183667843475,879179049
iw,-82.1278305053711,-49.9775810241699,47.68880663973606,-24.454719607329036,879195716
iw,-81.3156967163086,-49.1432800292968,46.32507779178388,-13.490253135704755,879212383
iw,-80.5882568359375,-48.6992874145507,43.738509999118236,-0.1240419542670693,879229050
iw,-80.0718154907226,-49.3415451049804,40.54883254324681,15.801591903422198,879245717
iw,-79.5775299072265,-50.6800804138183,36.985727140063716,33.631664277092675,879262384
iw,-78.9799880981445,-51.8696098327636,32.91892145598108,52.173646179903756,879279051
iw,-78.3824234008789,-52.5890312194824,27.99996538476156,70.00777175109197,879295718
iw,-77.9072952270507,-53.3695755004882,21.837427864355,85.71401662554965,879312385
iw,-77.559326171875,-54.6602363586425,14.134994802365458,98.01797664459292,879329052
iw,-77.3470001220703,-56.5219764709472,4.748718580024411,105.93274793311916,879345719
iw,-77.3523712158203,-58.6452293395996,-6.344735499871181,108.94920869125627,879362386
iw,-77.7280807495117,-60.7262153625488,-19.143571948626775,107.24041006323334,879379053
iw,-78.4844512939453,-62.5438995361328,-33.72891323015972,101.77705365437079,879395720
iw,-79.4145202636718,-64.433609008789,-50.32041039015947,94.25006929662639,879412387
iw,-80.4736633300781,-65.8368606567382,-69.22218469476371,86.75803404569656,879429054
iw,-81.6904754638671,-66.7060546875,-90.63853395896923,81.30724271361852,879445721
iw,-83.1077270507812,-67.3953628540039,-114.39607949702567,79.25615639482791,879462388
iw,-84.4554290771484,-68.3069381713867,-139.66339389935325,80.88317846457096,879479055
iw,-85.2327270507812,-69.4231338500976,-164.78753857145827,85.2405999208732,879495722
iw,-84.9263076782226,-70.7801284790039,-187.35729212522662,90.37369264099785,879512389
iw,-83.2480239868164,-72.4287033081054,-204.5509961153878,93.86329265125993,879529056
iw,-80.3570480346679,-74.2245025634765,-213.73483262964265,93.54030592225992,879545723
iw,-75.7488327026367,-76.0441589355468,-213.1645069340399,88.156442830623,879562390
iw,-72.1387634277343,-77.7350234985351,-202.55859691065254,77.79386602368628,879579057
iw,-69.5110855102539,-78.7934875488281,-183.318148097445,63.86484356700539,879595724
iw,-66.9631042480468,-79.203857421875,-158.28753883845258,48.68571576065169,879612391
iw,-64.7071838378906,-79.2675323486328,-131.12604348455167,34.771124121163346,879629058
iw,-63.4096336364746,-79.3502044677734,-105.48713444762085,24.11260682494864,879645725
iw,-62.4852905273437,-79.7336959838867,-84.23550339535153,17.709193100638693,879662392
iw,-61.6173095703125,-80.2593688964843,-68.89325590661225,15.494081464330907,879679059
iw,-60.3843154907226,-80.8657760620117,-59.42960131366669,16.61807138233923,879695726
iw,-59.214973449707,-81.5407943725586,-54.40873258980384,19.90867305426638,879712393
iw,-58.2597999572753,-82.1994094848632,-51.415803968469724,24.288869243686037,879729060
iw,-57.723030090332,-82.7790908813476,-47.63108252264282,29.00684073536153,879745727
iw,-57.3063888549804,-83.3013381958007,-40.43055990693667,33.64383620263333,879762394
iw,-56.5919113159179,-83.8217849731445,-27.925499080331885,37.9698074925273,879779061
iw,-55.9780693054199,-84.3853912353515,-9.37081831969008,41.764545118855644,879795728
iw,-55.827880859375,-84.9815597534179,14.632624375681656,44.70681652090296,879812395
iw,-56.8256950378418,-85.4952392578125,42.20733624347221,46.37523353595721,879829062
iw,-58.3924407958984,-85.8571624755859,70.55032605498945,46.33766008209041,879845729
iw,-59.9294471740722,-86.1396865844726,96.49384011102894,44.26400016643856,879862396
iw,-61.6577453613281,-86.4678115844726,117.14737224900358,39.99605355096945,879879063
iw,-63.7855339050293,-86.8700637817382,130.49069423836656,33.5410447086509,879895730
iw,-66.5153350830078,-87.2267456054687,135.8131848537472,24.999616743541807,879912397
iw,-69.3977813720703,-87.4862747192382,133.90884096195697,14.470533187938692,879929064
iw,-72.2051391601562,-87.7044143676757,126.94371060181413,1.9812775131303944,879945731
iw,-73.9306640625,-87.8940200805664,117.95744431040536,-12.52072206012196,879962398
iw,-75.0527725219726,-88.0323867797851,110.07025960328285,-29.107129819856514,879979065
iw,-75.9472045898437,-87.9389190673828,105.60484805826253,-47.75585378665198,879995732
iw,-77.315315246582,-87.2729415893554,105.41388175421314,-68.22402880977779,880012399
iw,-79.1509704589843,-86.1189956665039,108.65875076350132,-89.95009548207499,880029066
iw,-81.3548202514648,-84.5529174804687,113.12321761563214,-112.01811486098221,880045733
iw,-83.4721374511718,-82.6198806762695,115.95060823141321,-133.19901068871187,880062400
iw,-85.4313430786132,-80.1597671508789,114.55848078720847,-152.06606583404357,880079067
iw,-87.2879028320312,-77.2306671142578,107.45137593413543,-167.1684571366446,880095734
iw,-87.9735794067382,-73.9332733154296,94.70134580486082,-177.23467791086,880112401
iw,-86.9825439453125,-70.7328414916992,77.9603495036435,-181.36935280879874,880129068
iw,-86.4263153076171,-67.7446136474609,59.99149884324121,-179.20919881855656,880145735
iw,-86.6864242553711,-64.9724807739257,43.85235372677298,-171.01680211545377,880162402
iw,-87.1383056640625,-62.2325401306152,31.998810247400364,-157.70069026688185,880179069
iw,-87.0702972412109,-59.5103683471679,25.630078382227182,-140.74416959550703,880195736
iw,-86.364761352539,-57.3886985778808,24.506650943634455,-122.01451783247359,880212403
iw,-85.1174163818359,-55.9041481018066,27.268281362317776,-103.43977808642087,880229070
iw,-83.9626541137695,-54.9766502380371,32.064755515146494,-86.59895599653044,880245737
iw,-83.20263671875,-54.3014450073242,37.205519668097935,-72.34452708531708,880262404
iw,-82.6040573120117,-53.439655303955,41.58042761629827,-60.605950426675356,880279071
iw,-81.9387588500976,-52.3115577697753,44.75345896598961,-50.47156645193255,880295738
iw,-81.1996231079101,-51.1202774047851,46.78643388402042,-40.53247559408291,880312405
iw,-80.5117111206054,-50.4178237915039,47.93690962336029,-29.36150609618979,880329072
iw,-79.8898315429687,-50.2084007263183,48.38040295372691,-15.957913706074244,880345739
iw,-79.131103515625,-50.2163696289062,48.05939575505335,-0.028370064297360886,880362406
iw,-78.214614868164,-50.3325805664062,46.691735270610074,17.945396408411227,880379073
iw,-77.235855102539,-50.6144866943359,43.901637692985325,36.83678723324011,880395740
iw,-76.3377914428711,-51.5985221862793,39.38799373868596,55.153850064200434,880412407
iw,-75.6317520141601,-53.1123657226562,33.035066473223964,71.39936532463827,880429074
iw,-75.2020492553711,-54.4344024658203,24.90410715667623,84.42135929197764,880445741
iw,-75.0700225830078,-55.8483848571777,15.105340316224417,93.65831281196427,880462408
iw,-75.2233810424804,-57.5937461853027,3.6106850015191516,99.21459536736297,880479075
iw,-75.5656509399414,-59.4440383911132,-9.897384825575758,101.75897260630194,880495742
iw,-76.1351928710937,-60.9425201416015,-26.050151553666026,102.2904724441317,880512409
iw,-76.8557891845703,-62.4197807312011,-45.641751621671816,101.84398004133831,880529076
iw,-77.8473205566406,-64.2245101928711,-69.31871342611383,101.21375379931219,880545743
iw,-79.1840209960937,-65.8758544921875,-97.18859607016847,100.75876298239668,880562410
iw,-81.0155487060546,-67.2045516967773,-128.46673990976075,100.32528771853961,880579077
iw,-83.260009765625,-68.1277999877929,-161.28496080695678,99.29760832105038,880595744
iw,-85.4136657714843,-69.2997436523437,-192.75637761051223,96.77780229507823,880612411
iw,-86.5034103393554,-70.9325103759765,-219.33825004933328,91.88263024077833,880629078
iw,-84.9800720214843,-72.9638137817382,-237.46857536285833,84.10171160202907,880645745
iw,-81.0565719604492,-74.6880722045898,-244.36907694708628,73.5965423132835,880662412
iw,-74.9064636230468,-75.4921112060546,-238.80998519374492,61.29333139414813,880679079
iw,-71.0999526977539,-75.8338546752929,-221.56672782215682,48.688164156564255,880695746
iw,-68.7776184082031,-76.0114135742187,-195.3491541763759,37.421674625619595,880712413
iw,-66.5810089111328,-76.3125305175781,-164.18010055996177,28.80157827796269,880729080
iw,-64.5573806762695,-76.9532012939453,-132.4369005153182,23.47169213320019,880745747
iw,-62.9288749694824,-77.8218765258789,-103.88477077518264,21.33982379114933,880762414
iw,-61.7789916992187,-78.6208190917968,-80.97209764273498,21.748918002989555,880779081
iw,-60.5947151184082,-79.2595901489257,-64.51109540629818,23.78133376816159,880795748
iw,-59.617259979248,-79.7495346069336,-53.73750658921658,26.56224350321382,880812415
iw,-58.879638671875,-80.1999359130859,-46.66751422252357,29.46535635669259,880829082
iw,-58.1948051452636,-80.6502532958984,-40.64017228906829,32.18706883991844,880845749
iw,-57.7124404907226,-81.1626892089843,-32.93286248235943,34.709226701085704,880862416
iw,-57.3525047302246,-81.7508392333984,-21.34923733334497,37.197691627990594,880879083
iw,-57.0813446044921,-82.3172531127929,-4.690174588328577,39.88342871970578,880895750
iw,-56.9242134094238,-82.8317184448242,16.97415200506282,42.95595678509829,880912417
iw,-57.3679122924804,-83.3008117675781,42.29709322075906,46.47951521474292,880929084
iw,-58.9061279296875,-83.7280502319336,68.93689431530059,50.329683127875114,880945751
iw,-60.7793006896972,-84.1617889404296,94.07724956831598,54.14556124458626,880962418
iw,-62.7890014648437,-84.5964431762695,115.06149626963926,57.29862588002951,880979085
iw,-64.9073944091796,-85.0013122558593,129.97967954141808,58.890017276298785,880995752
iw,-67.2452316284179,-85.3259658813476,138.0705606132027,57.797145508431775,881012419
iw,-70.1021575927734,-85.5049438476562,139.85431143863323,52.79068903592959,881029086
iw,-73.1064147949218,-85.4974212646484,136.9611323933357,42.7289201704272,881045753
iw,-75.2644653320312,-85.3231201171875,131.66689991848378,26.80843245845709,881062420
iw,-76.8027572631836,-85.1656875610351,126.21723507101873,4.8176579528709675,881079087
iw,-77.8753356933593,-85.0958786010742,122.11874107901052,-22.682356150890065,881095754
iw,-79.261116027832,-85.2238998413086,119.64618231471682,-54.32065297770897,881112421
iw,-81.1439056396484,-85.3544692993164,117.78352417230198,-88.05511829478009,881129088
iw,-83.3732757568359,-84.8064956665039,114.66535979499363,-121.45909923250106,881145755
iw,-85.7071914672851,-83.0398178100586,108.37665499795706,-152.07272718580245,881162422
iw,-87.682014465332,-80.5790252685546,97.80712761370269,-177.71868286686532,881179089
iw,-88.0084533691406,-77.8912658691406,83.21996337408639,-196.71613847825583,881195756
iw,-87.3708801269531,-74.9935684204101,66.29945296621565,-207.99121734535845,881212423
iw,-87.2586898803711,-71.5929412841796,49.647985311053425,-211.13189745609498,881229090
iw,-87.4159393310546,-67.6697845458984,35.92920102990063,-206.4311278268036,881245757
iw,-87.6024932861328,-63.8573036193847,27.00247044854037,-194.9072420353327,881262424
iw,-87.4675064086914,-60.8882751464843,23.389552747524323,-178.23554942857905,881279091
iw,-86.6171340942382,-58.4557838439941,24.255313308733893,-158.52583633439582,881295758
iw,-85.4788818359375,-56.6835784912109,27.85229826332305,-137.9480461470795,881312425
iw,-84.5674362182617,-55.03023147583,32.19386605617724,-118.29684649399967,881329092
iw,-83.8852844238281,-53.4457244873046,35.66936637605999,-100.63442020915387,881345759
iw,-83.262336730957,-52.1450996398925,37.40088005911829,-85.13150855849709,881362426
iw,-82.7140121459961,-50.8686866760253,37.29139257902741,-71.1555563677715,881379093
iw,-82.2072448730468,-49.6550712585449,35.83922292896528,-57.57001624523458,881395760
iw,-81.6714096069336,-48.8158836364746,33.845136975717594,-43.14485216112552,881412427
iw,-81.1194458007812,-48.3578643798828,32.12347521349897,-26.954804196090524,881429094
iw,-80.5482406616211,-48.1925048828125,31.28227105531294,-8.661495156151656,881445761
iw,-80.011604309082,-48.1778717041015,31.593576540841106,11.378537218533118,881462428
iw,-79.4764556884765,-48.5486335754394,32.95011086939509,32.1896883062952,881479095
iw,-78.8709716796875,-49.5892143249511,34.89530400447745,52.40793185298117,881495762
iw,-78.1990051269531,-51.0250816345214,36.709476477144776,70.60379122117337,881512429
iw,-77.5039825439453,-52.3521423339843,37.528181579533666,85.6098627849649,881529096
iw,-76.8660583496093,-53.8061027526855,36.4628461008545,96.76468280816346,881545763
iw,-76.3252944946289,-55.7558937072753,32.69683109545968,104.01638948177057,881562430
iw,-75.9403839111328,-57.8275032043457,25.544696953267582,107.87418423494859,881579097
iw,-75.7794418334961,-59.53804397583,14.482621374727573,109.23028681107668,881595764
iw,-75.8711776733398,-61.0372200012207,-0.8267808263860413,109.09983995212184,881612431
iw,-76.278335571289,-62.4276580810546,-20.489567264986835,108.34853151417242,881629098
iw,-76.9622344970703,-64.263687133789,-44.30269730633547,107.48587477742232,881645765
iw,-78.0344085693359,-66.1828002929687,-71.65455462794417,106.57788759659775,881662432
iw,-79.5419921875,-67.761604309082,-101.43942348683925,105.28506068422601,881679099
iw,-81.6968383789062,-68.9667739868164,-132.03301280395166,102.99497766309995,881695766
iw,-84.4023132324218,-70.3280334472656,-161.3667329182057,99.01513975786365,881712433
iw,-87.1964874267578,-71.9629440307617,-187.1141249303536,92.80119687888593,881729100
iw,-88.5644149780273,-73.8585510253906,-206.97858473393768,84.18407256146045,881745767
iw,-85.6226119995117,-75.4221496582031,-219.05315598976406,73.52552479320836,881762434
iw,-81.3050308227539,-76.219497680664,-222.19804404483844,61.71863448631489,881779101
iw,-76.6492385864257,-76.6168823242187,-216.34141998370004,49.99741887087961,881795768
iw,-73.7067337036132,-76.9167861938476,-202.5835673064812,39.613105401502025,881812435
iw,-71.2943954467773,-77.3344268798828,-183.0244001348851,31.508400526818736,881829102
iw,-68.7079849243164,-78.0934982299804,-160.34192567373364,26.119498772750216,881845769
iw,-66.1149291992187,-78.9814910888671,-137.25022374046063,23.36225730075023,881862436
iw,-64.3434982299804,-79.7926559448242,-115.98756731043281,22.768470011870253,881879103
iw,-62.9276733398437,-80.4237594604492,-97.93968891137705,23.68608541522365,881895770
iw,-61.8103103637695,-80.9285354614257,-83.45201861151088,25.460955972971146,881912437
iw,-60.6313095092773,-81.3897705078125,-71.85456714777786,27.556247932239014,881929104
iw,-59.4934196472168,-81.8388671875,-61.69381332943909,29.606150403053245,881945771
iw,-58.5409049987793,-82.3321533203125,-51.123674552554924,31.4228392028416,881962438
iw,-57.8971099853515,-82.897232055664,-38.369043365625444,32.97779246468423,881979105
iw,-57.5187797546386,-83.486572265625,-22.16254115441968,34.36885136046192,881995772
iw,-57.3890876770019,-84.0719299316406,-2.069878846199705,35.77306242379042,882012439
iw,-57.6007499694824,-84.5990905761718,21.353159771329278,37.38012140177337,882029106
iw,-58.488182067871,-85.0205535888671,46.600128545546426,39.305587138977856,882045773
iw,-59.687889099121,-85.4346466064453,71.44793246483454,41.49497767541577,882062440
iw,-61.1443748474121,-85.8843460083007,93.35237127413721,43.64263245763933,882079107
iw,-62.8852195739746,-86.3934860229492,109.94483731208688,45.154540389028014,882095774
iw,-64.9892959594726,-86.8557739257812,119.54993376273134,45.17771929363623,882112441
iw,-67.08203125,-87.1469955444336,121.62667074670074,42.70292774277144,882129108
iw,-69.9311981201171,-87.3416290283203,117.01944308687156,36.72989827570952,882145775
iw,-72.6429672241211,-87.5033874511718,107.90411490869862,26.469947643290617,882162442
iw,-74.0017471313476,-87.5736007690429,97.36070101638238,11.548392287059999,882179109
iw,-74.5235214233398,-87.5972747802734,88.61980473179021,-7.843466483855863,882195776
iw,-75.0269393920898,-87.6839599609375,84.18408716436228,-30.90235873556324,882212443
iw,-76.218391418457,-87.7386016845703,85.12400309315998,-56.30997927591232,882229110
iw,-77.9575119018554,-87.0329132080078,90.80303029407989,-82.45983865348347,882245777
iw,-80.0272064208984,-85.4553756713867,99.11480059032124,-107.74034216505545,882262444
iw,-81.9660034179687,-83.4421081542968,107.12016868357142,-130.76963926548322,882279111
iw,-83.6960296630859,-81.1105117797851,111.86172146139255,-150.50396787930498,882295778
iw,-85.5546798706054,-78.4483413696289,111.1313509287831,-166.21035379314665,882312445
iw,-87.3698348999023,-75.5864181518554,104.02394868514573,-177.36227347144205,882329112
iw,-88.2281188964843,-72.6100082397461,91.16883557575107,-183.54610174854295,882345779
iw,-87.2645568847656,-69.6349334716796,74.57828491007014,-184.4496659034228,882362446
iw,-86.7218856811523,-66.3025283813476,57.12067971371809,-179.95596536076263,882379113
iw,-87.0924224853515,-62.9746665954589,41.736696715419775,-170.30427272059518,882395780
iw,-87.5263061523437,-60.3360595703125,30.636241453877034,-156.2309287509056,882412447
iw,-87.3091430664062,-58.1188659667968,24.759380310059644,-138.9911209716256,882429114
iw,-86.4025115966796,-56.1561698913574,23.694220961422978,-120.20448767549547,882445781
iw,-85.2929382324218,-54.751350402832,26.046835627652197,-101.54318612292269,882462448
iw,-84.4918899536132,-53.873233795166,30.065913233121922,-84.35376239174357,882479115
iw,-83.8618621826171,-53.1473579406738,34.248401382395144,-69.34331894409758,882495782
iw,-83.2069625854492,-52.2032737731933,37.71526418428056,-56.4487309286236,882512449
iw,-82.5470428466796,-51.0193405151367,40.282851775822515,-44.94107107536764,882529116
iw,-81.9188613891601,-50.0829429626464,42.27944032674256,-33.720302082721076,882545783
iw,-81.3483505249023,-49.7754478454589,44.22379323365305,-21.68184968197146,882562450
iw,-80.7306365966796,-49.8314208984375,46.49457756526465,-8.031955132042947,882579117
iw,-79.9471740722656,-49.9953575134277,49.09430069885354,7.5157189883220585,882595784
iw,-79.0290298461914,-50.2041778564453,51.565208994792506,24.66826734497675,882612451
iw,-78.0708923339843,-50.5046195983886,53.062109868942365,42.588967763787046,882629118
iw,-77.1617202758789,-51.4260520935058,52.54377401646644,60.02997340743729,882645785
iw,-76.2904434204101,-52.8739166259765,49.02031898684145,75.55327481807535,882662452
iw,-75.4253463745117,-54.2490043640136,41.787835132859456,87.80718107541706,882679119
iw,-74.6907882690429,-55.6262741088867,30.586993242922365,95.79911733974029,882695786
iw,-74.2587661743164,-57.0810585021972,15.637917937727886,99.10718067032144,882712453
iw,-74.3316650390625,-58.6854438781738,-2.4654016023129857,98.00074726767913,882729120
iw,-74.9784164428711,-60.2751960754394,-22.96985294247029,93.4633658325625,882745787
iw,-76.0151290893554,-61.7755699157714,-45.20450684950104,87.10895089641235,882762454
iw,-77.3884963989257,-63.5549240112304,-68.73864635837177,80.96738262436207,882779121
iw,-78.9581451416015,-64.9039154052734,-93.36690696034057,77.11799145860614,882795788
iw,-80.5748519897461,-65.9101257324218,-118.9005711120054,77.19112191510476,882812455
iw,-82.2437973022461,-66.3892593383789,-144.83527988218847,81.83631018252753,882829122
iw,-83.9775466918945,-67.0742568969726,-170.03924237872914,90.33538375400094,882845789
iw,-85.5047378540039,-68.2786712646484,-192.62747053341135,100.56219411035578,882862456
iw,-85.6930694580078,-70.106948852539,-210.14150079835628,109.41248255555318,882879123
iw,-83.5930557250976,-72.5215225219726,-220.0504856529061,113.6557810310165,882895790
iw,-80.0303268432617,-75.118911743164,-220.45911222380929,110.96645587980359,882912457
iw,-75.150390625,-77.4577255249023,-210.7941765722242,100.76807852734954,882929124
iw,-71.8026428222656,-79.3413925170898,-192.19664718153646,84.5428579175548,882945791
iw,-69.092414855957,-80.0862503051757,-167.4143400135189,65.42940836499723,882962458
iw,-66.8434371948242,-79.8159790039062,-140.1682850672378,47.21037537548322,882979125
iw,-65.6968994140625,-79.2769622802734,-114.17597552129803,33.068313176908276,882995792
iw,-65.0597076416015,-79.4798355102539,-92.15263807717112,24.617983479531173,883012459
iw,-64.2789077758789,-80.2669448852539,-75.12138313903166,21.605489402495405,883029126
iw,-63.0400848388671,-81.0525207519531,-62.25235124577507,22.344387809374695,883045793
iw,-61.7507629394531,-81.5969772338867,-51.26589706555865,24.621685698274856,883062460
iw,-60.898323059082,-82.1481781005859,-39.24754764222693,26.639046212296858,883079127
iw,-60.435863494873,-82.7038116455078,-23.60850265502249,27.610561398481767,883095794
iw,-60.2905845642089,-83.2690658569336,-2.9162626558306424,27.839675644907192,883112461
iw,-60.0860366821289,-83.8092880249023,22.61465784539893,28.32607206840826,883129128
iw,-60.0089988708496,-84.2564544677734,51.091314263808044,30.119840147820376,883145795
iw,-61.7414054870605,-84.6522827148437,79.3891827816396,33.6992990499919,883162462
iw,-64.8243179321289,-85.0610046386718,103.97171738942647,38.59599157414351,883179129
iw,-67.2057876586914,-85.2849502563476,121.84417523510012,43.36365821557191,883195796
iw,-69.4299011230468,-85.2207870483398,131.3373955501859,45.85402072723752,883212463
iw,-71.467788696289,-85.0349731445312,132.48337206336214,43.68051176791642,883229130
iw,-73.7809143066406,-84.9494552612304,126.90915463590666,34.74044535707705,883245797
iw,-75.7139587402343,-85.0143814086914,117.33397344682433,17.699541504869522,883262464
iw,-77.484504699707,-85.1667785644531,106.83802884793396,-7.624994039980074,883279131
iw,-79.0071640014648,-85.3894729614257,98.08974378435907,-40.041621651554635,883295798
iw,-80.0382614135742,-85.6458969116211,92.70852952744954,-76.99155461723923,883312465
iw,-81.061408996582,-85.4975891113281,90.91594056346096,-114.84573907434942,883329132
iw,-82.4369659423828,-83.9913635253906,91.57673509562292,-149.4921099604784,883345799
iw,-84.2046127319336,-81.2159347534179,92.63846933704116,-177.11184804235185,883362466
iw,-86.0891418457031,-77.765640258789,91.8553245370655,-194.9475372096761,883379133
iw,-87.9873428344726,-73.9998397827148,87.57382173958224,-201.83476991384921,883395800
iw,-88.7329864501953,-70.4981002807617,79.3178610264224,-198.33070038535053,883412467
iw,-87.7694549560546,-67.5081253051757,67.96508358540807,-186.40891666296505,883429134
iw,-87.3257064819336,-65.2317199707031,55.445748949438325,-168.8444641109726,883445801
iw,-87.3318557739257,-63.4075088500976,44.07524378719378,-148.51921826256546,883462468
iw,-87.3412628173828,-61.2591285705566,35.77917645699305,-127.88353407703647,883479135
iw,-87.0854339599609,-58.95357131958,31.510748814194624,-108.70570576747059,883495802
iw,-86.4431228637695,-56.8109550476074,31.067120313474838,-92.08038957474493,883512469
iw,-85.4570922851562,-55.5832366943359,33.33236675645911,-78.54906124210234,883529136
iw,-84.2892074584961,-54.882999420166,36.80028453211889,-68.18438558247378,883545803
iw,-83.2816619873046,-54.4072227478027,40.13866175574387,-60.592760771478424,883562470
iw,-82.504280090332,-53.5894737243652,42.57637776266425,-54.90288591797583,883579137
iw,-81.7925949096679,-52.5597763061523,44.00045341997966,-49.84301824495272,883595804
iw,-81.1012344360351,-51.6572341918945,44.78207986707259,-43.95265437258228,883612471
iw,-80.5238571166992,-51.0317573547363,45.44876700053957,-35.886827711375574,883629138
iw,-79.9731521606445,-50.6289749145507,46.354037619456705,-24.721260096077053,883645805
iw,-79.2520141601562,-50.3993530273437,47.47037392780785,-10.172649422277054,883662472
iw,-78.3052291870117,-50.3096771240234,48.3663893591341,7.316820401877967,883679139
iw,-77.2654800415039,-50.543041229248,48.35117743988921,26.647317408084803,883695806
iw,-76.3093872070312,-51.4277725219726,46.705953345829904,46.26828015178649,883712473
iw,-75.523696899414,-52.8454513549804,42.899977990495465,64.47742467208772,883729140
iw,-74.9483642578125,-54.0625267028808,36.710618051169014,79.73411034621235,883745807
iw,-74.5410614013671,-55.2362174987793,28.21883784703528,90.907012651808,883762474
iw,-74.2915573120117,-56.6383323669433,17.702693151349568,97.41477437273427,883779141
iw,-74.2119827270507,-58.3409576416015,5.481271575446705,99.27155557299082,883795808
iw,-74.3498916625976,-60.0324172973632,-8.234016715773139,97.07377482875086,883812475
iw,-74.8129272460937,-61.5170211791992,-23.435471117853226,91.94700118454557,883829142
iw,-75.5704727172851,-62.9798278808593,-40.33313192220411,85.44000014589398,883845809
iw,-76.5980758666992,-64.6058883666992,-59.2732539930125,79.3379339863555,883862476
iw,-77.9454193115234,-65.8567428588867,-80.56588208912943,75.37811902017563,883879143
iw,-79.5975265502929,-66.866096496582,-104.24943995080679,74.88498726620432,883895810
iw,-81.6526412963867,-67.6263427734375,-129.84478854756475,78.3900871172772,883912477
iw,-84.1037979125976,-68.4741592407226,-156.16898884572342,85.35331958841456,883929144
iw,-86.6848907470703,-69.7122497558593,-181.28392728470152,94.12113224469124,883945811
iw,-88.6610412597656,-71.3259506225586,-202.64417203326465,102.21374112917502,883962478
iw,-86.5003890991211,-73.2494354248046,-217.47701674013817,106.92555293747422,883979145
iw,-82.94287109375,-75.3423919677734,-223.36708802002696,106.09203673728437,883995812
iw,-78.5256881713867,-77.5239486694336,-218.9281436603123,98.78191100375517,884012479
iw,-73.6220397949218,-79.5783462524414,-204.3537524981445,85.66034568416401,884029146
iw,-70.5642318725586,-80.8505630493164,-181.60680529729308,68.8540141773921,884045813
iw,-68.4148406982421,-81.2278823852539,-154.09416718991133,51.3213307235734,884062480
iw,-66.9664840698242,-81.1555404663086,-125.87011230109542,35.939096675075575,884079147
iw,-66.0985336303711,-81.3424530029296,-100.62065753410585,24.659644485209157,884095814
iw,-65.2418670654296,-82.0204391479492,-80.77680593294734,18.07044079242983,884112481
iw,-64.0836105346679,-82.7832489013671,-67.03974134420393,15.49253261586632,884129148
iw,-62.543846130371,-83.2956008911132,-58.42449073041285,15.49965028890497,884145815
iw,-61.3741607666015,-83.7889022827148,-52.73669651447253,16.578121890638368,884162482
iw,-60.5876502990722,-84.3572921752929,-47.27679851785773,17.6494404767719,884179149
iw,-60.1073303222656,-84.9129638671875,-39.55399093222731,18.299693698399896,884195816
iw,-59.7947540283203,-85.4150848388671,-27.85852840491608,18.71091377218706,884212483
iw,-59.3105697631835,-85.799331665039,-11.617188718435667,19.397761593903535,884229150
iw,-58.8991813659668,-86.1405487060546,8.503426108212789,20.89111878757762,884245817
iw,-59.0404891967773,-86.5055999755859,30.767541704359246,23.484707879994986,884262484
iw,-60.4743728637695,-86.8388214111328,52.80364083258789,27.10038244476266,884279151
iw,-62.4710350036621,-87.1383743286132,72.21180674959678,31.268539141877703,884295818
iw,-64.3078155517578,-87.4435806274414,87.16962772894874,35.18845340278595,884312485
iw,-65.8373565673828,-87.7327270507812,96.84000146989501,37.83377158133097,884329152
iw,-67.1480712890625,-87.9869537353515,101.46471424450566,38.085965516114356,884345819
iw,-68.6244583129882,-88.1082458496093,102.16358355557034,34.89194840076196,884362486
iw,-70.2876434326171,-87.9491958618164,100.56072993040722,27.438187446226973,884379153
iw,-72.304458618164,-87.6950531005859,98.37450674440451,15.315768643920327,884395820
iw,-74.1958999633789,-87.6353683471679,97.05574089096211,-1.364493117233413,884412487
iw,-75.6999130249023,-87.7968215942382,97.5024208096961,-21.944586057305727,884429154
iw,-76.9908981323242,-87.954360961914,99.8649299759666,-45.293995277723624,884445821
iw,-78.3803939819336,-87.716812133789,103.47984872688255,-69.97138346181391,884462488
iw,-80.0855712890625,-86.7745666503906,106.98669946165693,-94.43607915908315,884479155
iw,-81.8849487304687,-85.1039123535156,108.65139321579856,-117.26186034112538,884495822
iw,-83.6561584472656,-82.7928771972656,106.84698188701927,-137.30385310781747,884512489
iw,-85.4797058105468,-80.0494995117187,100.56710609084543,-153.77624295032433,884529156
iw,-87.1148605346679,-77.1740493774414,89.81010922776689,-166.21966525214975,884545823
iw,-87.7745513916015,-74.2704544067382,75.68974731525653,-174.37634846161447,884562490
iw,-87.5213241577148,-71.3864593505859,60.202147662803256,-178.03867683941374,884579157
iw,-87.3789291381836,-68.6018905639648,45.69549502497521,-176.9668039253734,884595824
iw,-87.6554870605468,-65.2220230102539,34.21187087603961,-170.9532712400063,884612491
iw,-87.8144760131836,-62.1006469726562,26.93826756307386,-160.03763083237664,884629158
iw,-87.4077682495117,-59.4480972290039,23.965782391661868,-144.77359434162975,884645825
iw,-86.7068786621093,-57.2424201965332,24.4208372866314,-126.38914732386625,884662492
iw,-86.1132507324218,-55.5842132568359,26.874030859016013,-106.70531483353578,884679159
iw,-85.5479049682617,-54.6181259155273,29.838893536664433,-87.78462552906927,884695826
iw,-84.9628524780273,-54.2857017517089,32.18108482405116,-71.410866450593,884712493
iw,-84.3437957763671,-53.7003211975097,33.33708852517138,-58.59208738934962,884729160
iw,-83.7670288085937,-52.87446975708,33.330655182653985,-49.28213895670568,884745827
iw,-83.254653930664,-52.0120811462402,32.634856356573074,-42.426877543940584,884762494
iw,-82.8213272094726,-51.2543640136718,31.950629367812393,-36.307896606975554,884779161
iw,-82.3785171508789,-50.7486763000488,31.970380111537334,-29.05273220426235,884795828
iw,-81.8173904418945,-50.4224014282226,33.17961913369156,-19.14839018756291,884812495
iw,-81.1746826171875,-50.1844406127929,35.72788537819904,-5.823503906126796,884829162
iw,-80.4801025390625,-50.2631149291992,39.37797114688573,10.78153615214194,884845829
iw,-79.7334747314453,-51.0020675659179,43.52602760154348,29.679019482179637,884862496
iw,-78.9346771240234,-52.0292892456054,47.278023871267735,49.297482669967515,884879163
iw,-78.1012573242187,-53.1799201965332,49.567528365659385,67.85929352017912,884895830
iw,-77.2656021118164,-54.3670425415039,49.299871441643724,83.76584445304742,884912497
iw,-76.4820022583007,-55.855655670166,45.50508167560216,95.9018600923537,884929164
iw,-75.7912063598632,-57.788776397705,37.4779230484865,103.81010833872467,884945831
iw,-75.2993087768554,-59.8236656188964,24.881730943476395,107.72061328589567,884962498
iw,-75.1401214599609,-61.4891967773437,7.79705033667912,108.43648818838145,884979165
iw,-75.363784790039,-62.9714889526367,-13.292430560279069,107.0973758179864,884995832
iw,-76.0304870605468,-64.7232589721679,-37.56796377966748,104.86996906655466,885012499
iw,-77.1261672973632,-66.0822296142578,-63.97441284299264,102.63899552384426,885029166
iw,-78.5944900512695,-67.2292327880859,-91.31967075396501,100.77624671765683,885045833
iw,-80.4275741577148,-68.2339096069336,-118.35051841699716,99.05373073158069,885062500
iw,-82.5727081298828,-69.573974609375,-143.79668440103916,96.74586336579475,885079167
iw,-84.9509658813476,-71.4161224365234,-166.39582091098845,92.92229503827674,885095834
iw,-87.2373580932617,-73.5963363647461,-184.9294168284084,86.85671661223822,885112501
iw,-87.3501892089843,-75.410903930664,-198.30316462999204,78.39661762075681,885129168
iw,-84.4061279296875,-76.274787902832,-205.6866683887934,68.11958853735214,885145835
iw,-80.4964294433593,-76.57080078125,-206.68794886679143,57.18672419460038,885162502
iw,-76.8308868408203,-76.6933364868164,-201.49716514508066,46.95761588085414,885179169
iw,-74.0916213989257,-77.0647583007812,-190.92382837064739,38.55377778694494,885195836
iw,-71.3921127319336,-77.7611694335937,-176.29059289731615,32.56575084730626,885212503
iw,-68.4696426391601,-78.7071304321289,-159.20992308393875,28.999004298681324,885229170
iw,-65.9902648925781,-79.6903305053711,-141.30835954252416,27.424209268108402,885245837
iw,-64.1456298828125,-80.4654159545898,-123.95870224846576,27.21822069170558,885262504
iw,-62.5799903869628,-81.0448760986328,-108.06183810831982,27.779789558452393,885279171
iw,-61.0706672668457,-81.5361099243164,-93.91350814065997,28.654458832976196,885295838
iw,-59.6830749511718,-81.9615631103515,-81.18684273084789,29.564666746514366,885312505
iw,-58.4963035583496,-82.4059143066406,-69.04030034665539,30.382055285463036,885329172
iw,-57.5268058776855,-82.9479598999023,-56.32919472399161,31.086759388702678,885345839
iw,-56.9743309020996,-83.5051803588867,-41.878089032606894,31.73837515906454,885362506
iw,-56.6790161132812,-84.0257492065429,-24.768413195071027,32.453749205821225,885379173
iw,-56.5055389404296,-84.4427871704101,-4.599582226621376,33.369497948540335,885395840
iw,-56.61474609375,-84.7563400268554,18.32099338823296,34.57409393168161,885412507
iw,-56.9129600524902,-85.036750793457,42.912238144151594,36.019273160872864,885429174
iw,-58.0093917846679,-85.3283996582031,67.42718185065212,37.44426665465414,885445841
iw,-59.8559532165527,-85.6252059936523,89.74737532678975,38.35122797322953,885462508
iw,-61.8421325683593,-85.9453201293945,107.81409725712115,38.05217401353937,885479175
iw,-63.9594612121582,-86.2210464477539,120.0899587639401,35.77764320197039,885495842
iw,-65.8938827514648,-86.3813934326171,125.93029864083718,30.812266339223704,885512509
iw,-67.9590682983398,-86.3791198730468,125.7744437005012,22.61547991265731,885529176
iw,-70.6865921020507,-86.3927764892578,121.11089292295894,10.898958806305913,885545843
iw,-73.3314971923828,-86.4615020751953,114.20138148888175,-4.3432284780376555,885562510
iw,-74.6815567016601,-86.5967102050781,107.57997684293272,-22.835945884859115,885579177
iw,-75.5693130493164,-86.6771011352539,103.40857947825933,-44.03686688958275,885595844
iw,-76.7086486816406,-86.3789138793945,102.86112332944552,-67.15612749374046,885612511
iw,-78.4183654785156,-85.5343704223632,105.75426985255463,-91.18852582202764,885629178
iw,-80.4133529663086,-84.1448593139648,110.57922338719088,-114.96709444467955,885645845
iw,-82.4647750854492,-82.2400512695312,114.94037697097687,-137.237706558554,885662512
iw,-84.4845962524414,-79.8711547851562,116.261140523579,-156.74471481663767,885679179
iw,-86.2915496826171,-77.1436691284179,112.54498724653618,-172.31652022709804,885695846
iw,-87.717414855957,-73.9813842773437,102.98467501701455,-182.94715240793806,885712513
iw,-87.646987915039,-70.7054977416992,88.26043945682648,-187.87796989461867,885729180
iw,-86.376480102539,-67.6568603515625,70.43431143098248,-186.68587502233126,885745847
iw,-85.8985519409179,-64.7174377441406,52.437446380843184,-179.37943926591677,885762514
iw,-86.1351776123046,-61.9073448181152,37.26979355575172,-166.49104417679692,885779181
iw,-86.45751953125,-59.1311874389648,27.15646456074676,-149.12986987122045,885795848
iw,-86.5153045654296,-56.637336730957,22.957560134259108,-128.936494586899,885812515
iw,-85.9605636596679,-54.872013092041,24.047312284376606,-107.88139191594956,885829182
iw,-84.8234329223632,-53.8885154724121,28.68524745116484,-87.90035306102185,885845849
iw,-83.6149749755859,-53.2861061096191,34.696779976672794,-70.4486413048367,885862516
iw,-82.6649475097656,-52.7109107971191,40.172550312313376,-56.13020183941799,885879183
iw,-81.9822311401367,-51.9712028503418,43.93194802965797,-44.56064966044736,885895850
iw,-81.3507537841796,-51.0411567687988,45.6383186769023,-34.538301490712215,885912517
iw,-80.6406478881836,-50.2174034118652,45.611836450663766,-24.470054289719236,885929184
iw,-79.9677124023437,-49.8173217773437,44.483277290499096,-12.899233110992103,885945851
iw,-79.3617477416992,-49.7854423522949,42.845088845325364,1.0413013219681149,885962518
iw,-78.7433776855468,-49.8914527893066,41.011090776202686,17.37835849050942,885979185
iw,-78.1236190795898,-50.2295341491699,38.93164438050011,35.296322058468775,885995852
iw,-77.4718399047851,-51.2815971374511,36.253007538272094,53.35628323497364,886012519
iw,-76.8268356323242,-52.8137779235839,32.4689430822274,69.85612190128684,886029186
iw,-76.2815704345703,-54.1161231994628,27.093708125764714,83.22202622925153,886045853
iw,-75.8372802734375,-55.4748191833496,19.789245780494046,92.32754347837779,886062520
iw,-75.5973281860351,-56.9765090942382,10.40309745655385,96.68163629458269,886079187
iw,-75.6905212402343,-58.5692291259765,-1.0890355036693475,96.48678959127913,886095854
iw,-76.1407775878906,-60.1476898193359,-14.700821685403668,92.60189546410179,886112521
iw,-76.8895645141601,-61.6536521911621,-30.545871449955936,86.43719716190483,886129188
iw,-77.8426513671875,-63.3387908935546,-48.86695479035874,79.77909652696847,886145855
iw,-79.0208358764648,-64.8339462280273,-69.9353462018145,74.52250620938777,886162522
iw,-80.3881683349609,-65.8914031982421,-93.82482614147399,72.30168367347567,886179189
iw,-82.1477279663086,-66.5310440063476,-120.12389909984174,74.06387596587568,886195856
iw,-84.3231811523437,-67.1979293823242,-147.6895861868329,79.70273229155451,886212523
iw,-86.6907424926757,-68.2857131958007,-174.55179403880243,87.91164053951302,886229190
iw,-88.0152511596679,-69.894790649414,-198.04964913999208,96.38304819698114,886245857
iw,-85.9745483398437,-71.9166183471679,-215.2289850121429,102.36364109768313,886262524
iw,-82.4591827392578,-74.0051193237304,-223.458134171041,103.42804993761146,886279191
iw,-77.8477554321289,-76.0406341552734,-221.13082386070624,98.2283500798866,886295858
iw,-73.1840744018554,-78.1029281616211,-208.24322758063474,86.96024636095987,886312525
iw,-70.2338027954101,-79.7008514404296,-186.61120971275446,71.36451207222844,886329192
iw,-67.8667755126953,-80.205696105957,-159.58461756805423,54.23256155310433,886345859
iw,-65.9526596069336,-80.047607421875,-131.30087828308072,38.56973831027153,886362526
iw,-64.8084869384765,-80.0297393798828,-105.70299802828688,26.72052362728543,886379193
iw,-63.9628372192382,-80.5981979370117,-85.62914902002271,19.787513435371686,886395860
iw,-62.9970359802246,-81.3399810791015,-72.23799305452229,17.5403285359135,886412527
iw,-61.5398902893066,-82.0079956054687,-64.90420432157457,18.780421595843073,886429194
iw,-60.147289276123,-82.6537780761718,-61.55949845658281,21.939921255946818,886445861
iw,-59.0178565979003,-83.2496490478515,-59.32592929747268,25.642017977068004,886462528
iw,-58.1455497741699,-83.809097290039,-55.238378266805704,29.030802424178287,886479195
iw,-57.5899848937988,-84.3565979003906,-46.88646232295884,31.8170492137885,886495862
iw,-56.9729080200195,-84.916389465332,-32.877810146552086,34.10719338122977,886512529
iw,-56.407600402832,-85.4535217285156,-13.081157356190511,36.14199788830596,886529196
iw,-56.2914237976074,-85.9981231689453,11.368556063078403,38.06395701749531,886545863
iw,-57.1473007202148,-86.4908370971679,38.305397011524235,39.78239052802369,886562530
iw,-58.7145614624023,-86.8607635498046,64.97234483818602,40.94735104343934,886579197
iw,-60.2732238769531,-87.160415649414,88.5748509449279,41.0047387169925,886595864
iw,-61.8782691955566,-87.5145492553711,106.82421460707762,39.2942661248878,886612531
iw,-63.6061515808105,-87.9085617065429,118.36441321204403,35.161015168167275,886629198
iw,-65.9164352416992,-88.1625137329101,123.02229004605775,28.064392603051477,886645865
iw,-68.3634262084961,-88.1771545410156,121.85077371570705,17.67385828971717,886662532
iw,-71.1232986450195,-88.1158142089843,116.93567984665724,3.938716361483403,886679199
iw,-72.9772491455078,-88.0922775268554,110.94607122243318,-12.88261539896452,886695866
iw,-74.0136260986328,-88.0449600219726,106.47069861538648,-32.24351626124909,886712533
iw,-74.9266052246093,-87.6729965209961,105.2923975520112,-53.37824506015277,886729200
iw,-76.3880615234375,-86.6222915649414,107.83732737205658,-75.40264475727537,886745867
iw,-78.2635726928711,-85.1031112670898,113.01620089622604,-97.41657692682942,886762534
iw,-80.4445724487304,-83.2322769165039,118.5394646334036,-118.5723458142527,886779201
iw,-82.5560531616211,-81.058120727539,121.61228550857444,-138.0833986830724,886795868
iw,-84.5277557373046,-78.5785980224609,119.79089260498566,-155.17543185970848,886812535
iw,-86.4145050048828,-75.8556442260742,111.74830221716834,-169.01687859739351,886829202
iw,-87.4573211669921,-72.9332656860351,97.7341684755875,-178.68947615818612,886845869
iw,-86.7729339599609,-69.9382629394531,79.58846525824717,-183.2572072588442,886862536
iw,-86.2941436767578,-66.8655319213867,60.276912419542455,-181.95797608398914,886879203
iw,-86.5882110595703,-63.5388679504394,43.0624341321186,-174.48360725296743,886895870
iw,-87.0400466918945,-60.5922698974609,30.575867477183245,-161.25054300825806,886912537
iw,-87.0023880004882,-58.0371894836425,24.115783022157647,-143.52832626351508,886929204
iw,-86.3153915405273,-56.0395050048828,23.424597262637015,-123.3166613268637,886945871
iw,-85.265754699707,-54.8285980224609,26.982261247754764,-102.95056927023448,886962538
iw,-84.3025360107421,-54.0409126281738,32.643331786450055,-84.53377070998556,886979205
iw,-83.5978317260742,-53.4066123962402,38.33479137190484,-69.39315484207117,886995872
iw,-82.9061889648437,-52.6442985534668,42.56893612138815,-57.758591836637024,887012539
iw,-82.0683059692382,-51.6252632141113,44.65582212714844,-48.78873833540602,887029206
iw,-81.1937484741211,-50.5385437011718,44.63431488174509,-40.92343510240472,887045873
iw,-80.4788665771484,-49.6700439453125,43.02071700615271,-32.41753740444891,887062540
iw,-80.0292663574218,-49.3224449157714,40.49440245331435,-21.860457192550832,887079207
iw,-79.578628540039,-49.2002143859863,37.62427521115528,-8.524861931535074,887095874
iw,-78.9262542724609,-49.2604217529296,34.705297875388155,7.519869292886271,887112541
iw,-78.243537902832,-49.9096755981445,31.72672679063875,25.50432932477055,887129208
iw,-77.6946029663086,-50.843765258789,28.444294842508015,44.18835774698986,887145875
iw,-77.2847137451171,-51.6977844238281,24.497668577211634,62.13413857591904,887162542
iw,-76.947021484375,-52.6778945922851,19.514160285321587,77.95561868097467,887179209
iw,-76.6702270507812,-54.0747833251953,13.161948865935704,90.51565043915359,887195876
iw,-76.5313262939453,-55.9091072082519,5.143757400509225,99.07394415077918,887212543
iw,-76.6664047241211,-57.7566757202148,-4.854359677248353,103.39320925026469,887229210
iw,-77.1140670776367,-59.5397224426269,-17.22467150266214,103.79416070777916,887245877
iw,-77.9017257690429,-61.2342720031738,-32.46065434105519,101.13686136502774,887262544
iw,-78.9446411132812,-62.9660949707031,-51.09060753156318,96.7091925471282,887279211
iw,-80.2134246826171,-64.8478927612304,-73.49385703922421,92.01646451934154,887295878
iw,-81.7543334960937,-66.3882369995117,-99.61831798923834,88.48246319504274,887312545
iw,-83.5997238159179,-67.4368362426757,-128.67523254929557,87.09836249353269,887329212
iw,-85.8070297241211,-68.1389007568359,-158.92888839951559,88.09885228609856,887345879
iw,-87.8424224853515,-69.1311950683593,-187.70348513986454,90.78669631016209,887362546
iw,-87.0759124755859,-70.4794998168945,-211.68773628162594,93.62471124388577,887379213
iw,-83.9057159423828,-72.1750183105468,-227.53630710038212,94.63731022071703,887395880
iw,-79.4106140136718,-74.0722427368164,-232.65949780548908,92.03334120257426,887412547
iw,-73.9938812255859,-75.9782943725586,-225.98430690850412,84.84415742121018,887429214
iw,-70.4904251098632,-77.5750503540039,-208.41359403617923,73.33164782389967,887445881
iw,-67.7833709716796,-78.518684387207,-182.769178235109,58.9882726427924,887462548
iw,-65.5201339721679,-78.7121047973632,-153.18620257905593,44.105333426857,887479215
iw,-63.6412086486816,-78.6281967163086,-124.13832061493316,31.065345537734704,887495882
iw,-62.5698890686035,-78.8535385131836,-99.39634227130637,21.634575012797022,887512549
iw,-61.650333404541,-79.3248977661132,-81.21471275872909,16.52598519734651,887529216
iw,-60.5121040344238,-79.7943725585937,-69.94100382698534,15.37154239925138,887545883
iw,-59.0966148376464,-80.3634262084961,-64.1074815592363,17.060254311709503,887562550
iw,-57.8955039978027,-81.0616302490234,-60.93036446983388,20.259321205932878,887579217
iw,-56.955638885498,-81.7750244140625,-57.05036213208243,23.894218970523948,887595884
iw,-56.2062530517578,-82.3536605834961,-49.32439577738471,27.416518720327716,887612551
iw,-55.5180397033691,-82.7594680786132,-35.511544263967174,30.79797940038911,887629218
iw,-54.9997749328613,-83.0950546264648,-14.746359978181436,34.30561064203681,887645885
iw,-55.0286636352539,-83.4573822021484,12.267472885853074,38.18779545288481,887662552
iw,-55.7388877868652,-83.8814697265625,43.37515112086172,42.41018695118385,887679219
iw,-57.1398811340332,-84.3496551513671,75.38499153936692,46.529783928616325,887695886
iw,-58.8912315368652,-84.7902297973632,104.7041058195019,49.72140082491626,887712553
iw,-61.126838684082,-85.1919708251953,128.0699741758083,50.9128314757522,887729220
iw,-63.7755737304687,-85.5721206665039,143.2285606391393,48.9667286299137,887745887
iw,-66.5426254272461,-85.925422668457,149.41479013392478,42.86495305303052,887762554
iw,-69.2290954589843,-86.1529006958007,147.51987646231802,31.879884746686816,887779221
iw,-72.1806488037109,-86.2240600585937,139.8811015773748,15.729637315085556,887795888
iw,-74.4232025146484,-86.186538696289,129.7052512929003,-5.298905085865354,887812555
iw,-75.7579498291015,-86.1667175292968,120.23446376529165,-30.29882650308136,887829222
iw,-76.790771484375,-86.0755920410156,113.86472537402712,-57.81037491074278,887845889
iw,-78.1388931274414,-85.3564529418945,111.48753300230385,-86.02469260509301,887862556
iw,-79.8949279785156,-83.6859283447265,112.28902587839323,-113.0819628533763,887879223
iw,-81.9666213989257,-81.4867782592773,114.09546553136585,-137.36285470265415,887895890
iw,-84.1745986938476,-79.220100402832,114.15816458743245,-157.6610348142852,887912557
iw,-86.232666015625,-76.9046096801757,110.11599517402675,-173.18434425470082,887929224
iw,-87.8611907958984,-74.3069152832031,100.81912020634002,-183.43195884179784,887945891
iw,-87.7013549804687,-71.2547988891601,86.74834337259871,-188.06581454603887,887962558
iw,-86.6765747070312,-67.9276123046875,69.89278097886142,-186.88612324004762,887979225
iw,-86.5213775634765,-64.448974609375,53.121769950836224,-179.9405034653412,887995892
iw,-86.9115524291992,-61.2447776794433,39.26586822679399,-167.69941605644087,888012559
iw,-87.2910919189453,-58.7421073913574,30.243025646864698,-151.1770899033626,888029226
iw,-86.9137725830078,-56.7394561767578,26.557083878001066,-131.89469052825453,888045893
iw,-85.7924346923828,-55.2013092041015,27.335092289535872,-111.65630511777036,888062560
iw,-84.4964447021484,-53.8463668823242,30.82915274037575,-92.19501002544176,888079227
iw,-83.5580139160156,-52.7786483764648,35.11843358971124,-74.8021112977262,888095894
iw,-82.9405899047851,-51.970718383789,38.70712113192966,-60.05820624442961,888112561
iw,-82.3718795776367,-51.242576599121,40.82360837269546,-47.74834448995284,888129228
iw,-81.7546844482421,-50.561408996582,41.395919061093856,-36.98563488561864,888145895
iw,-81.205207824707,-49.9803962707519,40.8079069716624,-26.50684219541678,888162562
iw,-80.7089767456054,-49.5650787353515,39.58571160235829,-15.055953163097387,888179229
iw,-80.0863037109375,-49.4804153442382,38.13888249210072,-1.7510901493681692,888195896
iw,-79.3250274658203,-49.5108337402343,36.62106930526136,13.659094232275876,888212563
iw,-78.5458908081054,-49.8147850036621,34.911109939604515,30.709438014002735,888229230
iw,-77.8204345703125,-50.7394752502441,32.66899008178025,48.317658261458234,888245897
iw,-77.2369995117187,-51.9549407958984,29.407533649702945,65.03667871606775,888262564
iw,-76.9034652709961,-53.3020095825195,24.540571483769654,79.3873293359751,888279231
iw,-76.7756271362304,-54.8673706054687,17.405643285021373,90.18136018739034,888295898
iw,-76.7268829345703,-56.632583618164,7.2900776078583,96.75899149707591,888312565
iw,-76.7847366333007,-58.3883628845214,-6.504219404372872,99.10134337407376,888329232
iw,-77.0945968627929,-59.8727149963378,-24.54091538036867,97.81609007026165,888345899
iw,-77.8350982666015,-61.2275161743164,-47.086909970479596,94.02107611682402,888362566
iw,-79.058235168457,-62.7823219299316,-73.93966156836171,89.15948613453588,888379233
iw,-80.7516708374023,-64.5740890502929,-104.27969694943152,84.76993130625155,888395900
iw,-82.8421249389648,-65.7614517211914,-136.57957463679352,82.2173793754093,888412567
iw,-85.11376953125,-66.6308364868164,-168.60077529198028,82.3937637294754,888429234
iw,-86.9378433227539,-67.4548568725586,-197.51639624784895,85.43655458523081,888445901
iw,-86.369888305664,-68.6093139648437,-220.19882559898804,90.56480377921498,888462568
iw,-83.6921157836914,-70.0738143920898,-233.6905336141293,96.14364407648124,888479235
iw,-79.8617935180664,-71.7195434570312,-235.8195138888339,100.03049196742866,888495902
iw,-74.734260559082,-73.5458679199218,-225.8319773838168,100.14917954655014,888512569
iw,-70.5435943603515,-75.406135559082,-204.83054337357981,95.13266472582346,888529236
iw,-67.8644714355468,-77.2673187255859,-175.79648503740947,84.81879093213331,888545903
iw,-65.7785339355468,-78.81005859375,-143.08968321684546,70.40500344074049,888562570
iw,-64.104621887207,-79.7046356201171,-111.51977871239087,54.17142878982419,888579237
iw,-63.1710739135742,-79.9993057250976,-85.25222713884104,38.84050480912273,888595904
iw,-62.7804298400878,-79.95654296875,-66.86816996646762,26.79292445476654,888612571
iw,-62.1333770751953,-79.8965454101562,-56.83776895967062,19.42764100262643,888629238
iw,-60.9848823547363,-80.0893859863281,-53.53651085493914,16.89503608113118,888645905
iw,-59.751594543457,-80.5793228149414,-53.774501413118784,18.271551845330038,888662572
iw,-58.5748023986816,-81.3295745849609,-53.666205402938736,22.061087972722433,888679239
iw,-57.6407814025878,-82.2036666870117,-49.593405044916054,26.79056991695066,888695906
iw,-57.0452575683593,-83.0208511352539,-39.027782052560354,31.46123058765456,888712573
iw,-56.5383071899414,-83.6538391113281,-21.053020118476343,35.71088429136114,888729240
iw,-56.2825508117675,-84.1324234008789,3.4890123123257633,39.67968905794754,888745907
iw,-56.4397888183593,-84.5364990234375,32.2347529482943,43.68764244351881,888762574
iw,-57.7260360717773,-84.9308624267578,61.86459438194301,47.883383921148194,888779241
iw,-60.0187225341796,-85.2886505126953,88.8747816660933,52.00320673480918,888795908
iw,-62.316665649414,-85.5107955932617,110.36503730983924,55.31027831781762,888812575
iw,-64.4204864501953,-85.5809707641601,124.63194989975385,56.706257983637194,888829242
iw,-66.1990661621093,-85.5655364990234,131.42301643380202,54.95520530524574,888845909
iw,-68.198860168457,-85.5011138916015,131.82928764147024,48.94614476871968,888862576
iw,-70.7186431884765,-85.3948745727539,127.89960950807401,37.93495074874559,888879243
iw,-73.6181030273437,-85.243423461914,122.09293591891998,21.72594412803074,888895910
iw,-75.2361068725586,-85.1301574707031,116.66891643801704,0.7638310497323326,888912577
iw,-76.0275192260742,-85.2368774414062,113.1173483682835,-23.88990876749936,888929244
iw,-77.1866683959961,-85.7326278686523,111.76712835816663,-50.71002879209717,888945911
iw,-79.0731582641601,-86.3161315917968,111.73230037928444,-77.97057771639395,888962578
iw,-81.3302307128906,-86.1113357543945,111.26964703196353,-104.05063745730342,888979245
iw,-83.4889221191406,-84.7695846557617,108.45331297262162,-127.68123888444198,888995912
iw,-85.3360366821289,-82.7547836303711,101.92270283263089,-148.0441169608729,889012579
iw,-86.7942352294921,-80.5301437377929,91.42394347329923,-164.6972431570726,889029246
iw,-87.4557876586914,-77.9954452514648,77.9511179587116,-177.38643278496718,889045913
iw,-87.5504760742187,-75.2048263549804,63.44695655533237,-185.8578340182747,889062580
iw,-87.4667282104492,-72.0757217407226,50.181339622224534,-189.78060999178274,889079247
iw,-87.4823913574218,-68.7360687255859,40.03997602930932,-188.82594518733407,889095914
iw,-87.5335922241211,-65.0533294677734,33.98476643341807,-182.86129288802292,889112581
iw,-87.1626205444336,-62.021484375,31.87270355634372,-172.15285950478432,889129248
iw,-86.2606353759765,-59.7544517517089,32.66668765669849,-157.46106972110024,889145915
iw,-85.2843322753906,-57.860984802246,34.9094166726172,-139.96951542720316,889162582
iw,-84.5500030517578,-55.8732223510742,37.24106573038751,-121.07189021013461,889179249
iw,-83.9870910644531,-53.9939346313476,38.76289519691913,-102.09802853083205,889195916
iw,-83.4714736938476,-52.8060913085937,39.15496789837347,-84.06365665699198,889212583
iw,-82.9552764892578,-51.8423881530761,38.57598722128558,-67.50154260758556,889229250
iw,-82.398811340332,-50.9493789672851,37.44595790381478,-52.4066646758614,889245917
iw,-81.7777709960937,-50.2607192993164,36.22055890100977,-38.30823944290123,889262584
iw,-81.0935821533203,-49.7174758911132,35.22945360149786,-24.45492091364816,889279251
iw,-80.4138488769531,-49.4387626647949,34.60084475605576,-10.068828633080985,889295918
iw,-79.7255325317382,-49.4061431884765,34.25631138339796,5.395573950334484,889312585
iw,-79.0714035034179,-49.5036697387695,33.94426871279358,22.0522743779067,889329252
iw,-78.4949569702148,-50.1310310363769,33.284686849845336,39.49274637431058,889345919
iw,-78.0038070678711,-51.1044921875,31.811645540879763,56.82456497566064,889362586
iw,-77.5704345703125,-52.1729049682617,29.012875719788603,72.8290952569298,889379253
iw,-77.1342620849609,-53.5461349487304,24.369578827982284,86.20188387310927,889395920
iw,-76.7335662841796,-55.2831840515136,17.394885196484616,95.82753379773469,889412587
iw,-76.5158615112304,-57.0675582885742,7.662082975360426,101.040278767055,889429254
iw,-76.6495056152343,-58.7300910949707,-5.184966592647327,101.82435886848862,889445921
iw,-77.2306976318359,-60.6090774536132,-21.431241641462776,98.91125647064484,889462588
iw,-78.1378479003906,-62.5883293151855,-41.2699052411233,93.73395238942715,889479255
iw,-79.283203125,-64.3373947143554,-64.72314450166772,88.20592708224154,889495922
iw,-80.6863327026367,-65.4734191894531,-91.48696309321784,84.31979868412341,889512589
iw,-82.5170669555664,-66.3727340698242,-120.72849914707447,83.62155755380819,889529256
iw,-84.7776794433593,-67.131103515625,-150.9111658535796,86.6966406014846,889545923
iw,-87.1447372436523,-68.1760864257812,-179.74437076024836,92.85556461651014,889562590
iw,-87.9545516967773,-69.6485824584961,-204.3414077770959,100.1820854014868,889579257
iw,-85.497200012207,-71.4310302734375,-221.62544496154803,105.99761080040818,889595924
iw,-81.7317199707031,-73.5279006958007,-228.95220862001614,107.6413679172826,889612591
iw,-76.8923034667968,-75.9098434448242,-224.8221397917728,103.33007079567345,889629258
iw,-72.4174499511718,-78.2255706787109,-209.4619376328615,92.79906011423697,889645925
iw,-69.3539276123046,-79.990364074707,-185.02797707995765,77.47100802704546,889662592
iw,-66.8090209960937,-80.74658203125,-155.27703057986764,60.05211601106134,889679259
iw,-65.0521163940429,-80.5514068603515,-124.7435482141972,43.68030879950823,889695926
iw,-64.3396072387695,-80.3482437133789,-97.66038205013355,30.95083568594366,889712593
iw,-63.8423652648925,-80.6963195800781,-76.9627356195399,23.206277658558307,889729260
iw,-63.0334892272949,-81.3434524536132,-63.68471423367,20.348350467435893,889745927
iw,-61.5868415832519,-82.0671234130859,-56.91252616433461,21.178043192353407,889762594
iw,-60.1390228271484,-82.8146820068359,-54.256653355816276,24.045073768615975,889779261
iw,-59.0345954895019,-83.5245513916015,-52.63507101949277,27.499518321450033,889795928
iw,-58.2247352600097,-84.1760711669921,-49.09680696603256,30.700319684186297,889812595
iw,-57.656940460205,-84.7469635009765,-41.46891007321893,33.48334975074677,889829262
iw,-57.0537986755371,-85.2346954345703,-28.720075980681248,36.143890880330964,889845929
iw,-56.5997276306152,-85.7275848388671,-11.029748125048197,39.08444230460771,889862596
iw,-56.8429641723632,-86.34130859375,10.393639162986462,42.49426008704553,889879263
iw,-58.0165786743164,-86.9571456909179,33.66870495854124,46.173912064797506,889895930
iw,-59.3488388061523,-87.3689498901367,56.665529885126794,49.53434141249355,889912597
iw,-60.5914230346679,-87.5584030151367,77.38278101451817,51.7292297377451,889929264
iw,-61.6688652038574,-87.6488189697265,94.20118595857893,51.84832074980329,889945931
iw,-63.0394210815429,-87.5888900756836,106.01631163406633,49.10593528601838,889962598
iw,-65.0113906860351,-87.2524871826171,112.31564435312607,42.9827339737236,889979265
iw,-67.1064758300781,-86.95361328125,113.2573909978265,33.30183173532785,889995932
iw,-69.5036926269531,-86.8241806030273,109.7384566449871,20.23806174035956,890012599
iw,-71.8385772705078,-86.8193130493164,103.36783933313029,4.272809079646504,890029266
iw,-73.5010375976562,-86.8713150024414,96.25215814121044,-13.887088297188388,890045933
iw,-74.2467269897461,-87.096206665039,90.57205282694797,-33.41283790262199,890062600
iw,-75.2110900878906,-87.6549072265625,88.04471767339113,-53.47371511942434,890079267
iw,-76.6488037109375,-87.9699172973632,89.45263974501896,-73.36262577109116,890095934
iw,-78.3603515625,-87.2526245117187,94.40932798764419,-92.59663652617672,890112601
iw,-80.11865234375,-85.7386474609375,101.43713450626228,-110.94779556734862,890129268
iw,-81.7565765380859,-83.7305221557617,108.3209635701363,-128.37242943562586,890145935
iw,-83.384292602539,-81.3180923461914,112.63755410656914,-144.84591897387816,890162602
iw,-85.2386016845703,-78.6576919555664,112.34622855879797,-160.15323551300207,890179269
iw,-86.9673995971679,-75.7595062255859,106.32648480235481,-173.71277036960225,890195936
iw,-87.5693283081054,-72.7724685668945,94.73725017228178,-184.51469764501797,890212603
iw,-86.2390670776367,-69.6827011108398,79.07086449419194,-191.23433862028148,890229270
iw,-85.5220184326171,-66.3385238647461,61.825484807029795,-192.53304714363722,890245937
iw,-85.6981201171875,-62.6095314025878,45.843828375222756,-187.48462013322967,890262604
iw,-85.9180297851562,-59.3609085083007,33.52106073200345,-175.98464699176733,890279271
iw,-85.6624374389648,-56.4658164978027,26.172346830204205,-158.96024984826616,890295938
iw,-85.0553359985351,-54.4278488159179,23.794155247579692,-138.2440015053032,890312605
iw,-84.174560546875,-53.1606636047363,25.273946617831573,-116.10772996306092,890329272
iw,-83.3551559448242,-52.3987312316894,28.909597313856555,-94.60856585257659,890345939
iw,-82.6656265258789,-51.5581970214843,33.000548306652355,-74.99636544122234,890362606
iw,-82.0410537719726,-50.6350784301757,36.298345161150394,-57.41423406133918,890379273
iw,-81.3806228637695,-49.6861724853515,38.20861090671262,-41.00131426709931,890395940
iw,-80.699234008789,-48.884464263916,38.74733529424828,-24.344606209343663,890412607
iw,-80.0286331176757,-48.5694007873535,38.32437520932384,-6.102852615835199,890429274
iw,-79.5111618041992,-48.4957695007324,37.45036228223555,14.414937704553559,890445941
iw,-79.1786727905273,-48.8485794067382,36.458170726194126,36.895575307825574,890462608
iw,-78.8715362548828,-49.8132171630859,35.313004379773474,59.98788905815049,890479275
iw,-78.3785629272461,-51.3768882751464,33.55824693064864,81.58717963676101,890495942
iw,-77.706314086914,-53.2972335815429,30.403463617785057,99.34702977966813,890512609
iw,-77.0146179199218,-55.3199386596679,24.91202696391123,111.268142507988,890529276
iw,-76.5248031616211,-57.3134422302246,16.209872144532383,116.20379431182022,890545943
iw,-76.4364242553711,-59.3944396972656,3.637222474147164,114.16154811305034,890562610
iw,-76.8850173950195,-61.2870025634765,-13.193220858589838,106.34656988711052,890579277
iw,-77.7470092773437,-63.0877799987793,-34.40673941650493,94.95254785328979,890595944
iw,-78.8407211303711,-64.5323410034179,-59.87635559087795,82.74752665164462,890612611
iw,-80.2482070922851,-65.6374359130859,-89.1635662835399,72.5283603076345,890629278
iw,-82.040168762207,-66.4330596923828,-121.36952181666652,66.53845718215499,890645945
iw,-84.0447769165039,-67.0752334594726,-154.94446389411766,65.96164270625297,890662612
iw,-85.8465957641601,-67.8341598510742,-187.55811292442777,70.61283445999462,890679279
iw,-86.3838348388671,-68.9993286132812,-216.1525291609038,78.92868030601967,890695946
iw,-84.4789810180664,-70.5176620483398,-237.27205331355822,88.30381911684357,890712613
iw,-81.1377410888671,-72.338394165039,-247.68827604038466,95.72352450884257,890729280
iw,-76.3172988891601,-74.2318115234375,-245.21726856744468,98.54186490763468,890745947
iw,-70.8216552734375,-76.0354843139648,-229.49446734045839,95.19095085625547,890762614
iw,-67.3375549316406,-77.7474670410156,-202.40086929773483,85.61121264375477,890779281
iw,-64.7179107666015,-79.1334228515625,-167.89996424733735,71.26625274205306,890795948
iw,-62.9460334777832,-79.9152374267578,-131.25364167856168,54.72855255711049,890812615
iw,-61.8476791381835,-80.139533996582,-97.83337484408413,38.96006077784008,890829282
iw,-61.4708099365234,-80.103286743164,-71.89452493484752,26.517163694704735,890845949
iw,-60.9718894958496,-80.0887069702148,-55.6769135536965,18.93491390658647,890862616
iw,-59.9867057800293,-80.3943634033203,-49.06375943597557,16.47225112547155,890879283
iw,-58.8529052734375,-81.0259628295898,-49.83936068461525,18.258404543202047,890895950
iw,-57.6007194519043,-81.7965621948242,-54.40393918922542,22.734783638947388,890912617
iw,-56.2375183105468,-82.5513381958007,-58.69471187126953,28.199166265511675,890929284
iw,-55.2155799865722,-83.2362747192382,-59.05499872432066,33.26008811481337,890945951
iw,-54.429344177246,-83.8057479858398,-52.86920725086977,37.08413706106966,890962618
iw,-53.8755989074707,-84.3033981323242,-38.89200371463378,39.419926313451484,890979285
iw,-53.8478202819824,-84.7627716064453,-17.29608030625164,40.46005231558084,890995952
iw,-54.2237663269043,-85.1822052001953,10.484630973105304,40.630260521166875,891012619
iw,-54.7945518493652,-85.557502746582,42.03541707258378,40.378279971407885,891029286
iw,-55.6790046691894,-85.7908096313476,74.31419140017849,39.999477393119,891045953
iw,-57.2239799499511,-85.9402542114257,104.06471022736959,39.51123941241264,891062620
iw,-59.3423080444335,-86.0977096557617,128.28974437873157,38.58545520547344,891079287
iw,-61.9195861816406,-86.2660369873046,144.7554325554675,36.55835817836542,891095954
iw,-64.9229125976562,-86.4096984863281,152.4408655199473,32.537452861138085,891112621
iw,-68.0126953125,-86.5059280395507,151.80036151942218,25.6034321383852,891129288
iw,-71.063247680664,-86.5351943969726,144.70812314088838,15.067333129776198,891145955
iw,-73.2420425415039,-86.5268936157226,134.0248706638491,0.7090397470308016,891162622
iw,-74.4855651855468,-86.647834777832,122.8543169763819,-17.087351943323778,891179289
iw,-75.4677810668945,-86.9130172729492,113.69855940858073,-37.361297676022495,891195956
iw,-76.8227920532226,-86.9557342529296,107.80025219943208,-58.77077684624401,891212623
iw,-78.6453704833984,-86.4153213500976,104.91272378832812,-79.89276510239262,891229290
iw,-80.8208236694336,-85.3063125610351,103.57295268020106,-99.52370068315962,891245957
iw,-82.9892196655273,-83.7472763061523,101.75109228872394,-116.87642326433537,891262624
iw,-84.7742309570312,-81.7767486572265,97.61869647287654,-131.616501094937,891279291
iw,-86.2732238769531,-79.4493408203125,90.1684294710424,-143.74575260219706,891295958
iw,-87.4961013793945,-76.844367980957,79.50831382246517,-153.39294457622114,891312625
iw,-88.1311416625976,-74.129768371582,66.78050948791942,-160.59514074652228,891329292
iw,-88.082763671875,-71.4426803588867,53.76682423279876,-165.15041239984274,891345959
iw,-87.9939727783203,-68.831314086914,42.32317646235523,-166.6014399550741,891362626
iw,-88.1272735595703,-65.7784805297851,33.83034688675479,-164.37093726094946,891379293
iw,-88.0529861450195,-62.7651786804199,28.844449817340255,-158.01279562983532,891395960
iw,-87.4645690917968,-60.2311363220214,27.058976126584795,-147.48293247783693,891412627
iw,-86.5965957641601,-58.1358261108398,27.563144397647537,-133.3071820258139,891429294
iw,-85.9211044311523,-56.3147201538085,29.258172752700332,-116.55744467041674,891445961
iw,-85.4153366088867,-55.0226249694824,31.244456680510954,-98.62878690583678,891462628
iw,-84.9059906005859,-54.2259864807128,33.04034990024106,-80.8954818158832,891479295
iw,-84.3463973999023,-53.3745002746582,34.59375961607787,-64.37269744805643,891495962
iw,-83.7743682861328,-52.5604591369628,36.13593039644433,-49.503791167424964,891512629
iw,-83.2542495727539,-51.8427467346191,37.967386229825266,-36.13666008707294,891529296
iw,-82.730728149414,-51.3746528625488,40.26311522451154,-23.67702062398365,891545963
iw,-82.0489730834961,-51.1964073181152,42.956848610761504,-11.351392906647362,891562630
iw,-81.2167816162109,-51.1726493835449,45.727033262911235,1.5032935473534481,891579297
iw,-80.3120498657226,-51.34273147583,48.06940605746123,15.19481630449947,891595964
iw,-79.3776245117187,-51.5985527038574,49.413854119718096,29.529081948939364,891612631
iw,-78.4976654052734,-52.032127380371,49.23600385877511,43.799991349825966,891629298
iw,-77.7261199951171,-52.9229278564453,47.127011364833436,56.93270784526985,891645965
iw,-76.994888305664,-54.0527038574218,42.80824468629117,67.76045409480017,891662632
iw,-76.3051223754882,-55.3788299560546,36.09806678776549,75.36721600400229,891679299
iw,-75.7838592529296,-56.9777679443359,26.84907409899107,79.39187157180835,891695966
iw,-75.5820922851562,-58.6840019226074,14.878748366662178,80.18698289139313,891712633
iw,-75.6637344360351,-59.8891563415527,-0.07887277275387218,78.7669062938145,891729300
iw,-76.0675277709961,-60.6848983764648,-18.367874413229966,76.55444761596397,891745967
iw,-76.790054321289,-61.6663856506347,-40.32210508993684,75.01266451276653,891762634
iw,-77.8106155395507,-63.0823783874511,-66.08496919897865,75.28594270585761,891779301
iw,-79.1944427490234,-64.6017227172851,-95.36561210940187,77.94720274401575,891795968
iw,-81.0464782714843,-66.0300369262695,-127.19994506857769,82.88037897409014,891812635
iw,-83.4577331542968,-66.9055023193359,-159.8086223786666,89.27856223783104,891829302
iw,-86.0542449951171,-67.7835388183593,-190.63675873447409,95.74517117147471,891845969
iw,-87.4092025756836,-69.0871658325195,-216.62239662491757,100.52236419846658,891862636
iw,-85.3221130371093,-70.9563369750976,-234.68472514673175,101.87239398489271,891879303
iw,-81.6447372436523,-73.2843933105468,-242.35811066770432,98.56673587627802,891895970
iw,-76.1237335205078,-75.2394790649414,-238.42731582070647,90.33298630426555,891912637
iw,-71.8671493530273,-76.7329177856445,-223.36316922681792,78.05979377209664,891929304
iw,-69.2272872924804,-77.6770477294921,-199.3697698290601,63.6268199913843,891945971
iw,-66.762954711914,-77.9058609008789,-169.97371434613743,49.387005106845635,891962638
iw,-64.5163040161132,-77.9957580566406,-139.26459969321243,37.49147235715922,891979305
iw,-62.7577514648437,-78.563117980957,-111.01963991609139,29.319859005379683,891995972
iw,-61.6388702392578,-79.4749603271484,-87.95069720689789,25.22182934998415,892012639
iw,-60.7640342712402,-80.3036346435546,-71.23792920752481,24.624932780357177,892029306
iw,-59.717300415039,-80.9527816772461,-60.425080414186674,26.40740659602717,892045973
iw,-58.6445732116699,-81.5987472534179,-53.67000683509254,29.352066602064937,892062640
iw,-57.7806701660156,-82.2931213378906,-48.271221791624285,32.5102192692693,892079307
iw,-57.1633377075195,-82.9580612182617,-41.34100641547106,35.37783341038834,892095974
iw,-56.672004699707,-83.6144790649414,-30.482998201410428,37.871892105547765,892112641
iw,-56.1791954040527,-84.2394561767578,-14.34896120593441,40.16115217146394,892129308
iw,-55.9816589355468,-84.8061218261718,7.025997944962456,42.43844387391915,892145975
iw,-56.127758026123,-85.3055572509765,32.18390637072259,44.71939000843619,892162642
iw,-57.4254455566406,-85.7346496582031,58.52967131006489,46.724376177489845,892179309
iw,-59.0041694641113,-86.083137512207,82.89811709954229,47.86346681156816,892195976
iw,-60.8882484436035,-86.4082794189453,102.27533580648553,47.31334778579277,892212643
iw,-63.0792503356933,-86.7138366699218,114.49595966875162,44.15878120244831,892229310
iw,-65.1839294433593,-86.9354171752929,118.74419881658447,37.566392194068996,892245977
iw,-67.245864868164,-87.0292892456054,115.74153118514967,26.9587185895718,892262644
iw,-69.5531616210937,-87.0407104492187,107.58051132818844,12.15635669437932,892279311
iw,-71.0930252075195,-87.0973434448242,97.24221615520463,-6.543217703637353,892295978
iw,-71.8614349365234,-87.3361206054687,87.90814814975933,-28.374872266679233,892312645
iw,-72.6457138061523,-87.5656280517578,82.23765686197318,-52.21054516128664,892329312
iw,-74.1860580444336,-87.1301727294921,81.80043783591877,-76.73920030192149,892345979
iw,-76.0745315551757,-85.6960678100586,86.79952457619382,-100.6714921544219,892362646
iw,-77.9084396362304,-83.606689453125,96.10968440769267,-122.90160525044448,892379313
iw,-79.6185073852539,-81.3120574951171,107.55915512197194,-142.57099201243187,892395980
iw,-81.293701171875,-78.8449554443359,118.3571337843113,-159.0231464423838,892412647
iw,-82.9895553588867,-76.1502456665039,125.60367193851039,-171.69572790536358,892429314
iw,-84.8000183105468,-73.1273956298828,126.8514121686338,-180.03229251487767,892445981
iw,-86.9556045532226,-69.7997665405273,120.6715060822705,-183.48547974256462,892462648
iw,-88.4691619873046,-66.2954864501953,107.11076166964945,-181.63055835720303,892479315
iw,-86.6896209716796,-62.8127365112304,87.86427507486609,-174.3441227547764,892495982
iw,-85.7442169189453,-60.4860038757324,66.00224522267321,-161.96595336110082,892512649
iw,-86.0579223632812,-58.462963104248,45.228629119659026,-145.372482341328,892529316
iw,-86.9420700073242,-56.3247680664062,28.871044769558615,-125.93182221552055,892545983
iw,-87.3958663940429,-54.0617294311523,18.972165495399448,-105.34314175362542,892562650
iw,-86.952392578125,-52.6000633239746,15.841848537428774,-85.3694986259555,892579317
iw,-85.8256149291992,-51.9915924072265,18.223052320072405,-67.48309637072711,892595984
iw,-84.6585998535156,-51.7729225158691,23.945008351078414,-52.49006631667271,892612651
iw,-83.7964782714843,-51.5657691955566,30.74650736300926,-40.266272690110455,892629318
iw,-83.1647109985351,-51.0926284790039,36.93846309511646,-29.748343145497856,892645985
iw,-82.5473861694336,-50.4123992919921,41.70817932329939,-19.24522032418109,892662652
iw,-81.875129699707,-49.7803802490234,45.04650616442319,-6.998314665300279,892679319
iw,-81.1832504272461,-49.615737915039,47.412178896764395,8.198089743897444,892695986
iw,-80.5522766113281,-49.8235855102539,49.30140221349693,26.536020776320644,892712653
iw,-79.8695449829101,-50.4300003051757,50.87895181750079,47.04926495426095,892729320
iw,-79.0105667114257,-51.7323341369628,51.77659982567372,67.82383002072591,892745987
iw,-78.0382080078125,-53.3664321899414,51.09674213040759,86.48472232533037,892762654
iw,-77.1159362792968,-54.9698104858398,47.592180119220004,100.8048108778553,892779321
iw,-76.3460235595703,-56.5407485961914,39.94683235953207,109.26650645740894,892795988
iw,-75.8244323730468,-58.370491027832,27.06991782774759,111.44437805721184,892812655
iw,-75.6505279541015,-60.4141769409179,8.33510748377082,108.1349684213871,892829322
iw,-75.9693603515625,-62.0347824096679,-16.2694912902011,101.20916113651467,892845989
iw,-76.7735977172851,-63.3657417297363,-46.08212085284073,93.20190522009499,892862656
iw,-78.1133193969726,-64.7051696777343,-79.78081678288652,86.70235913536031,892879323
iw,-80.0166473388671,-65.5346984863281,-115.44808475257759,83.66802454312703,892895990
iw,-82.4164657592773,-66.1273040771484,-150.67576409206546,84.83823731813098,892912657
iw,-84.9300918579101,-66.744155883789,-182.71641827294573,89.43774937177328,892929324
iw,-86.9033279418945,-67.8665695190429,-208.70430618161595,95.31733084617231,892945991
iw,-86.5813827514648,-69.7361602783203,-225.97537185484978,99.5632842738418,892962658
iw,-83.9653778076171,-72.3265380859375,-232.49679501792585,99.43774884381304,892979325
iw,-79.8679885864257,-74.9590606689453,-227.35831874520522,93.346738820113,892995992
iw,-74.5901107788086,-76.8064880371093,-211.18890812523676,81.46215920743664,893012659
iw,-71.5611877441406,-77.7281417846679,-186.29802536224284,65.71715121264072,893029326
iw,-69.3602676391601,-77.6946868896484,-156.3801532572273,49.14355076670163,893045993
iw,-67.7749557495117,-77.2964172363281,-125.78660056409448,34.81860725769228,893062660
iw,-66.7174377441406,-77.4071884155273,-98.57045919134711,24.87304208435363,893079327
iw,-65.9061584472656,-78.2749938964843,-77.61593516793666,19.967327355883803,893095994
iw,-65.0069427490234,-79.2896499633789,-64.11714768175693,19.388750768060092,893112661
iw,-63.6086654663085,-79.8882141113281,-57.521445924500966,21.616492897768087,893129328
iw,-62.2175407409668,-80.3314132690429,-55.88340011012243,25.025474981086063,893145995
iw,-61.1406364440918,-80.8606872558593,-56.459390051214264,28.421604368685358,893162662
iw,-60.4727554321289,-81.4093856811523,-56.348161693131686,31.25581965810503,893179329
iw,-59.853660583496,-81.9835433959961,-53.03950519423123,33.53632739641839,893195996
iw,-59.001365661621,-82.5675659179687,-44.81442784404927,35.56808867956971,893212663
iw,-58.1842498779296,-83.1095275878906,-30.986780231266895,37.67329821209589,893229330
iw,-57.731834411621,-83.5937194824218,-11.977063633289998,40.00210342739449,893245997
iw,-58.0058059692382,-83.9151763916015,10.798059957751592,42.46601086786722,893262664
iw,-58.9611663818359,-84.0546340942382,35.21365320271818,44.76022414022418,893279331
iw,-60.1779479980468,-84.1432495117187,58.844791919692156,46.41556900733614,893295998
iw,-61.413516998291,-84.3233947753906,79.40140010453182,46.83926680744814,893312665
iw,-62.7213287353515,-84.6134414672851,95.10343847977948,45.344716030827904,893329332
iw,-64.3975143432617,-84.8796768188476,104.95118029541476,41.20103666342389,893345999
iw,-66.571792602539,-84.9599380493164,108.87818134878924,33.731160501536536,893362666
iw,-68.8436050415039,-84.9195098876953,107.77373029493322,22.455378142216016,893379333
iw,-70.658935546875,-84.9214401245117,103.34610085110984,7.239787306847836,893396000
iw,-72.048225402832,-85.0708923339843,97.80978033181414,-11.607421651400939,893412667
iw,-73.3193664550781,-85.4365768432617,93.43361769207756,-33.33429161490839,893429334
iw,-74.7973098754882,-85.8765029907226,92.04894955518365,-56.84408919607272,893446001
iw,-76.4551620483398,-85.9761047363281,94.6396985908473,-80.8621498827469,893462668
iw,-78.187873840332,-85.3266372680664,101.10727408130465,-104.11464492591915,893479335
iw,-79.9117813110351,-83.841682434082,110.25098550646449,-125.46524340816138,893496002
iw,-81.5651550292968,-81.8019256591796,119.96521301478899,-143.9798211103853,893512669
iw,-83.2297210693359,-79.5178451538086,127.63569442702475,-158.92411754595997,893529336
iw,-84.9385223388671,-76.9517517089843,130.69850559482455,-169.72932873486437,893546003
iw,-86.5087966918945,-73.9302978515625,127.28300877534497,-175.97107677332926,893562670
iw,-86.5766906738281,-70.6837463378906,116.79435124035513,-177.39035105225344,893579337
iw,-84.7461853027343,-67.612808227539,100.2376270778114,-173.95100194472732,893596004
iw,-83.5003128051757,-65.1255645751953,80.10348569742078,-165.90270556700614,893612671
iw,-83.3985366821289,-62.8722953796386,59.764713776638764,-153.81813181079823,893629338
iw,-83.8945617675781,-60.5264244079589,42.544358652277815,-138.58706558718757,893646005
iw,-84.1029586791992,-58.0742492675781,30.794013458162883,-121.35362724696378,893662672
iw,-83.4175415039062,-56.202091217041,25.33984927956672,-103.37396505757941,893679339
iw,-82.3826446533203,-55.1369934082031,25.48318915499642,-85.78164344569576,893696006
iw,-81.3462829589843,-54.5648193359375,29.482675152318436,-69.3004312023432,893712673
iw,-80.4326095581054,-54.1792678833007,35.25180987989015,-54.01461469499513,893729340
iw,-79.6450653076171,-53.7209243774414,40.97246270818595,-39.333934962746696,893746007
iw,-78.916389465332,-53.0370750427246,45.43255393846755,-24.232328981640286,893762674
iw,-78.237678527832,-52.2371978759765,48.05489884044872,-7.714982909641505,893779341
iw,-77.6745300292968,-51.7543640136718,48.709185249166765,10.656485684306922,893796008
iw,-77.0973281860351,-52.0160789489746,47.45102651027224,30.403050907763074,893812675
iw,-76.3825073242187,-52.7181739807128,44.313960845405326,50.09894298192032,893829342
iw,-75.6070022583007,-54.1673469543457,39.217963153124145,67.70482551707391,893846009
iw,-74.9420623779296,-56.1115036010742,31.986089077341976,81.14546521057976,893862676
iw,-74.4529876708984,-57.7044792175293,22.41239377536051,88.9238171489034,893879343
iw,-74.2131118774414,-58.8921813964843,10.317819811208581,90.56911896326766,893896010
iw,-74.4115447998046,-60.1769523620605,-4.438346134313157,86.80383789885187,893912677
iw,-75.0088958740234,-61.7158088684082,-21.97823822088522,79.42376014843164,893929344
iw,-75.8265075683593,-63.1146697998046,-42.409827456358805,70.95347183449195,893946011
iw,-76.877197265625,-64.420166015625,-65.76741365744368,64.15069337053104,893962678
iw,-78.27783203125,-65.268569946289,-91.87090430350479,61.425077539086914,893979345
iw,-80.1205673217773,-65.9748916625976,-120.1331242296171,64.25152609223551,893996012
iw,-82.430191040039,-66.475227355957,-149.38011463463755,72.6983380730123,894012679
iw,-84.9557342529296,-67.1998596191406,-177.7601869529989,85.22414668974722,894029346
iw,-87.107551574707,-68.464973449707,-202.80818274192524,98.88128086906372,894046013
iw,-86.9708251953125,-70.3957138061523,-221.71122121891992,109.9693264804296,894062680
iw,-84.1417465209961,-72.8303833007812,-231.7868824968106,115.02392896491173,894079347
iw,-80.3550872802734,-75.4362640380859,-231.11892988021754,111.86321583222615,894096014
iw,-74.9633865356445,-77.7118301391601,-219.19920343958606,100.33100605168582,894112681
iw,-71.0232238769531,-79.3417282104492,-197.3395785114353,82.43222820327694,894129348
iw,-68.301887512207,-80.0503921508789,-168.62252331147775,61.75530776157136,894146015
iw,-66.4428482055664,-79.76611328125,-137.30226501143386,42.35618608611478,894162682
iw,-65.5487060546875,-79.3323287963867,-107.80014833445642,27.51930085310991,894179349
iw,-65.0087432861328,-79.5836868286132,-83.62451312864383,18.878100228889902,894196016
iw,-64.1327667236328,-80.3096542358398,-66.57902286060983,16.210226407893966,894212683
iw,-62.8104209899902,-80.918228149414,-56.49547862095849,17.902878574900434,894229350
iw,-61.4726867675781,-81.3099365234375,-51.5153771139773,21.79741937915052,894246017
iw,-60.4356575012207,-81.7796554565429,-48.757137346671996,26.018157524104755,894262684
iw,-59.7739639282226,-82.3108367919921,-45.12333603945447,29.48233274126474,894279351
iw,-59.3134307861328,-82.8449249267578,-38.03316409263924,31.98331858106793,894296018
iw,-58.8858489990234,-83.3853302001953,-25.951912182651746,33.92731440697146,894312685
iw,-58.3293304443359,-83.8777542114257,-8.662463257899715,35.915082752365514,894329352
iw,-58.1255302429199,-84.3396759033203,12.742310367528813,38.370800005687116,894346019
iw,-58.7994041442871,-84.7303237915039,36.14642712044837,41.34615208842737,894362686
iw,-60.3543243408203,-84.8642425537109,58.93021778481084,44.51685107817505,894379353
iw,-62.1966857910156,-84.7279357910156,78.60158352284114,47.29879929128799,894396020
iw,-63.7827606201171,-84.5524520874023,93.3655886450306,48.98277102218886,894412687
iw,-65.2549438476562,-84.5640106201171,102.4781979411565,48.82263289629226,894429354
iw,-66.9170150756836,-84.7407760620117,106.3173571521037,46.078213533946645,894446021
iw,-68.8722305297851,-84.8787994384765,106.20026309830041,40.061014579649104,894462688
iw,-71.0189971923828,-84.7964401245117,104.02365373657327,30.228425372356067,894479355
iw,-72.8266220092773,-84.5250778198242,101.8037589849297,16.326582513901144,894496022
iw,-74.1425094604492,-84.3905944824218,101.18684374682122,-1.4708398803070264,894512689
iw,-75.4118270874023,-84.5914077758789,103.01973043644531,-22.50233104357594,894529356
iw,-77.0101928710937,-85.1393356323242,107.0937164900704,-45.684806570726835,894546023
iw,-78.8347549438476,-85.71728515625,112.16065774077056,-69.69427422796599,894562690
iw,-80.9037017822265,-85.7986755371093,116.2488747637619,-93.19157128765383,894579357
iw,-83.0063095092773,-85.1846847534179,117.2086661895902,-115.00628506689826,894596024
iw,-84.9899978637695,-83.786750793457,113.3408114216473,-134.22387003523204,894612691
iw,-86.7490615844726,-81.675064086914,103.93446167705152,-150.17694736740708,894629358
iw,-87.8143005371093,-79.0338592529296,89.56191553089634,-162.38292150564465,894646025
iw,-87.6352920532226,-76.1023941040039,72.03386872278527,-170.47759801001894,894662692
iw,-87.0562973022461,-73.1697235107421,54.00152128427947,-174.1802459351252,894679359
iw,-86.8228149414062,-70.518814086914,38.294185720734966,-173.31039876059197,894696026
iw,-86.7801055908203,-67.5971145629882,27.17918569993804,-167.8644702588713,894712693
iw,-86.7561111450195,-64.4628372192382,21.780671648989312,-158.13694723883503,894729360
iw,-86.5248641967773,-61.7949638366699,21.85541862584691,-144.83150549017537,894746027
iw,-85.8788223266601,-59.7098884582519,25.99619553834953,-129.0783894132624,894762694
iw,-84.8805999755859,-58.0567092895507,32.16804341945287,-112.29450045455515,894779361
iw,-83.9392547607421,-56.86962890625,38.358215989232676,-95.89656756689858,894796028
iw,-83.2702560424804,-56.0087623596191,43.09816917483014,-80.96258586350606,894812695
iw,-82.701171875,-55.0641860961914,45.70280488993255,-67.9773037527427,894829362
iw,-82.035285949707,-53.9526557922363,46.2134859641879,-56.76723490791192,894846029
iw,-81.3125762939453,-52.8802604675293,45.146543731986675,-46.64544218938161,894862696
iw,-80.6185607910156,-52.0734405517578,43.187474102907004,-36.695025193896704,894879363
iw,-79.9928817749023,-51.6584014892578,40.939314021550345,-26.074531019303905,894896030
iw,-79.3874816894531,-51.4822921752929,38.77384660229123,-14.246211933450384,894912697
iw,-78.8194732666015,-51.3591995239257,36.78430198601422,-1.0828760677384386,894929364
iw,-78.2666931152343,-51.4658164978027,34.812660868600894,13.140251575760184,894946031
iw,-77.7009353637695,-52.104206085205,32.51962561617332,27.835302176890725,894962698
iw,-77.1810684204101,-52.9688758850097,29.470592169953914,42.229990466054915,894979365
iw,-76.7652053833007,-53.7185478210449,25.21819592470647,55.49105316493272,894996032
iw,-76.4256515502929,-54.6506805419921,19.367592426204833,66.81496265667953,895012699
iw,-76.1600952148437,-55.928783416748,11.614581623206146,75.48873798733946,895029366
iw,-76.0683517456054,-57.4151649475097,1.7509185362627042,80.94932209569902,895046033
iw,-76.2924880981445,-58.8510704040527,-10.360933596125873,82.86913509964921,895062700
iw,-76.8461761474609,-60.2310180664062,-24.827518212488094,81.27055633182975,895079367
iw,-77.6841125488281,-61.7724723815918,-41.7474012595834,76.64145741996926,895096034
iw,-78.7674407958984,-63.4146194458007,-61.182369359233306,70.00000255001136,895112701
iw,-80.0869369506836,-64.6978378295898,-83.05902108779635,62.84714819974519,895129368
iw,-81.6910629272461,-65.4242172241211,-107.01764870347083,56.962870306673594,895146035
iw,-83.6735534667968,-65.854377746582,-132.2593721920427,54.05594010710787,895162702
iw,-85.9636688232421,-66.5086898803711,-157.45723111715608,55.34812670407842,895179369
iw,-87.7560653686523,-67.5312423706054,-180.786732212958,61.2180743560506,895196036
iw,-86.6410675048828,-68.7925186157226,-200.10440796876122,71.01670213041959,895212703
iw,-83.6504135131836,-70.2312698364257,-213.26893359072994,83.10801203825591,895229370
iw,-79.7763748168945,-71.7383041381836,-218.55926358960158,95.12908981445204,895246037
iw,-75.6430358886718,-73.3384323120117,-215.09831098397623,104.427854753337,895262704
iw,-72.0406188964843,-75.1049270629882,-203.15650240301568,108.61683892889494,895279371
iw,-69.3443222045898,-77.1799545288086,-184.21884957256927,106.1507441569112,895296038
iw,-66.2734222412109,-79.8380966186523,-160.76263480989047,96.78980643165944,895312705
iw,-63.4292297363281,-82.1379013061523,-135.7781484472319,81.78097168357516,895329372
iw,-62.0316429138183,-82.9465942382812,-112.13194202681657,63.626436710417586,895346039
iw,-61.2557334899902,-82.6009445190429,-91.91687366769511,45.4441016206054,895362706
iw,-60.6617393493652,-82.1074829101562,-75.96491886267046,30.114159417575433,895379373
iw,-59.6554412841796,-82.0396194458007,-63.689816819457256,19.534460592404592,895396040
iw,-58.2509613037109,-82.4407501220703,-53.33768885454548,14.270778320415092,895412707
iw,-57.0814170837402,-83.1028900146484,-42.57471598649685,13.69547549020539,895429374
iw,-56.4951019287109,-83.8323287963867,-29.21540772571353,16.48092184072902,895446041
iw,-56.4001007080078,-84.6105651855468,-11.865092290821083,21.18456516281768,895462708
iw,-56.5666313171386,-85.3537139892578,9.68550061473468,26.67917116341897,895479375
iw,-56.8719139099121,-85.8974533081054,34.37809154697935,32.300628231172,895496042
iw,-57.777603149414,-86.2247772216796,60.106086603799625,37.72681557302609,895512709
iw,-59.2780838012695,-86.4381713867187,84.17855331772333,42.70258338695336,895529376
iw,-61.2546272277832,-86.5774383544921,103.93528265783907,46.762745545422824,895546043
iw,-63.3644866943359,-86.5833282470703,117.38305336922667,49.08107689272917,895562710
iw,-65.5331649780273,-86.5112075805664,123.70497909400456,48.50969550743593,895579377
iw,-67.899543762207,-86.4296035766601,123.51112710860428,43.7976780761531,895596044
iw,-70.5375366210937,-86.3653030395507,118.74578894487249,33.91530757166171,895612711
iw,-72.8274230957031,-86.3447875976562,112.23389517036043,18.37762531552471,895629378
iw,-73.8766174316406,-86.4357528686523,106.93708600457586,-2.5358164704823847,895646045
iw,-74.6642532348632,-86.6382675170898,105.09729250049625,-27.73427370303988,895662712
iw,-75.876724243164,-86.8584518432617,107.53220726745755,-55.46074389640127,895679379
iw,-77.7429046630859,-86.5976867675781,113.34164212742402,-83.59320578382219,895696046
iw,-79.9442749023437,-85.4400100708007,120.1545027559536,-110.02063378349855,895712713
iw,-82.1721115112304,-83.5853118896484,124.84956232733269,-132.98687181219748,895729380
iw,-84.2708740234375,-81.1785583496093,124.52137604538923,-151.30576313659157,895746047
iw,-85.9273452758789,-78.4787902832031,117.39829886034461,-164.39934217381284,895762714
iw,-86.7456283569336,-75.6607055664062,103.44671582929175,-172.17845422647713,895779381
iw,-86.115966796875,-72.7720336914062,84.478670034178,-174.84243254906457,895796048
iw,-85.4103851318359,-70.028450012207,63.70103733214034,-172.69886637546924,895812715
iw,-85.6130065917968,-67.2152709960937,44.805260579545646,-166.08714748516226,895829382
iw,-86.2567596435546,-64.2302169799804,30.874475443679202,-155.43432785459333,895846049
iw,-86.5465087890625,-61.7158813476562,23.496737089389427,-141.3976401360967,895862716
iw,-86.012580871582,-59.4707717895507,22.420811989368744,-124.98942420911219,895879383
iw,-84.8357849121093,-57.736572265625,25.862924674447328,-107.57316145299549,895896050
iw,-83.5703201293945,-56.5623435974121,31.28591019708232,-90.67529000264919,895912717
iw,-82.7960357666015,-55.8542976379394,36.29214906334149,-75.65176377048823,895929384
iw,-82.2770233154296,-55.3241882324218,39.286859247700164,-63.33322244499336,895946051
iw,-81.6819076538086,-54.5680046081543,39.735914894466625,-53.800892160233936,895962718
iw,-80.9824142456054,-53.4379348754882,38.04059388164536,-46.394446005906765,895979385
iw,-80.3728790283203,-52.3637962341308,35.176759234502576,-39.94555600675659,895996052
iw,-79.9722442626953,-51.8088417053222,32.270400047790616,-33.13058091056456,896012719
iw,-79.6607360839843,-51.6664695739746,30.240229839750008,-24.805338127727182,896029386
iw,-79.2516784667968,-51.5324440002441,29.57746937559959,-14.232468167375782,896046053
iw,-78.7609100341796,-51.3589477539062,30.278329544652657,-1.1854970594733127,896062720
iw,-78.2344970703125,-51.5964813232421,31.90430807361718,14.04368022677549,896079387
iw,-77.6676864624023,-52.3710060119628,33.723270399634636,30.70434003339834,896096054
iw,-77.0301284790039,-53.28023147583,34.88054694604088,47.69287265783706,896112721
iw,-76.3835754394531,-53.9837913513183,34.55721268080872,63.68963801477626,896129388
