Label,Left_Hip_q,Right_Hip_q,Left_Hip_qd,Right_Hip_qd,SampleTimeFine
sq,-10.85,-8.5119873046875,0.268459320068359,-2.91252136230469,629533561
sq,-10.8457046508789,-8.55858764648437,5.44881820678711,0.371932983398437,629550228
sq,-10.7585235595703,-8.55263671875,6.6533088684082,0.936031341552734,629566895
sq,-10.6520706176758,-8.53766021728516,5.90372085571289,1.23071670532227,629583562
sq,-10.5576110839844,-8.51796875,4.73594665527344,1.34611129760742,629600229
sq,-10.4818359375,-8.49643096923828,2.98070907592773,1.72042846679687,629616896
sq,-10.4341445922852,-8.46890411376953,2.2587776184082,2.40278244018555,629633563
sq,-10.3980041503906,-8.43045959472656,2.13241577148437,2.30264663696289,629650230
sq,-10.3638854980469,-8.39361724853516,1.52778625488281,1.90973281860352,629666897
sq,-10.3394409179687,-8.3630615234375,0.966072082519531,1.24263763427734,629683564
sq,-10.3239837646484,-8.34317932128906,0.835895538330078,1.0228157043457,629700231
sq,-10.3106094360352,-8.32681427001953,1.08671188354492,0.981807708740234,629716898
sq,-10.2932220458984,-8.31110534667969,1.24502182006836,0.987529754638672,629733565
sq,-10.2733016967773,-8.29530487060547,0.916957855224609,0.908851623535156,629750232
sq,-10.2586303710937,-8.28076324462891,0.868320465087891,0.529289245605469,629766899
sq,-10.2447372436523,-8.27229461669922,0.904083251953125,0.131130218505859,629783566
sq,-10.2302719116211,-8.27019653320312,0.695705413818359,0.0319480895996094,629800233
sq,-10.219140625,-8.26968536376953,0.721931457519531,0.20599365234375,629816900
sq,-10.2075897216797,-8.26638946533203,1.10864639282227,0.325202941894531,629833567
sq,-10.1898513793945,-8.26118621826172,1.22928619384766,0.334262847900391,629850234
sq,-10.170182800293,-8.25583801269531,0.895500183105469,0.231742858886719,629866901
sq,-10.1558547973633,-8.25213012695312,0.978946685791016,0.449657440185547,629883568
sq,-10.1401916503906,-8.24493560791016,1.23357772827148,0.414848327636719,629900235
sq,-10.1204544067383,-8.23829803466797,0.629425048828125,0.666618347167969,629916902
sq,-10.110383605957,-8.22763214111328,0.345706939697266,0.978469848632812,629933569
sq,-10.1048522949219,-8.21197662353516,-0.28228759765625,1.22356414794922,629950236
sq,-10.1093688964844,-8.19239959716797,0.0538825988769531,1.29365921020508,629966903
sq,-10.1085067749023,-8.17170104980469,0.628471374511719,1.22165679931641,629983570
sq,-10.0984512329102,-8.15215454101562,0.398635864257812,1.22451782226562,630000237
sq,-10.092073059082,-8.13256225585937,0.464439392089844,1.3737678527832,630016904
sq,-10.0846420288086,-8.11058197021484,0.422954559326172,1.49679183959961,630033571
sq,-10.0778747558594,-8.08663330078125,0.0748634338378906,1.37186050415039,630050238
sq,-10.076676940918,-8.06468353271484,0.196456909179687,1.46913528442383,630066905
sq,-10.0735336303711,-8.04117736816406,-0.256061553955078,1.2664794921875,630083572
sq,-10.0776306152344,-8.02091369628906,1.10626220703125,1.56402587890625,630100239
sq,-10.0599304199219,-7.99588928222656,1.08957290649414,1.29842758178711,630116906
sq,-10.042497253418,-7.97511444091797,0.0166893005371094,1.1439323425293,630133573
sq,-10.0422302246094,-7.9568115234375,0.257015228271484,1.10197067260742,630150240
sq,-10.038117980957,-7.93917999267578,0.363826751708984,1.15489959716797,630166907
sq,-10.0322967529297,-7.92070159912109,0.538825988769531,1.3728141784668,630183574
sq,-10.0236755371094,-7.89873657226562,0.403404235839844,1.54876708984375,630200241
sq,-10.0172210693359,-7.87395629882812,0.621795654296875,1.64604187011719,630216908
sq,-10.0072723388672,-7.84761962890625,0.739097595214844,1.66034698486328,630233575
sq,-9.99544677734375,-7.82105407714844,1.09672546386719,1.52015686035156,630250242
sq,-9.97789916992187,-7.79673156738281,1.13344192504883,1.53779983520508,630266909
sq,-9.95976409912109,-7.77212677001953,0.783443450927734,1.34754180908203,630283576
sq,-9.94722900390625,-7.75056610107422,0.72479248046875,1.06048583984375,630300243
sq,-9.93563232421875,-7.73359832763672,0.600337982177734,0.894546508789062,630316910
sq,-9.92602691650391,-7.71928558349609,1.0075569152832,0.594139099121094,630333577
sq,-9.90990600585937,-7.70977935791016,0.762462615966797,0.367641448974609,630350244
sq,-9.89770660400391,-7.70389709472656,1.21021270751953,0.361442565917969,630366911
sq,-9.87834320068359,-7.69811401367187,1.68466567993164,0.363349914550781,630383578
sq,-9.85138854980469,-7.69230041503906,1.91020965576172,0.272750854492187,630400245
sq,-9.8208251953125,-7.68793640136719,1.04999542236328,0.347137451171875,630416912
sq,-9.80402526855469,-7.68238220214844,1.24311447143555,0.534534454345703,630433579
sq,-9.78413543701172,-7.67382965087891,0.747203826904297,0.576972961425781,630450246
sq,-9.77218017578125,-7.66459808349609,0.938892364501953,0.513076782226562,630466913
sq,-9.75715789794922,-7.65638885498047,1.39570236206055,0.535488128662109,630483580
sq,-9.73482666015625,-7.64782104492187,1.49154663085937,0.576019287109375,630500247
sq,-9.7109619140625,-7.63860473632812,1.56784057617187,0.710964202880859,630516914
sq,-9.68587646484375,-7.62722930908203,2.00796127319336,0.927448272705078,630533581
sq,-9.65374908447266,-7.61239013671875,2.97975540161133,1.2054443359375,630550248
sq,-9.60607299804687,-7.59310302734375,3.30448150634766,1.61933898925781,630566915
sq,-9.55320129394531,-7.56719360351562,3.96299362182617,3.18527221679687,630583582
sq,-9.48979339599609,-7.51622924804687,4.52566146850586,5.31196594238281,630600249
sq,-9.4173828125,-7.43123779296875,5.11932373046875,7.3847770690918,630616916
sq,-9.3354736328125,-7.31308135986328,6.01339340209961,8.91256332397461,630633583
sq,-9.23925933837891,-7.17048034667969,7.45153427124023,13.7257575988769,630650250
sq,-9.12003479003906,-6.95086822509766,11.2514495849609,16.324520111084,630666917
sq,-8.94001159667969,-6.68967590332031,12.9308700561523,23.0555534362793,630683584
sq,-8.73311767578125,-6.32078704833984,14.3327713012695,28.2549858093262,630700251
sq,-8.50379333496094,-5.86870727539062,12.5041007995606,27.4052619934082,630716918
sq,-8.30372772216797,-5.43022308349609,6.76250457763672,26.6876220703125,630733585
sq,-8.19552764892578,-5.00322113037109,2.34365463256836,20.1683044433594,630750252
sq,-8.15802917480469,-4.68052825927734,-0.577926635742187,14.7886276245117,630766919
sq,-8.16727600097656,-4.44391021728516,-0.722885131835937,16.7789459228516,630783586
sq,-8.17884216308594,-4.17544708251953,1.55162811279297,20.1048851013184,630800253
sq,-8.15401611328125,-3.85376892089844,5.15031814575195,20.0767517089844,630816920
sq,-8.07161102294922,-3.53254089355469,8.21352005004883,19.9832916259766,630833587
sq,-7.94019470214844,-3.21280822753906,12.0096206665039,17.5518989562988,630850254
sq,-7.74804077148437,-2.93197784423828,17.8036689758301,19.2975997924805,630866921
sq,-7.46318206787109,-2.62321624755859,25.2108573913574,22.8581428527832,630883588
sq,-7.05980834960937,-2.25748596191406,33.0147743225098,30.6739807128906,630900255
sq,-6.53157196044922,-1.76670227050781,43.3225631713867,39.1960144042969,630916922
sq,-5.83841094970703,-1.13956604003906,53.0905723571777,50.3311157226563,630933589
sq,-4.98896179199219,-0.334268188476562,60.5506896972656,60.699462890625,630950256
sq,-4.02015075683594,0.636923217773438,70.8894729614258,71.4116096496582,630966923
sq,-2.88591918945312,1.77950897216797,80.843448638916,80.930233001709,630983590
sq,-1.59242401123047,3.07439270019531,90.2891159057617,86.5392684936523,631000257
sq,-0.147798156738281,4.45902099609375,97.0220565795898,86.7257118225098,631016924
sq,1.40455474853516,5.84663238525391,106.493949890137,102.165699005127,631033591
sq,3.10845794677734,7.48128356933594,115.115642547607,112.951040267944,631050258
sq,4.95030822753906,9.28850021362305,122.891902923584,119.245290756226,631066925
sq,6.91657867431641,11.1964248657227,132.394075393677,111.828327178955,631083592
sq,9.03488388061523,12.9856781005859,151.313066482544,105.065822601319,631100259
sq,11.4558929443359,14.666731262207,179.811477661132,111.15264892578,631116926
sq,14.3328765869141,16.4451736450195,181.537389755249,123.162984848023,631133593
sq,17.237474822998,18.4157814025879,185.321807861328,145.134449005126,631150260
sq,20.2026237487793,20.7379325866699,174.766302108765,157.47857093811,631166927
sq,22.9988845825195,23.2575897216797,154.446125030518,173.923254013061,631183594
sq,25.4700225830078,26.0403617858887,134.508848190308,182.908535003662,631200261
sq,27.6221641540527,28.9668983459473,111.49001121521,173.402309417724,631216928
sq,29.4060043334961,31.7413352966309,111.488580703735,178.369045257569,631233595
sq,31.1898216247559,34.595240020752,145.705461502075,164.921998977662,631250262
sq,33.5211090087891,37.2339920043945,172.67918586731,159.466624259948,631266929
sq,36.283975982666,39.7854579925537,169.381141662598,169.516324996948,631283596
sq,38.9940742492676,42.4977191925049,134.568214416503,188.781142234802,631300263
sq,41.1471656799316,45.5182174682617,95.8651304245,165.409803390503,631316930
sq,42.6810077667236,48.1647743225098,100.750923156738,161.053895950317,631333597
sq,44.2930225372314,50.7416366577148,121.343612670898,157.911896705627,631350264
sq,46.2345203399658,53.2682270050049,149.911284446716,153.237104415894,631366931
sq,48.6331008911133,55.7200206756592,153.242707252502,153.938233852387,631383598
sq,51.0849842071533,58.1830324172974,117.638826370239,134.379923343658,631400265
sq,52.9672054290771,60.3331111907959,102.537751197815,117.193758487701,631416932
sq,54.6078094482422,62.2082113265991,119.633555412292,134.277164936066,631433599
sq,56.5219463348389,64.3566459655762,145.840466022492,136.719197034836,631450266
sq,58.8553937911987,66.5441531181336,144.388377666473,143.900856375694,631466933
sq,61.1656078338623,68.8465668201447,150.838255882263,153.770105913281,631483600
sq,63.5790199279785,71.3068885147572,313.881829380989,335.805175825953,631500267
sq,68.6011291980743,76.6797713279724,220.485816709697,352.551847696304,631516934
sq,72.1289022654295,82.3206008911133,344.435279257595,334.177613258362,631533601
sq,77.639866733551,87.6674427032471,356.1792075634,15.9438848495483,631550268
sq,83.3387340545654,87.9225448608398,197.031259536743,87.505578994751,631566935
sq,86.4912342071533,89.3226341247559,393.748283386231,29.3358564376831,631583602
sq,92.791206741333,89.7920078277588,437.526345252991,-12.798547744751,631600269
sq,99.7916282653809,89.5872310638428,210.278272628784,119.621753692627,631616936
sq,103.156080627441,91.5011791229248,82.650899887085,101.515173912048,631633603
sq,104.478495025635,93.1254219055176,403.962135314941,51.7405271530151,631650270
sq,110.941889190674,93.9532703399658,-21.9271183013916,-6.96825981140137,631833607
sq,110.591055297852,93.8417781829834,-22.3159790039063,19.8130607604981,631866941
sq,110.233999633789,94.1587871551514,-28.7132263183594,31.3117504119873,631883608
sq,109.774588012695,94.6597751617432,-32.3977470397949,18.7139511108398,631900275
sq,109.256224060059,94.9591983795166,-38.6099815368652,16.9187784194946,631916942
sq,108.638464355469,95.2298988342285,-53.0636310577393,13.7119293212891,631933609
sq,107.789446258545,95.4492897033691,-72.6239681243896,11.6209983825684,631950276
sq,106.627462768555,95.6352256774902,-92.383861541748,7.63821601867676,631966943
sq,105.149320983887,95.7574371337891,-114.722847938538,6.85930252075195,631983610
sq,103.31375541687,95.8671859741211,-143.876433372498,0.53858757019043,632000277
sq,101.01173248291,95.8758033752441,-191.150665283203,-7.60352611541748,632016944
sq,97.9533218383789,95.7541469573975,-211.100578308105,-13.8782262802124,632033611
sq,94.5757125854492,95.5320953369141,-212.064266204834,-17.2017812728882,632050278
sq,91.1826843261719,95.2568668365479,-257.724463939667,-20.3624963760376,632066945
sq,87.0590929031372,94.9310668945313,-353.553295135498,-24.0849256515503,632083612
sq,81.4022401809692,94.5457080841065,-438.925549387932,-32.8869819641113,632100279
sq,74.3794313907623,94.0195163726807,-240.293674170971,-44.4276332855225,632116946
sq,70.5347326040268,93.3086742401123,-183.090440928936,-29.7658443450928,632133613
sq,67.6052855491638,92.8324207305908,-157.65243768692,-0.451922416687012,632150280
sq,65.0828465461731,92.8251899719238,-162.055522203446,-56.2421083450317,632166947
sq,62.489958190918,91.9253162384033,-154.232859611511,-108.059763908386,632183614
sq,60.0222324371338,90.1963600158691,-141.94518327713,-117.509961128235,632200281
sq,57.7511095046997,88.3162006378174,-138.824760913849,-104.636430740356,632216948
sq,55.5299133300781,86.6420177459717,-140.359997749329,-72.6165771484375,632233615
sq,53.2841533660889,85.4801525115967,-137.337803840637,-88.2250070571899,632250282
sq,51.0867485046387,84.0685523986816,-120.22602558136,-359.32919383049,632266949
sq,49.1631320953369,78.3192852973938,-119.755268096924,-317.198798060417,632283616
sq,47.2470478057861,73.2441045284271,-129.260301589966,-176.999889314175,632300283
sq,45.1788829803467,70.4121062994003,-139.104604721069,-140.943981707096,632316950
sq,42.9532093048096,68.1570025920868,-151.59273147583,-148.627802729607,632333617
sq,40.5277256011963,65.7789577484131,-153.601288795471,-142.933487892151,632350284
sq,38.0701049804687,63.4920219421387,-161.481380462647,-147.651433944702,632366951
sq,35.4864028930664,61.1295989990234,-164.880752563476,-135.267794132233,632383618
sq,32.8483108520508,58.9653142929077,-177.28590965271,-122.986555099487,632400285
sq,30.0117362976074,56.9975294113159,-179.029703140259,-128.605782985687,632416952
sq,27.1472610473633,54.9398368835449,-180.184602737427,-142.478942871094,632433619
sq,24.2643074035645,52.6601737976074,-180.049657821655,-156.825661659241,632450286
sq,21.383512878418,50.1509632110596,-183.722019195557,-155.294179916382,632466953
sq,18.4439605712891,47.6662563323975,-178.899765014649,-152.125597000122,632483620
sq,15.5815643310547,45.2322467803955,-171.81372642517,-163.362383842468,632500287
sq,12.8325447082519,42.618448638916,-164.230108261108,-170.494556427002,632516954
sq,10.2048629760742,39.890535736084,-160.617828369141,-173.853635787964,632533621
sq,7.63497772216797,37.1088775634766,-155.967712402344,-175.77600479126,632550288
sq,5.13949432373047,34.2964614868164,-140.633583068848,-167.989253997803,632566955
sq,2.88935699462891,31.6086334228516,-123.607635498047,-162.631273269654,632583622
sq,0.911634826660157,29.0065330505371,-98.5560417175293,-159.249305725097,632600289
sq,-0.665261840820312,26.4585441589355,-71.8207359313965,-164.037704467773,632616956
sq,-1.81439361572266,23.8339408874512,-51.9132614135742,-149.377822875977,632633623
sq,-2.64500579833984,21.4438957214355,-36.9129180908203,-142.136812210083,632650290
sq,-3.23561248779297,19.1697067260742,-26.8793106079102,-149.034738540649,632666957
sq,-3.66568145751953,16.7851509094238,-22.700309753418,-154.256582260132,632683624
sq,-4.02888641357422,14.3170455932617,-19.7973251342773,-154.422521591186,632700291
sq,-4.34564361572266,11.8462852478027,-24.8093605041504,-141.281604766846,632716958
sq,-4.74259338378906,9.5857795715332,-32.1917533874512,-124.756574630737,632733625
sq,-5.25766143798828,7.58967437744141,-36.3674163818359,-114.606380462646,632750292
sq,-5.83954010009766,5.75597229003906,-36.5815162658691,-97.7635383605957,632766959
sq,-6.42484436035156,4.19175567626953,-29.630184173584,-85.054874420166,632783626
sq,-6.89892730712891,2.83087768554687,-18.0721282958984,-80.477237701416,632800293
sq,-7.18808135986328,1.54324188232422,-2.55298614501953,-67.5129890441895,632816960
sq,-7.22892913818359,0.463034057617188,8.71181488037109,-65.6275749206543,632833627
sq,-7.08954010009766,-0.587007141113281,9.23871994018555,-60.0099563598633,632850294
sq,-6.94172058105469,-1.54716644287109,1.61647796630859,-49.8194694519043,632866961
sq,-6.91585693359375,-2.34427795410156,-5.05924224853516,-49.0217208862305,632883628
sq,-6.99680480957031,-3.12862548828125,-6.3934326171875,-42.872428894043,632900295
sq,-7.09909973144531,-3.81458435058594,-6.18839263916016,-36.0722541809082,632916962
sq,-7.19811401367187,-4.39174041748047,-7.17258453369141,-24.9843597412109,632933629
sq,-7.31287536621094,-4.79149017333984,-8.88347625732422,-15.0589942932129,632950296
sq,-7.45501098632812,-5.03243408203125,-5.85746765136719,-9.21821594238281,632966963
sq,-7.54873046875,-5.17992553710937,0.480175018310547,-8.86058807373047,632983630
sq,-7.54104766845703,-5.32169494628906,7.19118118286133,-6.07585906982422,633000297
sq,-7.42598876953125,-5.41890869140625,11.1885070800781,-0.754833221435547,633016964
sq,-7.24697265625,-5.43098602294922,11.3801956176758,7.36141204833984,633033631
sq,-7.06488952636719,-5.31320343017578,10.3425979614258,12.2580528259277,633050298
sq,-6.89940795898437,-5.11707458496094,8.78667831420898,10.3945732116699,633066965
sq,-6.75882110595703,-4.95076141357422,6.92129135131836,14.7566795349121,633083632
sq,-6.64808044433594,-4.71465454101562,3.95107269287109,15.7175064086914,633100299
sq,-6.58486328125,-4.46317443847656,0.901699066162109,14.9068832397461,633116966
sq,-6.57043609619141,-4.22466430664062,-0.06866455078125,7.77244567871094,633133633
sq,-6.57153472900391,-4.10030517578125,1.6016960144043,3.00836563110352,633150300
sq,-6.54590759277344,-4.05217132568359,5.58042526245117,1.71804428100586,633166967
sq,-6.45662078857422,-4.0246826171875,9.8414421081543,0.201225280761719,633183634
sq,-6.29915771484375,-4.02146301269531,15.4266357421875,3.62062454223633,633200301
sq,-6.05233154296875,-3.96353302001953,23.0445861816406,5.04636764526367,633216968
sq,-5.6836181640625,-3.88279113769531,31.7983627319336,6.82640075683594,633233635
sq,-5.17484436035156,-3.77356872558594,41.6412353515625,1.04999542236328,633250302
sq,-4.50858459472656,-3.75676879882812,55.1939010620117,-0.287055969238281,633266969
sq,-3.62548217773437,-3.76136169433594,74.2511749267578,0.79345703125,633283636
sq,-2.43746337890625,-3.74866638183594,95.4627990722656,0.957965850830078,633300303
sq,-0.91005859375,-3.73333892822266,110.274791717529,-0.0123977661132812,633316970
sq,0.854338073730469,-3.73353729248047,123.126029968262,-2.22921371459961,633333637
sq,2.82435455322266,-3.76920471191406,130.211353302002,-1.96552276611328,633350304
sq,4.90773620605469,-3.80065307617187,131.166458129883,-0.187873840332031,633366971
sq,7.00639953613281,-3.80365905761719,130.895614624023,3.25393676757812,633383638
sq,9.10072937011718,-3.75159606933594,137.293577194214,10.3640556335449,633400305
sq,11.2974266052246,-3.58577117919922,154.715299606323,20.9064483642578,633416972
sq,13.7728713989258,-3.25126800537109,171.707153320312,33.3547592163086,633433639
sq,16.5201858520508,-2.71759185791016,184.845447540283,46.1215972900391,633450306
sq,19.4777130126953,-1.97964630126953,192.584037780762,59.2184066772461,633466973
sq,22.5590576171875,-1.03215179443359,174.223184585571,74.9697685241699,633483640
sq,25.3466285705566,0.167364501953125,185.547828674316,81.9902420043945,633500307
sq,28.3153938293457,1.47920837402344,171.876192092896,96.7512130737305,633516974
sq,31.065412902832,3.02722778320312,127.187967300415,113.474369049072,633533641
sq,33.1004203796387,4.84281768798828,109.70664024353,123.250484466553,633550308
sq,34.8557266235351,6.81482543945313,122.756719589234,135.63084602356,633566975
sq,36.8198341369629,8.98491897583008,130.75590133667,124.40299987793,633583642
sq,38.9119285583496,10.9753669738769,132.169485092163,114.154815673828,633600309
sq,41.0266403198242,12.8018440246582,122.600197792053,125.565767288208,633616976
sq,42.9882434844971,14.8108963012695,90.9384489059448,131.940126419067,633633643
sq,44.4432586669922,16.9219383239746,86.1419439315796,134.052753448487,633650310
sq,45.8215297698975,19.0667823791504,96.0813760757446,150.979995727539,633666977
sq,47.3588317871094,21.482462310791,99.6365547180176,148.627519607543,633683644
sq,48.9530166625976,23.8605026245117,97.0790386199951,160.359382629395,633700311
sq,50.5062812805176,26.426252746582,107.29706287384,187.052965164184,633716978
sq,52.223034286499,29.419100189209,110.756158828735,175.633192062378,633733645
sq,53.9951328277588,32.229231262207,110.33821105957,176.644802093505,633750312
sq,55.7605442047119,35.0555480957031,107.897758483887,176.5296459198,633766979
sq,57.4869083404541,37.8800224304199,109.378278255463,141.275644302368,633783646
sq,59.2369607925415,40.1404327392578,96.3120460510254,121.165156364441,633800313
sq,60.7779535293579,42.0790752410889,90.1117324829102,120.217442512512,633816980
sq,62.2197412490845,44.0025543212891,110.777735710144,141.340970993042,633833647
sq,63.9921850204468,46.2640098571777,212.953180074692,142.667770385742,633850314
sq,67.3994359016419,48.5466941833496,225.129216909409,143.218755722046,633866981
sq,71.0015033721924,50.8381942749023,239.580079913139,129.433035850525,633883648
sq,74.8347846508026,52.9091228485107,434.763625264168,115.194320678711,633900315
sq,81.7910026550293,54.7522319793701,119.489431381226,121.987879276276,633916982
sq,83.7028335571289,56.7040380477905,257.028102874756,119.472861289978,633933649
sq,87.815283203125,58.6156038284302,345.471143722534,99.9990105628967,633950316
sq,93.3428215026856,60.2155879974365,294.886946678162,108.365654945374,633966983
sq,98.0610126495361,61.9494384765625,111.680150032043,123.985022306442,633983650
sq,99.8478950500488,63.9331988334656,108.736038208008,120.052307844162,634000317
sq,101.587671661377,65.8540357589722,49.4177341461182,118.8894957304,634016984
sq,102.378355407715,67.7562676906586,36.5484952926636,295.460641384125,634033651
sq,102.963131332397,72.4836379528046,67.7539110183716,290.472105145454,634050318
sq,104.047193908691,77.1311916351318,43.6081886291504,92.5589799880981,634066985
sq,104.744924926758,78.6121353149414,23.7786769866943,88.7622833251953,634083652
sq,105.125383758545,80.0323318481445,19.5963382720947,36.0994338989258,634100319
sq,105.438925170898,80.6099227905273,16.8418884277344,16.0921812057495,634116986
sq,105.708395385742,80.8673976898193,15.7175064086914,116.00399017334,634133653
sq,105.959875488281,82.7234615325928,10.1640224456787,141.605615615845,634150320
sq,106.122499847412,84.9891513824463,5.67030906677246,33.0201387405396,634166987
sq,106.213224792481,85.5174736022949,-1.03521347045898,-52.084743976593,634183654
sq,106.196661376953,84.6841176986694,-6.87956809997559,-19.8909044265747,634200321
sq,106.086588287354,84.3658632278442,-11.587381362915,3.93533706665039,634216988
sq,105.901190185547,84.4288286209107,-16.0467624664307,-5.29235601425171,634233655
sq,105.644441986084,84.3441509246826,-22.752046585083,-1.7087459564209,634250322
sq,105.280409240723,84.3168109893799,-29.8516750335693,5.0201416015625,634266989
sq,104.802782440186,84.3971332550049,-35.1879596710205,5.48315048217773,634283656
sq,104.239775085449,84.4848636627197,-42.1818494796753,11.465311050415,634300323
sq,103.564865493774,84.6683086395264,-64.8676156997681,11.1934542655945,634316990
sq,102.526983642578,84.8474039077759,-102.307677268982,7.34424591064453,634333657
sq,100.890060806274,84.9649118423462,-128.656029701233,5.99503517150879,634350324
sq,98.8315643310547,85.0608324050903,-110.482573509216,4.03636693954468,634366991
sq,97.0638431549072,85.1254142761231,-130.291700363159,0.807464122772217,634383658
sq,94.9791759490967,85.1383337020874,-134.111523628235,-2.30294466018677,634400325
sq,92.8333915710449,85.1014865875244,-161.714553833008,-4.79006767272949,634416992
sq,90.2459587097168,85.0248455047607,-291.609644889831,-7.86769390106201,634433659
sq,85.5802043914795,84.8989624023438,-185.258686542511,-9.19216871261597,634450326
sq,82.6160654067993,84.7518877029419,-293.892353773117,-9.53978300094604,634466993
sq,77.9137877464294,84.5992511749268,-447.485007345676,-15.174150466919,634483660
sq,70.7540276288986,84.3564647674561,-203.249506652355,-16.3575410842896,634500327
sq,67.5020355224609,84.0947441101074,-131.34041428566,-14.8316025733948,634516994
sq,65.4005888938904,83.8574384689331,-148.443669080735,10.4948878288269,634533661
sq,63.0254901885986,84.0253566741943,-140.841841697693,-3.09967994689941,634550328
sq,60.7720207214356,83.975761795044,-134.221971035004,-83.9511156082153,634566995
sq,58.6244691848755,82.6325439453125,-122.451484203339,-123.868107795715,634583662
sq,56.6652454376221,80.6506542205811,-118.08431148529,-109.621345996857,634600329
sq,54.7758964538574,78.8967126846314,-110.804200172424,-47.4437475204468,634616996
sq,53.0030292510986,78.1376127243042,-102.056145668029,-101.758629083633,634633663
sq,51.3701309204102,76.5094746589661,-94.3224430084233,-176.332138478756,634650330
sq,49.8609718322754,73.688160443306,-94.5091247558598,-309.243746101856,634666997
sq,48.3488258361816,68.7402605056763,-106.631159782409,-192.995578050613,634683664
sq,46.6427272796631,65.6523312568665,-118.851065635681,-107.588976621628,634700331
sq,44.7411102294922,63.9309076309204,-115.935683250427,-124.545872211456,634716998
sq,42.8861392974854,61.9381736755371,-114.498496055603,-117.972850799561,634733665
sq,41.0541633605957,60.0506080627441,-112.611532211304,-110.780954360962,634750332
sq,39.2523788452148,58.2781127929687,-117.420434951782,-111.314237117767,634766999
sq,37.3736518859863,56.4970849990845,-122.769117355347,-117.86824464798,634783666
sq,35.4093460083008,54.6111930847168,-133.374691009521,-118.323564529419,634800333
sq,33.2753509521484,52.7180160522461,-125.450134277344,-114.911794662476,634817000
sq,31.2681488037109,50.8794273376465,-109.931945800781,-114.603161811829,634833667
sq,29.5092376708984,49.0457767486572,-111.462354660035,-119.85182762146,634850334
sq,27.7258399963379,47.1281475067139,-122.260332107544,-121.996760368348,634867001
sq,25.7696746826172,45.1761993408203,-136.120796203613,-125.200390815735,634883668
sq,23.5917419433594,43.1729930877686,-137.299299240112,-118.409037590027,634900335
sq,21.3949531555176,41.2784484863281,-142.137050628663,-118.783712387085,634917002
sq,19.120760345459,39.3779090881348,-134.108781814575,-120.336294174194,634933669
sq,16.9750198364258,37.4525283813476,-128.908157348633,-117.86413192749,634950336
sq,14.9124893188476,35.5667022705078,-123.790025711059,-123.19016456604,634967003
sq,12.9318489074707,33.5956596374512,-136.443138122559,-123.421669006348,634983670
sq,10.7487586975098,31.6209129333496,-147.69434928894,-113.169431686401,635000337
sq,8.38564910888673,29.8102020263672,-152.865886688233,-117.43426322937,635017004
sq,5.939794921875,27.9312538146973,-144.629955291748,-117.906332015991,635033671
sq,3.62571563720703,26.0447525024414,-129.288196563721,-118.082523345948,635050338
sq,1.5571044921875,24.1554321289062,-110.612392425537,-113.347768783568,635067005
sq,-0.212693786621093,22.3418678283691,-85.853099822998,-124.05276298523,635083672
sq,-1.58634338378906,20.3570236206055,-66.497802734375,-115.069150924682,635100339
sq,-2.65030822753906,18.5159172058105,-49.628734588623,-112.502098083497,635117006
sq,-3.44436798095703,16.7158836364746,-36.1599922180176,-108.311176300048,635133673
sq,-4.02292785644531,14.9829048156738,-26.8607139587402,-127.594232559204,635150340
sq,-4.45269927978516,12.9413970947266,-20.2889442443848,-139.747858047485,635167007
sq,-4.77732238769531,10.7054313659668,-15.7971382141113,-135.561227798462,635183674
sq,-5.03007659912109,8.53645172119141,-12.1660232543945,-131.904125213623,635200341
sq,-5.22473297119141,6.42598571777344,-12.6643180847168,-126.875400543213,635217008
sq,-5.42736206054687,4.39597930908203,-12.5045776367187,-131.611347198486,635233675
sq,-5.62743530273437,2.29019775390625,-7.95412063598633,-128.296375274658,635250342
sq,-5.75470123291016,0.237455749511719,-4.54187393188477,-108.678817749023,635267009
sq,-5.82737121582031,-1.50140533447266,-6.9580078125,-99.7986793518066,635283676
sq,-5.93869934082031,-3.09818420410156,-12.8402709960937,-90.7249450683594,635300343
sq,-6.14414367675781,-4.54978332519531,-14.2011642456055,-88.7537002563477,635317010
sq,-6.3713623046875,-5.96984252929687,-8.95261764526367,-79.5130729675293,635333677
sq,-6.51460418701172,-7.24205169677734,-6.70671463012695,-69.1733360290527,635350344
sq,-6.62191162109375,-8.34882507324219,-9.61399078369141,-49.86572265625,635367011
sq,-6.77573547363281,-9.14667663574219,-13.1025314331055,-31.7378044128418,635383678
sq,-6.9853759765625,-9.65448150634766,-10.2958679199219,-18.6872482299805,635400345
sq,-7.15010986328125,-9.95347747802734,-3.35311889648437,-11.8989944458008,635417012
sq,-7.203759765625,-10.1438613891602,4.45795059204102,-10.1542472839356,635433679
sq,-7.13243255615234,-10.3063293457031,13.4544372558594,-4.92000579833984,635450346
sq,-6.91716156005859,-10.3850494384766,18.733024597168,-3.10659408569336,635467013
sq,-6.61743316650391,-10.4347549438477,19.2880630493164,-2.73323059082031,635483680
sq,-6.30882415771484,-10.4784866333008,16.0317420959473,-4.35161590576172,635500347
sq,-6.05231628417969,-10.548112487793,11.3215446472168,-3.21197509765625,635517014
sq,-5.87117156982422,-10.5995040893555,8.53633880615234,-0.662803649902344,635533681
sq,-5.73459014892578,-10.6101089477539,9.90533828735352,1.9679069519043,635550348
sq,-5.57610473632812,-10.5786224365234,13.5931968688965,5.96284866333008,635567015
sq,-5.35861358642578,-10.4832168579102,17.1456336975098,6.34145736694336,635583682
sq,-5.08428344726562,-10.3817535400391,21.3866233825684,7.70854949951172,635600349
sq,-4.74209747314453,-10.2584167480469,26.3872146606445,6.33001327514648,635617016
sq,-4.31990203857422,-10.1571365356445,30.5781364440918,3.42464447021484,635633683
sq,-3.83065185546875,-10.1023422241211,32.7401161193848,4.70113754272461,635650350
sq,-3.30680999755859,-10.0271240234375,35.5501174926758,8.29029083251953,635667017
sq,-2.73800811767578,-9.89447937011719,45.292854309082,11.6314888000488,635683684
sq,-2.01332244873047,-9.70837554931641,57.0778846740723,17.6663398742676,635700351
sq,-1.10007629394531,-9.42571411132812,59.3361854553223,20.6952095031738,635717018
sq,-0.150697326660156,-9.09459075927734,58.2308769226074,21.2240219116211,635733685
sq,0.780996704101563,-8.75500640869141,61.7966651916504,23.7345695495606,635750352
sq,1.76974334716797,-8.37525329589844,69.7927474975586,27.1806716918945,635767019
sq,2.88642730712891,-7.94036254882812,73.0099678039551,30.6515693664551,635783686
sq,4.05458679199219,-7.44993743896484,78.6352157592773,34.8024368286133,635800353
sq,5.31275024414063,-6.89309844970703,64.6481513977051,37.2004508972168,635817020
sq,6.34712066650391,-6.29789123535156,56.7455291748047,51.5646934509277,635833687
sq,7.25504913330078,-5.47285614013672,67.5392150878906,67.8763389587402,635850354
sq,8.33567657470703,-4.38683471679687,77.4402618408199,60.8468055725098,635867021
sq,9.57472076416015,-3.41328582763672,79.0002346038823,74.5406150817871,635883688
sq,10.8387245178223,-2.22063598632812,81.7146301269531,77.8508186340332,635900355
sq,12.1461585998535,-0.975022888183593,93.1706428527828,76.0087966918945,635917022
sq,13.636888885498,0.241117858886719,99.6949672698975,70.4288482666016,635933689
sq,15.2320083618164,1.36797943115234,111.274719238281,64.0225410461426,635950356
sq,17.0124038696289,2.39234008789062,115.204811096192,51.0778427124023,635967023
sq,18.855680847168,3.20958557128906,117.767333984375,46.4777946472168,635983690
sq,20.739958190918,3.95323028564453,127.135038375854,46.8196868896484,636000357
sq,22.7741188049316,4.70234527587891,131.387948989868,50.328254699707,636017024
sq,24.8763259887695,5.50759735107422,130.242824554443,56.1094284057617,636033691
sq,26.9602111816406,6.40534820556641,119.122505187989,54.408073425293,636050358
sq,28.8661712646484,7.27587738037109,105.808973312378,61.6488456726074,636067025
sq,30.5591148376465,8.26225891113281,103.084564208984,73.2648372650146,636083692
sq,32.2084678649902,9.43449630737305,109.646081924439,79.7605514526367,636100359
sq,33.9628051757812,10.7106651306152,128.814458847046,86.2724781036377,636117026
sq,36.023836517334,12.0910247802734,123.83246421814,96.1353778839111,636133693
sq,38.0051559448242,13.629190826416,113.966464996338,102.309465408325,636150360
sq,39.8286193847656,15.2661422729492,111.676573753357,112.612485885621,636167027
sq,41.6154445648193,17.0679420471191,105.270862579346,111.050844192504,636183694
sq,43.2997783660889,18.8447555541992,84.5409631729122,113.670825958252,636200361
sq,44.6524337768555,20.6634887695312,89.6683931350712,129.229068756104,636217028
sq,46.0871280670166,22.7311538696289,105.72624206543,136.960744857788,636233695
sq,47.7787479400635,24.9225257873535,100.920677185058,155.454635620118,636250362
sq,49.3934787750244,27.4097999572754,89.5802974700928,157.500505447387,636267029
sq,50.8267635345459,29.9298080444336,76.2451887130737,151.208639144897,636283696
sq,52.0466865539551,32.349146270752,74.3502378463745,166.919231414795,636300363
sq,53.2362903594971,35.0198539733887,80.7089805603027,147.261381149292,636317030
sq,54.5276340484619,37.3760360717773,93.8262939453125,134.996891021729,636333697
sq,56.0288547515869,39.535986328125,97.2610116004944,130.702853202819,636350364
sq,57.5850309371948,41.6272319793701,103.414654731751,114.684820175171,636367031
sq,59.2396654129028,43.4621891021728,108.456432819366,107.824563980102,636383698
sq,60.9749683380127,45.1873821258545,106.061577796936,114.202618598938,636400365
sq,62.6719535827637,47.0146240234375,186.527788639069,118.366599082947,636417032
sq,65.6563982009888,48.9084896087646,211.210161447525,104.181289672852,636433699
sq,69.0357607841492,50.5753902435303,327.096357941628,105.148553848267,636450366
sq,74.2693025112152,52.2577671051025,302.972063422203,106.772661209106,636467033
sq,79.1168555259705,53.9661296844482,110.307902097702,105.512499809265,636483700
sq,80.8817819595337,55.6543296813965,277.019679546356,97.672164440155,636500367
sq,85.3140968322754,57.217084312439,262.282490730286,89.8995995521545,636517034
sq,89.51061668396,58.6554779052734,249.772787094116,87.5519514083862,636533701
sq,93.5069812774658,60.0563091278076,111.90402507782,95.5069661140442,636550368
sq,95.2974456787109,61.5844205856323,59.0707063674927,109.633088111877,636567035
sq,96.2425769805908,63.3385499954224,47.5420951843262,208.624988794327,636583702
sq,97.00325050354,66.6765498161316,81.7357301712036,264.438878744841,636600369
sq,98.3110221862793,70.907571876049,53.5569190979004,250.021789222956,636617036
sq,99.1679328918457,74.9079205036163,42.0361757278442,3.49880754947662,636633703
sq,99.8405117034912,74.963901424408,26.6611576080322,109.461307525635,636650370
sq,100.26709022522,76.7152823448181,16.3664817810059,43.7343418598175,636667037
sq,100.528953933716,77.4150318145752,19.2974805831909,29.9014747142792,636683704
sq,100.837713623047,77.8934554100037,20.1256275177002,66.7144954204559,636700371
sq,101.15972366333,78.960887336731,19.7547674179077,92.6671028137207,636717038
sq,101.475799942017,80.4435609817505,15.5940055847168,60.4615807533264,636733705
sq,101.725304031372,81.4109462738037,14.4003629684448,8.35609436035156,636750372
sq,101.955709838867,81.5446437835693,11.623740196228,-3.86673212051392,636767039
sq,102.141689682007,81.4827760696411,7.54153728485107,4.8949122428894,636783706
sq,102.262354278565,81.5610946655273,3.08322906494141,8.04519653320312,636800373
sq,102.311685943604,81.6898178100586,-3.27444076538086,19.3110108375549,636817040
sq,102.259294891357,81.9987939834595,-9.72020626068115,7.97921419143677,636833707
sq,102.103771591187,82.1264614105225,-15.4725313186646,10.2060437202454,636850374
sq,101.856211090088,82.2897581100464,-20.124077796936,16.0985589027405,636867041
sq,101.534225845337,82.5473350524902,-25.4864692687988,7.29060173034668,636883708
sq,101.126442337036,82.6639846801758,-31.78870677948,6.9652795791626,636900375
sq,100.617823028565,82.7754291534424,-35.5290174484253,6.60067796707153,636917042
sq,100.04935874939,82.8810400009155,-45.9288358688354,8.86905193328857,636933709
sq,99.3144973754883,83.0229448318482,-75.1898288726807,4.20653820037842,636950376
sq,98.1114601135254,83.0902494430542,-103.375554084778,2.76714563369751,636967043
sq,96.457451248169,83.1345237731934,-114.442586898804,1.73079967498779,636983710
sq,94.6263698577881,83.1622165679932,-109.851837158203,-3.23712825775146,637000377
sq,92.8687404632568,83.1104225158691,-129.324793815613,-8.33803415298462,637017044
sq,90.799543762207,82.9770139694214,-123.11851978302,-10.5618238449097,637033711
sq,88.8296474456787,82.8080247879028,-186.162054538727,-12.0912194252014,637050378
sq,85.8510545730591,82.6145652770996,-283.716320991516,-13.5157704353333,637067045
sq,81.3115934371948,82.3983129501343,-160.803020000458,-15.5984163284302,637083712
sq,78.7387451171875,82.1487382888794,-215.186953544617,-18.0919766426086,637100379
sq,75.2957538604736,81.8592666625977,-391.673773527145,-20.6907987594604,637117046
sq,69.0289734840393,81.5282138824463,-311.750292778015,-27.4801850318909,637133713
sq,64.0409687995911,81.088530921936,-101.829737424851,-1.30271911621094,637150380
sq,62.4116930007935,81.0676874160767,-133.495330810547,12.0706558227539,637167047
sq,60.2757677078247,81.2608179092407,-112.637937068939,-32.6590538024902,637183714
sq,58.4735607147217,80.7382730484009,-98.1956124305725,-77.8397023677826,637200381
sq,56.9024309158325,79.4928378105164,-85.5730175971985,-86.1280858516693,637217048
sq,55.5332626342773,78.1147884368897,-90.9578800201416,-107.968807220459,637233715
sq,54.0779365539551,76.3872875213623,-110.965847969055,-19.7393596172333,637250382
sq,52.3024829864502,76.0714577674866,-81.4940929412842,-57.6578825712204,637267049
sq,50.9985774993896,75.1489316463471,-100.213646888733,-155.453063547611,637283716
sq,49.3951591491699,72.6616826295853,-94.3509340286255,-274.452738463879,637300383
sq,47.8855442047119,68.2704388141632,-102.292060852051,-255.838736891746,637317050
sq,46.2488712310791,64.1770190238953,-105.93569278717,-108.482509851456,637333717
sq,44.5539001464844,62.441298866272,-118.444561958313,-94.728410243988,637350384
sq,42.6587871551514,60.9256443023682,-127.817034721374,-119.026064872742,637367051
sq,40.6137145996094,59.0212272644043,-142.621040344238,-112.744092941284,637383718
sq,38.3317779541016,57.2173217773437,-154.173135757446,-116.25874042511,637400385
sq,35.8650077819824,55.357181930542,-158.809900283814,-103.532791137695,637417052
sq,33.3240493774414,53.7006572723389,-170.375823974609,-113.254427909851,637433719
sq,30.5980361938477,51.8885864257812,-179.895639419555,-116.885781288147,637450386
sq,27.7197059631348,50.0184139251709,-177.704334259033,-123.348116874695,637467053
sq,24.8764366149902,48.0448440551758,-181.781530380249,-127.19714641571,637483720
sq,21.9679321289062,46.0096897125244,-175.106525421142,-130.944490432739,637500387
sq,19.166227722168,43.9145778656006,-157.457351684571,-135.067462921143,637517054
sq,16.6469100952148,41.7534984588623,-162.330389022827,-138.659358024598,637533721
sq,14.0496238708496,39.5349487304687,-163.377285003662,-138.94772529602,637550388
sq,11.435587310791,37.3117851257324,-154.855251312256,-145.52903175354,637567055
sq,8.95790328979492,34.9833206176758,-140.742063522339,-155.630111694336,637583722
sq,6.7060302734375,32.4932388305664,-127.033233642578,-150.654792785645,637600389
sq,4.67349853515625,30.0827621459961,-110.172271728516,-154.319524765015,637617056
sq,2.9107421875,27.6136497497559,-99.6427536010742,-145.251512527465,637633723
sq,1.31645812988281,25.2896255493164,-95.0503349304199,-145.923852920532,637650390
sq,-0.204347229003906,22.9548439025879,-88.9797210693359,-146.703243255616,637667057
sq,-1.62802276611328,20.607592010498,-83.1947326660156,-146.549940109253,637683724
sq,-2.95913848876953,18.26279296875,-77.1479606628418,-145.574808120728,637700391
sq,-4.193505859375,15.9335960388184,-74.4175910949707,-140.745162963867,637717058
sq,-5.38418731689453,13.6816734313965,-65.1254653930664,-150.842666625977,637733725
sq,-6.42619476318359,11.2681907653809,-52.8779029846191,-146.800279617309,637750392
sq,-7.2722412109375,8.91938629150391,-40.9102439880371,-144.381046295166,637767059
sq,-7.92680511474609,6.60928955078125,-28.9573669433594,-128.340721130371,637783726
sq,-8.39012298583984,4.55583801269531,-18.7559127807617,-101.306438446045,637800393
sq,-8.69021759033203,2.93493499755859,-11.8708610534668,-87.4738693237305,637817060
sq,-8.8801513671875,1.53535308837891,-7.29084014892578,-81.0599327087402,637833727
sq,-8.99680480957031,0.238394165039063,-7.26842880249023,-72.2160339355469,637850394
sq,-9.11309967041016,-0.917062377929687,-5.25426864624023,-68.6125755310059,637867061
sq,-9.19716796875,-2.01486358642578,-1.99699401855469,-69.3120956420898,637883728
sq,-9.22911987304687,-3.12385711669922,2.47764587402344,-66.1373138427734,637900395
sq,-9.1894775390625,-4.18205413818359,2.22921371459961,-56.6887855529785,637917062
sq,-9.15381011962891,-5.08907470703125,-0.234603881835937,-45.6814765930176,637933729
sq,-9.15756378173828,-5.81997833251953,0.437259674072266,-34.3451499938965,637950396
sq,-9.15056762695312,-6.36950073242187,2.32076644897461,-29.7904014587402,637967063
sq,-9.11343536376953,-6.84614715576172,3.76367568969727,-28.4276008605957,637983730
sq,-9.05321655273437,-7.30098876953125,4.49562072753906,-26.1831283569336,638000397
sq,-8.98128662109375,-7.71991882324219,6.62851333618164,-21.5110778808594,638017064
sq,-8.87523040771484,-8.06409606933594,7.65562057495117,-15.538215637207,638033731
sq,-8.75274047851562,-8.31270751953125,4.79030609130859,-8.80670547485352,638050398
sq,-8.67609558105469,-8.45361480712891,3.88431549072266,-0.835418701171875,638067065
sq,-8.61394653320312,-8.46698150634766,3.92532348632812,6.13594055175781,638083732
sq,-8.55114135742187,-8.36880645751953,7.23552703857422,9.49382781982422,638100399
sq,-8.43537292480469,-8.21690521240234,8.27836990356445,9.04655456542969,638117066
sq,-8.30291900634766,-8.07216033935547,7.52973556518555,6.55078887939453,638133733
sq,-8.18244323730469,-7.96734771728516,6.34908676147461,1.66511535644531,638150400
sq,-8.08085784912109,-7.94070587158203,6.44779205322266,-0.624656677246094,638167067
sq,-7.97769317626953,-7.95070037841797,8.88490676879883,-0.918865203857422,638183734
sq,-7.83553466796875,-7.96540222167969,10.3869438171387,-0.463008880615234,638200401
sq,-7.66934356689453,-7.97281036376953,11.7459297180176,0.284194946289062,638217068
sq,-7.48140869140625,-7.96826324462891,13.2670402526856,4.62675094604492,638233735
sq,-7.26913604736328,-7.89423522949219,15.9492492675781,8.29839706420898,638250402
sq,-7.01394805908203,-7.76146087646484,19.1092491149902,8.38851928710937,638267069
sq,-6.70820007324219,-7.62724456787109,23.5414505004883,6.74915313720703,638283736
sq,-6.33153686523437,-7.51925811767578,28.9807319641113,7.99417495727539,638300403
sq,-5.86784515380859,-7.39135131835937,37.7330780029297,5.73921203613281,638317070
sq,-5.26411590576172,-7.29952392578125,49.5328903198242,3.52716445922852,638333737
sq,-4.47158966064453,-7.24308929443359,64.9247169494629,3.92627716064453,638350404
sq,-3.43279418945312,-7.18026885986328,85.0434303283691,4.40168380737305,638367071
sq,-2.07209930419922,-7.10984191894531,105.39436340332,5.29718399047852,638383738
sq,-0.385789489746093,-7.02508697509766,121.27685546875,4.89044189453125,638400405
sq,1.55464019775391,-6.94683990478516,141.835689544678,6.55078887939453,638417072
sq,3.82401123046875,-6.84202728271484,153.753757476807,6.25801086425781,638433739
sq,6.28407135009766,-6.74189910888672,163.895606994629,9.3841552734375,638450406
sq,8.90640106201173,-6.59175262451172,157.476425170898,16.0794258117676,638467073
sq,11.4260238647461,-6.33448181152344,156.215906143189,25.3267288208008,638483740
sq,13.9254783630371,-5.92925415039062,168.677091598511,39.4835472106934,638500407
sq,16.6243118286133,-5.29751739501953,188.101768493653,55.4103851318359,638517074
sq,19.6339401245117,-4.41095123291016,176.930904388427,67.3885345458984,638533741
sq,22.4648345947266,-3.33273468017578,173.496961593628,62.7126693725586,638550408
sq,25.2407859802246,-2.32933197021484,171.687364578247,84.6452713012695,638567075
sq,27.9877838134766,-0.975007629394531,160.086631774902,100.327014923096,638583742
sq,30.549169921875,0.630224609375,132.898092269897,108.981132507324,638600409
sq,32.6755393981934,2.37392272949219,122.133493423462,128.966331481934,638617076
sq,34.6296752929687,4.43738403320313,141.603708267212,134.74702835083,638633743
sq,36.8953346252441,6.59333648681641,145.647287368774,134.228944778442,638650410
sq,39.2256912231445,8.74099960327148,143.811702728272,123.716115951538,638667077
sq,41.5266784667969,10.7204574584961,133.844137191772,129.979848861694,638683744
sq,43.6681846618652,12.8001350402832,100.241661071777,154.825210571289,638700411
sq,45.2720512390137,15.2773384094238,84.312915802002,157.371044158935,638717078
sq,46.6210578918457,17.7952751159668,99.7378826141357,170.371770858765,638733745
sq,48.2168640136719,20.521223449707,124.369382858276,170.206785202026,638750412
sq,50.2067741394043,23.2445320129395,123.878121376038,181.591749191285,638767079
sq,52.1888240814209,26.15,95.9807634353638,195.95980644226,638783746
sq,53.7245162963867,29.2853569030762,92.2285318374634,175.771713256836,638800413
sq,55.2001728057861,32.0977043151856,109.828948974609,185.969591140747,638817080
sq,56.9574359893799,35.0732177734375,143.328189849853,198.570728302002,638833747
sq,59.2506870269775,38.2503494262695,170.615077018738,179.919719696044,638850414
sq,61.9805282592773,41.1290649414062,170.910477638245,157.431840896606,638867081
sq,64.7150959014893,43.647974395752,318.836763501167,138.533711433411,638883748
sq,69.8164841175079,45.8645137786865,178.205173462629,156.950831413269,638900415
sq,72.66776689291,48.3757270812988,376.031551510096,144.223213195801,638917082
sq,78.6842717170715,50.6832984924316,186.339110136032,122.469067573547,638933749
sq,81.6656974792481,52.6428035736084,278.647303581238,139.277219772339,638950416
sq,86.1240543365479,54.8712390899658,369.134664535523,148.194134235382,638967083
sq,92.0302089691162,57.2423452377319,319.616913795471,151.21328830719,638983750
sq,97.1440795898438,59.661757850647,117.631077766418,117.337048053741,639000417
sq,99.0261768341065,61.5391506195068,53.2660484313965,123.080790042877,639017084
sq,99.8784336090088,63.5084432601929,47.8149652481079,181.104332208634,639033751
sq,100.643473052979,66.406112575531,38.7530326843262,371.020048856735,639050418
sq,101.263521575928,72.3424333572388,40.7630205154419,312.042862176895,639067085
sq,101.915729904175,77.3351191520691,56.8104982376099,44.1389977931976,639083752
sq,102.824697875977,78.0413431167603,129.191875457764,87.0340168476105,639100419
sq,104.891767883301,79.433887386322,19.6044445037842,27.4844467639923,639167087
sq,105.205438995361,79.8736385345459,15.8822536468506,24.6739983558655,639183754
sq,105.459555053711,80.2684225082398,12.1879577636719,84.7659111022949,639200421
sq,105.65456237793,81.6246770858765,6.8061351776123,157.440066337585,639217088
sq,105.763460540772,84.1437181472778,0.0846385955810547,88.5010361671448,639233755
sq,105.764814758301,85.5597347259522,-6.2716007232666,-27.0687341690064,639250422
sq,105.664469146729,85.1266349792481,-9.56869125366211,-15.6998038291931,639267089
sq,105.51137008667,84.875438117981,-12.2044086456299,12.9387974739075,639283756
sq,105.31609954834,85.0824588775635,-14.9173736572266,10.8877420425415,639300423
sq,105.077421569824,85.2566627502441,-19.7784900665283,9.06413793563843,639317090
sq,104.76096572876,85.4016889572144,-25.3586769104004,11.414647102356,639333757
sq,104.355226898193,85.5843233108521,-31.8223237991333,7.23248720169067,639350424
sq,103.846069717407,85.7000431060791,-40.9594774246216,7.93403387069702,639367091
sq,103.190718078613,85.8269876480103,-66.7433738708496,8.29708576202393,639383758
sq,102.12282409668,85.9597410202026,-120.655298233032,7.10362195968628,639400425
sq,100.192339324951,86.0733989715576,-120.499491691589,4.43047285079956,639417092
sq,98.2643474578857,86.1442865371704,-129.069447517395,0.138163566589355,639433759
sq,96.1992362976074,86.1464971542358,-126.097202301025,-2.55584716796875,639450426
sq,94.181681060791,86.1056035995483,-117.088913917542,-5.23942708969116,639467093
sq,92.3082584381104,86.0217727661133,-162.250757217407,-9.81581211090088,639483760
sq,89.7122463226318,85.8647197723389,-289.098680019379,-12.9872560501099,639500427
sq,85.0866674423218,85.6569236755371,-313.994705677033,-14.0832662582397,639517094
sq,80.0627521514893,85.4315914154053,-344.655647873878,-14.0477418899536,639533761
sq,74.5482617855072,85.206827545166,-282.319724559784,-14.1716599464417,639550428
sq,70.0311461925507,84.980080986023,-234.308704733849,-14.275848865509,639567095
sq,66.2822069168091,84.7516674041748,-128.927320241928,-16.6994333267212,639583762
sq,64.2193697929382,84.4844764709473,-134.954780340195,-26.2495279312134,639600429
sq,62.0600933074951,84.0644840240479,-124.887049198151,-37.4552607536316,639617096
sq,60.0619005203247,83.4651998519898,-121.849536895752,-27.644693851471,639633763
sq,58.1123079299927,83.0228847503662,-112.137734889984,16.9632434844971,639650430
sq,56.3181041717529,83.2942966461182,-104.405879974365,17.6964998245239,639667097
sq,54.6476100921631,83.5774406433106,-96.8185663223267,-72.9898810386658,639683764
sq,53.0985130310059,82.4096025466919,-124.662756919861,-94.0374732017517,639700431
sq,51.1039089202881,80.9050029754639,-80.7355642318726,-106.469482183456,639717098
sq,49.8121398925781,79.2014912605286,-115.084886550903,-92.8413271903992,639733765
sq,47.9707817077637,77.7160300254822,-115.666627883911,-38.3805334568024,639750432
sq,46.1201156616211,77.1019414901733,-129.26983833313,-114.87902700901,639767099
sq,44.051798248291,75.2638770580292,-130.52773475647,-324.75271821022,639783766
sq,41.9633544921875,70.0678335666657,-142.813205718994,-254.058137536049,639800433
sq,39.6783432006836,66.0029033660889,-144.36674118042,-149.296641349793,639817100
sq,37.3684753417969,63.6141571044922,-155.503988265991,-115.216493606567,639833767
sq,34.880411529541,61.7706932067871,-166.339159011841,-112.679660320282,639850434
sq,32.2189849853516,59.9678186416626,-172.477722167969,-107.590019702911,639867101
sq,29.4593414306641,58.246378326416,-164.781808853149,-115.506529808044,639883768
sq,26.8228324890137,56.3982738494873,-165.929317474366,-124.77707862854,639900435
sq,24.1679634094238,54.4018405914307,-163.699150085449,-115.312814712524,639917102
sq,21.5487770080566,52.5568355560303,-158.892393112182,-104.924559593201,639933769
sq,19.0064987182617,50.8780426025391,-154.873132705689,-120.039701461792,639950436
sq,16.5285285949707,48.9574073791504,-152.908086776733,-122.311472892762,639967103
sq,14.081999206543,47.0004238128662,-149.590253829957,-129.932403564453,639983770
sq,11.6885551452637,44.921505355835,-136.376142501831,-130.612969398499,640000437
sq,9.50653686523438,42.831697845459,-130.191326141357,-138.003706932068,640017104
sq,7.42347564697266,40.6236385345459,-124.531269073486,-139.509081840515,640033771
sq,5.43097534179688,38.3914932250976,-115.872859954834,-145.371437072754,640050438
sq,3.57700958251953,36.0655502319336,-101.202487945557,-146.777391433715,640067105
sq,1.95776977539062,33.7171119689942,-86.6880416870117,-149.205207824707,640083772
sq,0.570761108398438,31.3298286437988,-76.2910842895508,-146.331548690796,640100439
sq,-0.649896240234375,28.9885238647461,-67.4386024475098,-145.6880569458,640117106
sq,-1.72891387939453,26.6575149536133,-59.9470138549805,-141.41321182251,640133773
sq,-2.68806610107422,24.3949035644531,-48.4709739685059,-145.09129524231,640150440
sq,-3.46360168457031,22.0734428405762,-37.7674102783203,-151.670932769775,640167107
sq,-4.06788024902344,19.6467079162598,-28.6169052124023,-144.79923248291,640183774
sq,-4.52575073242187,17.3299201965332,-19.5717811584473,-141.19815826416,640200441
sq,-4.83889923095703,15.0707496643066,-13.824462890625,-144.947290420533,640217108
sq,-5.06009063720703,12.7515930175781,-9.22679901123047,-142.658710479736,640233775
sq,-5.20771942138672,10.4690536499023,-4.39119338989258,-131.811141967774,640250442
sq,-5.277978515625,8.36007537841796,0.404834747314453,-123.802185058593,640267109
sq,-5.27150115966797,6.37924041748047,-1.92499160766602,-112.832546234131,640283776
sq,-5.30230102539062,4.57391967773438,-7.24172592163086,-92.9436683654785,640300443
sq,-5.41816864013672,3.08682098388672,-10.8485221862793,-82.550048828125,640317110
sq,-5.59174499511719,1.76602020263672,-11.0535621643066,-69.2853927612305,640333777
sq,-5.76860198974609,0.657453918457032,-11.6386413574219,-57.9633712768555,640350444
sq,-5.95482025146484,-0.269960021972656,-11.143684387207,-53.4625053405762,640367111
sq,-6.13311920166016,-1.12536010742188,-9.7808837890625,-54.9235343933105,640383778
sq,-6.28961334228516,-2.00413665771484,-6.85739517211914,-51.8174171447754,640400445
sq,-6.39933166503906,-2.83321533203125,-4.66537475585937,-54.2621612548828,640417112
sq,-6.47397766113281,-3.70140991210937,-4.06408309936523,-56.1671257019043,640433779
sq,-6.53900299072266,-4.60008392333984,-2.31742858886719,-53.626537322998,640450446
sq,-6.57608184814453,-5.45810852050781,-0.932693481445312,-53.3061027526855,640467113
sq,-6.59100494384766,-6.31100616455078,-1.43051147460937,-53.0600547790527,640483780
sq,-6.61389312744141,-7.15996704101562,-0.64849853515625,-48.0537414550781,640500447
sq,-6.62426910400391,-7.92882690429687,-1.44386291503906,-48.5167503356934,640517114
sq,-6.64737091064453,-8.70509490966797,-1.55878067016602,-47.4023818969727,640533781
sq,-6.67231140136719,-9.46353302001953,-2.56824493408203,-40.6231880187988,640550448
sq,-6.7134033203125,-10.1135040283203,-1.01089477539062,-27.6579856872559,640567115
sq,-6.72957763671875,-10.5560317993164,3.25250625610352,-18.3730125427246,640583782
sq,-6.67753753662109,-10.85,3.74984741210937,0.949382781982422,640600449
sq,-6.61753997802734,-10.8348098754883,2.14433670043945,7.63559341430664,640617116
sq,-6.58323059082031,-10.7126403808594,1.69515609741211,6.84309005737305,640633783
sq,-6.55610809326172,-10.6031509399414,5.59711456298828,8.1181526184082,640650450
sq,-6.46655426025391,-10.4732604980469,11.3010406494141,6.21891021728516,640667117
sq,-6.28573760986328,-10.3737579345703,17.6301002502441,5.25140762329102,640683784
sq,-6.00365600585937,-10.2897354125977,24.4374275207519,6.36196136474609,640700451
sq,-5.61265716552734,-10.1879440307617,35.3841781616211,14.0275955200195,640717118
sq,-5.04651031494141,-9.96350250244141,52.4249076843262,8.54206085205078,640733785
sq,-4.20771179199219,-9.82682952880859,71.6547966003418,0.416278839111328,640750452
sq,-3.06123504638672,-9.82016906738281,81.8886756896973,-6.11495971679687,640767119
sq,-1.75101623535156,-9.91800842285156,93.9559936523437,-8.68511199951172,640783786
sq,-0.247720336914062,-10.0569702148437,98.0682373046875,-3.78608703613281,640800453
sq,1.32137145996094,-10.1175476074219,110.206604003906,2.1214485168457,640817120
sq,3.08467712402344,-10.0836044311523,123.077392578125,13.1144523620606,640833787
sq,5.05391540527344,-9.87377319335937,135.250568389893,19.1969871520996,640850454
sq,7.21792449951172,-9.56662139892578,136.707544326782,24.6677398681641,640867121
sq,9.40524520874023,-9.17193756103516,144.723176956177,28.141975402832,640883788
sq,11.7208160400391,-8.72166595458984,157.047271728516,28.5458564758301,640900455
sq,14.2335723876953,-8.26493225097656,171.218872070312,32.3290824890137,640917122
sq,16.9730743408203,-7.74766693115234,164.098739624023,35.8924865722656,640933789
sq,19.5986541748047,-7.17338714599609,147.397756576538,44.154167175293,640950456
sq,21.9570182800293,-6.46692047119141,160.787582397461,54.1877746582031,640967123
sq,24.5296195983887,-5.59991607666016,151.014328002929,64.3606185913086,640983790
sq,26.9458488464355,-4.57014617919922,122.032642364503,71.6366767883301,641000457
sq,28.8983711242676,-3.42395935058594,118.196010589599,81.4089775085449,641017124
sq,30.7895072937012,-2.12141571044922,135.566234588623,88.465690612793,641033791
sq,32.9585670471191,-0.705964660644531,155.715227127075,105.413913726807,641050458
sq,35.4500106811523,0.980657958984375,151.452541351319,116.220474243164,641067125
sq,37.8732513427734,2.840185546875,137.81464099884,120.994567871094,641083792
sq,40.0782855987549,4.7760986328125,134.470701217651,94.294548034668,641100459
sq,42.2298168182373,6.28481140136719,120.155572891235,86.1043930053711,641117126
sq,44.1523059844971,7.66248168945313,129.031419754028,93.8031673431392,641133793
sq,46.2168087005615,9.16333236694335,137.922048568726,99.3971824646,641150460
sq,48.4235614776611,10.7536872863769,109.624147415161,125.788688659667,641167127
sq,50.1775478363037,12.7663063049316,107.614159584045,140.100955963135,641183794
sq,51.8993743896484,15.0079216003418,128.605604171753,155.251979827881,641200461
sq,53.9570640563965,17.4919532775879,167.756795883179,158.044815063476,641217128
sq,56.6411727905273,20.0206703186035,159.101068973541,171.809911727906,641233795
sq,59.186789894104,22.76962890625,133.817553520203,184.47208404541,641250462
sq,61.3278707504272,25.7211822509766,168.627172708512,199.37801361084,641267129
sq,64.0259055137634,28.91123046875,309.038564562797,210.411787033081,641283796
sq,68.9705225467682,32.2778190612793,256.421022117138,195.49560546875,641300463
sq,73.0732589006424,35.4057487487793,467.397563159466,200.235366821289,641317130
sq,80.5516199111939,38.6095146179199,226.921081542969,201.967597007751,641333797
sq,84.1823572158814,41.8409961700439,399.197638034821,161.570191383362,641350464
sq,90.5695194244385,44.4261192321777,360.107898712158,181.32758140564,641367131
sq,96.331245803833,47.327360534668,278.740763664246,149.940729141235,641383798
sq,100.791098022461,49.7264122009277,40.0094985961914,118.941068649292,641400465
sq,101.43125,51.6294692993164,60.8652830123901,148.004293441772,641417132
sq,102.405094528198,53.9975379943848,97.1466302871704,160.354495048523,641433799
sq,103.959440612793,56.5632099151611,46.7658042907715,131.277799606323,641450466
sq,104.707693481445,58.6636547088623,36.4687442779541,114.217638969421,641467133
sq,105.291193389893,60.4911369323731,36.5550518035889,121.79559469223,641483800
sq,105.87607421875,62.4398664474487,32.059907913208,330.145224928856,641500467
sq,106.389032745361,67.7221900463104,18.8488960266113,348.056294023991,641517134
sq,106.690615081787,73.2910907506943,12.0432376861572,55.2043542265892,641533801
sq,106.883306884766,74.1743604183197,7.6441764831543,147.054687142372,641550468
sq,107.005613708496,76.5272354125977,-0.417947769165039,-12.8614604473114,641567135
sq,106.99892654419,76.3214520454407,-10.4541778564453,100.694447755814,641583802
sq,106.831659698486,77.9325632095337,-17.3218250274658,191.333711147308,641600469
sq,106.554510498047,80.9939025878906,-23.8749980926514,24.4641304016113,641617136
sq,106.172510528565,81.3853286743164,-28.7802219390869,-19.6724534034729,641633803
sq,105.712026977539,81.0705694198608,-29.4356346130371,-0.242412090301514,641650470
sq,105.241056823731,81.066690826416,-27.9233455657959,-7.54886865615845,641667137
sq,104.794283294678,80.9459089279175,-34.5125198364258,1.61349773406982,641683804
sq,104.242082977295,80.9717248916626,-42.7602529525757,3.09449434280395,641700471
sq,103.557918930054,81.0212368011475,-62.0208978652954,6.12336397171021,641717138
sq,102.565584564209,81.1192106246948,-94.995379447937,6.56557083129883,641733805
sq,101.045658493042,81.2242597579956,-110.945701599121,8.18485021591187,641750472
sq,99.2705272674561,81.3552173614502,-107.797503471374,11.5721821784973,641767139
sq,97.5457672119141,81.5403722763062,-127.415418624878,11.6783380508423,641783806
sq,95.507120513916,81.7272256851196,-148.003816604614,10.0582838058472,641800473
sq,93.1390594482422,81.8881582260132,-157.600283622742,5.84214925765991,641817140
sq,90.6174549102783,81.9816326141357,-209.378123283386,0.59807300567627,641833807
sq,87.2674049377441,81.9912017822266,-321.368813514709,-1.1742115020752,641850474
sq,82.1255039215088,81.9724143981934,-382.232874631882,-6.00719451904297,641867141
sq,76.0097779273987,81.8762992858887,-275.287432596088,-17.0775055885315,641883808
sq,71.6051790058613,81.6030591964722,-344.039397314191,-20.8661556243896,641900475
sq,66.1005486488342,81.2692007064819,-198.113054037095,-18.5049176216125,641917142
sq,62.9307397842407,80.9731220245361,-118.227064609528,-18.2717442512512,641933809
sq,61.0391067504883,80.6807741165161,-136.784613132477,-32.39905834198,641950476
sq,58.8505529403687,80.1623891830444,-102.248787879944,-41.2410497665405,641967143
sq,57.2145723342895,79.5025323867798,-123.589098453522,-54.1868805885315,641983810
sq,55.2371467590332,78.6355422973633,-107.105493545532,-44.5539653301239,642000477
sq,53.5234588623047,77.9226788520813,-112.127304077148,-38.4915173053742,642017144
sq,51.7294219970703,77.3068145751953,-93.8020944595337,-58.1244826316833,642033811
sq,50.2285884857178,76.3768228530884,-88.953971862793,-66.6504055261612,642050478
sq,48.8053249359131,75.3104163646698,-118.746161460876,-90.73606133461,642067145
sq,46.9053863525391,73.858639383316,-126.563191413879,-114.701544865966,642083812
sq,44.880375289917,72.0234146654606,-139.003157615662,-98.0027932673693,642100479
sq,42.6563247680664,70.4553699731827,-147.815823554993,1.11915171146393,642117146
sq,40.2912715911865,70.4732764005661,-168.18630695343,-214.382760226727,642133813
sq,37.6002906799316,67.0431522369385,-181.053161621094,-326.457917690278,642150480
sq,34.7034400939941,61.819825553894,-185.141801834106,-150.741279125214,642167147
sq,31.7411712646484,59.4079650878906,-190.127849578857,-112.742602825165,642183814
sq,28.6991256713867,57.604083442688,-194.308280944825,-127.005875110626,642200481
sq,25.5901931762695,55.571989440918,-183.332681655884,-124.155402183533,642217148
sq,22.6568702697754,53.5855030059814,-176.566362380982,-129.22465801239,642233815
sq,19.8318084716797,51.5179084777832,-169.477701187134,-132.329940795898,642250482
sq,17.1201652526855,49.4006294250488,-171.163320541382,-133.509278297424,642267149
sq,14.3815521240234,47.26448097229,-174.650192260742,-136.663675308228,642283816
sq,11.5871490478516,45.0778621673584,-174.595355987549,-147.732019424439,642300483
sq,8.79362335205078,42.7141498565674,-170.410633087158,-159.114122390747,642317150
sq,6.06705322265625,40.1683238983154,-154.484272003174,-155.420422554016,642333817
sq,3.59530487060547,37.6815971374512,-136.886596679687,-148.632049560547,642350484
sq,1.40511932373047,35.3034843444824,-123.849868774414,-145.339012145996,642367151
sq,-0.576478576660156,32.9780601501465,-117.024898529053,-158.922910690308,642383818
sq,-2.448876953125,30.4352935791016,-97.325325012207,-170.709133148194,642400485
sq,-4.00608215332031,27.7039474487305,-78.2294273376465,-173.355340957641,642417152
sq,-5.25775299072266,24.9302619934082,-42.4284934997559,-161.872863769531,642433819
sq,-5.93660888671875,22.3402961730957,-9.00650024414062,-162.779092788696,642450486
sq,-6.080712890625,19.7358306884766,14.6589279174805,-164.91174697876,642467153
sq,-5.84617004394531,17.0972427368164,24.6825218200684,-155.438423156738,642483820
sq,-5.45124969482422,14.6102279663086,24.2328643798828,-153.56183052063,642500487
sq,-5.06352386474609,12.1532386779785,17.7187919616699,-148.910284042358,642517154
sq,-4.78002319335937,9.77067413330079,10.2643966674805,-147.900104522706,642533821
sq,-4.61579284667969,7.4042724609375,0.769615173339844,-135.242462158203,642550488
sq,-4.60347900390625,5.24039306640625,-10.6415748596191,-132.054805755615,642567155
sq,-4.77374420166016,3.12751617431641,-19.0448760986328,-117.90943145752,642583822
sq,-5.07846221923828,1.24096527099609,-23.5347747802734,-79.6370506286621,642600489
sq,-5.45501861572266,-0.0332275390624996,-24.7669219970703,-59.3605041503906,642617156
sq,-5.85128936767578,-0.98299560546875,-19.2441940307617,-45.9432601928711,642633823
sq,-6.15919647216797,-1.71808776855469,-9.43851470947266,-29.9654006958008,642650490
sq,-6.31021270751953,-2.1975341796875,-1.10292434692383,-15.1486396789551,642667157
sq,-6.32785949707031,-2.43991241455078,3.53670120239258,-3.89766693115234,642683824
sq,-6.27127227783203,-2.50227508544922,6.4697265625,0.725269317626953,642700491
sq,-6.16775665283203,-2.49067077636719,5.8140754699707,0.156402587890625,642717158
sq,-6.0747314453125,-2.48816833496094,1.30748748779297,1.18398666381836,642733825
sq,-6.05381164550781,-2.46922454833984,-4.93431091308594,6.47640228271484,642750492
sq,-6.13276062011719,-2.36560211181641,-9.18054580688477,9.39321517944336,642767159
sq,-6.27964935302734,-2.21531066894531,-11.2643241882324,-3.25775146484375,642783826
sq,-6.45987854003906,-2.26743469238281,-12.3286247253418,-17.3287391662598,642800493
sq,-6.65713653564453,-2.54469451904297,-10.8785629272461,-19.4869041442871,642817160
sq,-6.83119354248047,-2.85648498535156,-5.5537223815918,-21.2616920471191,642833827
sq,-6.92005310058594,-3.19667205810547,-0.72479248046875,-31.3839912414551,642850494
sq,-6.93164978027344,-3.69881591796875,2.32791900634766,-33.7281227111816,642867161
sq,-6.89440307617187,-4.23846588134766,3.96156311035156,-28.2773971557617,642883828
sq,-6.83101806640625,-4.69090423583984,2.69079208374023,-18.1355476379394,642900495
sq,-6.78796539306641,-4.98107299804687,-0.98419189453125,-13.0825042724609,642917162
sq,-6.80371246337891,-5.19039306640625,-2.89630889892578,-9.60445404052734,642933829
sq,-6.85005340576172,-5.34406433105469,-3.13520431518555,-2.655029296875,642950496
sq,-6.90021667480469,-5.38654479980469,-3.84950637817383,0.399589538574219,642967163
sq,-6.96180877685547,-5.3801513671875,-1.41525268554687,1.16348266601562,642983830
sq,-6.98445281982422,-5.36153564453125,0.918865203857422,-1.29127502441406,643000497
sq,-6.9697509765625,-5.38219604492187,2.1204948425293,-2.87628173828125,643017164
sq,-6.93582305908203,-5.42821655273437,5.19943237304687,-4.15420532226562,643033831
sq,-6.85263214111328,-5.49468383789062,7.20596313476562,-5.4783821105957,643050498
sq,-6.73733673095703,-5.58233795166016,7.92932510375977,-4.77170944213867,643067165
sq,-6.61046752929687,-5.65868530273437,8.83769989013672,-2.07138061523437,643083832
sq,-6.46906433105469,-5.69182739257812,9.15384292602539,-0.672817230224609,643100499
sq,-6.32260284423828,-5.70259246826172,8.56399536132812,-0.648975372314453,643117166
sq,-6.18557891845703,-5.71297607421875,7.64703750610352,-2.62165069580078,643133833
