Label,Left_Hip_q,Right_Hip_q,Left_Hip_qd,Right_Hip_qd,SampleTimeFine
sq,-10.85,-6.72086486816406,2.80094146728516,4.16851043701172,611683802
sq,-10.8051849365234,-6.65416870117187,2.28357315063477,5.25999069213867,611700469
sq,-10.7686477661133,-6.57000885009766,1.71422958374023,5.42593002319336,611717136
sq,-10.7412200927734,-6.48319396972656,1.38092041015625,4.64487075805664,611733803
sq,-10.7191253662109,-6.40887603759766,1.32513046264648,3.85427474975586,611750470
sq,-10.6979232788086,-6.34720764160156,0.764369964599609,2.92491912841797,611767137
sq,-10.685693359375,-6.30040893554687,-0.0376701354980469,2.51579284667969,611783804
sq,-10.686296081543,-6.26015625,0.00286102294921875,2.28500366210937,611800471
sq,-10.6862503051758,-6.22359619140625,0.137805938720703,1.98698043823242,611817138
sq,-10.6840454101562,-6.19180450439453,0.605106353759766,1.67083740234375,611833805
sq,-10.6743637084961,-6.16507110595703,0.394821166992187,0.855922698974609,611850472
sq,-10.6680465698242,-6.15137634277344,0.798702239990234,0.35858154296875,611867139
sq,-10.6552673339844,-6.14563903808594,-0.057220458984375,0.183582305908203,611883806
sq,-10.6561828613281,-6.14270172119141,-0.584602355957031,0.545024871826172,611900473
sq,-10.6655364990234,-6.13398132324219,-0.538349151611328,0.741958618164062,611917140
sq,-10.6741500854492,-6.12210998535156,-0.327110290527344,0.851631164550781,611933807
sq,-10.6793838500977,-6.10848388671875,0.216960906982422,0.669479370117187,611950474
sq,-10.6759124755859,-6.09777221679687,0.341892242431641,0.325679779052734,611967141
sq,-10.670442199707,-6.09256134033203,0.457286834716797,0.307559967041016,611983808
sq,-10.6631256103516,-6.08764038085937,0.721931457519531,0.631332397460937,612000475
sq,-10.6515747070312,-6.0775390625,0.640869140625,0.946521759033203,612017142
sq,-10.6413208007812,-6.06239471435547,0.583171844482422,0.769615173339844,612033809
sq,-10.6319900512695,-6.05008087158203,0.363349914550781,0.412940979003906,612050476
sq,-10.6261764526367,-6.04347381591797,0.422954559326172,0.369071960449219,612067143
sq,-10.6194091796875,-6.03756866455078,0.506877899169922,0.593662261962891,612083810
sq,-10.6112991333008,-6.02807006835937,0.411033630371094,0.657081604003906,612100477
sq,-10.6047225952148,-6.01755676269531,0.974655151367187,0.567436218261719,612117144
sq,-10.589128112793,-6.00847778320312,1.18637084960937,0.477790832519531,612133811
sq,-10.5701461791992,-6.00083312988281,1.1296272277832,-0.09918212890625,612150478
sq,-10.5520721435547,-6.00242004394531,1.65843963623047,-0.23651123046875,612167145
sq,-10.525537109375,-6.00620422363281,1.67608261108398,0.0791549682617187,612183812
sq,-10.4987197875977,-6.00493774414062,1.1601448059082,0.2593994140625,612200479
sq,-10.4801574707031,-6.00078735351562,0.738143920898437,0.507831573486328,612217146
sq,-10.4683471679687,-5.99266204833984,0.295639038085937,0.522136688232422,612233813
sq,-10.4636169433594,-5.98430786132812,0.101566314697266,0.667572021484375,612250480
sq,-10.4619918823242,-5.97362670898437,-0.0286102294921875,0.619888305664062,612267147
sq,-10.4624496459961,-5.96370849609375,-0.379562377929687,0.743865966796875,612283814
sq,-10.468522644043,-5.951806640625,-0.275611877441406,1.16777420043945,612300481
sq,-10.472932434082,-5.93312225341797,-0.0557899475097656,1.50156021118164,612317148
sq,-10.4738250732422,-5.90909729003906,0.45013427734375,1.64937973022461,612333815
sq,-10.4666229248047,-5.88270721435547,1.3575553894043,1.65843963623047,612350482
sq,-10.4449020385742,-5.85617218017578,2.35939025878906,1.74951553344727,612367149
sq,-10.4071517944336,-5.82817993164062,3.56817245483398,2.03561782836914,612383816
sq,-10.3500610351562,-5.79561004638672,5.06734848022461,4.71735000610352,612400483
sq,-10.2689834594727,-5.72013244628906,5.9356689453125,7.36808776855469,612417150
sq,-10.1740127563477,-5.60224304199219,9.25111770629883,9.52529907226562,612433817
sq,-10.0259948730469,-5.44983825683594,13.4344100952148,12.5036239624023,612450484
sq,-9.81104431152344,-5.2497802734375,15.8681869506836,16.0741806030273,612467151
sq,-9.5571533203125,-4.99259338378906,16.0136222839356,24.6500968933106,612483818
sq,-9.30093536376953,-4.59819183349609,16.8337821960449,33.5307121276855,612500485
sq,-9.03159484863281,-4.06170043945312,18.5937881469727,36.9577407836914,612517152
sq,-8.73409423828125,-3.47037658691406,18.4755325317383,41.1171913146973,612533819
sq,-8.43848571777344,-2.81250152587891,17.3768997192383,37.6663208007813,612550486
sq,-8.16045532226562,-2.20984039306641,15.8309936523437,35.2640151977539,612567153
sq,-7.90715942382812,-1.64561614990234,20.4200744628906,31.8598747253418,612583820
sq,-7.58043823242187,-1.13585815429688,25.1741409301758,36.6206169128418,612600487
sq,-7.17765197753906,-0.549928283691406,31.0955047607422,41.3203239440918,612617154
sq,-6.68012390136719,0.111196899414063,39.8807525634766,42.3531532287598,612633821
sq,-6.04203186035156,0.788847351074219,50.6782531738281,48.5291481018066,612650488
sq,-5.23117980957031,1.56531372070312,62.8232955932617,51.4163970947266,612667155
sq,-4.22600708007812,2.38797607421875,76.9519805908203,59.300422668457,612683822
sq,-2.994775390625,3.33678283691406,90.2729034423828,68.5343742370605,612700489
sq,-1.55040893554688,4.43333282470703,105.144500732422,78.0363082885742,612717156
sq,0.131903076171875,5.68191375732422,122.67541885376,86.8396759033203,612733823
sq,2.09470977783203,7.07134857177734,140.57731628418,92.214822769165,612750490
sq,4.34394683837891,8.54678573608398,158.257961273193,103.896856307983,612767157
sq,6.87607421875,10.2091354370117,174.447536468505,113.003015518189,612783824
sq,9.66723480224609,12.0171836853027,181.889772415161,127.597332000732,612800491
sq,12.5774711608887,14.0587409973144,174.123048782349,142.832279205322,612817158
sq,15.3634399414063,16.3440574645996,167.482137680054,150.883674621582,612833825
sq,18.0431541442871,18.7581962585449,144.518136978149,161.831617355347,612850492
sq,20.3554443359375,21.3475021362305,147.976636886597,169.890880584717,612867159
sq,22.723070526123,24.0657562255859,139.798879623413,155.97128868103,612883826
sq,24.9598526000977,26.5612968444824,134.485483169556,151.543378829956,612900493
sq,27.1116203308105,28.9859909057617,122.424364089966,161.615371704102,612917160
sq,29.07041015625,31.5718368530273,124.933242797852,178.681612014771,612933827
sq,31.0693420410156,34.4307426452637,136.498928070068,180.147886276245,612950494
sq,33.2533248901367,37.3131088256836,131.697177886963,174.358606338501,612967161
sq,35.3604797363281,40.1028465270996,132.428646087647,154.566764831543,612983828
sq,37.4793380737305,42.5759147644043,103.418111801148,145.26093006134,613000495
sq,39.1340278625488,44.9000896453857,83.993673324585,109.547853469849,613017162
sq,40.4779266357422,46.6528553009033,111.236214637756,125.759124755859,613033829
sq,42.2577060699463,48.6650012969971,125.217795372009,141.41058921814,613050496
sq,44.2611907958984,50.9275707244873,115.030169486999,123.630166053772,613067163
sq,46.1016735076904,52.9056533813476,118.721485137939,109.823882579803,613083830
sq,48.0012172698975,54.6628355026245,122.378706932068,121.723711490631,613100497
sq,49.9592765808106,56.6104148864746,121.530771255493,130.86074590683,613117164
sq,51.9037689208984,58.7041868209839,116.526246070862,129.126965999603,613133831
sq,53.7681888580322,60.7702182769775,120.147049427032,123.676538467407,613150498
sq,55.6905416488647,62.7490428924561,111.863315105438,129.390925168991,613167165
sq,57.4803546905518,64.8192976951599,102.350831031799,125.470206141472,613183832
sq,59.1179679870606,66.8268209934235,117.52051115036,111.239708960056,613200499
sq,60.9982961654663,68.6066563367844,128.402024507523,100.565436296165,613217166
sq,63.0527285575867,70.215703317523,147.091805934906,168.973346240819,613233833
sq,65.4061974525452,72.9192768573761,286.794807761908,320.838198065758,613250500
sq,69.9949143767357,78.0526880264282,217.981848865748,302.688479423523,613267167
sq,73.4826239585877,82.8957036972046,423.125952482224,154.861390590668,613283834
sq,80.2526391983032,85.3734859466553,196.797251701355,43.2420969009399,613300501
sq,83.4013952255249,86.0653594970703,226.343810558319,26.140570640564,613317168
sq,87.022896194458,86.4836086273193,305.652856826782,-6.53290748596191,613333835
sq,91.9133419036865,86.379082107544,257.344365119934,77.8790712356567,613350502
sq,96.0308517456055,87.6251472473145,262.753486633301,60.305118560791,613367169
sq,100.234907531738,88.5900291442871,74.9478340148926,62.602162361145,613383836
sq,101.434072875977,89.5916637420654,45.000433921814,85.6071710586548,613400503
sq,102.154079818726,90.9613784790039,16.0104036331177,30.9263467788696,613417170
sq,102.410246276856,91.4562000274658,41.4383411407471,-24.4531631469727,613433837
sq,103.073259735107,91.0649494171143,13.3905410766602,-7.80081748962402,613450504
sq,103.287508392334,90.9401363372803,29.7393798828125,1.43289566040039,613467171
sq,103.763338470459,90.9630626678467,34.5242023468018,-3.50618362426758,613483838
sq,104.315725708008,90.9069637298584,9.72151756286621,-2.96545028686523,613500505
sq,104.471269989014,90.8595165252686,13.864278793335,-2.0751953125,613517172
sq,104.693098449707,90.8263134002686,13.357400894165,-1.82235240936279,613533839
sq,104.906816864014,90.7971557617188,10.7417106628418,1.60324573516846,613550506
sq,105.078684234619,90.8228076934815,9.60588455200195,0.0306367874145508,613567173
sq,105.232378387451,90.8232978820801,5.25999069213867,-0.175595283508301,613583840
sq,105.316538238525,90.820488357544,0.693798065185547,-0.0907182693481445,613600507
sq,105.327639007568,90.8190368652344,2.50530242919922,0.0928640365600586,613617174
sq,105.367723846436,90.8205226898193,5.01656532287598,-0.582456588745117,613633841
sq,105.447988891602,90.8112033843994,6.37626647949219,-1.09958648681641,613650508
sq,105.550009155273,90.7936100006104,5.53750991821289,-2.16591358184814,613667175
sq,105.638609313965,90.7589553833008,1.7390251159668,-2.84886360168457,613683842
sq,105.66643371582,90.7133735656738,-4.78148460388184,-3.7388801574707,613700509
sq,105.589929962158,90.6535514831543,-11.4078521728516,-4.50515747070312,613717176
sq,105.407404327393,90.5814689636231,-15.5773162841797,-8.82518291473389,613733843
sq,105.158167266846,90.4402660369873,-23.6172676086426,-16.5596008300781,613750510
sq,104.780290985107,90.1753124237061,-45.3426837921143,-21.8714475631714,613767177
sq,104.054808044434,89.8253692626953,-66.6911602020264,-23.7339735031128,613783844
sq,102.987749481201,89.4456256866455,-83.3699703216553,11.138916015625,613800511
sq,101.653829956055,89.6238483428955,-87.8739356994629,13.6919021606445,613817178
sq,100.247846984863,89.8429187774658,-122.436761856079,-61.5556240081787,613833845
sq,98.288858795166,88.858028793335,-112.447738647461,-97.7005958557129,613850512
sq,96.4896949768066,87.2948192596436,-134.396076202393,-100.744426250458,613867179
sq,94.3393577575684,85.6829084396362,-128.13401222229,-116.288840770721,613883846
sq,92.2892135620117,83.8222869873047,-201.241612434387,-69.5298910140991,613900513
sq,89.0693477630615,82.7098087310791,-284.914553165436,-47.6036071777344,613917180
sq,84.5107149124146,81.9481510162354,-147.135138511658,-267.179518938065,613933847
sq,82.156552696228,77.6732787132263,-429.411321878433,-319.332852959633,613950514
sq,75.2859715461731,72.5639530658722,-348.613873124123,-236.734606325626,613967181
sq,69.7081495761871,68.7761993646622,-204.957380890846,-130.696751177311,613983848
sq,66.4288314819336,66.6850513458252,-155.092090368271,-120.34860253334,614000515
sq,63.9473580360413,64.7594737052918,-148.886114358902,-126.055955886841,614017182
sq,61.5651802062988,62.7425784111023,-141.793966293335,-114.375859498978,614033849
sq,59.2964767456055,60.9125646591187,-128.53217124939,-122.331440448761,614050516
sq,57.2399620056152,58.9552616119385,-119.416356086731,-121.288061141968,614067183
sq,55.3293003082275,57.014652633667,-114.212393760681,-125.619888305664,614083850
sq,53.5019020080566,55.0047344207764,-111.348986625671,-118.376612663269,614100517
sq,51.7203182220459,53.1107086181641,-108.758807182312,-119.187593460083,614117184
sq,49.9801773071289,51.2037071228027,-111.760497093201,-131.365895271301,614133851
sq,48.1920093536377,49.1018527984619,-120.442748069763,-134.544491767883,614150518
sq,46.2649253845215,46.9491409301758,-120.475649833679,-145.893096923828,614167185
sq,44.3373149871826,44.6148513793945,-121.947169303894,-146.202683448792,614183852
sq,42.3861602783203,42.2756084442139,-127.40170955658,-142.19331741333,614200519
sq,40.347732925415,40.0005153656006,-130.845189094543,-146.450400352478,614217186
sq,38.2542098999023,37.6573089599609,-139.980077743531,-146.848917007446,614233853
sq,36.0145286560059,35.3077262878418,-147.358417510986,-144.696474075318,614250520
sq,33.6567939758301,32.9925827026367,-147.884130477905,-139.035701751709,614267187
sq,31.2906478881836,30.7680114746094,-146.639585494996,-135.754585266113,614283854
sq,28.9444145202637,28.5959381103516,-149.510860443115,-137.428045272827,614300521
sq,26.5522407531738,26.3970893859863,-150.505304336548,-138.551235198975,614317188
sq,24.1441558837891,24.1802696228027,-140.752553939819,-131.818532943726,614333855
sq,21.892115020752,22.0711730957031,-135.595083236694,-124.846935272216,614350522
sq,19.7225936889648,20.0736221313477,-144.826650619507,-131.020545959473,614367189
sq,17.4053672790527,17.9772933959961,-146.146774291992,-132.916927337646,614383856
sq,15.0670188903809,15.8506225585938,-132.047176361084,-117.517948150635,614400523
sq,12.9542640686035,13.9703353881836,-131.108045578003,-107.457876205444,614417190
sq,10.8565353393555,12.2510093688965,-131.351709365844,-115.726232528686,614433857
sq,8.75490798950196,10.3993896484375,-128.912210464478,-111.756801605225,614450524
sq,6.69231262207031,8.6112808227539,-119.145393371582,-97.1512794494624,614467191
sq,4.785986328125,7.0568603515625,-113.269329071045,-88.9778137207031,614483858
sq,2.97367706298828,5.63321533203125,-110.242366790771,-93.5935974121094,614500525
sq,1.20979919433594,4.1357177734375,-98.9294052124023,-83.6467742919922,614517192
sq,-0.3730712890625,2.79736938476562,-85.1712226867676,-74.7103691101074,614533859
sq,-1.73581085205078,1.60200347900391,-73.1120109558105,-67.7623748779297,614550526
sq,-2.90560302734375,0.517805480957032,-57.593822479248,-67.2049522399902,614567193
sq,-3.82710418701172,-0.557473754882812,-45.3028678894043,-68.3884620666504,614583860
sq,-4.55195007324219,-1.65168914794922,-43.7841415405273,-61.8209838867188,614600527
sq,-5.25249633789062,-2.64082489013672,-36.595344543457,-59.0600967407227,614617194
sq,-5.83802185058594,-3.58578643798828,-34.7261428833008,-63.4655952453613,614633861
sq,-6.39364013671875,-4.60123596191406,-29.8118591308594,-69.9729919433594,614650528
sq,-6.8706298828125,-5.72080383300781,-17.3940658569336,-70.9223747253418,614667195
sq,-7.14893493652344,-6.85556182861328,-6.74819946289062,-59.9498748779297,614683862
sq,-7.25690612792969,-7.81475982666016,-4.48179244995117,-51.1908531188965,614700529
sq,-7.32861480712891,-8.6338134765625,-5.34915924072266,-47.7581024169922,614717196
sq,-7.41420135498047,-9.39794311523437,-11.1913681030273,-38.7353897094727,614733863
sq,-7.59326324462891,-10.0177093505859,-17.5848007202148,-17.9939270019531,614750530
sq,-7.87462005615234,-10.3056121826172,-26.6599655151367,2.68173217773437,614767197
sq,-8.30117950439453,-10.2627044677734,-29.6363830566406,13.8115882873535,614783864
sq,-8.77536163330078,-10.0417190551758,-24.5604515075684,22.2225189208984,614800531
sq,-9.16832885742187,-9.68615875244141,-16.3841247558594,6.68144226074219,614817198
sq,-9.43047485351562,-9.57925567626953,-6.8516731262207,4.3797492980957,614833865
sq,-9.54010162353516,-9.5091796875,4.40788269042969,-0.294208526611328,614850532
sq,-9.46957550048828,-9.51388702392578,9.51814651489258,-3.78513336181641,614867199
sq,-9.31728515625,-9.57444915771484,8.35800170898437,8.30268859863281,614883866
sq,-9.18355712890625,-9.44160614013672,4.0740966796875,3.31592559814453,614900533
sq,-9.11837158203125,-9.38855133056641,0.165462493896484,-2.58302688598633,614917200
sq,-9.11572418212891,-9.42987976074219,-0.267505645751953,-1.18303298950195,614933867
sq,-9.12000427246094,-9.44880828857422,-0.105381011962891,-0.608921051025391,614950534
sq,-9.12169036865234,-9.45855102539062,-2.33936309814453,2.35319137573242,614967201
sq,-9.15912017822266,-9.42089996337891,-0.679969787597656,2.36988067626953,614983868
sq,-9.16999969482422,-9.38298187255859,2.9139518737793,0.399112701416016,615000535
sq,-9.12337646484375,-9.37659606933594,10.8509063720703,1.49774551391602,615017202
sq,-8.94976196289062,-9.35263214111328,17.9095268249512,6.33335113525391,615033869
sq,-8.66320953369141,-9.25129852294922,23.2830047607422,13.8864517211914,615050536
sq,-8.29068145751953,-9.02911529541016,29.5109748840332,21.4042663574219,615067203
sq,-7.818505859375,-8.68664703369141,38.4659767150879,32.3715209960938,615083870
sq,-7.20305023193359,-8.16870269775391,49.8404502868652,41.8539047241211,615100537
sq,-6.40560302734375,-7.49904022216797,65.2999877929687,53.2121658325195,615117204
sq,-5.36080322265625,-6.64764556884766,82.0655822753906,66.0548210144043,615133871
sq,-4.04775390625,-5.59076843261719,98.0963706970215,78.8187980651855,615150538
sq,-2.47821197509766,-4.32966766357422,114.759922027588,92.8349494934082,615167205
sq,-0.64205322265625,-2.84430847167969,131.970405578613,105.937957763672,615183872
sq,1.46947326660156,-1.14930114746094,145.272731781006,124.814987182617,615200539
sq,3.79383697509766,0.847738647460938,150.335788726807,128.203392028809,615217206
sq,6.19920959472656,2.89899291992187,142.049551010131,132.91597366333,615233873
sq,8.47200241088867,5.02564849853516,127.982616424561,148.062944412231,615250540
sq,10.5197242736816,7.39465560913086,128.617286682129,123.204231262207,615267207
sq,12.5776008605957,9.36592330932617,117.816925048828,111.700057983399,615283874
sq,14.462671661377,11.1531242370606,122.323751449584,123.555898666381,615300541
sq,16.4198516845703,13.1300186157226,157.134294509888,121.418476104736,615317208
sq,18.9340003967285,15.0727142333984,189.773559570312,148.554086685181,615333875
sq,21.9703773498535,17.4495796203613,173.957347869873,146.40212059021,615350542
sq,24.7536949157715,19.7920135498047,148.561716079712,148.768186569213,615367209
sq,27.1306823730469,22.1723045349121,124.996423721314,148.183822631836,615383876
sq,29.1306251525879,24.5432456970215,93.2857990264893,161.261081695557,615400543
sq,30.6231979370117,27.1234230041504,99.2298126220708,155.187606811523,615417210
sq,32.2108749389648,29.6064247131348,121.670246124267,133.723258972168,615433877
sq,34.1575988769531,31.7459968566895,112.640380859375,130.977869033814,615450544
sq,35.9598449707031,33.8416427612305,95.4048633575439,132.465362548828,615467211
sq,37.4863227844238,35.9610885620117,97.4378585815425,125.760078430176,615483878
sq,39.0453285217285,37.9732498168945,109.31670665741,118.992686271667,615500545
sq,40.7943958282471,39.8771327972412,114.656805992126,129.368185997009,615517212
sq,42.6289047241211,41.9470237731934,93.733549118042,111.528873443604,615533879
sq,44.1286415100098,43.731485748291,70.9474086761475,111.71817779541,615550546
sq,45.2638000488281,45.5189765930176,68.5807466506958,124.858498573303,615567213
sq,46.3610919952393,47.5167125701904,83.5448503494263,129.306435585022,615583880
sq,47.6978096008301,49.5856155395508,99.8530387878418,113.895773887634,615600547
sq,49.2954582214356,51.4079479217529,96.4648723602295,106.012940406799,615617214
sq,50.8388961791992,53.1041549682617,96.2731838226318,115.016281604767,615633881
sq,52.3792671203613,54.944415473938,118.38436126709,119.712054729462,615650548
sq,54.2734169006348,56.8598083496094,124.060690402985,129.376292228699,615667215
sq,56.2583879470825,58.9298290252686,115.799844264984,119.018971920013,615683882
sq,58.1111854553223,60.8341325759888,109.712064266205,108.019202947617,615700549
sq,59.8665784835815,62.5624398231506,115.149796009064,116.594851016999,615717216
sq,61.7089752197266,64.4279574394226,129.427701234818,124.673068523407,615733883
sq,63.7798184394836,66.4227265357971,143.930971622467,221.861500293016,615750550
sq,66.0827139854431,69.9725105404854,259.875938296318,327.208828181028,615767217
sq,70.2407289981842,75.2078517913818,206.976115703583,301.395773887634,615783884
sq,73.5523468494415,80.030184173584,386.283561587334,26.7548561096191,615800551
sq,79.7328838348389,80.4582618713379,275.014102458954,54.2050004005432,615817218
sq,84.1331094741821,81.3255418777466,198.662102222443,-26.9197821617127,615833885
sq,87.3117031097412,80.8948253631592,321.530103683472,56.8928122520447,615850552
sq,92.4561847686768,81.8051103591919,321.621537208557,111.62656545639,615867219
sq,97.6021293640137,83.5911354064941,229.179263114929,104.217708110809,615883886
sq,101.268997573853,85.2586187362671,26.6276597976685,-6.27994537353516,615900553
sq,101.695040130615,85.1581396102905,78.5154104232788,-58.9834451675415,615917220
sq,102.951286697388,84.2144044876099,32.4386358261108,-21.3547348976135,615933887
sq,103.470304870606,83.8727287292481,52.6883602142334,-7.99703598022461,615950554
sq,104.313318634033,83.7447761535645,25.7019996643066,0.156939029693603,615967221
sq,104.724550628662,83.7472871780396,13.2777690887451,-6.39146566390991,615983888
sq,104.936994934082,83.645023727417,4.96315956115723,-7.49659538269043,616000555
sq,105.016405487061,83.525078201294,-2.21729278564453,-4.0162205696106,616017222
sq,104.98092880249,83.4608186721802,-10.1759433746338,-2.82436609268189,616033889
sq,104.818113708496,83.4156288146973,-12.3517513275147,-1.48069858551025,616050556
sq,104.620485687256,83.3919376373291,-13.4897232055664,-2.3844838142395,616067223
sq,104.404650115967,83.3537858963013,-11.3427639007568,-2.32195854187012,616083890
sq,104.223165893555,83.3166345596314,-11.5671157836914,-6.08587265014648,616100557
sq,104.038092041016,83.219260597229,-38.9425754547119,-6.92635774612427,616117224
sq,103.41501083374,83.108438873291,-13.8204097747803,-8.31723213195801,616167225
sq,103.193884277344,82.9753631591797,-12.3231410980225,-7.89117813110352,616183892
sq,102.996714019775,82.849104309082,-13.5247707366943,-5.82784414291382,616200559
sq,102.780317687988,82.7558588027954,-16.6796445846558,-5.63400983810425,616217226
sq,102.513443374634,82.6657146453857,-19.8978185653686,-7.25561380386353,616233893
sq,102.195078277588,82.5496248245239,-17.1558856964111,-10.5994343757629,616250560
sq,101.920584106445,82.3800338745117,-25.715708732605,-10.4131102561951,616267227
sq,101.509132766724,82.2134241104126,-42.1680212020874,-8.98855924606323,616283894
sq,100.83444442749,82.0696071624756,-56.3616752624512,-10.6186866760254,616300561
sq,99.932657623291,81.8997081756592,-81.7610025405884,-19.9470520019531,616317228
sq,98.6244815826416,81.5805553436279,-103.766560554504,-30.9354066848755,616333895
sq,96.9642166137695,81.0855888366699,-104.117274284363,-36.2368822097778,616350562
sq,95.2983402252197,80.5057987213135,-127.304553985596,-21.5579867362976,616367229
sq,93.2614673614502,80.1608709335327,-131.880402565002,15.1030421257019,616383896
sq,91.1513809204102,80.402519607544,-138.621091842651,-29.8378467559814,616400563
sq,88.9334434509277,79.9251140594482,-212.483108043671,-81.8691253662109,616417230
sq,85.533713722229,78.6152080535889,-263.947665691376,-110.417664051056,616433897
sq,81.310551071167,76.848525428772,-158.338844776154,-115.492343902588,616450564
sq,78.7771295547485,75.0006479263306,-260.74030995369,-90.0819003582001,616467231
sq,74.6052845954895,73.5593375205994,-501.813679933548,9.26688313484192,616483898
sq,66.5762657165527,73.7076076507568,-158.13136100769,-240.641765296459,616500565
sq,64.0461639404297,69.8573394060135,-154.556035995484,-351.705200970173,616517232
sq,61.573267364502,64.2300561904907,-158.967912197113,-195.646822452546,616533899
sq,59.0297807693481,61.09970703125,-151.083588600159,-123.987853527069,616550566
sq,56.6124433517456,59.1159013748169,-147.574007511139,-148.192882537842,616567233
sq,54.2512592315674,56.7448152542114,-136.414766311646,-130.815505981445,616583900
sq,52.0686229705811,54.6517671585083,-122.152805328369,-124.456584453583,616600567
sq,50.1141780853271,52.660461807251,-119.059205055236,-131.738781929016,616617234
sq,48.2092308044434,50.5526412963867,-120.434165000916,-133.85021686554,616633901
sq,46.2822841644287,48.4110378265381,-118.009090423584,-148.153424263,616650568
sq,44.3941387176514,46.0405830383301,-126.448273658752,-152.801394462585,616667235
sq,42.3709663391113,43.5957607269287,-148.561239242554,-162.786722183228,616683902
sq,39.9939865112305,40.9911731719971,-170.086860656738,-161.36372089386,616700569
sq,37.2725967407226,38.4093536376953,-180.749177932739,-158.406019210816,616717236
sq,34.3806098937988,35.8748573303223,-193.330049514771,-163.876771926879,616733903
sq,31.2873291015625,33.2528289794922,-192.330837249756,-161.77797317505,616750570
sq,28.2100357055664,30.6643814086914,-188.401699066162,-157.773256301879,616767237
sq,25.1956085205078,28.1400093078613,-172.375202178956,-156.07762336731,616783904
sq,22.4376052856445,25.6427673339844,-163.82360458374,-152.104139328003,616800571
sq,19.8164276123047,23.2091011047363,-157.160043716431,-144.513368606567,616817238
sq,17.3018669128418,20.8968872070312,-149.550676345825,-147.374868392944,616833905
sq,14.9090560913086,18.5388893127441,-138.495683670044,-141.893386840821,616850572
sq,12.6931251525879,16.268595123291,-132.527828216553,-137.126445770263,616867239
sq,10.5726799011231,14.0745719909668,-132.617950439453,-128.512620925904,616883906
sq,8.4507926940918,12.0183700561523,-135.540246963501,-123.309135437011,616900573
sq,6.28214874267578,10.0454238891602,-128.259658813477,-117.387533187866,616917240
sq,4.22999420166016,8.1672233581543,-112.259864807129,-111.818075180054,616933907
sq,2.43383636474609,6.37813415527344,-96.9071388244629,-99.2050170898437,616950574
sq,0.883322143554688,4.79085388183594,-77.0635604858398,-88.8552665710449,616967241
sq,-0.34969482421875,3.36916961669922,-58.807373046875,-80.9488296508789,616983908
sq,-1.29061279296875,2.07398834228516,-48.6068725585938,-72.5693702697754,617000575
sq,-2.06832275390625,0.91287841796875,-42.0589447021484,-64.9318695068359,617017242
sq,-2.74126586914062,-0.126031494140625,-33.9155197143555,-49.7102737426758,617033909
sq,-3.28391418457031,-0.921395874023437,-29.3092727661133,-47.767162322998,617050576
sq,-3.75286254882812,-1.68567047119141,-29.1366577148438,-35.3531837463379,617067243
sq,-4.21904907226562,-2.25132141113281,-31.3124656677246,-26.9613265991211,617083910
sq,-4.72004852294922,-2.68270263671875,-35.1753234863281,-35.5691909790039,617100577
sq,-5.28285369873047,-3.25180969238281,-33.9641571044922,-42.9220199584961,617117244
sq,-5.82628021240234,-3.93856201171875,-30.1995277404785,-41.4714813232422,617133911
sq,-6.30947265625,-4.60210571289062,-25.9084701538086,-31.2457084655762,617150578
sq,-6.72400817871094,-5.10203704833984,-16.5266990661621,-16.9606208801269,617167245
sq,-6.98843536376953,-5.37340698242187,-5.24806976318359,-1.47581100463867,617183912
sq,-7.07240447998047,-5.39701995849609,4.89711761474609,3.08513641357422,617200579
sq,-6.99405059814453,-5.34765777587891,8.37039947509766,-2.42710113525391,617217246
sq,-6.86012420654297,-5.38649139404297,5.75399398803711,-11.4908218383789,617233913
sq,-6.76806030273437,-5.57034454345703,0.57220458984375,-17.8847312927246,617250580
sq,-6.75890502929687,-5.85650024414062,-4.58526611328125,-16.7613029479981,617267247
sq,-6.83226928710937,-6.12468109130859,-5.67197799682617,-12.5584602355957,617283914
sq,-6.92302093505859,-6.32561645507812,-5.01918792724609,-10.3039741516113,617300581
sq,-7.00332794189453,-6.49048004150391,-3.78084182739258,-9.39464569091797,617317248
sq,-7.06382141113281,-6.64079437255859,-2.97880172729492,-9.01699066162109,617333915
sq,-7.11148223876953,-6.78506622314453,0.627994537353516,-7.43007659912109,617350582
sq,-7.10143432617187,-6.90394744873047,2.20012664794922,-6.13880157470703,617367249
sq,-7.06623229980469,-7.00216827392578,2.60162353515625,-5.33390045166016,617383916
sq,-7.02460632324219,-7.08751068115234,3.76272201538086,-3.25489044189453,617400583
sq,-6.96440277099609,-7.13958892822266,2.50101089477539,-0.184059143066406,617417250
sq,-6.92438659667969,-7.14253387451172,0.771999359130859,6.93225860595703,617433917
sq,-6.91203460693359,-7.03161773681641,-0.508785247802734,9.29450988769531,617450584
sq,-6.92017517089844,-6.88290557861328,-1.77383422851562,7.78102874755859,617467251
sq,-6.94855651855469,-6.75840911865234,-0.521183013916016,7.42053985595703,617483918
sq,-6.95689544677734,-6.63968048095703,3.21674346923828,2.72178649902344,617500585
sq,-6.90542755126953,-6.59613189697266,5.48648834228516,-0.833511352539062,617517252
sq,-6.81764373779297,-6.60946807861328,6.05249404907227,-2.06565856933594,617533919
sq,-6.72080383300781,-6.64251861572266,7.26842880249023,1.14107131958008,617550586
sq,-6.60450897216797,-6.62426147460937,7.6603889465332,1.16539001464844,617567253
sq,-6.48194274902344,-6.605615234375,7.64179229736328,-1.46722793579102,617583920
sq,-6.35967407226562,-6.62909088134766,8.03899765014648,-2.97355651855469,617600587
sq,-6.23105010986328,-6.67666778564453,9.94968414306641,-4.98485565185547,617617254
sq,-6.07185516357422,-6.75642547607422,12.5489234924316,-2.61974334716797,617633921
sq,-5.87107238769531,-6.79834136962891,17.9820060729981,2.4561882019043,617650588
sq,-5.58336029052734,-6.75904235839844,25.8755683898926,9.31501388549805,617667255
sq,-5.16935119628906,-6.61000213623047,36.0822677612305,15.627384185791,617683922
sq,-4.59203491210937,-6.35996398925781,46.5888977050781,28.1457901000977,617700589
sq,-3.84661254882812,-5.90963134765625,58.5289001464844,38.292407989502,617717256
sq,-2.91015014648437,-5.29695281982422,67.4152374267578,34.8038673400879,617733923
sq,-1.83150634765625,-4.74009094238281,74.8891830444336,39.9169921875,617750590
sq,-0.633279418945312,-4.10141906738281,78.8745880126953,51.114559173584,617767257
sq,0.628713989257813,-3.28358612060547,83.6262702941895,59.5183372497559,617783924
sq,1.96673431396484,-2.33129272460937,86.5092277526855,60.6966018676758,617800591
sq,3.35088195800781,-1.36014709472656,95.7441329956055,67.3913955688477,617817258
sq,4.8827880859375,-0.281884765625,102.442264556885,73.6408233642578,617833925
sq,6.52186431884766,0.896368408203125,99.995374679565,76.6453742980957,617850592
sq,8.1217903137207,2.12269439697266,99.506378173829,78.9275169372559,617867259
sq,9.71389236450196,3.38553466796875,107.978582382202,88.8557434082031,617883926
sq,11.4415496826172,4.8072265625,116.129398345948,100.476741790771,617900593
sq,13.2996200561523,6.41485443115234,135.8904838562,99.5907783508296,617917260
sq,15.4738677978516,8.00830688476562,165.415525436402,105.068206787109,617933927
sq,18.120516204834,9.68939819335937,158.953666687011,113.795757293702,617950594
sq,20.6637748718262,11.5101303100586,129.265069961548,102.049589157104,617967261
sq,22.7320159912109,13.1429237365723,121.666193008423,107.904434204102,617983928
sq,24.6786750793457,14.8693946838379,118.771076202392,112.821578979492,618000595
sq,26.579012298584,16.6745399475098,108.806610107422,110.86130142212,618017262
sq,28.3199180603027,18.4483207702637,85.179328918457,133.228063583375,618033929
sq,29.682787322998,20.5799697875977,88.3653163909912,149.429082870483,618050596
sq,31.0966323852539,22.9708351135254,113.60740661621,151.191234588623,618067263
sq,32.9143508911133,25.3898948669434,134.945154190064,147.037506103516,618083930
sq,35.0734733581543,27.7424949645996,125.93698501587,140.336990356445,618100597
sq,37.0884651184082,29.9878868103027,96.9269275665279,155.516862869263,618117264
sq,38.6392959594726,32.4761566162109,101.678490638733,169.905424118042,618133931
sq,40.2661518096924,35.1946434020996,99.6862649917603,172.764778137207,618150598
sq,41.8611320495606,37.9588798522949,91.0189151763916,153.475284576416,618167265
sq,43.3174346923828,40.4144844055176,103.646755218506,134.228110313415,618183932
sq,44.9757827758789,42.5621341705322,96.8759059906001,140.045762062073,618200599
sq,46.5257972717285,44.8028663635254,81.168651580811,120.195388793945,618217266
sq,47.8244956970215,46.7259925842285,101.174831390381,110.73637008667,618233933
sq,49.4432929992676,48.4977745056152,125.532865524292,129.730224609375,618250600
sq,51.4518188476562,50.5734580993652,122.967481613159,105.692863464355,618267267
sq,53.4192985534668,52.2645439147949,112.293481826782,107.902884483337,618283934
sq,55.2159942626953,53.9909900665283,122.012138366699,111.673653125763,618300601
sq,57.1681884765625,55.7777685165405,125.922739505768,122.143149375915,618317268
sq,59.1829523086548,57.7320589065552,114.776015281677,114.691138267517,618333935
sq,61.0193685531616,59.5671171188354,108.004212379456,111.60135269165,618350602
sq,62.7474359512329,61.3527387619018,122.325509786606,123.221755027771,618367269
sq,64.7046441078186,63.3242868423462,267.676584422588,123.643606901169,618383936
sq,68.98746945858,65.3025845527649,229.827769100666,118.117943406105,618400603
sq,72.6647137641907,67.1924716472626,377.893835306168,249.939501285553,618417270
sq,78.7110151290894,71.1915036678314,177.60819196701,242.503389716148,618433937
sq,81.5527462005615,75.0715579032898,156.382739543915,212.194532155991,618450604
sq,84.0548700332642,78.4666704177857,246.851861476898,17.281174659729,618467271
sq,88.0044998168945,78.7431692123413,189.727783203125,91.5055274963379,618483938
sq,91.0401443481445,80.2072576522827,186.119794845581,-51.0334372520447,618500605
sq,94.0180610656738,79.39072265625,203.013777732849,-6.35862350463867,618517272
sq,97.2662815093994,79.2889846801758,118.473172187805,42.799711227417,618533939
sq,99.1618522644043,79.9737800598145,37.6076698303223,113.669753074646,618550606
sq,99.7635749816895,81.7924961090088,80.4351568222046,63.2301568984985,618567273
sq,101.050537490845,82.8041786193848,55.9014081954956,32.6402187347412,618583940
sq,101.944960021973,83.3264221191406,45.4847812652588,2.91025638580322,618600607
sq,102.672716522217,83.3729862213135,45.2737808227539,-29.2240381240845,618617274
sq,103.397097015381,82.9054016113281,37.423849105835,-16.8468356132507,618633941
sq,103.995878601074,82.6358522415161,5.84840774536133,-0.847101211547852,618650608
sq,104.089453125,82.6222986221314,29.1218757629394,4.40406799316406,618667275
sq,104.555403137207,82.692763710022,42.8774356842041,3.75711917877197,618683942
sq,105.241442108154,82.7528776168823,20.7314491271973,0.623166561126709,618700609
sq,105.57314529419,82.7628482818604,12.6361846923828,-0.755190849304199,618717276
sq,105.775324249268,82.7507652282715,6.84309005737305,0.387191772460937,618733943
sq,105.884813690186,82.7569602966309,4.49705123901367,0.176668167114258,618750610
sq,105.95676651001,82.7597869873047,1.1131763458252,-0.645101070404053,618767277
sq,105.974577331543,82.7494653701782,-0.958442687988281,-1.36071443557739,618783944
sq,105.959242248535,82.727693939209,-4.6393871307373,-0.229775905609131,618800611
sq,105.885012054443,82.7240175247192,-10.1513862609863,-4.71210479736328,618817278
sq,105.722589874268,82.6486238479614,-14.9168968200684,-5.56612014770508,618833945
sq,105.483919525147,82.5595659255982,-16.901969909668,-5.46836853027344,618850612
sq,105.213488006592,82.4720720291138,-19.4172859191894,-5.5885910987854,618867279
sq,104.902811431885,82.3826545715332,-22.6526260375977,-6.43771886825562,618883946
sq,104.540369415283,82.2796510696411,-28.9618968963623,-7.63314962387085,618900613
sq,104.076979064941,82.1575206756592,-34.0263843536377,-7.2130560874939,618917280
sq,103.532556915283,82.0421117782593,-38.4846925735474,-4.80842590332031,618933947
sq,102.916801834106,81.9651769638062,-43.4887409210205,-2.86346673965454,618950614
sq,102.22098197937,81.9193614959717,-52.0603656768799,-3.74388694763184,618967281
sq,101.38801612854,81.8594593048096,-66.1857128143311,-11.8099451065063,618983948
sq,100.329044723511,81.6705001831055,-57.9229593276977,-17.9105997085571,619000615
sq,99.4022773742676,81.3839305877686,-136.635303497315,-22.9359269142151,619017282
sq,97.2161125183106,81.0169557571411,-104.465484619141,-21.9011306762695,619033949
sq,95.5446647644043,80.6665376663208,-103.347659111023,2.90870666503906,619050616
sq,93.8911022186279,80.7130769729614,-103.79683971405,27.4550318717957,619067283
sq,92.2303527832031,81.1523574829102,-124.521017074585,-9.95516777038574,619083950
sq,90.2380165100098,80.993074798584,-156.806468963623,-81.0233354568481,619100617
sq,87.7291130065918,79.6967014312744,-290.171504020691,-101.046055555344,619117284
sq,83.0863689422607,78.0799645423889,-212.67032623291,-111.131697893143,619133951
sq,79.6836437225342,76.3018573760986,-367.784947156906,-93.8816070556641,619150618
sq,73.7990845680237,74.799751663208,-342.858657240868,-41.4752811193466,619167285
sq,68.3133460521698,74.1361471652985,-242.986306548119,-153.584510087967,619183952
sq,64.4255651473999,71.678795003891,-127.885341644287,-315.793201327324,619200619
sq,62.3793996810913,66.6261037826538,-134.134709835052,-257.014214992524,619217286
sq,60.2332443237305,62.5138763427734,-119.676232337952,-138.966858386993,619233953
sq,58.3184246063232,60.2904066085815,-127.128183841705,-106.632888317108,619250620
sq,56.284373664856,58.5842803955078,-130.667507648468,-133.895397186279,619267287
sq,54.1936935424805,56.4419540405273,-129.994750022888,-129.065036773682,619283954
sq,52.1137775421143,54.3769134521484,-120.752215385437,-128.554344177246,619300621
sq,50.1817420959473,52.3200439453125,-113.625884056091,-123.488426208496,619317288
sq,48.3637279510498,50.3442291259766,-105.310440063477,-121.939897537232,619333955
sq,46.6787609100342,48.3931907653809,-104.793906211853,-124.603152275085,619350622
sq,45.0020584106445,46.3995403289795,-113.493323326111,-130.034446716309,619367289
sq,43.1861652374268,44.3189891815186,-126.924395561218,-128.61180305481,619383956
sq,41.1553749084473,42.2612003326416,-134.583592414856,-132.813453674317,619400623
sq,39.0020374298096,40.1361850738525,-134.570240974426,-139.514803886413,619417290
sq,36.8489135742187,37.9039482116699,-133.049488067627,-145.437002182007,619433957
sq,34.7201217651367,35.5769561767578,-132.539033889771,-148.57816696167,619450624
sq,32.5994972229004,33.1997055053711,-155.995130538941,-151.111841201782,619467291
sq,30.1035751342773,30.7819160461426,-164.276361465454,-145.510673522949,619483958
sq,27.4751533508301,28.4537452697754,-158.301591873169,-143.071889877319,619500625
sq,24.9423278808594,26.1645950317383,-146.127700805664,-144.388198852539,619517292
sq,22.6042846679687,23.8543838500977,-155.139207839966,-138.03768157959,619533959
sq,20.1220573425293,21.6457809448242,-163.296222686768,-135.773181915284,619550626
sq,17.509317779541,19.4734100341797,-160.996913909913,-138.75675201416,619567293
sq,14.9333671569824,17.2533020019531,-154.190778732299,-136.343955993651,619583960
sq,12.4663146972656,15.0717987060547,-145.35665512085,-131.359815597535,619600627
sq,10.140608215332,12.9700416564941,-147.973775863647,-120.639085769654,619617294
sq,7.77302780151367,11.0398162841797,-138.157606124878,-118.231058120727,619633961
sq,5.56250610351563,9.14811935424805,-122.747421264648,-118.471622467041,619650628
sq,3.59854736328125,7.25257339477539,-118.948936462402,-113.847970962524,619667295
sq,1.69536437988281,5.431005859375,-107.748508453369,-103.547096252441,619683962
sq,-0.0286117553710934,3.77425231933594,-93.1744575500488,-95.4713821411133,619700629
sq,-1.51940307617188,2.24671020507812,-81.7608833312988,-96.2424278259277,619717296
sq,-2.82757720947266,0.706831359863282,-68.7918663024902,-80.5420875549316,619733963
sq,-3.9282470703125,-0.581842041015625,-58.3410263061523,-69.2849159240723,619750630
sq,-4.86170349121094,-1.69040069580078,-48.4881401062012,-60.4119300842285,619767297
sq,-5.63751373291016,-2.65699157714844,-39.0853881835938,-51.0854721069336,619783964
sq,-6.26287994384766,-3.47435913085937,-33.966064453125,-44.6276664733887,619800631
sq,-6.80633697509766,-4.18840179443359,-27.8263092041016,-40.1272773742676,619817298
sq,-7.25155792236328,-4.83043823242187,-25.212287902832,-39.3638610839844,619833965
sq,-7.65495452880859,-5.46026000976562,-22.9697227478027,-37.8603935241699,619850632
sq,-8.02247009277344,-6.06602630615234,-16.2186622619629,-34.2545509338379,619867299
sq,-8.28196868896484,-6.61409912109375,-5.42163848876953,-46.3171005249023,619883966
sq,-8.36871490478516,-7.35517272949219,2.05850601196289,-43.9276695251465,619900633
sq,-8.33577880859375,-8.05801544189453,4.7764778137207,-38.4883880615234,619917300
sq,-8.25935516357422,-8.67382965087891,4.84418869018555,-36.5242958068848,619933967
sq,-8.18184814453125,-9.25821838378906,3.0670166015625,-36.3826751708984,619950634
sq,-8.13277587890625,-9.84034118652344,-0.0104904174804687,-24.9385833740234,619967301
sq,-8.13294372558594,-10.2393585205078,-1.71709060668945,-11.2843513488769,619983968
sq,-8.16041717529297,-10.4199081420898,-2.78377532958984,0.944137573242187,620000635
sq,-8.20495758056641,-10.404801940918,-2.5782585144043,8.44526290893555,620017302
sq,-8.24620971679687,-10.269677734375,-1.77431106567383,27.5826454162598,620033969
sq,-8.27459869384766,-9.82835540771484,1.0981559753418,35.1190567016602,620050636
sq,-8.25702819824219,-9.26645050048828,2.3961067199707,37.1699333190918,620067303
sq,-8.21869049072266,-8.67173156738281,4.02402877807617,24.2910385131836,620083970
sq,-8.15430603027344,-8.28307495117187,2.36606597900391,10.4260444641113,620100637
sq,-8.11644897460937,-8.11625823974609,-1.05810165405273,10.890007019043,620117304
sq,-8.13337860107422,-7.94201812744141,-2.58636474609375,10.5981826782227,620133971
sq,-8.17476043701172,-7.77244720458984,-1.99079513549805,9.16528701782227,620150638
sq,-8.20661315917969,-7.62580261230469,-1.44386291503906,2.38180160522461,620167305
sq,-8.22971496582031,-7.58769378662109,1.34611129760742,-1.78623199462891,620183972
sq,-8.20817718505859,-7.61627349853516,6.18314743041992,1.56021118164062,620200639
sq,-8.10924682617187,-7.59131011962891,9.92393493652344,4.10175323486328,620217306
sq,-7.9504638671875,-7.52568206787109,12.6352310180664,6.15549087524414,620233973
sq,-7.74830017089844,-7.42719421386719,15.4657363891602,8.52060317993164,620250640
sq,-7.50084838867187,-7.29086456298828,20.3752517700195,12.0754241943359,620267307
sq,-7.17484436035156,-7.09765777587891,25.8255004882813,16.568660736084,620283974
sq,-6.76163635253906,-6.83255920410156,30.7507514953613,19.587516784668,620300641
sq,-6.26962432861328,-6.51915893554687,38.1898880004883,22.8738784790039,620317308
sq,-5.65858612060547,-6.15317687988281,51.1918067932129,33.5049629211426,620333975
sq,-4.83951721191406,-5.61709747314453,70.7845687866211,46.4181900024414,620350642
sq,-3.70696411132812,-4.87440643310547,93.325138092041,59.8940849304199,620367309
sq,-2.21376190185547,-3.91610107421875,113.268852233887,70.0726509094238,620383976
sq,-0.401460266113281,-2.79493865966797,140.710830688477,63.8408660888672,620400643
sq,1.84991302490234,-1.77348480224609,150.486469268799,70.5394744873047,620417310
sq,4.25769653320313,-0.644853210449218,166.077136993408,95.3845977783203,620433977
sq,6.91493072509766,0.881300354003907,170.787572860718,119.814872741699,620450644
sq,9.64753189086914,2.79833831787109,164.772272109985,141.705513000488,620467311
sq,12.2838882446289,5.06562652587891,154.378414154053,119.410276412964,620483978
sq,14.7539428710938,6.97619094848633,165.346860885619,97.5644588470459,620500645
sq,17.3994926452637,8.53722229003906,166.565418243409,156.024932861328,620517312
sq,20.0645393371582,11.0336212158203,172.017812728881,139.07790184021,620533979
sq,22.8168243408203,13.2588676452637,154.033184051514,134.089946746826,620550646
sq,25.2813552856445,15.4043067932129,127.607107162476,162.563323974609,620567313
sq,27.3230690002441,18.0053199768066,130.87010383606,156.248092651367,620583980
sq,29.4169906616211,20.5052894592285,142.220973968505,144.068241119385,620600647
sq,31.6925262451172,22.8103813171387,143.715620040894,167.201757431031,620617314
sq,33.9919761657715,25.4856094360352,137.978076934815,176.28788948059,620633981
sq,36.1996253967285,28.3062156677246,99.5304584503178,176.111698150634,620650648
sq,37.7921127319336,31.1240028381348,82.9554796218868,172.243356704713,620667315
sq,39.1194004058838,33.8798965454102,108.359932899475,166.401147842407,620683982
sq,40.8531593322754,36.5423149108887,117.788910865784,140.957951545715,620700649
sq,42.7377819061279,38.7976421356201,109.464049339294,130.946159362793,620717316
sq,44.4892066955566,40.8927806854248,92.5853252410889,134.493470191956,620733983
sq,45.9705718994141,43.0446762084961,97.0089435577393,129.12929058075,620750650
sq,47.5227149963379,45.1107448577881,106.182813644409,150.707721710205,620767317
sq,49.2216400146484,47.5220684051514,119.013428688049,128.357768058777,620783984
sq,51.1258548736572,49.5757926940918,119.067072868347,123.530864715576,620800651
sq,53.0309280395508,51.552286529541,106.485962867737,128.608822822571,620817318
sq,54.7347034454346,53.6100276947021,96.2429642677307,141.659557819367,620833985
sq,56.2745908737183,55.876580619812,98.9928245544434,138.80181312561,620850652
sq,57.8584760665893,58.0974096298218,122.51877784729,113.871514797211,620867319
sq,59.818776512146,59.9193538665771,143.971264362335,98.6397266387939,620883986
sq,62.1223167419434,61.4975894927979,291.481733322144,104.577273130417,620900653
sq,66.7860244750977,63.1708258628845,192.58439540863,146.400213241578,620917320
sq,69.8673748016357,65.5132292747498,354.139536619186,326.626932248473,620933987
sq,75.5336073875427,70.7392601907253,249.169856309891,318.327749148011,620950654
sq,79.520325088501,75.8325041770935,91.9285416603088,97.1552133560181,620967321
sq,80.9911817550659,77.3869875907898,279.162108898163,50.6061315536499,620983988
sq,85.4577754974365,78.1966856956482,302.329182624817,26.948481798172,621000655
sq,90.2950424194336,78.627861404419,243.714809417725,12.1585130691528,621017322
sq,94.1944793701172,78.8223976135254,101.713418960571,75.4843950271606,621033989
sq,95.8218940734863,80.03014793396,53.6452531814575,89.8369550704956,621050656
sq,96.6802181243897,81.4675392150879,21.9041109085083,54.0674924850464,621067323
sq,97.0306838989258,82.3326190948486,48.8817691802979,16.4992213249207,621083990
sq,97.8127922058106,82.5966066360474,43.5798168182373,-19.8999643325806,621100657
sq,98.5100692749023,82.2782072067261,34.8556041717529,-27.5131464004517,621117324
sq,99.0677589416504,81.8379968643189,23.1690406799316,-10.2260112762451,621133991
sq,99.4384635925293,81.6743806838989,20.1455354690552,-0.556886196136475,621150658
sq,99.7607921600342,81.6654705047607,23.1071710586548,-0.561773777008057,621167325
sq,100.130506896973,81.6564821243286,25.5978107452393,-0.713527202606201,621183992
sq,100.540071868897,81.6450656890869,52.7150630950928,-5.14459609985352,621200659
sq,101.383512878418,81.5627521514893,72.0316171646118,-2.83128023147583,621217326
sq,102.536018753052,81.5174516677857,8.84675979614258,-3.96144390106201,621317328
sq,102.67756690979,81.4540685653687,4.63593006134033,-1.5377402305603,621333995
sq,102.751741790772,81.4294647216797,1.39343738555908,0.49436092376709,621350662
sq,102.77403678894,81.43737449646,2.0216703414917,3.86828184127808,621367329
sq,102.806383514404,81.4992670059204,-4.45926189422607,-0.658631324768066,621383996
sq,102.735035324097,81.4887289047241,-9.23776626586914,-0.994205474853516,621400663
sq,102.587231063843,81.4728216171265,-10.728120803833,-3.92007827758789,621417330
sq,102.415581130981,81.4101003646851,-14.9519443511963,-6.65414333343506,621433997
sq,102.176350021362,81.3036340713501,-28.5077095031738,-5.97739219665527,621450664
sq,101.720226669312,81.2079957962036,-45.9837913513184,-5.7605504989624,621467331
sq,100.98448600769,81.1158269882202,-74.1560459136963,-7.04199075698853,621483998
sq,99.7979892730713,81.0031551361084,-118.971467018127,-9.44209098815918,621500665
sq,97.8944458007813,80.8520816802979,-105.739593505859,-11.9537711143494,621517332
sq,96.2026123046875,80.6608213424683,-117.753148078918,-13.1347179412842,621533999
sq,94.3185619354248,80.4506658554077,-122.702121734619,-12.3670697212219,621550666
sq,92.3553279876709,80.2527927398682,-121.042728424072,-14.0718817710877,621567333
sq,90.4186443328857,80.0276426315308,-218.53768825531,-16.5882706642151,621584000
sq,86.9220413208008,79.7622303009033,-309.461295604706,-34.1587066650391,621600667
sq,81.9706605911255,79.2156909942627,-358.543962240219,-33.9264869689941,621617334
sq,76.233957195282,78.6728672027588,-280.12403845787,-33.4941148757935,621634001
sq,71.7519725799561,78.1369613647461,-320.4405605793,-1.02654099464417,621650668
sq,66.6249236106873,78.1205367088318,-199.212521314621,-60.7740879058838,621667335
sq,63.4375232696533,77.1481513023377,-134.12868976593,-83.712249994278,621684002
sq,61.2914642333984,75.8087553024292,-156.684339046478,-105.544432997704,621700669
sq,58.7845148086548,74.1200443744659,-137.437880039215,-108.781151473522,621717336
sq,56.5855087280273,72.3795459508896,-123.064637184143,-47.7835983037949,621734003
sq,54.6164745330811,71.6150083780289,-112.399458885193,-23.4049782156944,621750670
sq,52.818083190918,71.2405287265778,-110.966682434082,-178.819045424461,621767337
sq,51.0426162719726,68.3794239997864,-114.711284637451,-330.188691616059,621784004
sq,49.2072357177734,63.0964049339294,-124.677538871766,-212.801545858383,621800671
sq,47.2123950958252,59.6915802001953,-126.417517662048,-118.633568286896,621817338
sq,45.1897148132324,57.793443107605,-129.170536994934,-119.854152202606,621834005
sq,43.1229862213135,55.8757766723633,-141.199946403503,-129.786133766174,621850672
sq,40.8637870788574,53.7991985321045,-152.055740356445,-132.525682449341,621867339
sq,38.4308952331543,51.678787612915,-166.227340698243,-133.372068405151,621884006
sq,35.7712577819824,49.5448345184326,-173.675775527954,-132.120132446289,621900673
sq,32.9924453735351,47.430912399292,-182.033300399781,-141.108512878418,621917340
sq,30.0799125671387,45.1731761932373,-197.025537490844,-151.990413665772,621934007
sq,26.9275039672852,42.741329574585,-197.332143783569,-167.547225952148,621950674
sq,23.770189666748,40.0605739593506,-189.459562301636,-164.982676506043,621967341
sq,20.7388366699219,37.4208511352539,-182.444095611572,-160.871028900146,621984008
sq,17.8197311401367,34.8469146728516,-176.287651062012,-156.583547592163,622000675
sq,14.9991287231445,32.341577911377,-163.258552551269,-155.715465545654,622017342
sq,12.3869918823242,29.8501304626465,-148.218154907226,-160.237073898315,622034009
sq,10.0155014038086,27.2863372802734,-145.97749710083,-162.284851074219,622050676
sq,7.67986145019532,24.6897796630859,-152.385234832764,-161.863327026368,622067343
sq,5.24169769287109,22.0999664306641,-148.014545440674,-156.532526016235,622084010
sq,2.87346496582031,19.5954460144043,-136.904239654541,-156.088590621949,622100677
sq,0.682997131347657,17.0980285644531,-120.012283325195,-159.177303314208,622117344
sq,-1.23719940185547,14.5511917114258,-103.210926055908,-150.575399398804,622134011
sq,-2.88857421875,12.1419853210449,-79.77294921875,-148.008108139038,622150678
sq,-4.16494140625,9.77385559082031,-58.0673217773438,-145.157814025879,622167345
sq,-5.0940185546875,7.45133056640625,-41.8281555175781,-136.32869720459,622184012
sq,-5.76326904296875,5.27007141113281,-30.519962310791,-127.891540527344,622200679
sq,-6.25158843994141,3.22380676269531,-25.8984565734863,-116.228580474854,622217346
sq,-6.66596374511719,1.36414947509766,-24.3468284606934,-101.827144622803,622234013
sq,-7.05551300048828,-0.265084838867187,-23.9353179931641,-85.2375030517578,622250680
sq,-7.43847808837891,-1.62888488769531,-24.9671936035156,-70.2624320983887,622267347
sq,-7.83795318603516,-2.75308380126953,-25.6357192993164,-60.3208541870117,622284014
sq,-8.24812469482422,-3.71821746826172,-24.5490074157715,-54.8491477966309,622300681
sq,-8.64090881347656,-4.59580383300781,-13.9732360839844,-51.6414642333984,622317348
sq,-8.86448059082031,-5.42206726074219,-5.33628463745117,-53.7948608398438,622334015
sq,-8.94986114501953,-6.28278503417969,4.22477722167969,-54.1281700134277,622350682
sq,-8.88226470947266,-7.14883575439453,12.7778053283691,-51.1617660522461,622367349
sq,-8.67781982421875,-7.96742401123047,13.6494636535644,-45.2556610107422,622384016
sq,-8.45942840576172,-8.69151458740234,7.95555114746094,-35.6197357177734,622400683
sq,-8.33213958740234,-9.26143035888672,0.668525695800781,-28.5434722900391,622417350
sq,-8.32144317626953,-9.71812591552734,-3.10993194580078,-25.4087448120117,622434017
sq,-8.37120208740234,-10.1246658325195,-4.67395782470703,-22.0851898193359,622450684
sq,-8.44598541259766,-10.4780288696289,-3.91483306884766,-16.0398483276367,622467351
sq,-8.50862274169922,-10.7346664428711,-3.52287292480469,-7.20834732055664,622484018
sq,-8.56498870849609,-10.85,-1.10816955566406,4.29296493530273,622500685
sq,-8.58271942138672,-10.7813125610352,0.623703002929687,11.9419097900391,622517352
sq,-8.57274017333984,-10.5902420043945,0.992774963378906,14.8015022277832,622534019
sq,-8.55685577392578,-10.35341796875,4.58049774169922,10.3182792663574,622550686
sq,-8.48356781005859,-10.1883255004883,6.59513473510742,6.3014030456543,622567353
sq,-8.37804565429687,-10.0875030517578,8.84246826171875,6.82401657104492,622584020
sq,-8.23656616210937,-9.97831878662109,11.383056640625,4.10223007202148,622600687
sq,-8.05443725585937,-9.91268310546875,13.0014419555664,10.225772857666,622617354
sq,-7.84641418457031,-9.74907073974609,12.7325057983398,3.60727310180664,622634021
sq,-7.64269409179687,-9.69135437011719,12.5827789306641,-0.733375549316406,622650688
sq,-7.44136962890625,-9.70308837890625,12.7406120300293,-0.00238418579101563,622667355
sq,-7.23751983642578,-9.70312652587891,16.9081687927246,1.65224075317383,622684022
sq,-6.96698913574219,-9.67669067382812,22.7365493774414,11.9509696960449,622700689
sq,-6.60320434570312,-9.48547515869141,30.1852226257324,15.4109001159668,622717356
sq,-6.12024078369141,-9.23890075683594,42.6316261291504,14.3227577209473,622734023
sq,-5.438134765625,-9.00973663330078,61.4604949951172,14.8200988769531,622750690
sq,-4.45476684570312,-8.77261505126953,85.7000350952148,17.4403190612793,622767357
sq,-3.08356628417969,-8.49356994628906,111.418724060059,23.0488777160644,622784024
sq,-1.30086669921875,-8.12478790283203,129.95195388794,29.2587280273438,622800691
sq,0.778364562988282,-7.65664825439453,140.686988830566,35.6907844543457,622817358
sq,3.02935638427734,-7.085595703125,157.896041870117,42.1009063720703,622834025
sq,5.55569305419922,-6.41198120117187,170.842409133911,48.1123924255371,622850692
sq,8.2891716003418,-5.64218292236328,173.542737960816,63.3330345153809,622867359
sq,11.0658554077148,-4.62885437011719,169.138193130493,72.0915794372559,622884026
sq,13.7720664978027,-3.47538909912109,160.233497619629,86.1916542053223,622900693
sq,16.3358024597168,-2.09632263183594,182.064771652222,106.295585632324,622917360
sq,19.2488388061523,-0.39559326171875,176.364421844482,120.190620422363,622934027
sq,22.0706695556641,1.52745666503906,159.8699092865,135.095119476318,622950694
sq,24.628588104248,3.68897857666016,159.213066101074,149.514675140381,622967361
sq,27.1759971618652,6.08121337890625,173.014402389526,153.540134429932,622984028
sq,29.9442276000977,8.53785552978516,176.224231719971,149.477958679199,623000695
sq,32.7638153076172,10.9295028686523,160.216808319092,130.721807479858,623017362
sq,35.3272842407226,13.0210517883301,145.179986953735,152.43124961853,623034029
sq,37.6501640319824,15.4599517822266,112.850427627564,181.652545928955,623050696
sq,39.4557708740234,18.3663925170898,103.757143020629,194.238185882569,623067363
sq,41.1158851623535,21.4742034912109,136.187434196473,185.054779052734,623084030
sq,43.2948841094971,24.4350799560547,138.910293579102,157.967090606689,623100697
sq,45.5174488067627,26.9625534057617,128.54254245758,215.547323226929,623117364
sq,47.574129486084,30.4113105773926,112.614989280701,225.032567977905,623134031
sq,49.3759693145752,34.0118316650391,111.63341999054,233.318090438843,623150698
sq,51.1621040344238,37.7449211120606,123.709440231323,189.661622047424,623167365
sq,53.141455078125,40.7795070648193,122.778415679932,134.450793266296,623184032
sq,55.1059097290039,42.9307197570801,125.072538852692,133.374333381653,623200699
sq,57.107070350647,45.0647090911865,137.960731983185,128.719091415405,623217366
sq,59.3144420623779,47.124214553833,146.103084087372,146.993041038514,623234033
sq,61.6520914077759,49.4761032104492,240.762263536454,131.09540939331,623250700
sq,65.5042876243591,51.5736297607422,279.109477996826,130.953431129456,623267367
sq,69.9700392723084,53.6688846588135,312.032580375671,140.477359294891,623284034
sq,74.9625605583191,55.9165224075317,360.901027917862,162.303030490875,623300701
sq,80.7369770050049,58.5133708953857,218.68771314621,158.968329429626,623317368
sq,84.2359804153442,61.0568641662598,406.738221645355,130.169719457626,623334035
sq,90.7437919616699,63.1395796775818,353.469967842102,124.898999929428,623350702
sq,96.3993114471436,65.1379636764526,158.25891494751,241.394139826298,623367369
sq,98.9314540863037,69.0002699136734,114.602446556091,336.428366601467,623384036
sq,100.765093231201,74.3831237792969,68.5460567474365,223.814100027084,623400703
sq,101.86183013916,77.9641493797302,67.9706335067749,96.6818034648895,623417370
sq,102.949360275269,79.5110582351685,84.9462747573853,8.15773010253906,623434037
sq,104.308500671387,79.6415819168091,54.3851852416992,41.3016676902771,623450704
sq,105.178663635254,80.3024085998535,34.8384380340576,115.712523460388,623467371
sq,105.736078643799,82.1538089752197,34.3923568725586,164.294183254242,623484038
sq,106.28635635376,84.7825159072876,30.3719043731689,36.1184477806091,623500705
sq,106.772306823731,85.3604110717773,24.7721672058106,-38.4275913238525,623517372
sq,107.168661499023,84.7455696105957,19.193172454834,2.34401226043701,623534039
sq,107.475752258301,84.7830738067627,11.6381645202637,8.29941034317017,623550706
sq,107.661962890625,84.9158643722534,2.87485122680664,3.75843048095703,623567373
sq,107.707960510254,84.9759992599487,-3.72910499572754,7.91001319885254,623584040
sq,107.648294830322,85.1025594711304,-12.0105743408203,8.15612077713013,623600707
sq,107.456125640869,85.2330574035645,-20.3258991241455,8.5253119468689,623617374
sq,107.130911254883,85.3694623947144,-26.8149375915527,17.7546739578247,623634041
sq,106.701872253418,85.6535371780396,-29.9756526947021,5.08099794387817,623650708
sq,106.222261810303,85.7348331451416,-33.5345268249512,-3.12715768814087,623667375
sq,105.685709381104,85.6847986221314,-36.0250473022461,-7.77816772460937,623684042
sq,105.109308624268,85.5603479385376,-42.2937870025635,-11.7032527923584,623700709
sq,104.432608032227,85.3730958938599,-59.7138404846191,-14.305055141449,623717376
sq,103.477186584473,85.1442150115967,-84.2883586883545,-17.9462432861328,623734043
sq,102.128572845459,84.8570751190186,-126.350522041321,-22.699773311615,623750710
sq,100.106964492798,84.4938787460327,-137.21764087677,-23.614764213562,623767377
sq,97.9114822387695,84.1160425186157,-146.138668060303,-23.3854651451111,623784044
sq,95.5732635498047,83.741875076294,-143.978595733643,-25.1703858375549,623800711
sq,93.2696060180664,83.3391489028931,-157.457232475281,-32.0416688919067,623817378
sq,90.7502902984619,82.8264822006226,-228.161811828613,-29.3576121330261,623834045
sq,87.0997013092041,82.3567604064941,-302.573621273041,16.8507695198059,623850712
sq,82.2585233688355,82.626372718811,-228.634208440781,-1.54495239257812,623867379
sq,78.600376033783,82.6016534805298,-478.443518630229,-88.9467000961304,623884046
sq,70.9452797356993,81.1785062789917,-307.270690449513,-126.973628997803,623900713
sq,66.0289486885071,79.1469282150269,-161.353796720505,-104.51090335846,623917380
sq,63.447287940979,77.4747537612915,-154.747366905212,-85.4177176952362,623934047
sq,60.9713300704956,76.1080702781677,-155.196607112884,-74.6679306030273,623950714
sq,58.4881843566895,74.9133833885193,-147.738218307495,-303.305309265852,623967381
sq,56.1243728637695,70.0604984402657,-140.701651573181,-308.728862553835,623984048
sq,53.8731464385986,65.1208366394043,-131.790637969971,-134.802281856537,624000715
sq,51.7644962310791,62.9640001296997,-126.424431800842,-143.844604492187,624017382
sq,49.7417053222656,60.6624864578247,-126.200795173646,-142.26096868515,624034049
sq,47.7224925994873,58.3863109588623,-134.018182754516,-142.545878887177,624050716
sq,45.578201675415,56.1055768966675,-134.302854537964,-146.900475025177,624067383
sq,43.4293560028076,53.7551692962646,-146.419763565064,-151.061058044434,624084050
sq,41.0866397857666,51.3381923675537,-160.076022148132,-150.520920753479,624100717
sq,38.5254234313965,48.9298576354981,-170.12357711792,-145.917534828186,624117384
sq,35.8034461975098,46.5951770782471,-182.176828384399,-152.583837509155,624134051
sq,32.8886169433594,44.1538356781006,-199.967622756958,-168.840169906616,624150718
sq,29.689134979248,41.4523929595947,-204.751968383789,-182.728290557861,624167385
sq,26.4131034851074,38.5287403106689,-202.840805053711,-185.615420341492,624184052
sq,23.167650604248,35.5588935852051,-210.509538650512,-179.817199707031,624200719
sq,19.7994979858398,32.6818183898926,-211.46845817566,-181.405067443848,624217386
sq,16.4160026550293,29.779337310791,-208.436012268066,-188.173770904541,624234053
sq,13.0810264587402,26.7685569763184,-181.852579116821,-184.570074081421,624250720
sq,10.1713851928711,23.8154357910156,-160.993576049805,-176.727533340454,624267387
sq,7.59548797607422,20.9877952575684,-158.68330001831,-178.298234939575,624284054
sq,5.05655517578125,18.1350234985352,-152.902603149414,-178.836822509766,624300721
sq,2.61011352539062,15.2736343383789,-145.617485046387,-174.051284790039,624317388
sq,0.280233764648438,12.4888137817383,-133.052825927734,-161.271333694458,624334055
sq,-1.84861145019531,9.90847244262695,-103.777408599854,-154.448986053467,624350722
sq,-3.50904998779297,7.43728866577148,-70.6968307495117,-160.427808761597,624367389
sq,-4.64019927978516,4.87044372558594,-44.3525314331055,-156.22615814209,624384056
sq,-5.34983978271484,2.3708251953125,-27.6546478271484,-140.335083007812,624400723
sq,-5.79231414794922,0.1254638671875,-24.8112678527832,-119.340896606445,624417390
sq,-6.18929443359375,-1.78399047851563,-28.3689498901367,-96.1594581604004,624434057
sq,-6.64319763183594,-3.32254180908203,-35.8247756958008,-74.2383003234863,624450724
sq,-7.21639404296875,-4.51035461425781,-34.2617034912109,-57.9113960266113,624467391
sq,-7.76458129882812,-5.43693695068359,-33.3156585693359,-50.0588417053223,624484058
sq,-8.2976318359375,-6.23787841796875,-29.144287109375,-50.9085655212402,624500725
sq,-8.7639404296875,-7.05241546630859,-16.0446166992188,-58.7658882141113,624517392
sq,-9.020654296875,-7.99266967773437,-4.08124923706055,-61.0141754150391,624534059
