Label,Left_Hip_q,Right_Hip_q,Left_Hip_qd,Right_Hip_qd,SampleTimeFine
fw,-76.9169311523437,-67.247573852539,-143.745864868164,73.6593780517578,2298901283
fw,-73.8997192382812,-68.5913391113281,-186.270568847656,78.9191055297851,2298917950
fw,-70.4514236450195,-70.0208206176757,-208.311660766601,82.7179718017578,2298934617
fw,-67.1386489868164,-71.5200424194336,-193.654983520507,85.6023941040039,2298951284
fw,-64.2234802246093,-73.1512756347656,-161.110107421875,93.3130493164062,2298967951
fw,-61.8265190124511,-74.875732421875,-118.193420410156,99.5846557617187,2298984618
fw,-59.8535957336425,-76.5502853393554,-96.9924545288086,97.6894912719726,2299001285
fw,-58.3322868347168,-78.1825866699218,-76.2463912963867,96.0056991577148,2299017952
fw,-56.9864120483398,-79.7813491821289,-73.1873397827148,94.4816284179687,2299034619
fw,-55.8773956298828,-81.4368667602539,-63.9451179504394,98.5051498413086,2299051286
fw,-55.0912132263183,-83.1449356079101,-51.7305297851562,102.592140197753,2299067953
fw,-54.7570877075195,-84.8407897949218,-29.4898300170898,104.60001373291,2299084620
fw,-54.9341659545898,-86.4193649291992,-4.87117433547973,104.677871704101,2299101287
fw,-55.6083641052246,-87.6429977416992,20.4126453399658,104.571151733398,2299117954
fw,-57.2351913452148,-87.8668746948242,89.5448455810546,102.087837219238,2299134621
fw,-58.5293960571289,-87.0458068847656,43.2355499267578,91.801155090332,2299151288
fw,-59.5651779174804,-85.8995056152343,20.4490184783935,82.4844207763671,2299167955
fw,-60.5717239379882,-84.8154907226562,30.9297714233398,69.1060562133789,2299184622
fw,-61.5756111145019,-83.8791351318359,35.9842872619628,57.9956474304199,2299201289
fw,-62.2592163085937,-83.0887222290039,14.8805646896362,47.2143096923828,2299217956
fw,-62.6890258789062,-82.4234313964843,7.68561220169067,38.560188293457,2299234623
fw,-63.0044326782226,-81.9896240234375,6.69647550582885,23.0872592926025,2299251290
fw,-63.3428764343261,-81.9926834106445,-1.446533203125,-4.30687189102172,2299267957
fw,-63.9566001892089,-82.5181121826171,17.3434028625488,-32.6649665832519,2299284624
fw,-64.5215454101562,-83.539566040039,22.0692443847656,-59.1011695861816,2299301291
fw,-64.426643371582,-85.1066360473632,-10.1954793930053,-87.6450119018554,2299317958
fw,-64.0585861206054,-87.5171508789062,-19.808385848999,-136.54800415039,2299334625
fw,-64.0403823852539,-88.9820175170898,10.2195243835449,-199.69888305664,2299351292
fw,-64.7575912475586,-84.8514404296875,48.4928512573242,-240.922302246093,2299367959
fw,-65.9109115600586,-80.6585998535156,50.1792297363281,-242.223678588867,2299384626
fw,-67.1645812988281,-76.6569595336914,54.6641197204589,-221.882171630859,2299401293
fw,-68.395278930664,-73.1757354736328,56.9570426940918,-193.396759033203,2299417960
fw,-69.7429962158203,-69.759292602539,61.8368530273437,-202.456848144531,2299434627
fw,-71.1269302368164,-66.4929122924804,61.4341926574707,-203.395324707031,2299451294
fw,-72.5877227783203,-63.3999938964843,65.772102355957,-198.754364013671,2299467961
fw,-74.0699386596679,-60.3401374816894,68.1027450561523,-197.802749633789,2299484628
fw,-75.515884399414,-57.3531799316406,67.099136352539,-190.10317993164,2299501295
fw,-76.923110961914,-55.2504692077636,64.2091751098632,-130.360397338867,2299517962
fw,-78.3258361816406,-53.453327178955,64.366470336914,-111.818756103515,2299534629
fw,-79.792495727539,-51.5181999206543,70.3862380981445,-121.394828796386,2299551296
fw,-81.351692199707,-49.8020362854003,79.2632369995117,-109.450492858886,2299567963
fw,-82.9950942993164,-48.4697074890136,87.7666702270507,-87.1248397827148,2299584630
fw,-84.7179946899414,-47.873924255371,97.2986602783203,-43.3753471374511,2299601297
fw,-86.3501510620117,-48.1358947753906,102.440208435058,7.561851978302,2299617964
fw,-87.4724578857421,-49.0147819519043,99.3268966674804,43.6999473571777,2299634631
fw,-87.5375671386718,-50.5894012451171,89.8046035766601,85.8865661621093,2299651298
fw,-86.7770614624023,-52.7783813476562,77.0093994140625,123.206420898437,2299667965
fw,-85.7467041015625,-55.2751693725585,70.229736328125,139.910705566406,2299684632
fw,-84.6244430541992,-57.4519119262695,67.7248382568359,118.089164733886,2299701299
fw,-83.4908447265625,-58.9921340942382,65.1133117675781,76.2985534667968,2299717966
fw,-82.3708724975586,-59.3438072204589,62.1390800476074,5.1769413948059,2299734633
fw,-81.3634414672851,-60.0153503417968,53.1236190795898,32.9690361022949,2299751300
fw,-80.7222900390625,-60.6536636352539,28.8434219360351,28.0607967376709,2299767967
fw,-80.5398864746093,-60.6287536621093,4.06669235229492,-9.69788455963134,2299784634
fw,-80.7722854614257,-60.2671928405761,-13.8644342422485,-30.8498229980468,2299801301
fw,-81.498664855957,-61.5618019104003,-33.9197235107421,67.4868698120117,2299817968
fw,-82.751106262207,-62.7987899780273,-57.814224243164,74.1070327758789,2299834635
fw,-84.8045806884765,-62.4718551635742,-98.8478088378906,-21.3296852111816,2299851302
fw,-87.6513137817382,-61.8917198181152,-132.642883300781,-39.9266624450683,2299867969
fw,-89.235366821289,-61.8668365478515,-134.843032836914,-5.73107290267944,2299884636
fw,-86.1972351074218,-62.1710395812988,-123.236419677734,17.0160522460937,2299901303
fw,-83.1564483642578,-62.787914276123,-129.321487426757,36.0213661193847,2299917970
fw,-80.1732330322265,-63.804588317871,-145.445587158203,57.9214401245117,2299934637
fw,-77.3437957763671,-65.2122955322265,-153.416793823242,81.2604598999023,2299951304
fw,-74.2816925048828,-66.7764434814453,-178.131698608398,90.97900390625,2299967971
fw,-70.9970321655273,-68.3290939331054,-188.97346496582,89.4856185913086,2299984638
fw,-68.0596847534179,-69.8235244750976,-158.958068847656,84.890640258789,2300001305
fw,-65.4698715209961,-71.3785629272461,-129.008743286132,88.0242004394531,2300017972
fw,-63.2701110839843,-73.0336685180664,-94.3609008789062,93.7900924682617,2300034639
fw,-61.1559104919433,-74.6817092895507,-94.0948638916015,94.0553970336914,2300051306
fw,-59.2485733032226,-76.3798065185546,-94.4141464233398,98.2443161010742,2300067973
fw,-57.4797859191894,-78.2191314697265,-100.592529296875,107.841026306152,2300084640
fw,-56.0204696655273,-80.1274337768554,-85.3561630249023,113.300567626953,2300101307
fw,-54.841625213623,-82.3370132446289,-76.6891937255859,133.83023071289,2300117974
fw,-54.133975982666,-84.6672592163086,-53.4240036010742,144.827682495117,2300134641
fw,-53.9578399658203,-86.8140792846679,-25.3724765777587,144.85154724121,2300151308
fw,-54.6057434082031,-88.0321884155273,23.9352340698242,141.364212036132,2300167975
fw,-55.69091796875,-87.1707763671875,48.0320053100585,130.806671142578,2300184642
fw,-57.0946540832519,-85.6995315551757,58.0799331665039,104.712120056152,2300201309
fw,-58.1226158142089,-84.5211715698242,16.5097789764404,72.5074386596679,2300217976
fw,-59.228889465332,-83.5172958374023,27.0112476348876,56.833641052246,2300234643
fw,-60.4133872985839,-82.4864501953125,43.9740371704101,57.8834762573242,2300251310
fw,-61.3936958312988,-81.4471740722656,31.0947914123535,59.4481086730957,2300267977
fw,-62.0267715454101,-80.5225296020507,10.8642482757568,52.3398323059082,2300284644
fw,-62.4177322387695,-79.7651901245117,10.2599639892578,41.3811645507812,2300301311
fw,-62.705810546875,-79.3836517333984,5.29157924652099,17.6856632232666,2300317978
fw,-63.3298988342285,-79.5089492797851,14.8755102157592,-12.3689708709716,2300334645
fw,-64.2232666015625,-80.1512222290039,32.4598922729492,-42.6496353149414,2300351312
fw,-64.7121429443359,-81.2895965576171,11.4853706359863,-71.7166213989257,2300367979
fw,-64.4975280761718,-82.931037902832,-21.0839748382568,-95.7148056030273,2300384646
fw,-64.2893524169921,-85.3200225830078,-17.4443321228027,-136.732070922851,2300401313
fw,-64.2637329101562,-88.78759765625,7.11715507507324,-211.600280761718,2300417980
fw,-64.8751525878906,-86.4360809326171,40.1228828430175,-259.988220214843,2300434647
fw,-66.1325531005859,-81.8594436645507,50.7512817382812,-268.186950683593,2300451314
fw,-67.5752182006836,-77.578384399414,59.9603729248046,-244.388412475585,2300467981
fw,-69.0028076171875,-74.0021362304687,63.7881469726562,-203.094421386718,2300484648
fw,-70.5019149780273,-70.416259765625,65.7058486938476,-211.011581420898,2300501315
fw,-71.9984359741211,-67.0207977294921,63.8002166748046,-206.988876342773,2300517982
fw,-73.5041732788086,-64.0581130981445,64.4188232421875,-185.264389038085,2300534649
fw,-74.9663543701171,-61.1364555358886,63.4597930908203,-182.077941894531,2300551316
fw,-76.4747772216796,-58.3591918945312,65.7822189331054,-167.07405090332,2300567983
fw,-78.0567779541015,-56.4114875793457,69.0053939819336,-114.180206298828,2300584650
fw,-79.6816482543945,-54.5067634582519,71.5513610839843,-114.547508239746,2300601317
fw,-81.3175964355468,-52.6655197143554,75.5563125610351,-112.095520019531,2300617984
fw,-82.955696105957,-50.7652282714843,81.3085708618164,-117.066986083984,2300634651
fw,-84.6393356323242,-49.2937774658203,87.6584701538086,-91.4581832885742,2300651318
fw,-86.2818984985351,-48.3699722290039,88.8656921386718,-60.037727355957,2300667985
fw,-87.7969131469726,-48.2143592834472,87.9618606567382,-14.8177509307861,2300684652
fw,-88.7987823486328,-48.7680778503418,84.6249313354492,27.5236492156982,2300701319
fw,-88.279670715332,-50.073616027832,80.2671203613281,73.300796508789,2300717986
fw,-87.0904083251953,-52.0009574890136,73.0739364624023,112.907165527343,2300734653
fw,-85.7967681884765,-54.0369415283203,71.9761199951171,115.438613891601,2300751320
fw,-84.4505538940429,-56.6244812011718,72.0737686157226,145.453353881835,2300767987
fw,-83.1608657836914,-58.2333679199218,67.289436340332,81.4837341308593,2300784654
fw,-81.9510879516601,-58.9476737976074,63.8265876770019,31.0194339752197,2300801321
fw,-80.9736557006836,-59.6952171325683,49.9482612609863,38.4058723449707,2300817988
fw,-80.416633605957,-60.2942733764648,24.2703056335449,26.2727718353271,2300834655
fw,-80.2645721435546,-60.4261054992675,4.59821891784668,-2.49540996551513,2300851322
fw,-80.4543533325195,-59.9805030822753,-8.71872329711914,-35.7899169921875,2300867989
fw,-81.0416946411132,-60.5405158996582,-24.9580345153808,21.7052268981933,2300884656
fw,-82.2070388793945,-61.7238464355468,-51.7502174377441,65.4541473388671,2300901323
fw,-84.0938262939453,-61.9758605957031,-90.6094818115234,14.3488101959228,2300917990
fw,-86.6259460449218,-61.2995414733886,-123.377670288085,-45.3496780395507,2300934657
fw,-88.3644638061523,-61.010383605957,-131.951248168945,-24.3495655059814,2300951324
fw,-86.2476196289062,-61.0810317993164,-115.631851196289,-0.622363567352294,2300967991
fw,-83.4469223022461,-61.5795860290527,-124.286018371582,27.5103454589843,2300984658
fw,-80.5785675048828,-62.388198852539,-148.77586364746,46.7643852233886,2301001325
fw,-77.7746963500976,-63.5949096679687,-174.987167358398,70.0255355834961,2301017992
fw,-74.6895904541015,-65.0402297973632,-202.145370483398,84.8978118896484,2301034659
fw,-71.2835159301757,-66.6233825683593,-216.887069702148,92.629035949707,2301051326
fw,-68.1559143066406,-68.2943420410156,-187.936325073242,96.4765853881836,2301067993
fw,-65.5501861572265,-69.8953018188476,-148.350433349609,90.2326049804687,2301084660
fw,-63.3540267944335,-71.5264663696289,-113.229576110839,91.8567504882812,2301101327
fw,-61.3840026855468,-73.2134780883789,-96.4735717773437,96.526985168457,2301117994
fw,-59.6070213317871,-75.0053329467773,-89.6255950927734,104.11368560791,2301134661
fw,-58.0368347167968,-76.7954177856445,-83.2114715576171,104.531463623046,2301151328
fw,-56.7131271362304,-78.5469894409179,-73.6669692993164,103.009605407714,2301167995
fw,-55.6845169067382,-80.4017562866211,-61.9405288696289,110.31184387207,2301184662
fw,-54.9269790649414,-82.2887115478515,-58.6416893005371,113.574989318847,2301201329
fw,-54.6665229797363,-84.2302780151367,-34.1572723388671,118.762580871582,2301217996
fw,-55.0979385375976,-86.1893081665039,2.09286785125732,127.198654174804,2301234663
fw,-56.0732192993164,-87.8251647949218,33.4410896301269,138.457824707031,2301251330
fw,-57.2039260864257,-87.5902709960937,40.9806785583496,138.499328613281,2301267997
fw,-58.1512413024902,-86.1260604858398,25.3122539520263,113.843589782714,2301284664
fw,-58.7697830200195,-84.7468566894531,1.83167254924774,88.4378814697265,2301301331
fw,-59.4688339233398,-83.4331741333007,14.5361185073852,79.6336669921875,2301317998
fw,-60.2603340148925,-82.1290512084961,23.5467739105224,78.3482666015625,2301334665
fw,-60.8850784301757,-81.041519165039,11.4316453933715,65.1152801513671,2301351332
fw,-61.363914489746,-80.2463150024414,7.59037208557128,45.645523071289,2301367999
fw,-61.8596382141113,-79.6985931396484,10.1971607208251,29.2038269042968,2301384666
fw,-62.5038948059082,-79.5294647216796,11.6564130783081,6.50549507141113,2301401333
fw,-63.3583183288574,-80.0064086914062,22.7709503173828,-30.9418983459472,2301418000
fw,-64.0739288330078,-81.1514511108398,25.4019794464111,-70.0495452880859,2301434667
fw,-64.0851058959961,-83.0107650756836,-4.38682889938354,-109.045806884765,2301451334
fw,-63.8221893310546,-85.6666870117187,-16.295446395874,-153.338668823242,2301468001
fw,-63.6729431152343,-89.2950134277343,1.98623096942901,-214.428146362304,2301484668
fw,-64.2363052368164,-86.276008605957,42.4177513122558,-255.404159545898,2301501335
fw,-65.4596328735351,-81.9798736572265,51.9952888488769,-248.645233154296,2301518002
fw,-66.8949279785156,-77.9381790161132,60.8511276245117,-230.954376220703,2301534669
fw,-68.3352813720703,-74.2596282958984,66.7611618041992,-214.099166870117,2301551336
fw,-69.7879486083984,-70.5161666870117,65.4859771728515,-224.973159790039,2301568003
fw,-71.1861877441406,-67.2376937866211,61.0024070739746,-201.90217590332,2301584670
fw,-72.5767974853515,-64.1752319335937,60.0652084350585,-194.005218505859,2301601337
fw,-74.033203125,-61.1895294189453,65.7370452880859,-187.406433105468,2301618004
fw,-75.4705581665039,-58.0743179321289,64.7455749511718,-191.875335693359,2301634671
fw,-76.8872756958007,-56.0274085998535,61.9660873413085,-122.025726318359,2301651338
fw,-78.3680572509765,-54.0246772766113,66.7333526611328,-123.410018920898,2301668005
fw,-79.9581909179687,-52.0771827697753,76.4575576782226,-123.3404006958,2301684672
fw,-81.6613693237304,-50.4099006652832,88.0306625366211,-107.571601867675,2301701339
fw,-83.4429702758789,-49.1232986450195,95.6078948974609,-84.3511428833007,2301718006
fw,-85.2248001098632,-48.4153633117675,97.3948135375976,-49.725658416748,2301734673
fw,-86.8736267089843,-48.3038673400878,95.0994338989257,-14.8597736358642,2301751340
fw,-88.2321014404296,-48.9244995117187,93.7024002075195,28.5978527069091,2301768007
fw,-88.5663299560546,-50.3191261291503,86.3751678466796,76.8984603881836,2301784674
fw,-87.7685775756836,-52.1606864929199,68.7734680175781,105.731666564941,2301801341
fw,-86.8052444458007,-54.4173316955566,55.9226112365722,128.834823608398,2301818008
fw,-85.8066101074218,-57.0208930969238,52.0012969970703,147.952224731445,2301834675
fw,-84.8115921020507,-58.6942749023437,46.4542579650878,88.2634735107421,2301851342
fw,-83.8760910034179,-59.6103248596191,42.0797119140625,42.1064567565918,2301868009
fw,-83.1330184936523,-60.3080177307128,31.9479885101318,32.0063552856445,2301884676
fw,-82.7389068603515,-60.8387069702148,13.4301776885986,14.9787397384643,2301901343
fw,-82.7463989257812,-61.2200050354003,-1.93066465854644,11.7861928939819,2301918010
fw,-83.0474548339843,-61.0281906127929,-10.3107089996337,-19.6389942169189,2301934677
fw,-83.7882690429687,-61.8627777099609,-29.2215003967285,44.1539115905761,2301951344
fw,-85.1139221191406,-63.1013450622558,-59.3698272705078,78.7946243286132,2301968011
fw,-87.1203002929687,-62.7392921447753,-97.696662902832,-21.4690189361572,2301984678
fw,-89.763442993164,-61.6906242370605,-125.083656311035,-68.1082382202148,2302001345
fw,-86.9132003784179,-61.8678474426269,-135.220626831054,8.05434513092041,2302018012
fw,-83.6792297363281,-62.3323745727539,-119.667404174804,23.0271682739257,2302034679
fw,-80.6140213012695,-62.9969863891601,-122.031524658203,38.8573112487793,2302051346
fw,-77.634407043457,-63.9185791015625,-140.691467285156,53.9409255981445,2302068013
fw,-74.7681198120117,-65.12646484375,-166.087524414062,71.5034484863281,2302084680
fw,-71.706787109375,-66.5039672851562,-191.044769287109,81.2244644165039,2302101347
fw,-68.4302673339843,-68.0257492065429,-203.039443969726,87.8846969604492,2302118014
fw,-65.4607772827148,-69.6611785888671,-173.392227172851,93.2564926147461,2302134681
fw,-62.9745368957519,-71.4337005615234,-137.667755126953,100.418601989746,2302151348
fw,-60.8797988891601,-73.4215011596679,-108.313171386718,112.305656433105,2302168015
fw,-59.2064094543457,-75.5207748413086,-89.7640304565429,118.900833129882,2302184682
fw,-57.8082008361816,-77.5392074584961,-81.4634857177734,115.266960144042,2302201349
fw,-56.4562492370605,-79.5572357177734,-84.17529296875,117.092720031738,2302218016
fw,-55.1723022460937,-81.694091796875,-84.1103363037109,125.476707458496,2302234683
fw,-54.1748275756835,-83.8307723999023,-70.6491317749023,126.384712219238,2302251350
fw,-53.6071586608886,-85.5990905761718,-44.5712051391601,105.177185058593,2302268017
fw,-53.4440078735351,-86.9990615844726,-22.3719635009765,85.1525039672851,2302284684
fw,-53.9804801940918,-88.2548217773437,21.3918724060058,81.0242080688476,2302301351
fw,-54.8764533996582,-89.1459121704101,35.6227226257324,89.0563812255859,2302318018
fw,-55.99951171875,-88.3782806396484,47.4344253540039,80.7947006225586,2302334685
fw,-57.4348754882812,-87.1246490478515,61.1277542114257,79.2131729125976,2302351352
fw,-58.573860168457,-85.6741485595703,32.8675956726074,86.4618301391601,2302368019
fw,-59.7047462463378,-84.2430648803711,38.8612976074218,82.6080017089843,2302384686
fw,-60.6832122802734,-82.9985656738281,33.5231857299804,70.4641418457031,2302401353
fw,-61.4835128784179,-82.1108627319336,20.9674854278564,49.5232696533203,2302418020
fw,-61.8884620666503,-81.3778228759765,3.38537836074829,40.8863945007324,2302434687
fw,-62.0946502685546,-80.6993179321289,-2.80297780036926,38.1790351867675,2302451354
fw,-62.5441513061523,-80.3666305541992,7.03362655639648,16.7021713256835,2302468021
fw,-63.5713386535644,-80.5104675292968,34.8647499084472,-12.901982307434,2302484688
fw,-64.8557052612304,-80.9987716674804,59.0850639343261,-31.9007339477539,2302501355
fw,-65.4526214599609,-82.0520629882812,25.8356456756591,-62.7079010009765,2302518022
fw,-65.4540863037109,-83.7794952392578,-10.114556312561,-99.5166473388671,2302534689
fw,-65.6375885009765,-86.1149673461914,-1.65855014324188,-134.600402832031,2302551356
fw,-65.9018325805664,-89.4280242919921,11.9824180603027,-193.186370849609,2302568023
fw,-66.303955078125,-86.5600357055664,18.1680545806884,-234.279174804687,2302584690
fw,-67.1245651245117,-82.240966796875,29.8027973175048,-252.899444580078,2302601357
fw,-68.2313766479492,-77.9825820922851,48.1718101501464,-245.794174194335,2302618024
fw,-69.4963302612304,-74.3027725219726,61.6163520812988,-211.443405151367,2302634691
fw,-70.714241027832,-70.8537979125976,56.7357025146484,-206.525253295898,2302651358
fw,-71.9490966796875,-67.5409393310546,53.5376014709472,-203.962966918945,2302668025
fw,-73.2044677734375,-64.6345520019531,53.8427276611328,-182.238098144531,2302684692
fw,-74.5574569702148,-61.755744934082,60.3950462341308,-178.962005615234,2302701359
fw,-75.9150314331054,-58.7961082458496,60.5733299255371,-176.134078979492,2302718026
fw,-77.3068313598632,-56.699478149414,64.3502044677734,-116.978904724121,2302734693
fw,-78.705337524414,-54.7452392578125,65.1694412231445,-111.902053833007,2302751360
fw,-80.1519012451171,-52.8492965698242,70.0923461914062,-113.318206787109,2302768027
fw,-81.6576690673828,-50.8969841003418,75.9797592163086,-122.775466918945,2302784694
fw,-83.2083206176757,-49.254596710205,80.2779312133789,-105.544090270996,2302801361
fw,-84.8085021972656,-48.1738777160644,86.502212524414,-71.674201965332,2302818028
fw,-86.3311538696289,-47.69331741333,88.1096878051757,-35.7602081298828,2302834695
fw,-87.5794219970703,-47.7492523193359,85.7568435668945,-5.31174516677856,2302851362
fw,-88.0915603637695,-48.3102378845214,81.5024795532226,25.0932960510253,2302868029
fw,-87.5522308349609,-49.2906341552734,77.6962661743164,51.4093132019043,2302884696
fw,-86.5423736572265,-51.0471305847168,70.9587097167968,99.1807556152343,2302901363
fw,-85.4362335205078,-53.0296630859375,64.9220352172851,107.235366821289,2302918030
fw,-84.3089447021484,-55.8688430786132,61.9078788757324,158.3232421875,2302934697
fw,-83.1959381103515,-58.1309280395507,59.9539604187011,120.962898254394,2302951364
fw,-82.1508255004882,-59.6115684509277,57.900592803955,73.9082412719726,2302968031
fw,-81.1852416992187,-60.5693321228027,52.4019203186035,46.8422050476074,2302984698
fw,-80.5026779174804,-61.2139663696289,31.0963153839111,27.8347091674804,2303001365
fw,-80.2084884643554,-61.6298713684082,9.4822244644165,15.7945547103881,2303018032
fw,-80.2712249755859,-61.4974136352539,-5.29191398620605,-14.812964439392,2303034699
fw,-80.83837890625,-62.4818611145019,-25.5650005340576,49.9762840270996,2303051366
fw,-82.0515670776367,-63.5549049377441,-54.0925331115722,62.6325607299804,2303068033
fw,-84.0757675170898,-63.2395668029785,-96.4854278564453,-20.002305984497,2303084700
fw,-86.9539337158203,-62.4736518859863,-137.358245849609,-49.0711631774902,2303101367
fw,-89.2944564819336,-62.3429069519043,-138.375839233398,-10.6469573974609,2303118034
fw,-86.6422348022461,-62.5699310302734,-126.001174926757,13.4284467697143,2303134701
fw,-83.5414199829101,-62.9345321655273,-136.138565063476,20.4590663909912,2303151368
fw,-80.499267578125,-63.7192192077636,-151.716888427734,44.3120422363281,2303168035
fw,-77.5997314453125,-65.0480422973632,-163.087448120117,76.7005844116211,2303184702
fw,-74.4214706420898,-66.6119842529296,-192.632995605468,90.892822265625,2303201369
fw,-71.0589447021484,-68.1588287353515,-199.515853881835,89.5439071655273,2303218036
fw,-68.0534515380859,-69.6415557861328,-163.878921508789,85.0056228637695,2303234703
fw,-65.4268569946289,-71.2389602661132,-129.151336669921,91.0365982055664,2303251370
fw,-63.0984420776367,-72.9514617919921,-100.26448059082,97.78466796875,2303268037
fw,-61.0208206176757,-74.7171173095703,-90.4718246459961,102.390991210937,2303284704
fw,-59.1046257019043,-76.4686889648437,-97.8031539916992,102.622581481933,2303301371
fw,-57.3043327331543,-78.3440933227539,-108.848892211914,110.923973083496,2303318038
fw,-55.7514305114746,-80.3801651000976,-98.316162109375,121.634757995605,2303334705
fw,-54.5348510742187,-82.5698547363281,-85.7013168334961,133.045486450195,2303351372
fw,-53.8620300292968,-84.7300949096679,-54.016014099121,137.464096069335,2303368039
fw,-53.736270904541,-86.5499725341796,-24.078758239746,133.796249389648,2303384706
fw,-54.3541679382324,-87.5430603027343,18.6056976318359,133.280960083007,2303401373
fw,-55.5081443786621,-86.997817993164,48.7971572875976,119.655670166015,2303418040
fw,-57.2496337890625,-86.100471496582,84.322509765625,78.2339477539062,2303434707
fw,-58.496841430664,-85.2849960327148,22.8667373657226,56.1688995361328,2303451374
fw,-59.7616233825683,-84.4528503417968,26.4634761810302,50.8957443237304,2303468041
fw,-61.0729141235351,-83.4666442871093,43.4972267150878,57.5961380004882,2303484708
fw,-62.1686744689941,-82.5096206665039,28.4841232299804,53.8531112670898,2303501375
fw,-62.7753143310546,-81.5882339477539,2.09014964103698,50.5343208312988,2303518042
fw,-62.8869857788085,-80.6291275024414,-12.537106513977,54.3015213012695,2303534709
fw,-62.958267211914,-79.8777236938476,-10.1981611251831,43.8886489868164,2303551376
fw,-63.3843345642089,-79.7168273925781,6.63563537597656,8.7173147201538,2303568043
fw,-64.4243240356445,-80.2016677856445,45.9747085571289,-30.3604469299316,2303584710
fw,-65.1890487670898,-81.2884902954101,40.8557586669921,-65.0586395263671,2303601377
fw,-65.0654373168945,-82.9493789672851,-9.80367851257324,-95.0055313110351,2303618044
fw,-64.7781677246093,-85.1637344360351,-23.6986923217773,-124.991439819335,2303634711
fw,-64.6749649047851,-88.2977447509765,-10.9915018081665,-180.688766479492,2303651378
fw,-64.982177734375,-87.6610031127929,22.693546295166,-235.395477294921,2303668045
fw,-65.9070739746093,-83.3386764526367,37.9642066955566,-251.378341674804,2303684712
fw,-67.1251983642578,-78.9950942993164,48.7990646362304,-250.964706420898,2303701379
fw,-68.4923095703125,-75.0298767089843,64.4801788330078,-231.765563964843,2303718046
fw,-69.9140701293945,-71.0817565917968,70.83935546875,-239.222900390625,2303734713
fw,-71.3098678588867,-67.320930480957,65.3784027099609,-233.388275146484,2303751380
fw,-72.7140884399414,-63.8011322021484,61.9148445129394,-223.330795288085,2303768047
fw,-74.13232421875,-60.5246925354003,61.3294639587402,-205.832458496093,2303784714
fw,-75.5655822753906,-57.5000381469726,61.5034294128418,-179.958190917968,2303801381
fw,-77.031997680664,-55.4714164733886,65.2918930053711,-112.841819763183,2303818048
fw,-78.5393753051757,-53.6182670593261,69.122802734375,-106.162902832031,2303834715
fw,-80.0890655517578,-51.6959228515625,72.4832077026367,-116.446556091308,2303851382
fw,-81.6458435058593,-49.8162307739257,73.8359680175781,-118.072212219238,2303868049
fw,-83.2304153442382,-48.1103858947753,77.5367965698242,-107.881965637207,2303884716
fw,-84.8692779541015,-47.0420570373535,84.5629806518554,-69.2515487670898,2303901383
fw,-86.5404510498046,-46.6808586120605,91.7746887207031,-27.6922874450683,2303918050
fw,-88.066291809082,-47.0903091430664,90.930793762207,17.530366897583,2303934717
fw,-88.8618545532226,-48.1450233459472,79.7018432617187,56.502586364746,2303951384
fw,-88.2660675048828,-50.1163291931152,71.3850479125976,115.467262268066,2303968051
fw,-87.1965560913086,-52.1782150268554,65.7749786376953,118.961730957031,2303984718
fw,-86.0609054565429,-54.8413124084472,61.4095230102539,148.757400512695,2304001385
fw,-84.9629745483398,-57.0166587829589,55.4291801452636,116.915489196777,2304018052
fw,-83.9842834472656,-58.3624649047851,49.8063354492187,68.7695541381836,2304034719
fw,-83.0127639770507,-59.4125175476074,52.2977676391601,57.9577980041503,2304051386
fw,-82.1573257446289,-60.094497680664,43.4246406555175,34.7852210998535,2304068053
fw,-81.5589447021484,-60.2333297729492,30.8993453979492,-1.2108838558197,2304084720
fw,-81.3303680419921,-59.6901626586914,14.7730865478515,-39.8021965026855,2304101387
fw,-81.4093170166015,-59.2679138183593,1.72980022430419,-36.0690040588378,2304118054
fw,-81.9668655395507,-60.4554862976074,-20.5399951934814,58.4661178588867,2304134721
fw,-83.1815109252929,-61.5471420288085,-56.7893447875976,62.3027458190918,2304151388
fw,-84.9947738647461,-61.2378158569335,-88.921875,-21.2775230407714,2304168055
fw,-87.4460296630859,-60.7986831665039,-124.687454223632,-29.2453002929687,2304184722
fw,-88.3026885986328,-60.9197158813476,-137.876663208007,4.61178398132324,2304201389
fw,-85.7945327758789,-61.4816284179687,-123.777824401855,28.0802268981933,2304218056
fw,-82.970832824707,-62.1810264587402,-124.938735961914,36.4758262634277,2304234723
fw,-80.1336517333984,-62.9983406066894,-136.205596923828,45.8865432739257,2304251390
fw,-77.2937316894531,-64.2361755371093,-176.59765625,73.4681015014648,2304268057
fw,-74.0631027221679,-65.6616287231445,-210.68782043457,83.9383316040039,2304284724
fw,-70.5482177734375,-67.0977401733398,-223.466979980468,83.7093124389648,2304301391
fw,-67.1185226440429,-68.4908676147461,-210.345779418945,79.6338958740234,2304318058
fw,-64.2236785888671,-69.9683074951171,-167.360534667968,83.4143600463867,2304334725
fw,-61.8258895874023,-71.6488418579101,-129.503021240234,94.88818359375,2304351392
fw,-59.826919555664,-73.4325561523437,-102.41748046875,102.154731750488,2304368059
fw,-58.1891899108886,-75.2696228027343,-81.5639953613281,106.984855651855,2304384726
fw,-56.7280807495117,-77.0913619995117,-78.8142623901367,107.204223632812,2304401393
fw,-55.447582244873,-79.0547561645507,-73.9601974487304,116.64037322998,2304418060
fw,-54.4732017517089,-81.0945510864257,-64.7249221801757,122.434394836425,2304434727
fw,-53.8836517333984,-83.0725860595703,-49.6908950805664,119.312095642089,2304451394
fw,-53.5898818969726,-84.8611907958984,-42.1204490661621,109.475769042968,2304468061
fw,-53.8839416503906,-86.4269714355468,-10.5126056671142,100.464454650878,2304484728
fw,-54.9846229553222,-87.7160415649414,40.8769264221191,97.0211639404296,2304501395
fw,-56.3726654052734,-88.2454299926757,59.5805053710937,93.9452743530273,2304518062
fw,-57.6614341735839,-87.7191314697265,42.2842864990234,78.2502822875976,2304534729
fw,-58.714370727539,-86.8448333740234,21.7882595062255,66.4339904785156,2304551396
fw,-59.8009033203125,-85.8234558105468,30.9154109954834,65.8942718505859,2304568063
fw,-60.9405670166015,-84.6533889770507,43.3326911926269,72.164924621582,2304584730
fw,-61.7986450195312,-83.4951553344726,21.6817321777343,69.4890060424804,2304601397
fw,-62.5431480407714,-82.4747848510742,19.58762550354,58.949649810791,2304618064
fw,-62.8661346435546,-81.6297073364257,1.6735405921936,46.4397850036621,2304634731
fw,-63.103530883789,-81.0609512329101,-3.87687945365905,29.1604347229003,2304651398
fw,-63.8078460693359,-80.779556274414,20.4027786254882,13.1974687576293,2304668065
fw,-64.9261779785156,-80.9050903320312,48.7208671569824,-9.82502365112304,2304684732
fw,-65.518798828125,-81.6082458496093,28.6571960449218,-42.7919387817382,2304701399
fw,-65.3986892700195,-82.9615783691406,-12.1295442581176,-77.0303649902343,2304718066
fw,-65.3643112182617,-84.9222564697265,-7.49820661544799,-111.015380859375,2304734733
fw,-65.6387405395507,-88.0623550415039,13.9738483428955,-182.837890625,2304751400
fw,-66.1039352416992,-87.8564376831054,26.8087825775146,-237.948333740234,2304768067
fw,-67.0250167846679,-83.4109573364257,38.7639350891113,-262.38003540039,2304784734
fw,-68.2305526733398,-79.0323333740234,53.9808616638183,-255.383422851562,2304801401
fw,-69.6031417846679,-75.208740234375,66.992561340332,-219.753234863281,2304818068
fw,-70.9476089477539,-71.4966964721679,63.7185897827148,-220.598083496093,2304834735
fw,-72.2194671630859,-67.875,56.1056327819824,-220.236740112304,2304851402
fw,-73.4846572875976,-64.8538818359375,55.0780868530273,-189.077896118164,2304868069
fw,-74.8271789550781,-61.9012870788574,60.9067306518554,-185.276245117187,2304884736
fw,-76.1993408203125,-58.828685760498,64.3971633911132,-184.747985839843,2304901403
fw,-77.5507659912109,-56.6320838928222,63.8614768981933,-123.465454101562,2304918070
fw,-78.9455642700195,-54.7032775878906,67.0498962402343,-111.099861145019,2304934737
fw,-80.3806762695312,-52.8851051330566,70.4795913696289,-109.620468139648,2304951404
fw,-81.8063583374023,-50.886432647705,72.3899459838867,-125.868629455566,2304968071
fw,-83.2125091552734,-49.0721206665039,74.32080078125,-117.01537322998,2304984738
fw,-84.6454391479492,-47.7853546142578,80.2350006103515,-87.3706665039062,2305001405
fw,-86.0342483520507,-47.102310180664,85.7324142456054,-52.7549819946289,2305018072
fw,-87.1499557495117,-47.1725921630859,88.2407455444336,-8.25501060485839,2305034739
fw,-87.485969543457,-47.9507980346679,81.1509704589843,35.8292160034179,2305051406
fw,-87.0364837646484,-49.5273208618164,69.2538375854492,87.4634017944336,2305068073
fw,-86.2438125610351,-51.5016479492187,60.6740188598632,111.986694335937,2305084740
fw,-85.3290710449218,-53.8416786193847,52.0236015319824,131.623840332031,2305101407
fw,-84.3987426757812,-56.423599243164,50.6938934326171,144.35791015625,2305118074
fw,-83.4835052490234,-58.434715270996,50.9376831054687,106.98233795166,2305134741
fw,-82.6265106201171,-59.805061340332,50.3346672058105,69.3425216674804,2305151408
fw,-81.8650817871093,-60.6156959533691,43.3038864135742,37.9282264709472,2305168075
fw,-81.383544921875,-60.8499298095703,24.1386356353759,2.23897647857666,2305184742
fw,-81.2122192382812,-60.8908348083496,8.15223503112793,-5.02427911758422,2305201409
fw,-81.3011627197265,-60.6136283874511,0.0862831696867942,-23.508975982666,2305218076
fw,-81.7119369506836,-61.2170257568359,-10.043396949768,22.4274101257324,2305234743
fw,-82.6311340332031,-62.7692947387695,-34.3439025878906,81.5835494995117,2305251410
fw,-84.229866027832,-63.3163452148437,-73.2115783691406,31.5957012176513,2305268077
fw,-86.5584945678711,-62.644187927246,-109.910491943359,-44.8138236999511,2305284744
fw,-89.5244064331054,-62.6368598937988,-136.822921752929,-3.05973696708679,2305301411
fw,-87.3420028686523,-62.8767280578613,-132.664733886718,11.9410200119018,2305318078
fw,-84.3669204711914,-63.3284912109375,-118.468223571777,23.2822284698486,2305334745
fw,-81.4550476074218,-64.0813980102539,-121.419075012207,42.3840751647949,2305351412
fw,-78.5318374633789,-65.1221237182617,-160.357650756835,61.0115394592285,2305368079
fw,-75.4147796630859,-66.5408096313476,-192.067398071289,84.1196746826171,2305384746
fw,-72.0369644165039,-68.1352462768554,-209.158477783203,94.2177810668945,2305401413
fw,-68.5522994995117,-69.7820358276367,-206.465148925781,96.3605117797851,2305418080
fw,-65.5674896240234,-71.4992218017578,-165.021209716796,99.2840423583984,2305434747
fw,-63.0725364685058,-73.4589309692382,-125.49015045166,113.206665039062,2305451414
fw,-60.9549293518066,-75.5138931274414,-95.2596206665039,119.260429382324,2305468081
fw,-59.1972961425781,-77.5562515258789,-79.0764465332031,119.703575134277,2305484748
fw,-57.4956436157226,-79.5879974365234,-90.7046890258789,120.14794921875,2305501415
fw,-55.8372459411621,-81.7482376098632,-98.5859680175781,128.980102539062,2305518082
fw,-54.4088859558105,-83.9702911376953,-94.6781005859375,134.727890014648,2305534749
fw,-53.3490982055664,-86.1135482788086,-80.0726547241211,135.985870361328,2305551416
fw,-52.9283370971679,-87.7686614990234,-41.4525604248046,125.668487548828,2305568083
fw,-53.2479248046875,-88.1142578125,3.30502915382385,112.135360717773,2305584750
fw,-54.1209869384765,-87.1710510253906,33.7147598266601,92.7098083496093,2305601417
fw,-55.8191184997558,-86.1549911499023,93.0166625976562,69.6995239257812,2305618084
fw,-57.3058471679687,-85.2110366821289,59.3508872985839,59.3932571411132,2305634751
fw,-58.5554161071777,-84.2140579223632,34.4324836730957,60.0083084106445,2305651418
fw,-59.9600791931152,-83.1813125610351,50.1858596801757,59.7245140075683,2305668085
fw,-61.4647903442382,-82.2616348266601,64.8702926635742,51.249210357666,2305684752
fw,-62.5242767333984,-81.5023880004882,39.3695602416992,40.7650642395019,2305701419
fw,-63.0874099731445,-80.9264831542968,16.3585357666015,30.5716648101806,2305718086
fw,-63.4517211914062,-80.6195907592773,9.38697528839111,14.4856348037719,2305734753
fw,-63.924259185791,-80.5856475830078,12.8567171096801,-1.99605369567871,2305751420
fw,-64.9613189697265,-80.8263092041015,44.3152503967285,-15.5328102111816,2305768087
fw,-66.391860961914,-81.4913024902343,67.2941284179687,-40.3903427124023,2305784754
fw,-67.1826934814453,-82.7238464355468,35.8219947814941,-72.1430511474609,2305801421
fw,-67.3427200317382,-84.4853744506836,2.78481292724609,-98.5129928588867,2305818088
fw,-67.8309936523437,-86.9759902954101,18.8164653778076,-140.819458007812,2305834755
fw,-68.5630645751953,-89.4732589721679,27.4156684875488,-203.596435546875,2305851422
fw,-69.1725616455078,-85.3064804077148,27.3551769256591,-243.273712158203,2305868089
fw,-69.9102935791015,-80.9430541992187,35.1864891052246,-253.549758911132,2305884756
fw,-70.8866806030273,-76.8668823242187,51.1896209716796,-229.919845581054,2305901423
fw,-72.1012268066406,-73.3091278076171,65.7388763427734,-197.278625488281,2305918090
fw,-73.3626174926757,-69.8228607177734,64.3488311767578,-205.829376220703,2305934757
fw,-74.564956665039,-66.4296112060546,51.6168785095214,-210.091476440429,2305951424
fw,-75.855354309082,-63.0718612670898,51.2574310302734,-214.136779785156,2305968091
fw,-77.2728805541992,-59.4572067260742,58.7483978271484,-231.059677124023,2305984758
fw,-78.8045120239257,-56.33837890625,68.4923934936523,-192.870513916015,2306001425
fw,-80.4368438720703,-54.2594757080078,79.0423889160156,-126.259887695312,2306018092
fw,-82.0492172241211,-52.3533668518066,80.2779083251953,-116.244918823242,2306034759
fw,-83.5280380249023,-50.6354522705078,72.5576095581054,-104.514213562011,2306051426
fw,-84.8860397338867,-48.9161529541015,67.943862915039,-105.317657470703,2306068093
fw,-86.1207656860351,-47.512939453125,64.4181594848632,-86.5851135253906,2306084760
fw,-87.2345199584961,-46.5684089660644,66.1037979125976,-60.2205543518066,2306101427
fw,-88.0596313476562,-46.4321937561035,72.7841033935546,-13.1398000717163,2306118094
fw,-87.9969940185546,-46.9633483886718,76.7543334960937,24.8170795440673,2306134761
fw,-87.1497421264648,-48.193546295166,68.529426574707,66.4334564208984,2306151428
fw,-86.1347198486328,-50.2324066162109,63.8679504394531,116.087738037109,2306168095
fw,-85.124526977539,-52.3093833923339,58.481761932373,115.869392395019,2306184762
fw,-84.1995468139648,-55.0183906555175,45.7135734558105,150.913848876953,2306201429
fw,-83.3048782348632,-57.5226860046386,38.5069694519043,139.128204345703,2306218096
fw,-82.4779891967773,-59.0046195983886,33.5657348632812,78.1369857788086,2306234763
fw,-81.7522430419921,-59.991771697998,31.6975688934326,49.733787536621,2306251430
fw,-81.1806259155273,-60.6595458984375,25.5269374847412,26.0904197692871,2306268097
fw,-80.9598236083984,-60.8694152832031,9.95374870300293,3.20823192596435,2306284764
fw,-81.0951919555664,-60.7607955932617,-1.78102588653564,-14.058310508728,2306301431
fw,-81.6662445068359,-61.8472480773925,-23.6270141601562,51.9497184753418,2306318098
fw,-82.841682434082,-63.9097137451171,-56.0450973510742,117.513778686523,2306334765
fw,-84.6566543579101,-64.0944213867187,-95.3056640625,10.183009147644,2306351432
fw,-87.1140518188476,-63.6028594970703,-125.623970031738,-32.0642585754394,2306368099
fw,-89.2933502197265,-64.3134155273437,-135.13948059082,45.1620140075683,2306384766
fw,-86.6069107055664,-65.1982116699218,-125.030387878417,49.8684577941894,2306401433
fw,-83.6417465209961,-65.6885452270507,-104.414985656738,20.2574253082275,2306418100
fw,-80.6813888549804,-66.4378280639648,-113.51537322998,41.8945922851562,2306434767
fw,-77.7882843017578,-67.7205123901367,-151.159271240234,75.3968353271484,2306451434
fw,-74.4825057983398,-69.3959808349609,-197.092636108398,98.3246231079101,2306468101
fw,-70.7422256469726,-71.1798095703125,-229.559539794921,104.000785827636,2306484768
fw,-67.0902557373046,-72.9550247192382,-217.506637573242,102.645446777343,2306501435
fw,-64.1170043945312,-74.7601013183593,-162.206100463867,103.253105163574,2306518102
fw,-61.7403411865234,-76.7069625854492,-116.230178833007,111.904441833496,2306534769
fw,-59.8263778686523,-78.6286468505859,-81.6987838745117,112.337799072265,2306551436
fw,-58.0887718200683,-80.5211029052734,-82.7891082763671,111.950302124023,2306568103
fw,-56.2093315124511,-82.3581008911132,-109.02838897705,109.416702270507,2306584770
fw,-54.4801979064941,-84.1249084472656,-106.595428466796,106.275741577148,2306601437
fw,-53.0302810668945,-85.8617553710937,-98.1635589599609,107.377365112304,2306618104
fw,-52.042854309082,-87.3009338378906,-75.6155548095703,97.1915969848632,2306634771
fw,-51.6264266967773,-88.1784439086914,-43.1577262878418,81.948860168457,2306651438
fw,-52.1016540527343,-88.2019119262695,13.6202135086059,76.3070907592773,2306668105
fw,-53.4577827453613,-87.3924102783203,74.7168502807617,77.7208938598632,2306684772
fw,-55.001724243164,-86.3354263305664,76.1919860839843,71.7598800659179,2306701439
fw,-56.6031799316406,-85.3043518066406,65.7542953491211,64.2172622680664,2306718106
fw,-57.8031883239746,-84.3817977905273,34.2264328002929,54.760944366455,2306734773
fw,-59.1436462402343,-83.5964813232421,48.9845085144043,43.1925506591796,2306751440
fw,-60.4449768066406,-82.8671340942382,51.5024452209472,38.7191772460937,2306768107
fw,-61.3981971740722,-82.2870330810546,33.5153999328613,30.3552665710449,2306784774
fw,-61.8408126831054,-81.8260345458984,12.9767522811889,23.859130859375,2306801441
fw,-62.1858558654785,-81.4645690917968,11.7035818099975,17.350263595581,2306818108
fw,-62.6346588134765,-81.3585510253906,13.0625247955322,-0.515521705150604,2306834775
fw,-63.6198043823242,-81.5963897705078,43.7732162475585,-20.642032623291,2306851442
fw,-64.8912658691406,-82.1710586547851,64.9971313476562,-38.1102409362793,2306868109
fw,-65.4775924682617,-83.2742843627929,29.8993644714355,-65.7934646606445,2306884776
fw,-65.517837524414,-84.9486770629882,2.61573481559753,-95.9392318725586,2306901443
fw,-65.7919311523437,-87.2617645263671,9.24705982208252,-142.049270629882,2306918110
fw,-66.2947235107421,-88.3183288574218,20.3032760620117,-200.028717041015,2306934777
fw,-66.9988021850586,-84.7030181884765,36.8436698913574,-238.916900634765,2306951444
fw,-68.0236740112304,-80.4315032958984,45.7461280822753,-253.138473510742,2306968111
fw,-69.1815490722656,-76.4167785644531,56.2698898315429,-230.346084594726,2306984778
fw,-70.5478363037109,-72.7764129638671,70.9276123046875,-204.758544921875,2307001445
fw,-71.8690185546875,-69.0887298583984,64.1932754516601,-214.881240844726,2307018112
fw,-73.1312484741211,-65.7439575195312,53.9687232971191,-201.697433471679,2307034779
fw,-74.3950729370117,-62.245319366455,52.1304054260253,-218.530853271484,2307051446
fw,-75.6866683959961,-58.7326889038085,53.7646560668945,-218.442230224609,2307068113
fw,-76.977294921875,-56.2103271484375,55.2175827026367,-149.010269165039,2307084780
fw,-78.3132705688476,-54.4776382446289,61.9276657104492,-98.0269165039062,2307101447
fw,-79.7366256713867,-52.7895202636718,69.3627471923828,-97.3753356933593,2307118114
fw,-81.218032836914,-50.8667335510253,73.2906036376953,-115.750534057617,2307134781
fw,-82.7483978271484,-48.9004249572753,76.3155899047851,-121.602096557617,2307151448
fw,-84.2991714477539,-47.3969764709472,78.621353149414,-94.6143188476562,2307168115
fw,-85.9415054321289,-46.637840270996,87.0389404296875,-51.1257934570312,2307184782
fw,-87.5893020629882,-46.6182632446289,96.5136489868164,-7.06070947647094,2307201449
fw,-88.5744018554687,-47.4889221191406,96.8235778808593,47.0954322814941,2307218116
fw,-87.8779144287109,-49.2209854125976,86.0566177368164,100.68603515625,2307234783
fw,-86.6845397949218,-51.1939468383789,74.3231735229492,114.902824401855,2307251450
fw,-85.5363464355468,-53.8559112548828,62.7922592163085,154.033828735351,2307268117
fw,-84.5299453735351,-56.2119674682617,52.2318534851074,128.477340698242,2307284784
fw,-83.67529296875,-57.972557067871,43.2795333862304,92.7450561523437,2307301451
fw,-82.9061889648437,-58.6601867675781,37.1025619506835,28.9898433685302,2307318118
fw,-82.2384872436523,-59.7279014587402,28.1214427947998,58.0551795959472,2307334785
fw,-81.8372344970703,-60.3703575134277,10.2660684585571,26.3373317718505,2307351452
fw,-81.9003753662109,-60.3453369140625,-10.6394100189208,-13.2101011276245,2307368119
fw,-82.3771743774414,-60.3536338806152,-21.5606155395507,-9.6634817123413,2307384786
fw,-83.3638381958007,-61.835594177246,-41.7080879211425,78.3363876342773,2307401453
fw,-84.8750534057617,-63.3127822875976,-67.5225601196289,87.339370727539,2307418120
fw,-87.0173187255859,-63.2826271057128,-106.412414550781,-3.66753458976745,2307434787
fw,-89.6164093017578,-62.9733009338378,-126.347778320312,-19.6752681732177,2307451454
fw,-87.1756210327148,-63.3294258117675,-142.414367675781,20.7062244415283,2307468121
fw,-83.9911651611328,-63.8201065063476,-131.205215454101,26.4534912109375,2307484788
fw,-80.8299484252929,-64.3565368652343,-127.016456604003,27.6087284088134,2307501455
fw,-77.697151184082,-65.1552352905273,-133.206359863281,44.169090270996,2307518122
fw,-74.8627090454101,-66.4557876586914,-145.925399780273,76.9494018554687,2307534789
fw,-71.854133605957,-67.9644546508789,-179.969314575195,89.9596710205078,2307551456
fw,-68.4620895385742,-69.5682754516601,-208.018569946289,94.57373046875,2307568123
fw,-65.3481521606445,-71.1457824707031,-178.290328979492,91.1557846069336,2307584790
fw,-62.6625823974609,-72.8650131225586,-138.576751708984,98.0744323730468,2307601457
fw,-60.4615669250488,-74.8051071166992,-103.395874023437,111.109725952148,2307618124
fw,-58.6282882690429,-76.9091491699218,-89.6098327636718,122.10749053955,2307634791
fw,-56.8766593933105,-79.1553192138671,-102.833610534667,132.401702880859,2307651458
fw,-55.0469932556152,-81.6314926147461,-118.037254333496,147.487609863281,2307668125
fw,-53.4465103149414,-84.3027420043945,-111.224708557128,161.282424926757,2307684792
fw,-52.3216361999511,-86.5102462768554,-83.018310546875,138.197280883789,2307701459
fw,-51.8854293823242,-87.8825302124023,-39.8341674804687,101.58787536621,2307718126
fw,-52.1383666992187,-88.3672103881836,0.592778742313385,77.0698165893554,2307734793
fw,-53.135684967041,-88.0413589477539,41.1534042358398,68.9923629760742,2307751460
fw,-54.5942001342773,-87.4527893066406,66.3030700683593,51.8114280700683,2307768127
fw,-56.4236145019531,-86.8471984863281,83.9431762695312,41.8426818847656,2307784794
fw,-57.9209556579589,-86.1121444702148,51.9223594665527,46.48876953125,2307801461
fw,-59.462345123291,-85.1140899658203,57.1444778442382,60.1074600219726,2307818128
fw,-60.6918182373046,-84.1128387451171,39.8016700744628,56.6195411682128,2307834795
fw,-61.7479438781738,-83.4053649902343,32.3252868652343,36.5175437927246,2307851462
fw,-62.4580726623535,-82.8899765014648,17.5991382598876,23.4235687255859,2307868129
fw,-62.8107147216796,-82.4016799926757,9.87101554870605,24.3555259704589,2307884796
fw,-63.2083282470703,-82.0986557006836,14.6802282333374,16.1612300872802,2307901463
fw,-64.0206985473632,-82.2253189086914,37.2471122741699,-8.50899982452392,2307918130
fw,-65.025520324707,-82.7730865478515,48.1466102600097,-32.4422225952148,2307934797
fw,-65.3113861083984,-83.9322738647461,9.83052062988281,-66.4468765258789,2307951464
fw,-65.1142959594726,-85.7514877319336,-16.5054588317871,-100.934921264648,2307968131
fw,-65.2758178710937,-88.4972839355468,6.57643604278564,-158.483612060546,2307984798
fw,-65.5918884277343,-87.6106643676757,18.8951187133789,-220.29312133789,2308001465
fw,-66.2424545288086,-83.3378601074218,34.8931808471679,-248.983978271484,2308018132
fw,-67.4402084350586,-78.9897079467773,47.8035774230957,-249.991836547851,2308034799
fw,-68.7471694946289,-75.1167373657226,58.7831420898437,-212.248275756835,2308051466
fw,-70.1567459106445,-71.6708526611328,68.9844894409179,-190.939819335937,2308068133
fw,-71.5662460327148,-68.253791809082,66.0092468261718,-201.271255493164,2308084800
fw,-72.9374084472656,-65.2504272460937,61.4032859802246,-187.27473449707,2308101467
fw,-74.3201599121093,-62.072208404541,61.7839393615722,-203.011505126953,2308118134
fw,-75.7776260375976,-58.9555282592773,67.7509384155273,-200.050170898437,2308134801
fw,-77.3067321777343,-56.5956115722656,74.0778427124023,-148.462173461914,2308151468
fw,-78.8561096191406,-54.5646820068359,76.1587448120117,-128.523086547851,2308168135
fw,-80.4280700683593,-52.7242050170898,78.5471038818359,-115.538269042968,2308184802
fw,-81.9889907836914,-50.8292922973632,78.9551696777343,-119.240188598632,2308201469
fw,-83.5460586547851,-49.1381912231445,79.7371444702148,-106.643142700195,2308218136
fw,-85.1328125,-47.7821464538574,83.6507949829101,-87.9941482543945,2308234803
fw,-86.6518096923828,-47.0439338684082,85.1289978027343,-52.009162902832,2308251470
fw,-87.8589935302734,-47.0070304870605,80.7316055297851,-10.4566917419433,2308268137
fw,-88.3715362548828,-47.7266769409179,79.4682540893554,36.68941116333,2308284804
fw,-87.800552368164,-49.1265983581543,72.3665618896484,80.2134170532226,2308301471
fw,-86.8641281127929,-51.0214538574218,63.4352264404296,110.873992919921,2308318138
fw,-85.8401870727539,-53.4008293151855,58.7840499877929,136.537933349609,2308334805
fw,-84.7665481567382,-55.9280128479003,55.4667205810546,140.125137329101,2308351472
fw,-83.6643524169921,-57.8543663024902,54.6410865783691,101.553588867187,2308368139
fw,-82.5967636108398,-58.8908615112304,54.2922477722168,48.2048759460449,2308384806
fw,-81.658447265625,-60.0251655578613,49.1853981018066,60.7872352600097,2308401473
fw,-80.968994140625,-60.8381538391113,34.6776809692382,41.6329383850097,2308418140
fw,-80.6279907226562,-61.2514381408691,15.3947086334228,16.4070396423339,2308434807
fw,-80.6195068359375,-61.2057304382324,0.336301118135452,-11.3969545364379,2308451474
fw,-81.0704956054687,-61.8006515502929,-19.3298034667968,24.9068965911865,2308468141
fw,-82.1669158935546,-63.2933540344238,-49.1212654113769,82.0249710083007,2308484808
fw,-84.0192260742187,-63.8788948059082,-91.7618026733398,35.4257469177246,2308501475
fw,-86.7060394287109,-63.3875999450683,-136.526977539062,-34.0611190795898,2308518142
fw,-89.7052536010742,-63.403709411621,-155.345626831054,-3.63693785667419,2308534809
fw,-86.9872131347656,-63.6989059448242,-137.53123474121,14.9120826721191,2308551476
fw,-83.9182052612304,-64.0534515380859,-129.575012207031,19.5077037811279,2308568143
fw,-80.8918533325195,-64.6893539428711,-136.000671386718,36.3000793457031,2308584810
fw,-77.9874038696289,-65.7673645019531,-151.432159423828,62.2438163757324,2308601477
fw,-75.1052169799804,-67.075439453125,-159.265869140625,76.7145462036132,2308618144
fw,-72.0491867065429,-68.4963073730468,-173.13362121582,82.9021224975586,2308634811
fw,-69.0035400390625,-69.9946517944336,-163.869552612304,86.3148956298828,2308651478
fw,-66.2215042114257,-71.6009368896484,-143.027954101562,92.0540008544921,2308668145
fw,-63.760627746582,-73.3244171142578,-116.217308044433,98.9041213989257,2308684812
fw,-61.5528717041015,-75.1859741210937,-98.0297927856445,107.917266845703,2308701479
fw,-59.5364990234375,-77.0909652709961,-97.6546249389648,111.345695495605,2308718146
fw,-57.7016716003418,-78.9730758666992,-105.546287536621,110.807952880859,2308734813
fw,-56.0948791503906,-81.006233215332,-97.0809326171875,121.022590637207,2308751480
fw,-54.7523956298828,-83.1881027221679,-85.3411178588867,132.295516967773,2308768147
fw,-53.830265045166,-85.2626495361328,-64.6659088134765,131.729125976562,2308784814
fw,-53.4083862304687,-86.9427108764648,-37.863037109375,123.962989807128,2308801481
fw,-53.7222061157226,-87.7807998657226,6.44592952728271,121.368942260742,2308818148
fw,-54.4964332580566,-87.1703567504882,27.5822772979736,110.335678100585,2308834815
fw,-56.0455245971679,-86.2029037475586,81.5897140502929,77.9204559326171,2308851482
fw,-57.4684944152832,-85.4927597045898,49.8872871398925,47.3469314575195,2308868149
fw,-58.7148818969726,-84.8074798583984,35.0163230895996,41.1688728332519,2308884816
fw,-59.9612007141113,-83.9120864868164,41.2620582580566,52.5180168151855,2308901483
fw,-61.1412773132324,-82.9160919189453,42.1400032043457,57.9156608581543,2308918150
fw,-62.0536766052246,-82.0443115234375,28.8398876190185,48.4010963439941,2308934817
fw,-62.681827545166,-81.2907180786132,18.6575927734375,40.438003540039,2308951484
fw,-63.1671257019043,-80.7287139892578,13.2435674667358,30.1864891052246,2308968151
fw,-63.8286972045898,-80.5680999755859,16.3496913909912,6.98086214065551,2308984818
fw,-64.8795928955078,-80.8833999633789,36.6149368286132,-20.5210266113281,2309001485
fw,-66.0460815429687,-81.683609008789,47.4961509704589,-48.9136886596679,2309018152
fw,-66.4842681884765,-83.084228515625,13.5115118026733,-81.3662414550781,2309034819
fw,-66.5341262817382,-85.1235580444336,-2.84874725341796,-116.492553710937,2309051486
fw,-66.8806686401367,-88.0972061157226,13.2418556213378,-180.993469238281,2309068153
fw,-67.405891418457,-87.3569183349609,29.3358135223388,-241.620483398437,2309084820
fw,-68.1746597290039,-82.9124679565429,39.3731384277343,-267.52700805664,2309101487
fw,-69.2695922851562,-78.5774765014648,48.4273529052734,-251.955657958984,2309118154
fw,-70.4983291625976,-74.8593215942382,55.6933326721191,-208.195220947265,2309134821
fw,-71.847183227539,-71.33837890625,59.7042198181152,-201.303634643554,2309151488
fw,-73.2009658813476,-67.9790267944336,58.3670120239257,-199.785049438476,2309168155
fw,-74.6094818115234,-64.7347717285156,61.3004417419433,-200.966903686523,2309184822
fw,-76.0786361694336,-61.3369827270507,66.4676513671875,-214.123794555664,2309201489
fw,-77.5993576049804,-58.2539520263671,70.0915756225586,-188.932464599609,2309218156
fw,-79.1282577514648,-56.0598983764648,71.9272994995117,-127.044700622558,2309234823
fw,-80.6311416625976,-54.2655410766601,71.4711685180664,-104.858589172363,2309251490
fw,-82.116584777832,-52.4614791870117,71.4859008789062,-108.874252319335,2309268157
fw,-83.5241622924804,-50.5037803649902,67.3031234741211,-120.818176269531,2309284824
fw,-84.8554000854492,-48.8520278930664,64.8959197998046,-102.042251586914,2309301491
fw,-86.2034683227539,-47.63472366333,70.0790786743164,-77.452033996582,2309318158
fw,-87.3912048339843,-47.1276206970214,67.4418716430664,-35.6590499877929,2309334825
fw,-88.3089294433593,-47.5708198547363,68.2200393676757,21.5049781799316,2309351492
fw,-88.4660949707031,-48.6742668151855,69.29541015625,61.8125305175781,2309368159
fw,-87.7524948120117,-50.482494354248,64.9942398071289,106.360298156738,2309384826
fw,-86.7909393310546,-52.7980003356933,58.4273529052734,137.134292602539,2309401493
fw,-85.7806320190429,-55.6585502624511,52.2421340942382,167.07925415039,2309418160
fw,-84.7961730957031,-58.1306419372558,44.6459617614746,137.619140625,2309434827
fw,-83.921142578125,-59.5687713623046,36.2971649169921,73.8949966430664,2309451494
fw,-83.1260528564453,-60.5086059570312,34.1605033874511,50.4787483215332,2309468161
fw,-82.4349594116211,-61.4026222229003,29.1940383911132,47.2273864746093,2309484828
fw,-82.0108032226562,-61.7581558227539,18.5992107391357,10.7918043136596,2309501495
fw,-81.9251327514648,-61.3477210998535,7.88626718521118,-34.961082458496,2309518162
fw,-82.2196426391601,-61.2644462585449,-8.76061058044433,-14.7775793075561,2309534829
fw,-83.070686340332,-62.5541725158691,-36.6231040954589,73.8711929321289,2309551496
fw,-84.5396957397461,-63.3224983215332,-73.4641418457031,48.8659477233886,2309568163
fw,-86.5805206298828,-62.6149139404296,-104.232147216796,-44.9711570739746,2309584830
fw,-89.1001663208007,-62.2171096801757,-126.860549926757,-25.1455955505371,2309601497
fw,-87.4630279541015,-62.3455162048339,-140.667221069335,6.90528774261474,2309618164
fw,-84.4119110107421,-62.6507568359375,-126.556632995605,16.6726322174072,2309634831
fw,-81.3008956909179,-63.1118354797363,-130.645568847656,24.7105121612548,2309651498
fw,-78.2875900268554,-63.8026962280273,-135.05842590332,38.9176216125488,2309668165
fw,-75.4001007080078,-64.9516677856445,-155.07373046875,68.0305023193359,2309684832
fw,-72.2047424316406,-66.3721771240234,-189.235946655273,83.6235198974609,2309701499
fw,-68.9115447998046,-67.9024658203125,-191.998046875,89.0068664550781,2309718166
fw,-65.9787902832031,-69.3758087158203,-163.544052124023,83.12255859375,2309734833
fw,-63.4212112426757,-70.9767608642578,-132.454544067382,88.5671081542968,2309751500
fw,-61.206802368164,-72.6885223388671,-102.353157043457,94.6072769165039,2309768167
fw,-59.244384765625,-74.4883193969726,-92.2335891723632,101.229942321777,2309784834
fw,-57.5172843933105,-76.2555694580078,-86.2882080078125,101.338111877441,2309801501
fw,-55.9261970520019,-78.0190811157226,-86.9711456298828,102.426544189453,2309818168
fw,-54.5789566040039,-79.9392700195312,-77.1613464355468,112.453025817871,2309834835
fw,-53.5919532775878,-81.8817291259765,-66.1044692993164,114.050544738769,2309851502
fw,-53.1408958435058,-83.8128662109375,-36.9004821777343,114.099502563476,2309868169
fw,-53.3414764404296,-85.6163024902343,-0.819763839244842,107.651069641113,2309884836
fw,-53.9636726379394,-87.4213943481445,15.498589515686,110.251281738281,2309901503
fw,-55.4250030517578,-88.9599533081054,75.5982589721679,106.645469665527,2309918170
fw,-56.7879905700683,-88.7576293945312,51.0455436706543,91.0526123046875,2309934837
fw,-58.0609054565429,-87.5920639038086,38.6163520812988,76.0186462402343,2309951504
fw,-59.3362312316894,-86.5276870727539,43.2830734252929,62.0495376586914,2309968171
fw,-60.5364112854003,-85.6128692626953,47.6112747192382,52.0894966125488,2309984838
fw,-61.3111457824707,-84.8080825805664,25.2003059387207,45.9572944641113,2310001505
fw,-61.6618499755859,-84.0946197509765,4.94551706314086,40.684886932373,2310018172
fw,-61.8123435974121,-83.5442733764648,-0.105345778167247,31.2147750854492,2310034839
fw,-62.049518585205,-83.3518829345703,3.6113896369934,9.78309917449951,2310051506
fw,-62.8171958923339,-83.6766586303711,31.3525352478027,-20.4452571868896,2310068173
fw,-63.7863464355468,-84.6631469726562,43.7468795776367,-58.155948638916,2310084840
fw,-64.1446685791015,-86.3714523315429,17.5024852752685,-97.7624435424804,2310101507
fw,-63.8710823059082,-88.8387069702148,-11.6258096694946,-141.462081909179,2310118174
fw,-63.640281677246,-87.8665924072265,-18.3812942504882,-182.275253295898,2310134841
fw,-63.8473320007324,-84.2906112670898,10.7923574447631,-202.537292480468,2310151508
fw,-64.614631652832,-80.2606811523437,48.2427520751953,-222.044052124023,2310168175
fw,-65.6167907714843,-76.1163024902343,51.3864135742187,-218.719741821289,2310184842
fw,-66.8370361328125,-72.3512573242187,64.0233383178711,-209.924133300781,2310201509
fw,-68.0897979736328,-68.8110046386718,64.3783950805664,-220.962265014648,2310218176
fw,-69.2809066772461,-65.258056640625,57.8218421936035,-231.279907226562,2310234843
fw,-70.5220718383789,-61.6441040039062,54.5467338562011,-234.950454711914,2310251510
fw,-71.900650024414,-57.591983795166,58.5884742736816,-266.348358154296,2310268177
fw,-73.2973251342773,-54.731086730957,59.6048469543457,-185.828094482421,2310284844
fw,-74.7344894409179,-52.3360939025878,64.4003295898437,-152.447692871093,2310301511
fw,-76.2975006103515,-50.083698272705,74.4531326293945,-144.203552246093,2310318178
fw,-77.9309539794921,-48.1441764831543,81.2505340576171,-123.973518371582,2310334845
fw,-79.50341796875,-46.7072677612304,80.0395202636718,-93.3591690063476,2310351512
fw,-80.9707870483398,-45.9416694641113,75.2087097167968,-53.5415954589843,2310368179
fw,-82.4247512817382,-45.875991821289,74.9877471923828,-13.0820245742797,2310384846
fw,-83.9337615966796,-46.4454765319824,79.2553253173828,23.9726772308349,2310401513
fw,-85.5113143920898,-47.2662811279296,86.1643295288086,40.2983436584472,2310418180
fw,-86.9462966918945,-48.4352989196777,83.5459823608398,65.3224487304687,2310434847
fw,-87.9713592529296,-50.0886878967285,75.9714889526367,97.420539855957,2310451514
fw,-88.2156753540039,-51.6097106933593,70.2640686035156,81.0407180786132,2310468181
fw,-87.6489028930664,-54.1860427856445,65.2101745605468,142.134338378906,2310484848
fw,-86.7932586669921,-56.1360282897949,52.4188270568847,105.550643920898,2310501515
fw,-85.9776611328125,-57.6000518798828,44.7766761779785,75.2226181030273,2310518182
fw,-85.2576522827148,-58.8675155639648,41.2759284973144,67.7615356445312,2310534849
fw,-84.6836395263671,-60.0926055908203,30.4260444641113,69.4968566894531,2310551516
fw,-84.3307800292968,-60.6678733825683,13.2845020294189,27.6650047302246,2310568183
fw,-84.0981140136718,-60.826488494873,8.89655780792236,2.24599957466125,2310584850
fw,-83.9850006103515,-60.664005279541,5.92997646331787,-22.1909122467041,2310601517
fw,-84.1922531127929,-61.8035278320312,-5.0043921470642,55.7439384460449,2310618184
fw,-84.8843460083007,-63.3377571105957,-25.3649978637695,88.0697021484375,2310634851
fw,-86.18212890625,-63.6170310974121,-56.5613555908203,14.6248130798339,2310651518
fw,-88.1030807495117,-63.3918685913085,-83.9838180541992,-15.6645183563232,2310668185
fw,-89.277473449707,-63.6251029968261,-116.502616882324,11.7029180526733,2310684852
fw,-86.469253540039,-64.1181182861328,-119.828048706054,27.7217292785644,2310701519
fw,-83.6748275756836,-64.625862121582,-112.379661560058,27.7942218780517,2310718186
fw,-80.8732147216796,-65.1415328979492,-111.137855529785,27.7025337219238,2310734853
fw,-78.1905441284179,-66.0211791992187,-124.922302246093,51.124885559082,2310751520
fw,-75.5367660522461,-67.205581665039,-142.541137695312,69.9613037109375,2310768187
fw,-72.6451721191406,-68.4763107299804,-168.631408691406,74.5629959106445,2310784854
fw,-69.6159286499023,-69.7704696655273,-173.695190429687,74.9231719970703,2310801521
fw,-66.9190216064453,-71.076919555664,-145.796295166015,74.6134567260742,2310818188
fw,-64.6381912231445,-72.5477600097656,-110.226280212402,84.3255004882812,2310834855
fw,-62.6020774841308,-74.0778503417968,-81.0550994873046,88.5673904418945,2310851522
fw,-60.669620513916,-75.5898056030273,-76.3716659545898,88.3645095825195,2310868189
fw,-58.9339256286621,-77.0755996704101,-83.1564025878906,87.5159301757812,2310884856
fw,-57.269416809082,-78.7351760864257,-102.287155151367,98.6804046630859,2310901523
fw,-55.7821769714355,-80.6054992675781,-104.585350036621,112.226791381835,2310918190
fw,-54.5849342346191,-82.7339096069336,-94.72998046875,129.298446655273,2310934857
fw,-53.9646415710449,-84.9440689086914,-56.6660346984863,140.12239074707,2310951524
fw,-53.9468688964843,-86.8124847412109,-17.3947391510009,138.649627685546,2310968191
fw,-54.6278915405273,-87.594497680664,24.5648670196533,132.395416259765,2310984858
fw,-55.6687049865722,-86.8211593627929,44.5095329284668,117.05362701416,2311001525
fw,-56.9046211242675,-85.7439346313476,44.9011535644531,83.3697280883789,2311018192
fw,-58.0610961914062,-84.8386688232421,20.8642349243164,58.3549842834472,2311034859
fw,-59.4385261535644,-83.9988708496093,37.8824348449707,50.2464790344238,2311051526
fw,-60.9482307434082,-83.1033477783203,53.5945625305175,52.1377029418945,2311068193
fw,-62.1865501403808,-82.2101364135742,34.405345916748,50.8001441955566,2311084860
fw,-62.9961814880371,-81.3879241943359,17.6152362823486,44.8453216552734,2311101527
fw,-63.3709678649902,-80.6749038696289,2.30680966377258,38.2594413757324,2311118194
fw,-63.6077346801757,-80.1585311889648,-3.78327417373657,27.6448383331298,2311134861
fw,-64.1315994262695,-80.0185394287109,7.26874732971191,5.49024009704589,2311151528
fw,-65.1369094848632,-80.37451171875,42.5998649597168,-23.1975574493408,2311168195
fw,-65.6317901611328,-81.2483291625976,24.5059509277343,-52.987621307373,2311184862
fw,-65.3748092651367,-82.7715377807617,-17.5429592132568,-87.2416458129882,2311201529
fw,-65.1995697021484,-84.8966217041015,-13.2757005691528,-120.292541503906,2311218196
fw,-65.3943252563476,-88.0146560668945,9.15575695037841,-183.583465576171,2311234863
fw,-65.6254348754882,-87.7246322631836,13.9813413619995,-240.375076293945,2311251530
fw,-66.4298095703125,-83.3038253784179,36.3992691040039,-261.46533203125,2311268197
fw,-67.6299133300781,-79.0397491455078,52.7252349853515,-247.656356811523,2311284864
fw,-68.9844436645507,-75.2110366821289,66.9354705810546,-218.552764892578,2311301531
fw,-70.3467407226562,-71.4842910766601,68.4524383544921,-218.988494873046,2311318198
fw,-71.7082977294921,-67.8788681030273,65.4808959960937,-218.213989257812,2311334865
fw,-73.0761108398437,-64.7334289550781,61.4687461853027,-197.155929565429,2311351532
fw,-74.429702758789,-61.8121795654296,56.8168792724609,-183.459350585937,2311368199
fw,-75.7501831054687,-58.9478187561035,53.7590789794921,-171.022735595703,2311384866
fw,-77.1205139160156,-56.6607322692871,58.7382011413574,-126.608100891113,2311401533
fw,-78.6272277832031,-54.773582458496,69.3477478027343,-107.172157287597,2311418200
fw,-80.2412948608398,-52.6841430664062,77.6559143066406,-126.924583435058,2311434867
fw,-81.9165115356445,-50.5164566040039,82.499885559082,-136.110717773437,2311451534
fw,-83.6377029418945,-48.5593719482421,86.8638229370117,-125.02000427246,2311468201
fw,-85.3514785766601,-47.1277351379394,89.8095474243164,-95.389907836914,2311484868
fw,-86.9834518432617,-46.5801696777343,91.1393051147461,-43.0830154418945,2311501535
fw,-88.2970504760742,-46.7197303771972,86.7341766357421,-0.881389200687408,2311518202
fw,-88.5936126708984,-47.7461509704589,76.2350311279296,56.4810638427734,2311534869
fw,-87.8641204833984,-49.7486457824707,62.1165351867675,118.477172851562,2311551536
fw,-86.9286499023437,-51.6819915771484,54.1506233215332,110.032073974609,2311568203
fw,-85.9462890625,-54.3417320251464,51.580638885498,150.586273193359,2311584870
fw,-84.9640197753906,-56.3701972961425,48.7633743286132,108.544128417968,2311601537
fw,-84.0566711425781,-57.7138633728027,43.8085746765136,67.8820343017578,2311618204
fw,-83.2518005371093,-59.1972312927246,41.8619766235351,81.7092132568359,2311634871
fw,-82.5569305419921,-59.9740257263183,37.6469001770019,38.6015090942382,2311651538
fw,-82.1771774291992,-60.1860961914062,20.2291946411132,1.49914813041687,2311668205
fw,-82.2003402709961,-59.8463706970214,1.19492983818054,-27.3669281005859,2311684872
fw,-82.5957870483398,-59.573875427246,-15.2966632843017,-22.4934616088867,2311701539
fw,-83.4470748901367,-60.812644958496,-35.5263595581054,64.863052368164,2311718206
fw,-84.933837890625,-61.7868423461914,-70.1169967651367,57.4576759338378,2311734873
fw,-87.0071640014648,-61.2687377929687,-96.2981338500976,-31.6835918426513,2311751540
fw,-89.4039001464843,-60.9123458862304,-120.306884765625,-21.0226535797119,2311768207
fw,-87.152359008789,-60.8150215148925,-126.337654113769,-5.83826208114624,2311784874
fw,-84.2824172973632,-60.9972496032714,-113.284614562988,8.71533107757568,2311801541
fw,-81.3707656860351,-61.4814987182617,-125.469772338867,26.2776069641113,2311818208
fw,-78.4814987182617,-62.2769126892089,-155.185302734375,47.0108642578125,2311834875
fw,-75.4294052124023,-63.4942321777343,-185.076263427734,73.6449890136718,2311851542
fw,-72.0870361328125,-64.936279296875,-204.328247070312,85.0193634033203,2311868209
fw,-68.4412765502929,-66.4571380615234,-218.339096069335,87.9360809326171,2311884876
fw,-65.2705688476562,-67.9416427612304,-183.597183227539,84.3286514282226,2311901543
fw,-62.652587890625,-69.5433883666992,-141.940521240234,90.5402374267578,2311918210
fw,-60.5721588134765,-71.3115158081054,-98.9706649780273,100.232048034667,2311934877
fw,-58.9182357788085,-73.1608657836914,-74.7416458129882,106.1480178833,2311951544
fw,-57.2908020019531,-75.0245361328125,-86.6064834594726,108.171676635742,2311968211
fw,-55.7349777221679,-76.9575805664062,-90.1750183105468,113.31948852539,2311984878
fw,-54.2688789367675,-78.9531707763671,-96.2420120239257,117.948341369628,2312001545
fw,-53.1959114074707,-81.05908203125,-81.3372116088867,125.660575866699,2312018212
fw,-52.7407264709472,-83.2040176391601,-43.7474555969238,129.523254394531,2312034879
fw,-53.0370025634765,-85.3719635009765,3.52178931236267,135.065383911132,2312051546
fw,-54.0023040771484,-87.2499237060546,44.1219291687011,132.641815185546,2312068213
fw,-55.0582962036132,-88.0588226318359,41.1269416809082,125.147537231445,2312084880
fw,-56.4697151184082,-87.2080993652343,59.3909492492675,110.686233520507,2312101547
fw,-57.6087532043457,-85.9830245971679,40.9580535888671,88.2421875,2312118214
fw,-58.5848960876464,-84.9818725585937,40.6407775878906,63.4325904846191,2312134881
fw,-59.2354087829589,-84.1615142822265,23.4479675292968,49.8551025390625,2312151548
fw,-59.946174621582,-83.403823852539,28.2126235961914,45.3431053161621,2312168215
fw,-60.6743202209472,-82.6074752807617,34.3891067504882,46.105110168457,2312184882
fw,-61.1838188171386,-81.8511962890625,23.5165004730224,42.1128807067871,2312201549
fw,-61.546215057373,-81.4501266479492,7.91792011260986,19.3214397430419,2312218216
fw,-62.1604461669921,-81.5389862060546,15.5857915878295,-11.0572834014892,2312234883
fw,-63.2442054748535,-82.1680450439453,38.5601081848144,-41.3107833862304,2312251550
fw,-63.934886932373,-83.3331451416015,14.87726688385,-69.0053024291992,2312268217
fw,-63.9444427490234,-85.0412521362304,-17.3432655334472,-94.8403244018554,2312284884
fw,-64.0888595581054,-87.3147506713867,3.49264430999755,-127.641822814941,2312301551
fw,-64.3216247558593,-89.3492813110351,7.60065698623657,-187.746063232421,2312318218
fw,-64.930419921875,-85.4656906127929,39.4174652099609,-230.886810302734,2312334885
fw,-66.146369934082,-81.2203216552734,61.6056213378906,-247.611373901367,2312351552
fw,-67.4623947143554,-77.1651306152343,55.328800201416,-227.53660583496,2312368219
fw,-68.79296875,-73.5110931396484,64.7825851440429,-193.662780761718,2312384886
fw,-70.187026977539,-70.1423950195312,71.8286895751953,-185.355209350585,2312401553
fw,-71.5091857910156,-67.1910247802734,61.0337371826171,-176.067672729492,2312418220
fw,-72.7421798706054,-64.152473449707,48.458698272705,-193.360275268554,2312434887
fw,-74.014663696289,-60.9290924072265,50.731029510498,-207.661544799804,2312451554
fw,-75.3572769165039,-57.4156379699707,57.7988662719726,-225.843887329101,2312468221
fw,-76.7241744995117,-54.868179321289,62.0076065063476,-160.352325439453,2312484888
fw,-78.1721954345703,-52.7230834960937,67.6774749755859,-137.181884765625,2312501555
fw,-79.7125244140625,-50.5771217346191,73.5103454589843,-138.672637939453,2312518222
fw,-81.2365112304687,-48.6206665039062,73.8043899536132,-127.018829345703,2312534889
fw,-82.7266769409179,-46.978717803955,74.7481307983398,-107.031776428222,2312551556
fw,-84.3144607543945,-45.9377822875976,85.7783737182617,-71.31640625,2312568223
fw,-85.9830703735351,-45.9048423767089,98.9111709594726,-11.4891481399536,2312584890
fw,-87.2975997924804,-46.8069992065429,91.6860961914062,45.0787391662597,2312601557
fw,-87.8151092529296,-48.5114784240722,74.8149948120117,96.7245330810546,2312618224
fw,-87.5251159667968,-50.7415390014648,65.7191619873046,130.759521484375,2312634891
fw,-86.7779083251953,-52.8836059570312,62.7723960876464,120.090301513671,2312651558
fw,-85.8438110351562,-54.9487991333007,61.8410110473632,108.022300720214,2312668225
fw,-84.9251098632812,-56.2705383300781,50.7728462219238,57.5098037719726,2312684892
fw,-84.0731201171875,-57.3910903930664,43.3579368591308,50.5033454895019,2312701559
fw,-83.3002243041992,-58.7280235290527,38.66552734375,72.2753753662109,2312718226
fw,-82.6198806762695,-59.6804466247558,31.7005138397216,51.4556541442871,2312734893
fw,-82.1717071533203,-59.9312362670898,18.8143634796142,7.4327802658081,2312751560
fw,-81.9538497924804,-59.6077308654785,11.9004859924316,-27.1422977447509,2312768227
fw,-81.9900436401367,-59.3460884094238,2.45981311798095,-25.9335956573486,2312784894
fw,-82.4690246582031,-60.5251083374023,-18.5530109405517,58.7726097106933,2312801561
fw,-83.525161743164,-61.5702896118164,-49.9667358398437,60.2815017700195,2312818228
fw,-85.2247619628906,-61.0985984802246,-82.2903137207031,-29.3313865661621,2312834895
fw,-87.5989837646484,-60.3873634338378,-107.675941467285,-45.363353729248,2312851562
fw,-89.5364837646484,-60.2497062683105,-120.415855407714,-10.8807430267333,2312868229
fw,-86.728645324707,-60.6321983337402,-118.023864746093,20.341812133789,2312884896
fw,-83.7203674316406,-61.1821594238281,-121.234260559082,28.13205909729,2312901563
fw,-80.7562942504882,-61.9306297302246,-123.118782043457,40.80224609375,2312918230
fw,-77.9484176635742,-63.1166801452636,-139.833419799804,69.0728607177734,2312934897
fw,-75.1280212402343,-64.5604476928711,-156.637756347656,84.7461242675781,2312951564
fw,-72.0151214599609,-66.0587158203125,-180.002609252929,86.9749221801757,2312968231
fw,-68.9215469360351,-67.5117950439453,-174.320327758789,82.871955871582,2312984898
fw,-66.1737365722656,-69.0888366699218,-149.518585205078,88.4901733398437,2313001565
fw,-63.7977104187011,-70.8042678833007,-118.891563415527,95.7090911865234,2313018232
fw,-61.6019477844238,-72.5748062133789,-101.771118164062,99.5685348510742,2313034899
fw,-59.5398712158203,-74.4130325317382,-100.189086914062,105.454368591308,2313051566
fw,-57.6998252868652,-76.3274307250976,-100.714263916015,111.161743164062,2313068233
fw,-56.2198219299316,-78.4182662963867,-85.3612518310546,123.068016052246,2313084900
fw,-54.9184799194335,-80.717056274414,-87.0122909545898,136.783798217773,2313101567
fw,-54.0060157775878,-83.1064758300781,-71.7316360473632,143.945007324218,2313118234
fw,-53.713768005371,-85.3965759277343,-31.4426879882812,141.439590454101,2313134901
fw,-54.0378913879394,-87.2482147216796,3.78220534324646,127.02530670166,2313151568
fw,-54.9209556579589,-88.1838302612304,37.1646842956543,116.459968566894,2313168235
fw,-56.03511428833,-87.5248870849609,47.7759552001953,105.22159576416,2313184902
fw,-56.9732933044433,-86.4002227783203,21.4726161956787,80.9371261596679,2313201569
fw,-57.9910583496093,-85.377212524414,29.1331367492675,63.7616539001464,2313218236
fw,-59.0716896057128,-84.3646621704101,37.0967712402343,60.3414840698242,2313234903
fw,-60.2310523986816,-83.2510528564453,45.3679542541503,66.755989074707,2313251570
fw,-61.2658767700195,-82.1350784301757,40.1328010559082,65.9503402709961,2313268237
fw,-61.9669342041015,-81.1922378540039,26.3790073394775,53.277000427246,2313284904
fw,-62.4060325622558,-80.5402221679687,12.6610269546508,35.1179580688476,2313301571
fw,-62.7268753051757,-80.3398666381836,-2.14346146583557,6.78373289108276,2313318238
fw,-63.52632522583,-80.5547943115234,21.2136669158935,-18.3411502838134,2313334905
fw,-64.5721893310546,-81.2428359985351,44.4817924499511,-43.9872322082519,2313351572
fw,-65.072280883789,-82.4803390502929,16.9405288696289,-72.8534774780273,2313368239
fw,-65.0456924438476,-84.2754974365234,-7.16000843048095,-100.023643493652,2313384906
fw,-65.0650405883789,-86.7501983642578,-8.47689247131347,-139.670196533203,2313401573
fw,-65.3262252807617,-89.7360687255859,8.3776741027832,-194.266769409179,2313418240
fw,-65.9430084228515,-85.8495178222656,34.5074119567871,-234.89094543457,2313434907
fw,-66.9601364135742,-81.6380157470703,46.2210540771484,-244.390594482421,2313451574
fw,-68.1482849121093,-77.639289855957,58.8784103393554,-225.61929321289,2313468241
fw,-69.4472732543945,-74.1901473999023,68.7163391113281,-194.932037353515,2313484908
fw,-70.745361328125,-70.6671905517578,66.7825546264648,-210.532608032226,2313501575
fw,-72.019302368164,-67.2861633300781,59.8042907714843,-210.918045043945,2313518242
fw,-73.3600006103515,-63.9677619934082,59.8036346435546,-212.334350585937,2313534909
fw,-74.6720428466796,-60.7196464538574,54.999168395996,-205.370834350585,2313551576
fw,-76.0621490478515,-57.9088592529296,61.7551231384277,-172.864837646484,2313568243
fw,-77.5452117919921,-56.150894165039,70.4248809814453,-104.179466247558,2313584910
fw,-79.0986557006836,-54.1510772705078,74.3611068725586,-122.882591247558,2313601577
fw,-80.695930480957,-52.2830772399902,76.7116012573242,-117.384452819824,2313618244
fw,-82.3312835693359,-50.3824920654296,79.9808502197265,-122.101287841796,2313634911
fw,-83.9807357788086,-48.9761085510253,82.956298828125,-92.4180068969726,2313651578
fw,-85.6757354736328,-48.1517601013183,88.8168563842773,-58.3462295532226,2313668245
fw,-87.3318557739257,-48.0872116088867,90.5130615234375,-12.5460529327392,2313684912
fw,-88.6230010986328,-48.5564765930175,82.4249114990234,21.1924724578857,2313701579
fw,-88.7354583740234,-49.7855758666992,71.7206649780273,69.5323333740234,2313718246
fw,-87.8476028442382,-51.6138153076171,66.7792205810546,107.107124328613,2313734913
fw,-86.8328170776367,-53.2988052368164,60.3321800231933,91.8711624145507,2313751580
fw,-85.7973709106445,-55.5515747070312,57.287498474121,122.314933776855,2313768247
fw,-84.7914276123046,-57.4284286499023,52.3515548706054,96.6932601928711,2313784914
fw,-83.8808670043945,-58.8174591064453,47.5317192077636,70.9650115966796,2313801581
fw,-83.0802383422851,-60.0326042175293,42.7757911682128,69.1083908081054,2313818248
fw,-82.4979248046875,-60.7425003051757,28.2662277221679,39.0118522644043,2313834915
fw,-82.3095397949218,-60.9572792053222,4.56317949295043,7.0783462524414,2313851582
fw,-82.4307861328125,-60.5723991394043,-8.12825679779052,-31.1287269592285,2313868249
fw,-82.8717346191406,-60.5548248291015,-20.1251544952392,-12.0649995803833,2313884916
fw,-83.7790908813476,-61.3681640625,-39.89697265625,41.4324951171875,2313901583
fw,-85.243049621582,-61.549934387207,-68.6023712158203,10.4938592910766,2313918250
fw,-87.3335418701171,-60.8141899108886,-103.933868408203,-46.0368537902832,2313934917
fw,-89.5850448608398,-60.4268531799316,-141.470596313476,-23.4057521820068,2313951584
fw,-86.6394882202148,-60.6475372314453,-140.539901733398,12.9383821487426,2313968251
fw,-83.6616668701171,-61.4143028259277,-125.736900329589,44.3865737915039,2313984918
fw,-80.7050476074218,-62.3041534423828,-123.484153747558,51.8180694580078,2314001585
fw,-77.9633178710937,-63.5137710571289,-128.236114501953,71.2793426513671,2314018252
fw,-75.2274551391601,-65.0284805297851,-154.358947753906,89.0589752197265,2314034919
fw,-72.1041564941406,-66.6533889770507,-189.308944702148,94.9166412353515,2314051586
fw,-69.034065246582,-68.3134460449218,-181.297714233398,95.9999313354492,2314068253
fw,-66.2981262207031,-70.0011825561523,-154.783218383789,96.8156433105468,2314084920
fw,-63.8492164611816,-71.8625259399414,-130.285385131835,106.903778076171,2314101587
fw,-61.6059226989746,-73.724868774414,-113.964889526367,107.357192993164,2314118254
fw,-59.6695938110351,-75.575454711914,-100.926658630371,108.163688659667,2314134921
fw,-57.9572105407714,-77.5154800415039,-96.4986572265625,115.023635864257,2314151588
fw,-56.4955444335937,-79.4647903442382,-87.2433242797851,116.867759704589,2314168255
fw,-55.3088798522949,-81.511734008789,-77.1246337890625,124.825477600097,2314184922
fw,-54.4250984191894,-83.5801544189453,-68.3266525268554,129.596755981445,2314201589
fw,-53.9855613708496,-85.5263061523437,-46.3613128662109,129.350997924804,2314218256
fw,-54.2591209411621,-87.0120773315429,0.573800206184387,120.135368347167,2314234923
fw,-55.0931587219238,-87.5457687377929,32.6824302673339,111.035362243652,2314251590
fw,-56.1296119689941,-86.8684997558593,40.3626327514648,100.932640075683,2314268257
fw,-57.2583847045898,-85.7640533447265,32.885154724121,86.1396560668945,2314284924
fw,-58.4087944030761,-84.6023254394531,25.5706348419189,76.7836303710937,2314301591
fw,-59.8317947387695,-83.4965133666992,50.8432579040527,69.1168365478515,2314318258
fw,-61.0344467163085,-82.5423583984375,39.1546745300293,58.5548095703125,2314334925
fw,-61.9713516235351,-81.6938095092773,28.7026481628417,51.0335044860839,2314351592
fw,-62.609634399414,-80.8692932128906,18.7790069580078,48.3197784423828,2314368259
fw,-62.9992218017578,-80.1307601928711,10.1522130966186,42.3276786804199,2314384926
fw,-63.3911628723144,-79.6462860107421,7.48460006713867,26.2095108032226,2314401593
fw,-64.1339492797851,-79.6077423095703,24.3453254699707,-0.796952843666076,2314418260
fw,-65.0247039794921,-80.1827392578125,43.6828918457031,-37.2897033691406,2314434927
fw,-65.3393630981445,-81.4261398315429,15.6393318176269,-75.1974182128906,2314451594
fw,-65.1894226074218,-83.2389450073242,-10.3312683105468,-105.391960144042,2314468261
fw,-65.1581649780273,-85.7306060791015,-9.61511039733886,-147.724624633789,2314484928
fw,-65.2992935180664,-88.6898498535156,7.15225934982299,-206.980194091796,2314501595
fw,-65.9172668457031,-86.3749618530273,30.8962116241455,-237.551498413085,2314518262
fw,-66.9149551391601,-82.3622131347656,41.3338584899902,-239.710128784179,2314534929
fw,-68.0882797241211,-78.4117050170898,56.6837425231933,-226.573104858398,2314551596
fw,-69.4489669799804,-74.8396072387695,68.6934585571289,-204.657135009765,2314568263
fw,-70.868049621582,-71.1915817260742,68.354263305664,-217.426864624023,2314584930
fw,-72.2733840942382,-67.8166046142578,64.0240783691406,-206.355178833007,2314601597
fw,-73.7198638916015,-64.5882263183593,65.0447387695312,-202.606079101562,2314618264
fw,-75.2380905151367,-61.6326103210449,67.9443283081054,-184.123153686523,2314634931
fw,-76.7877655029296,-58.7074928283691,70.3355026245117,-174.214599609375,2314651598
fw,-78.3267517089843,-56.7789916992187,70.2794876098632,-109.130683898925,2314668265
fw,-79.8456115722656,-54.6533966064453,69.0282821655273,-126.748954772949,2314684932
fw,-81.377212524414,-52.5772132873535,71.553955078125,-127.691658020019,2314701599
fw,-82.9085693359375,-50.5051155090332,74.9942169189453,-129.945022583007,2314718266
fw,-84.4247970581054,-48.8900108337402,77.3988571166992,-101.924179077148,2314734933
fw,-85.9920043945312,-47.9744834899902,83.5254669189453,-60.0958786010742,2314751600
fw,-87.553840637207,-47.682315826416,86.5443267822265,-23.4383735656738,2314768267
fw,-88.8932342529296,-48.1008949279785,83.8073272705078,19.5767173767089,2314784934
fw,-88.9253463745117,-49.1538887023925,70.7642364501953,58.5565299987793,2314801601
fw,-87.9664535522461,-50.8987731933593,58.1316108703613,102.997367858886,2314818268
fw,-86.9276962280273,-53.0278396606445,53.6918106079101,124.112243652343,2314834935
fw,-85.7950439453125,-55.6994361877441,57.5916442871093,152.866775512695,2314851602
fw,-84.6811294555664,-57.6370086669921,55.2056007385253,106.865913391113,2314868269
fw,-83.7265548706054,-58.5337333679199,48.3889999389648,43.6314888000488,2314884936
fw,-82.9984893798828,-59.5403709411621,38.4020309448242,55.6141548156738,2314901603
fw,-82.6120147705078,-60.2824592590332,19.6066226959228,39.2443313598632,2314918270
fw,-82.6167449951171,-60.4562950134277,0.223618820309638,3.9551351070404,2314934937
fw,-82.8593826293945,-60.084976196289,-9.86708450317382,-30.6089706420898,2314951604
fw,-83.4645690917968,-60.1804962158203,-26.4536018371582,-4.96940279006958,2314968271
fw,-84.4241333007812,-61.2173881530761,-37.7035102844238,54.1173973083496,2314984938
fw,-85.9668273925781,-61.7709350585937,-70.0824127197265,32.8599853515625,2315001605
fw,-87.9729995727539,-61.2428703308105,-105.171562194824,-34.465274810791,2315018272
fw,-88.0147628784179,-61.0807762145996,-134.451431274414,-11.9349937438964,2315034939
fw,-85.2444915771484,-61.2105369567871,-140.349487304687,5.61622095108032,2315051606
fw,-82.2872619628906,-61.7573890686035,-139.755783081054,29.5234413146972,2315068273
fw,-79.2499923706054,-62.3468475341796,-151.352096557617,32.6602478027343,2315084940
fw,-76.4292602539062,-63.3215179443359,-155.754196166992,56.9260330200195,2315101607
fw,-73.5762023925781,-64.5676879882812,-170.125930786132,73.1930313110351,2315118274
fw,-70.3793869018554,-66.0147933959961,-195.542190551757,84.2808532714843,2315134941
fw,-67.3577575683593,-67.5477600097656,-178.605560302734,88.1596908569336,2315151608
fw,-64.6445007324218,-69.076057434082,-155.458679199218,86.6163787841796,2315168275
fw,-62.3820838928222,-70.7425537109375,-118.35823059082,94.1344680786132,2315184942
fw,-60.4956817626953,-72.5143737792968,-90.6572647094726,100.131622314453,2315201609
fw,-58.8756523132324,-74.3331298828125,-80.3978500366211,103.693229675292,2315218276
fw,-57.2793807983398,-76.1690902709961,-89.5853195190429,106.359306335449,2315234943
fw,-55.8980712890625,-78.0863265991211,-80.8435440063476,112.008430480957,2315251610
fw,-54.7353324890136,-80.0466156005859,-76.9020385742187,115.272964477539,2315268277
fw,-53.932819366455,-82.0610656738281,-62.9038696289062,119.962356567382,2315284944
fw,-53.7347946166992,-84.1232986450195,-26.4478321075439,124.998512268066,2315301611
fw,-54.1818923950195,-86.1881332397461,7.35628366470336,129.477264404296,2315318278
fw,-55.2000465393066,-88.064468383789,44.5745468139648,134.684280395507,2315334945
fw,-56.6951141357421,-88.3231048583984,68.5387802124023,121.671867370605,2315351612
fw,-57.8488807678222,-87.0854339599609,33.9962577819824,99.9643096923828,2315368279
fw,-58.844970703125,-85.7501983642578,32.2655715942382,84.4265975952148,2315384946
fw,-59.8552017211914,-84.5321273803711,39.7021217346191,72.4365234375,2315401613
fw,-60.7361106872558,-83.3999938964843,26.571231842041,67.5456466674804,2315418280
fw,-61.529296875,-82.3059921264648,23.2553882598876,65.6507186889648,2315434947
fw,-62.0973968505859,-81.2129821777343,14.9790811538696,64.7890243530273,2315451614
fw,-62.5618133544921,-80.4814300537109,10.1629304885864,40.8564796447753,2315468281
fw,-62.9828338623046,-80.2706146240234,2.36974620819091,6.85204219818115,2315484948
fw,-63.7084808349609,-80.3684692382812,24.339879989624,-11.5185298919677,2315501615
fw,-64.6257095336914,-80.7223968505859,38.143684387207,-24.4877948760986,2315518282
fw,-64.8887710571289,-81.5751113891601,2.84121775627136,-51.7387886047363,2315534949
fw,-64.6907119750976,-83.0429229736328,-21.1390113830566,-84.4920425415039,2315551616
fw,-64.7957458496093,-85.2493515014648,0.548809885978698,-126.750350952148,2315568283
fw,-65.1234970092773,-88.6449127197265,21.1855449676513,-198.74250793457,2315584950
fw,-65.7684020996093,-87.1502304077148,37.4774780273437,-246.241714477539,2315601617
fw,-66.7610549926757,-82.9112243652343,44.6331062316894,-248.186050415039,2315618284
fw,-67.9127426147461,-78.8109359741211,51.328514099121,-235.191970825195,2315634951
fw,-69.1647872924804,-75.2889175415039,57.9182624816894,-197.834091186523,2315651618
fw,-70.5087509155273,-72.0254135131836,60.6056060791015,-191.374221801757,2315668285
fw,-71.9529647827148,-68.6659240722656,63.5389366149902,-205.872497558593,2315684952
fw,-73.4917373657226,-65.5230941772461,68.7484512329101,-200.519134521484,2315701619
fw,-75.0870132446289,-62.5889511108398,71.6298522949218,-187.489151000976,2315718286
fw,-76.6689376831054,-59.6279487609863,70.0808334350586,-182.056686401367,2315734953
fw,-78.2538986206054,-57.2292251586914,68.4518508911132,-139.852111816406,2315751620
fw,-79.8289413452148,-55.1815795898437,69.7896270751953,-120.061309814453,2315768287
fw,-81.3717498779296,-53.1588973999023,72.7270202636718,-124.101959228515,2315784954
fw,-82.8602905273437,-51.2893676757812,72.7810134887695,-120.770027160644,2315801621
fw,-84.3068389892578,-49.9522018432617,74.0094985961914,-90.8427963256836,2315818288
fw,-85.7322158813476,-48.9182815551757,77.0111541748046,-72.2215576171875,2315834955
fw,-87.0420989990234,-48.4061737060546,75.717903137207,-38.1805076599121,2315851622
fw,-88.0795974731445,-48.4261016845703,70.9349136352539,-4.32930755615234,2315868289
fw,-88.4537658691406,-48.9535102844238,62.7220153808593,28.2818489074707,2315884956
fw,-88.0217666625976,-49.9091796875,55.4705924987793,54.7227745056152,2315901623
fw,-87.2175140380859,-51.4231872558593,54.9856719970703,86.0115051269531,2315918290
fw,-86.2742233276367,-53.3942108154296,53.6614875793457,109.280578613281,2315934957
fw,-85.2328491210937,-55.9588775634765,51.7012786865234,142.350982666015,2315951624
fw,-84.1602783203125,-58.0953140258789,49.8200645446777,112.638473510742,2315968291
fw,-83.1065292358398,-59.805248260498,53.971996307373,91.3261108398437,2315984958
fw,-82.1619873046875,-60.9478683471679,51.3717536926269,62.9275436401367,2316001625
fw,-81.6239624023437,-61.4751472473144,25.5177860260009,24.6807289123535,2316018292
fw,-81.5834579467773,-61.5820388793945,0.204523921012878,-0.27138477563858,2316034959
fw,-81.902099609375,-61.264045715332,-12.7273693084716,-27.7876625061035,2316051626
fw,-82.674934387207,-61.7576484680175,-32.6029014587402,19.1384201049804,2316068293
fw,-84.0165634155273,-62.7723541259765,-60.0481910705566,54.2651443481445,2316084960
fw,-86.0633926391601,-62.9019775390625,-101.259628295898,6.28564834594726,2316101627
fw,-88.6922454833984,-62.2414588928222,-128.173309326171,-42.1732025146484,2316118294
fw,-88.1969146728515,-61.9963912963867,-138.709518432617,-16.0385456085205,2316134961
fw,-85.0859832763671,-62.1423721313476,-122.644309997558,6.5394320487976,2316151628
fw,-82.0396957397461,-62.4906921386718,-117.28823852539,18.4041404724121,2316168295
fw,-79.0601730346679,-63.0676574707031,-130.236907958984,32.8253784179687,2316184962
fw,-76.2398529052734,-64.1262435913086,-153.08103942871,62.4486923217773,2316201629
fw,-73.0712203979492,-65.435073852539,-192.467727661132,76.8089523315429,2316218296
fw,-69.5949630737304,-66.8627471923828,-209.59944152832,82.6542739868164,2316234963
fw,-66.4377746582031,-68.2973403930664,-183.327316284179,82.3745498657226,2316251630
fw,-63.6756744384765,-69.8666915893554,-148.983078002929,89.598159790039,2316268297
fw,-61.254898071289,-71.6199417114257,-117.36254119873,99.7735137939453,2316284964
fw,-59.289451599121,-73.4280319213867,-92.6878433227539,103.9468460083,2316301631
fw,-57.7096710205078,-75.2952804565429,-80.2631530761718,108.333786010742,2316318298
fw,-56.3497695922851,-77.1693801879882,-73.8412399291992,109.427589416503,2316334965
fw,-55.1470146179199,-79.0559616088867,-69.7739944458007,111.009727478027,2316351632
fw,-54.1992835998535,-81.0605087280273,-63.3196868896484,119.13623046875,2316368299
fw,-53.7305068969726,-83.1129150390625,-42.1793327331543,123.651466369628,2316384966
fw,-53.8838462829589,-85.1833801269531,-10.3428907394409,128.505157470703,2316401633
fw,-54.703254699707,-87.0749053955078,37.6947975158691,129.409881591796,2316418300
fw,-55.8058242797851,-88.089614868164,46.7857131958007,120.679374694824,2316434967
fw,-57.1016769409179,-87.4973602294921,51.1371955871582,108.385101318359,2316451634
fw,-57.9553451538085,-86.277114868164,18.4074440002441,93.121337890625,2316468301
fw,-58.784439086914,-85.0693893432617,27.8075313568115,78.091438293457,2316484968
fw,-59.5693244934082,-84.1353225708007,27.7738590240478,56.4046936035156,2316501635
fw,-60.3969650268554,-83.3748703002929,30.5451431274414,44.1969947814941,2316518302
fw,-60.862190246582,-82.6803512573242,8.84570503234863,39.4784202575683,2316534969
fw,-61.2596740722656,-82.0804214477539,12.9037389755249,33.0335159301757,2316551636
fw,-61.5737533569335,-81.8946304321289,6.10107994079589,5.62406349182128,2316568303
fw,-62.082649230957,-82.2223663330078,10.5809230804443,-27.2576828002929,2316584970
fw,-63.2031822204589,-82.8772888183593,49.3176193237304,-43.7901344299316,2316601637
fw,-64.057632446289,-83.8483657836914,43.5766639709472,-58.2839088439941,2316618304
fw,-64.1445999145507,-85.3522796630859,0.64132273197174,-84.6080093383789,2316634971
fw,-63.9412612915039,-87.5237731933593,-16.6699523925781,-122.111068725585,2316651638
fw,-63.913761138916,-89.2477493286132,0.0132866343483328,-167.699462890625,2316668305
fw,-64.2831726074218,-85.8058624267578,26.2972984313964,-209.065444946289,2316684972
fw,-65.0616607666015,-81.8563766479492,34.4408111572265,-229.357070922851,2316701639
fw,-66.1551895141601,-77.9045944213867,46.5368270874023,-223.564895629882,2316718306
fw,-67.4029464721679,-74.1416244506836,55.3504295349121,-213.02586364746,2316734973
fw,-68.6604919433593,-70.2563858032226,55.4929275512695,-230.280654907226,2316751640
fw,-69.9095001220703,-66.5674743652343,50.5076789855957,-228.914459228515,2316768307
fw,-71.2298278808593,-62.8486289978027,51.1947746276855,-238.074905395507,2316784974
fw,-72.6252136230468,-59.4712371826171,56.4099884033203,-214.983749389648,2316801641
fw,-74.0546951293945,-56.7495994567871,60.0559844970703,-163.732589721679,2316818308
fw,-75.5771026611328,-54.4810714721679,68.3076400756836,-134.165863037109,2316834975
fw,-77.1175308227539,-52.2452545166015,69.033950805664,-134.732437133789,2316851642
fw,-78.694709777832,-50.1465263366699,71.2411346435546,-129.966995239257,2316868309
fw,-80.3849563598632,-48.3323860168457,81.0128479003906,-114.888755798339,2316884976
fw,-82.1033020019531,-47.1117820739746,85.0757064819336,-77.3237609863281,2316901643
fw,-83.7813873291015,-46.4145278930664,83.242691040039,-44.8616065979003,2316918310
fw,-85.3734436035156,-46.2573089599609,81.30126953125,-13.6252288818359,2316934977
fw,-86.8740692138671,-46.8140411376953,82.6608200073242,29.5295886993408,2316951644
fw,-88.1315612792968,-48.1765022277832,81.1432342529296,80.4751358032226,2316968311
fw,-88.5652313232421,-49.8077545166015,76.9013671875,96.4758987426757,2316984978
fw,-87.8201293945312,-51.746768951416,73.3090896606445,112.190162658691,2317001645
fw,-86.6513977050781,-54.3710556030273,68.2945404052734,151.439971923828,2317018312
fw,-85.4289855957031,-56.4241065979003,61.4294929504394,112.986808776855,2317034979
fw,-84.3219375610351,-57.4638023376464,53.1450080871582,49.6263389587402,2317051646
fw,-83.3460998535156,-58.5074272155761,48.3961067199707,54.8379249572753,2317068313
fw,-82.5853500366211,-59.4196395874023,34.7441329956054,51.5169715881347,2317084980
fw,-82.1372299194336,-59.9329376220703,16.7835903167724,23.6798248291015,2317101647
fw,-81.9685745239257,-60.0367889404296,9.97458171844482,-2.19193911552429,2317118314
fw,-82.1565475463867,-60.3383026123046,-0.963090300559997,11.0227689743042,2317134981
fw,-82.8417663574218,-61.5765342712402,-23.4309997558593,69.9970092773437,2317151648
fw,-84.1133728027343,-62.2694129943847,-53.609016418457,42.7379302978515,2317168315
fw,-86.0108566284179,-61.8667335510253,-86.8985214233398,-26.6146564483642,2317184982
fw,-88.5775604248046,-61.7338714599609,-124.097747802734,-10.2718677520751,2317201649
fw,-87.9703979492187,-61.7264137268066,-134.895233154296,-4.04561614990234,2317218316
fw,-84.9895706176757,-62.030216217041,-129.44287109375,14.7640666961669,2317234983
fw,-81.911506652832,-62.5802421569824,-139.181396484375,29.9880962371826,2317251650
fw,-78.9805374145507,-63.4403419494628,-141.438446044921,49.2025871276855,2317268317
fw,-76.2380981445312,-64.6777267456054,-149.288116455078,72.4057006835937,2317284984
fw,-73.2726440429687,-66.0902328491211,-174.721710205078,82.4939270019531,2317301651
fw,-70.2225112915039,-67.5436172485351,-177.575332641601,83.3868331909179,2317318318
fw,-67.4458999633789,-68.9608840942382,-155.873001098632,79.7526245117187,2317334985
fw,-64.9896087646484,-70.5127182006836,-125.057228088378,86.961196899414,2317351652
fw,-62.8196067810058,-72.148567199707,-98.5930633544921,92.384536743164,2317368319
fw,-60.7390480041503,-73.8946304321289,-98.0745162963867,100.236373901367,2317384986
fw,-58.8803482055664,-75.7127075195312,-98.5032577514648,105.878425598144,2317401653
fw,-57.2224502563476,-77.6636581420898,-102.890228271484,114.797927856445,2317418320
fw,-55.8068771362304,-79.760986328125,-96.5294647216796,124.638275146484,2317434987
fw,-54.6233329772949,-81.9671554565429,-91.2505416870117,132.427581787109,2317451654
fw,-54.0524978637695,-84.2171096801757,-52.6665916442871,137.470581054687,2317468321
fw,-54.2196807861328,-86.2893295288086,-4.06365013122558,136.062637329101,2317484988
fw,-55.0080337524414,-87.7448425292968,31.6654510498046,132.137435913085,2317501655
fw,-56.1146736145019,-87.5490417480468,44.2543487548828,125.389434814453,2317518322
fw,-57.1908683776855,-86.3615951538086,23.3289775848388,101.106880187988,2317534989
fw,-58.2842674255371,-85.3020553588867,22.4561805725097,71.2762832641601,2317551656
fw,-59.388427734375,-84.3644485473632,30.7707500457763,57.935749053955,2317568323
fw,-60.4977531433105,-83.4923553466796,34.3441200256347,52.4587287902832,2317584990
fw,-61.4641494750976,-82.691665649414,26.8095741271972,46.285057067871,2317601657
fw,-62.0710372924804,-81.958755493164,12.9989728927612,39.9047203063964,2317618324
fw,-62.4293212890625,-81.2663955688476,7.88264036178588,37.1982955932617,2317634991
fw,-62.6448554992675,-80.7758026123046,0.444286912679672,25.6576824188232,2317651658
fw,-63.0393257141113,-80.71435546875,2.36402773857116,0.345829874277114,2317668325
fw,-63.8950958251953,-81.0705108642578,31.518798828125,-23.4982795715332,2317684992
fw,-64.5451202392578,-81.8423309326171,27.4879150390625,-47.0109977722168,2317701659
fw,-64.5530166625976,-83.1030044555664,-5.32565784454345,-73.2641143798828,2317718326
fw,-64.4135513305664,-84.9592742919921,-12.9746866226196,-108.329711914062,2317734993
fw,-64.4259185791015,-87.6882705688476,-3.39395308494567,-167.272201538085,2317751660
fw,-64.9098358154296,-88.1771545410156,31.780870437622,-217.949996948242,2317768327
fw,-65.9175643920898,-84.3019256591796,47.0732803344726,-238.78579711914,2317784994
fw,-67.0447158813476,-80.3617324829101,47.7122688293457,-230.368072509765,2317801661
fw,-68.2420120239257,-76.5454864501953,55.9674530029296,-215.901702880859,2317818328
fw,-69.5419235229492,-73.0068359375,62.7644805908203,-204.499725341796,2317834995
fw,-70.8539886474609,-69.5651321411132,57.5976524353027,-206.221221923828,2317851662
fw,-72.1571350097656,-66.3669815063476,52.6473007202148,-198.781311035156,2317868329
fw,-73.5174713134765,-63.1569480895996,55.0586814880371,-202.488555908203,2317884996
fw,-74.953140258789,-60.3307418823242,60.6903038024902,-174.40444946289,2317901663
fw,-76.3933868408203,-57.4928321838378,62.6322059631347,-164.259826660156,2317918330
fw,-77.8943862915039,-55.759464263916,66.7500610351562,-96.4598083496093,2317934997
fw,-79.4905395507812,-53.7237548828125,73.896743774414,-120.581253051757,2317951664
fw,-81.1398696899414,-51.8255310058593,78.542610168457,-116.400115966796,2317968331
fw,-82.8036956787109,-50.0297241210937,80.8550720214843,-112.302680969238,2317984998
fw,-84.4490356445312,-48.8255615234375,82.9100341796875,-78.357063293457,2318001665
fw,-86.0518646240234,-48.32857131958,85.7064514160156,-37.8659400939941,2318018332
fw,-87.4671173095703,-48.4893722534179,86.3942794799804,1.59427678585052,2318034999
fw,-88.2234878540039,-49.3259658813476,82.8917541503906,44.8620338439941,2318051666
fw,-87.7706832885742,-50.8144454956054,74.2265853881836,86.812255859375,2318068333
fw,-86.732177734375,-52.3823890686035,71.9461975097656,91.2273254394531,2318085000
fw,-85.541748046875,-54.1256408691406,70.8813323974609,93.7513351440429,2318101667
fw,-84.3485107421875,-55.8870849609375,66.1644744873046,92.3640518188476,2318118334
fw,-83.2704544067382,-57.1113700866699,55.4316902160644,60.972900390625,2318135001
fw,-82.3735198974609,-58.0709533691406,47.2082595825195,49.4524269104003,2318151668
fw,-81.6088562011718,-59.0545616149902,40.0080032348632,57.1323776245117,2318168335
fw,-81.0871429443359,-59.7048225402832,22.5674171447753,34.218463897705,2318185002
fw,-80.8655090332031,-59.8458862304687,7.86542987823486,1.86870622634887,2318201669
fw,-80.8974151611328,-59.5268402099609,0.332574486732482,-28.9047126770019,2318218336
fw,-81.2629089355468,-59.8740882873535,-11.6068420410156,7.29098606109619,2318235003
fw,-82.1842041015625,-61.238956451416,-37.107810974121,72.8317260742187,2318251670
fw,-83.8040695190429,-61.9497604370117,-73.8062210083007,41.5405502319335,2318268337
fw,-86.0711593627929,-61.5881729125976,-105.647178649902,-25.0600757598876,2318285004
fw,-88.7994308471679,-61.5008811950683,-131.787475585937,-9.85353755950927,2318301671
fw,-87.8058090209961,-61.8108825683593,-131.021667480468,12.6695165634155,2318318338
fw,-84.8832015991211,-62.3807945251464,-130.653701782226,29.1758708953857,2318335005
fw,-81.8134078979492,-63.0805892944335,-143.656555175781,39.3247642517089,2318351672
fw,-78.8760604858398,-64.0952758789062,-152.079818725585,59.8920707702636,2318368339
fw,-75.9629821777343,-65.4075317382812,-168.329544067382,77.5066375732421,2318385006
fw,-72.6548843383789,-66.8208923339843,-199.927169799804,82.1741485595703,2318401673
fw,-69.3774032592773,-68.2740249633789,-191.56298828125,83.1270751953125,2318418340
fw,-66.5126876831054,-69.7405319213867,-159.256439208984,82.6929321289062,2318435007
fw,-64.0497512817382,-71.3592834472656,-125.122016906738,91.1916809082031,2318451674
fw,-61.9091491699218,-73.1364059448242,-96.1079711914062,101.125747680664,2318468341
fw,-60.0301170349121,-74.968017578125,-82.4833068847656,105.327224731445,2318485008
fw,-58.4736137390136,-76.8563156127929,-71.0875015258789,109.653572082519,2318501675
fw,-57.0724372863769,-78.8326263427734,-74.6244888305664,116.041542053222,2318518342
fw,-55.7623252868652,-80.8996429443359,-80.8532638549804,122.530670166015,2318535009
fw,-54.7540206909179,-83.0192794799804,-73.5640640258789,126.912910461425,2318551676
fw,-54.379898071289,-85.1258926391601,-34.3662986755371,128.04524230957,2318568343
fw,-54.8168830871582,-86.9879302978515,16.679141998291,120.041435241699,2318585010
fw,-56.0118675231933,-88.2776260375976,71.1225128173828,116.137588500976,2318601677
fw,-57.00777053833,-87.917007446289,39.4470596313476,107.394508361816,2318618344
fw,-58.0027732849121,-86.707405090332,25.5459403991699,92.1992492675781,2318635011
fw,-58.9410514831543,-85.599006652832,20.4503383636474,71.6613464355468,2318651678
fw,-60.1359977722168,-84.5143127441406,44.333885192871,67.3205413818359,2318668345
fw,-61.3693809509277,-83.4422836303711,52.5380325317382,65.2262954711914,2318685012
fw,-62.1307258605957,-82.5243606567382,21.8096618652343,54.0061149597168,2318701679
fw,-62.4416236877441,-81.6424331665039,0.527260422706604,49.7936897277832,2318718346
fw,-62.4300270080566,-80.7884445190429,-8.4618911743164,47.5270881652832,2318735013
fw,-62.392822265625,-80.2452316284179,-11.6775274276733,28.9178085327148,2318751680
fw,-63.0406608581543,-80.205093383789,24.5145549774169,-1.52065229415893,2318768347
fw,-63.9592018127441,-80.7364959716796,42.1589775085449,-35.7360534667968,2318785014
fw,-64.3686218261718,-81.882339477539,16.2834205627441,-70.8864974975586,2318801681
fw,-64.3583755493164,-83.5908813476562,-5.78666591644287,-100.184959411621,2318818348
fw,-64.2916488647461,-86.0606002807617,-14.5950441360473,-145.720062255859,2318835015
fw,-64.5499572753906,-89.0975646972656,9.01198577880859,-196.694274902343,2318851682
fw,-65.3253784179687,-86.6294860839843,42.5451431274414,-218.294494628906,2318868349
fw,-66.3763427734375,-82.6620635986328,49.1773033142089,-228.446350097656,2318885016
fw,-67.5398788452148,-78.5857849121093,56.4684104919433,-228.937118530273,2318901683
fw,-68.8493423461914,-74.8385772705078,65.6207733154296,-214.856613159179,2318918350
fw,-70.2224578857421,-71.2830810546875,67.6157302856445,-214.339569091796,2318935017
fw,-71.6139144897461,-68.0334548950195,62.8103942871093,-202.725128173828,2318951684
fw,-73.0660324096679,-64.679443359375,62.3035163879394,-212.272308349609,2318968351
fw,-74.5486907958984,-61.4015998840332,61.1153869628906,-205.842895507812,2318985018
fw,-76.0199890136718,-58.2888946533203,59.2498703002929,-188.325531005859,2319001685
fw,-77.5566482543945,-56.1930809020996,65.4995880126953,-121.794593811035,2319018352
fw,-79.2101135253906,-54.0339660644531,76.7253265380859,-129.638122558593,2319035019
fw,-80.9670867919921,-52.0539436340332,85.6394577026367,-121.531936645507,2319051686
fw,-82.7181625366211,-50.2294616699218,87.4787902832031,-112.750076293945,2319068353
fw,-84.3479919433593,-48.8601608276367,83.9409942626953,-85.7123794555664,2319085020
fw,-85.8274002075195,-47.99214553833,80.7798080444336,-57.4771499633789,2319101687
fw,-87.1266326904296,-47.8561477661132,81.6247482299804,-13.1917839050292,2319118354
fw,-87.9606781005859,-48.3381233215332,81.784194946289,25.6213264465332,2319135021
fw,-87.7691879272461,-49.3731880187988,75.3318481445312,60.464557647705,2319151688
fw,-86.9381637573242,-50.6287040710449,63.6754646301269,72.9283752441406,2319168355
fw,-85.9345626831054,-52.00390625,63.9238700866699,71.0623626708984,2319185022
fw,-84.9572525024414,-53.79585647583,57.0276489257812,93.3647232055664,2319201689
fw,-84.1209411621093,-55.0370635986328,46.2955513000488,60.5023231506347,2319218356
fw,-83.4699172973632,-56.118293762207,33.0827102661132,53.5078887939453,2319235023
fw,-82.9595413208007,-57.3689308166503,23.334035873413,68.4490127563476,2319251690
fw,-82.5860290527343,-58.4308700561523,13.4588098526,59.4138565063476,2319268357
fw,-82.3858108520507,-58.8312683105468,6.58002185821533,18.3520698547363,2319285024
fw,-82.434700012207,-58.753433227539,0.00155597215052694,-13.3238487243652,2319301691
fw,-82.8143310546875,-58.7726020812988,-11.7175550460815,-9.43156147003173,2319318358
fw,-83.6339492797851,-59.9674568176269,-30.335786819458,62.3438720703125,2319335025
fw,-85.0399093627929,-61.066104888916,-63.0517311096191,61.6024208068847,2319351692
fw,-86.9368896484375,-61.0172958374023,-88.8627243041992,-6.30914449691772,2319368359
fw,-89.3873825073242,-60.6496620178222,-113.051300048828,-24.4114265441894,2319385026
fw,-87.682014465332,-60.8465499877929,-126.861381530761,8.850341796875,2319401693
fw,-84.7658004760742,-61.3236465454101,-112.332206726074,22.7241668701171,2319418360
fw,-81.8057403564453,-61.8238258361816,-107.553581237792,25.5119171142578,2319435027
fw,-78.9565048217773,-62.5482635498046,-109.990966796875,41.5229911804199,2319451694
fw,-76.1992797851562,-63.8264732360839,-141.458526611328,75.0342559814453,2319468361
fw,-73.1440505981445,-65.4629974365234,-180.8486328125,95.7871398925781,2319485028
fw,-69.7367172241211,-67.1191329956054,-203.70458984375,96.4141082763671,2319501695
fw,-66.58984375,-68.6940002441406,-181.611419677734,90.5122299194336,2319518362
fw,-63.9105033874511,-70.361083984375,-144.506683349609,95.2365036010742,2319535029
fw,-61.5462532043457,-72.1632232666015,-117.839630126953,103.01123046875,2319551696
fw,-59.5759239196777,-74.0631256103515,-92.0543518066406,109.727928161621,2319568363
fw,-57.8860778808593,-76.0658340454101,-85.1707763671875,117.326927185058,2319585030
fw,-56.4156951904296,-78.0519790649414,-83.1594314575195,117.81265258789,2319601697
fw,-55.1772232055664,-80.1077194213867,-77.4868850708007,123.797386169433,2319618364
fw,-54.2809906005859,-82.2181777954101,-68.1438522338867,128.71662902832,2319635031
fw,-53.8237609863281,-84.3444595336914,-47.8679847717285,135.056411743164,2319651698
fw,-54.0352973937988,-86.1333541870117,-7.45229244232177,127.190841674804,2319668365
fw,-54.9486465454101,-87.2546234130859,41.3496055603027,125.494812011718,2319685032
fw,-55.956974029541,-87.140151977539,36.6052894592285,112.336204528808,2319701699
fw,-56.970359802246,-86.268814086914,23.979076385498,92.9732589721679,2319718366
fw,-57.8305969238281,-85.2597961425781,12.2416172027587,75.3937530517578,2319735033
fw,-58.822696685791,-84.2980041503906,24.5420551300048,63.3285598754882,2319751700
fw,-59.9227752685546,-83.422134399414,37.7900848388671,54.5334358215332,2319768367
fw,-60.7612419128418,-82.6632919311523,21.5055389404296,43.8005104064941,2319785034
fw,-61.2696952819824,-81.9689636230468,7.02840614318847,37.5518569946289,2319801701
fw,-61.5873870849609,-81.3131637573242,1.94548106193542,35.015811920166,2319818368
fw,-61.918472290039,-80.8759231567382,-0.0138052869588136,22.3626651763916,2319835035
fw,-62.6856880187988,-80.8694839477539,20.8023586273193,-2.11128902435302,2319851702
fw,-63.8082275390625,-81.3689651489257,45.5832214355468,-31.9063339233398,2319868369
fw,-64.4634017944336,-82.4051895141601,26.174726486206,-62.8322143554687,2319885036
fw,-64.4883651733398,-83.9819107055664,-1.39928686618804,-90.5870971679687,2319901703
fw,-64.4281463623046,-86.0732498168945,-8.40430641174316,-121.787612915039,2319918370
fw,-64.5790023803711,-88.7268142700195,6.22428512573242,-175.383499145507,2319935037
fw,-65.2585754394531,-87.04541015625,41.8887901306152,-211.64810180664,2319951704
fw,-66.2778167724609,-83.2423095703125,45.241828918457,-227.414199829101,2319968371
fw,-67.4444122314453,-79.2731246948242,53.9247779846191,-230.116561889648,2319985038
fw,-68.7538223266601,-75.4419021606445,65.7360534667968,-216.25910949707,2320001705
fw,-70.1360244750976,-71.8143920898437,70.2911071777343,-207.976516723632,2320018372
fw,-71.5016937255859,-68.3604354858398,64.8946380615234,-206.007461547851,2320035039
fw,-72.8690719604492,-65.1782150268554,61.3512649536132,-197.768142700195,2320051706
fw,-74.2699279785156,-62.2746200561523,60.4330368041992,-182.621368408203,2320068373
fw,-75.7139205932617,-59.332534790039,61.9898338317871,-178.483413696289,2320085040
fw,-77.2118301391601,-56.5685081481933,66.1514816284179,-162.10693359375,2320101707
fw,-78.7580184936523,-54.7013664245605,68.6183547973632,-109.871383666992,2320118374
fw,-80.3403625488281,-52.5025444030761,71.295654296875,-134.384933471679,2320135041
fw,-81.9403686523437,-50.4675827026367,74.6250610351562,-126.627159118652,2320151708
fw,-83.583511352539,-48.7094688415527,80.8985366821289,-111.151908874511,2320168375
fw,-85.198616027832,-47.5174407958984,83.0056762695312,-78.8202285766601,2320185042
fw,-86.7260131835937,-47.1392745971679,83.5193710327148,-29.6888523101806,2320201709
fw,-88.0563049316406,-47.4949874877929,85.4298019409179,17.0970516204834,2320218376
fw,-88.4731292724609,-48.2768173217773,81.261978149414,44.3865585327148,2320235043
fw,-87.6352920532226,-49.7166938781738,74.9366073608398,84.1865158081054,2320251710
fw,-86.4640960693359,-51.1256484985351,69.1325988769531,76.2093124389648,2320268377
fw,-85.3182220458984,-53.0735168457031,60.9095497131347,102.488616943359,2320285044
fw,-84.3396072387695,-54.5287628173828,49.4221611022949,70.8113555908203,2320301711
fw,-83.5043640136718,-55.6266975402832,42.7998733520507,52.1287078857421,2320318378
fw,-82.786262512207,-56.5607376098632,36.302074432373,47.6032066345214,2320335045
fw,-82.1811141967773,-57.4147758483886,29.6260929107666,47.2281341552734,2320351712
fw,-81.7621459960937,-57.9231872558593,20.1651268005371,25.4846801757812,2320368379
fw,-81.5689086914062,-57.9421882629394,11.1158514022827,-5.32097101211547,2320385046
fw,-81.7002410888671,-57.8141632080078,-0.533999741077423,-17.3920497894287,2320401713
fw,-82.2689666748046,-58.7923965454101,-18.1790218353271,47.6905250549316,2320418380
fw,-83.3771514892578,-60.180736541748,-47.4353942871093,75.2029342651367,2320435047
fw,-85.0938034057617,-60.6344909667968,-82.6407089233398,23.6903285980224,2320451714
fw,-87.3988723754882,-60.3611221313476,-111.259033203125,-19.1445178985595,2320468381
fw,-89.3036727905273,-60.612678527832,-125.047843933105,12.9321355819702,2320485048
fw,-86.7645111083984,-61.1601028442382,-119.779037475585,27.8077430725097,2320501715
fw,-83.8543014526367,-61.688850402832,-118.069053649902,25.2715225219726,2320518382
fw,-80.9146118164062,-62.2042770385742,-117.158401489257,27.4081096649169,2320535049
fw,-78.1958389282226,-63.128318786621,-133.777374267578,53.6104202270507,2320551716
fw,-75.3120956420898,-64.5492553710937,-172.113906860351,83.5578002929687,2320568383
fw,-72.0054931640625,-66.0975570678711,-202.74641418457,90.6439666748046,2320585050
fw,-68.9244537353515,-67.5241928100586,-178.751373291015,82.3911972045898,2320601717
fw,-66.3050003051757,-68.9454040527343,-141.248153686523,80.7335357666015,2320618384
fw,-63.964729309082,-70.5568466186523,-112.948005676269,91.414566040039,2320635051
fw,-61.8199272155761,-72.2817993164062,-97.7238464355468,98.4459762573242,2320651718
fw,-59.9124336242675,-74.1443176269531,-90.5367431640625,107.885902404785,2320668385
fw,-58.1914367675781,-76.111946105957,-94.6276931762695,115.365203857421,2320685052
fw,-56.6799430847168,-78.150146484375,-94.0760803222656,120.552116394042,2320701719
fw,-55.448429107666,-80.2800369262695,-85.9625930786132,127.445098876953,2320718386
fw,-54.5804710388183,-82.4554290771484,-69.9806137084961,132.562881469726,2320735053
fw,-54.3211364746093,-84.5802230834961,-31.3141288757324,133.877075195312,2320751720
fw,-54.896011352539,-86.4257659912109,25.436803817749,128.817657470703,2320768387
fw,-55.8056182861328,-87.5445709228515,43.9098091125488,123.575592041015,2320785054
fw,-56.9350776672363,-87.2576217651367,43.19771194458,114.067947387695,2320801721
fw,-57.8295249938964,-86.2677612304687,12.1401462554931,89.4882507324218,2320818388
fw,-58.8911552429199,-85.1535415649414,30.3004741668701,77.6611099243164,2320835055
fw,-59.9298477172851,-84.121841430664,32.9883232116699,66.6935348510742,2320851722
fw,-60.9872589111328,-83.2077713012695,35.7839775085449,56.8132400512695,2320868389
fw,-61.5222396850585,-82.3849105834961,6.80005073547363,48.3456153869628,2320885056
fw,-61.7983360290527,-81.6228103637695,-4.0333981513977,42.6680717468261,2320901723
fw,-62.0785598754882,-81.0335464477539,3.89619255065917,31.295124053955,2320918390
fw,-62.3442993164062,-80.8553771972656,-1.22711956501007,6.70876216888427,2320935057
fw,-63.0859909057617,-81.2133026123046,18.9814281463623,-23.4283409118652,2320951724
fw,-64.2049102783203,-82.1551742553711,40.1183700561523,-57.1897850036621,2320968391
fw,-65.0791244506836,-83.5901794433593,37.2894287109375,-82.9917526245117,2320985058
fw,-65.3033752441406,-85.6494064331054,9.12971782684326,-115.522994995117,2321001725
fw,-65.4088668823242,-88.3658981323242,-5.33575344085693,-157.014572143554,2321018392
fw,-65.7602920532226,-88.0425567626953,-1.13643968105316,-197.62580871582,2321035059
fw,-66.3099670410156,-84.241226196289,20.7524127960205,-219.924026489257,2321051726
fw,-67.2515106201171,-80.3486022949218,40.5005722045898,-216.971542358398,2321068393
fw,-68.3674850463867,-76.3996276855468,52.7854461669921,-214.627395629882,2321085060
fw,-69.6537780761718,-72.71875,64.0898361206054,-207.900115966796,2321101727
fw,-70.9942474365234,-69.4735488891601,65.9624328613281,-196.686889648437,2321118394
fw,-72.349853515625,-66.0906219482421,61.862937927246,-216.17691040039,2321135061
fw,-73.7699584960937,-62.5617942810058,62.2376899719238,-229.752151489257,2321151728
fw,-75.2478485107421,-59.0596084594726,64.1701889038086,-224.888961791992,2321168395
fw,-76.7491989135742,-56.4942321777343,67.2219696044921,-158.983169555664,2321185062
fw,-78.2865753173828,-54.5211563110351,71.6353149414062,-122.443084716796,2321201729
fw,-79.8534545898437,-52.5710067749023,74.9960556030273,-123.327278137207,2321218396
fw,-81.4308166503906,-50.8344650268554,76.5311660766601,-110.685173034667,2321235063
fw,-83.011360168457,-49.3035583496093,78.8182678222656,-96.8376083374023,2321251730
fw,-84.5692367553711,-48.2760391235351,81.259765625,-67.7058715820312,2321268397
fw,-86.0553359985351,-47.862449645996,83.7127609252929,-32.3757743835449,2321285064
fw,-87.2640533447265,-48.2182998657226,82.9825210571289,14.937647819519,2321301731
fw,-87.8086700439453,-48.9880142211914,86.0209503173828,40.0893096923828,2321318398
fw,-87.2928237915039,-50.3310089111328,81.7439651489257,77.0584564208984,2321335065
fw,-86.3072128295898,-51.7375183105468,74.7554702758789,78.5864105224609,2321351732
fw,-85.2522048950195,-53.5310173034668,65.3954849243164,93.826675415039,2321368399
fw,-84.241943359375,-54.8740310668945,53.9409141540527,64.6443786621093,2321385066
fw,-83.2929077148437,-55.9523849487304,46.7197837829589,52.1250915527343,2321401733
fw,-82.4088821411132,-56.786636352539,43.6830902099609,42.0227966308593,2321418400
fw,-81.6609420776367,-57.8500785827636,34.9910736083984,59.6824874877929,2321435067
fw,-81.1386032104492,-58.4426574707031,22.6426677703857,30.0782756805419,2321451734
fw,-80.9081726074218,-58.5250282287597,10.3130464553833,-2.78305482864379,2321468401
fw,-80.9699554443359,-58.495735168457,-0.263977915048599,-13.6867494583129,2321485068
fw,-81.3208541870117,-59.3920555114746,-14.4997730255126,40.81494140625,2321501735
fw,-82.0948028564453,-60.82173538208,-38.4098854064941,77.8464126586914,2321518402
fw,-83.3635101318359,-61.5270156860351,-61.8670959472656,39.663963317871,2321535069
fw,-85.3408279418945,-61.2610473632812,-95.7843170166015,-19.1938571929931,2321551736
fw,-88.0828628540039,-61.2901077270507,-131.33885192871,-2.48774981498718,2321568403
fw,-88.8678894042968,-61.7014236450195,-133.35774230957,19.6609916687011,2321585070
fw,-85.9508819580078,-62.1989631652832,-125.783889770507,25.071455001831,2321601737
fw,-82.9916458129882,-62.6896896362304,-124.001426696777,26.8971405029296,2321618404
fw,-80.1720504760742,-63.568359375,-121.215217590332,51.6794776916503,2321635071
fw,-77.4526290893554,-65.0070877075195,-137.337326049804,85.5617218017578,2321651738
fw,-74.4680252075195,-66.6368179321289,-164.409301757812,96.3174285888671,2321668405
fw,-71.3589172363281,-68.2402038574218,-166.36653137207,93.346694946289,2321685072
fw,-68.5897216796875,-69.7986907958984,-139.786087036132,88.7267684936523,2321701739
fw,-66.1276626586914,-71.4479064941406,-116.275505065917,92.8554229736328,2321718406
fw,-63.9010848999023,-73.1753768920898,-100.70735168457,96.8878860473632,2321735073
fw,-61.8693237304687,-74.9191131591796,-93.8462829589843,99.3602142333984,2321751740
fw,-60.0027275085449,-76.6904678344726,-93.2929992675781,102.721733093261,2321768407
fw,-58.4093742370605,-78.665168762207,-85.3245162963867,115.780433654785,2321785074
fw,-57.172508239746,-80.7887725830078,-72.0958404541015,125.766258239746,2321801741
fw,-56.2993087768554,-83.0363006591796,-56.4096183776855,134.975860595703,2321818408
fw,-55.8673553466796,-85.2855758666992,-32.5574035644531,138.966690063476,2321835075
fw,-56.0925178527832,-87.2634811401367,6.12247896194458,134.892761230468,2321851742
fw,-56.9010009765625,-88.2119522094726,42.7298011779785,131.4619140625,2321868409
fw,-57.8258094787597,-87.1759643554687,38.6347999572753,121.273109436035,2321885076
fw,-58.6667823791503,-85.6883468627929,10.8842182159423,102.340011596679,2321901743
fw,-59.4467697143554,-84.2199249267578,4.19792461395263,91.5831985473632,2321918410
fw,-60.5770454406738,-82.8238143920898,38.8085746765136,84.3666229248046,2321935077
fw,-61.7159080505371,-81.5556182861328,45.7057609558105,75.7603912353515,2321951744
fw,-62.3352661132812,-80.4964523315429,11.5578298568725,62.2706222534179,2321968411
fw,-62.7509765625,-79.4535598754882,-2.41485095024108,61.1054534912109,2321985078
fw,-63.102970123291,-78.481216430664,1.56846439838409,56.3816757202148,2322001745
fw,-63.4689102172851,-77.7949676513671,-1.93120467662811,38.8910102844238,2322018412
fw,-64.2784194946289,-77.6185150146484,17.4840946197509,9.15459632873535,2322035079
fw,-65.5437774658203,-78.0248718261718,40.9848022460937,-25.3646545410156,2322051746
fw,-66.4361953735351,-79.0211029052734,32.8621444702148,-60.1495208740234,2322068413
fw,-66.587417602539,-80.754653930664,-0.661960840225219,-102.179244995117,2322085080
fw,-66.6740341186523,-83.2000350952148,-7.41557502746582,-143.020523071289,2322101747
fw,-66.9650802612304,-86.3854064941406,9.90135097503662,-187.357437133789,2322118414
fw,-67.4252548217773,-89.7092666625976,31.1440753936767,-227.532760620117,2322135081
fw,-68.3020935058593,-85.5792922973632,43.32417678833,-245.96336364746,2322151748
fw,-69.394790649414,-81.5236511230468,54.0891685485839,-236.040908813476,2322168415
fw,-70.6861877441406,-77.7932357788086,67.6461868286132,-218.08430480957,2322185082
fw,-72.0101165771484,-74.0976333618164,64.890640258789,-224.776473999023,2322201749
fw,-73.3364562988281,-70.1093139648437,62.0954895019531,-246.340118408203,2322218416
fw,-74.7000350952148,-66.4700393676757,62.7162132263183,-228.46678161621,2322235083
fw,-76.1032104492187,-63.0867576599121,60.8422889709472,-214.20068359375,2322251750
fw,-77.5662078857421,-59.7572517395019,64.1243820190429,-203.874588012695,2322268417
fw,-79.0831222534179,-57.0966339111328,69.1317977905273,-151.399749755859,2322285084
fw,-80.6080093383789,-55.1971702575683,70.7661819458007,-104.830741882324,2322301751
fw,-82.0542907714843,-53.2852554321289,64.9124908447265,-111.119911193847,2322318418
fw,-83.4823303222656,-51.4456596374511,64.8126525878906,-112.117004394531,2322335085
fw,-84.9377136230468,-49.7652168273925,68.5507278442382,-105.257133483886,2322351752
fw,-86.4796981811523,-48.4870071411132,76.0130844116211,-83.1864929199218,2322368419
fw,-88.0726776123046,-47.8432884216308,82.8924713134765,-48.3888702392578,2322385086
fw,-89.2637863159179,-47.7005577087402,84.1399612426757,-20.3438129425048,2322401753
fw,-88.3501663208007,-48.3677177429199,79.2957000732421,32.2899322509765,2322418420
fw,-86.9811172485351,-50.119026184082,75.243049621582,103.736915588378,2322435087
fw,-85.6218032836914,-51.9351692199707,74.5387420654296,107.663223266601,2322451754
fw,-84.3932876586914,-53.8313636779785,65.1237716674804,105.050025939941,2322468421
fw,-83.3242645263671,-55.6715354919433,54.5451622009277,98.590217590332,2322485088
fw,-82.3912734985351,-56.5902137756347,48.2809448242187,43.8008155822753,2322501755
fw,-81.5790405273437,-57.7397232055664,42.5495834350585,64.2605972290039,2322518422
fw,-80.8790435791015,-58.5273094177246,33.5037765502929,42.8539123535156,2322535089
fw,-80.3662414550781,-58.8719291687011,21.8961849212646,12.6385374069213,2322551756
fw,-80.1628952026367,-58.8127708435058,8.84169578552246,-7.79095697402954,2322568423
fw,-80.3045196533203,-58.4469871520996,-4.63134622573852,-28.8135528564453,2322585090
fw,-81.0057601928711,-59.4069519042968,-30.8520374298095,47.6990509033203,2322601757
