Label,Left_Hip_q,Right_Hip_q,Left_Hip_qd,Right_Hip_qd,SampleTimeFine
fw,-88.3331680297851,-48.8516044616699,59.6660728454589,58.922794342041,3108200802
fw,-87.3572845458984,-49.884536743164,55.3419609069824,51.0706672668457,3108217469
fw,-86.3477325439453,-51.7598762512207,52.3604125976562,102.828582763671,3108234136
fw,-85.3127059936523,-54.0880584716796,54.0467872619628,132.420928955078,3108250803
fw,-84.1794357299804,-55.9653892517089,60.7088546752929,107.455032348632,3108267470
fw,-82.9982604980468,-57.5034446716308,63.8164405822753,87.9069519042968,3108284137
fw,-81.926399230957,-58.2939720153808,57.5441932678222,41.8646163940429,3108300804
fw,-81.1185836791992,-58.555362701416,42.3907890319824,9.01725196838378,3108317471
fw,-80.6061477661132,-58.4321594238281,27.4316387176513,-13.2176876068115,3108334138
fw,-80.3634262084961,-58.2188339233398,14.1070623397827,-19.6824207305908,3108350805
fw,-80.3524780273437,-59.0645523071289,2.95010805130004,42.0625991821289,3108367472
fw,-80.6974334716796,-60.6925888061523,-14.1733484268188,92.9297714233398,3108384139
fw,-81.567626953125,-61.1178855895996,-44.3101463317871,24.6457500457763,3108400806
fw,-83.1865310668945,-60.9167366027832,-85.0775985717773,-14.0277166366577,3108417473
fw,-85.6597290039062,-61.0346870422363,-127.800788879394,4.70421504974365,3108434140
fw,-88.0607376098632,-61.1906356811523,-145.212631225585,2.4303240776062,3108450807
fw,-86.8902053833007,-61.6432304382324,-128.443130493164,22.4145450592041,3108467474
fw,-84.2239608764648,-62.2250518798828,-126.870857238769,31.8914813995361,3108484141
fw,-81.2635421752929,-62.9976501464843,-162.576690673828,44.0392189025878,3108500808
fw,-78.214614868164,-64.3091735839843,-185.552124023437,77.1342163085937,3108517475
fw,-75.0525207519531,-65.929946899414,-204.816467285156,95.5375595092773,3108534142
fw,-71.690071105957,-67.5221481323242,-218.528488159179,93.7407150268554,3108550809
fw,-68.4040756225586,-68.9584579467773,-209.411972045898,84.4637603759765,3108567476
fw,-65.5473327636718,-70.2731246948242,-168.587814331054,77.465950012207,3108584143
fw,-63.1193580627441,-71.705322265625,-129.006134033203,85.2261962890625,3108600810
fw,-60.990665435791,-73.3334655761718,-107.837181091308,98.1051864624023,3108617477
fw,-59.0771408081054,-75.0296173095703,-103.705116271972,103.336402893066,3108634144
fw,-57.1999435424804,-76.7967529296875,-113.009040832519,108.581497192382,3108650811
fw,-55.3945503234863,-78.7936325073242,-118.408050537109,124.560752868652,3108667478
fw,-53.8893661499023,-80.9191360473632,-102.349426269531,136.103622436523,3108684145
fw,-52.7469291687011,-82.9111175537109,-84.7520370483398,131.759521484375,3108700812
fw,-51.8765983581543,-84.4530944824218,-72.1585922241211,114.77660369873,3108717479
fw,-51.7283134460449,-85.4491271972656,-24.9122657775878,101.945350646972,3108734146
fw,-52.26953125,-85.9125671386718,22.2486572265625,90.940444946289,3108750813
fw,-53.3566780090332,-85.880012512207,56.6827926635742,82.264778137207,3108767480
fw,-54.5150833129882,-85.3979415893554,48.6081275939941,75.0388565063476,3108784147
fw,-55.6575889587402,-84.6575698852539,33.5192375183105,69.5850143432617,3108800814
fw,-57.2819480895996,-83.7893142700195,66.5834579467773,68.7752609252929,3108817481
fw,-58.6707191467285,-82.906623840332,53.6567840576171,60.8661460876464,3108834148
fw,-59.9631462097168,-82.0621948242187,56.0596199035644,51.4231529235839,3108850815
fw,-61.0954132080078,-81.2663497924804,46.7247123718261,48.582462310791,3108867482
fw,-61.8580589294433,-80.5197448730468,31.9204730987548,47.9836120605468,3108884149
fw,-62.0838508605957,-79.757080078125,6.21168231964111,48.782958984375,3108900816
fw,-62.1525650024414,-79.0490188598632,-3.245365858078,42.0253067016601,3108917483
fw,-62.5123786926269,-78.4862289428711,8.29079914093017,30.6475715637207,3108934150
fw,-63.7777099609375,-78.3222427368164,48.9944381713867,7.46356630325317,3108950817
fw,-64.7417831420898,-78.6567764282226,35.6392402648925,-20.8385314941406,3108967484
fw,-64.8714752197265,-79.6445388793945,-0.965420544147491,-58.8058929443359,3108984151
fw,-64.9275894165039,-81.3948287963867,3.65270495414733,-101.49021911621,3109000818
fw,-65.1200561523437,-83.6072387695312,1.41084587574005,-130.118362426757,3109017485
fw,-65.4605636596679,-86.3164520263671,6.00869560241699,-175.978942871093,3109034152
fw,-65.8642044067382,-87.8462295532226,18.5560607910156,-222.224426269531,3109050819
fw,-66.6445999145507,-84.7146530151367,35.7928237915039,-247.876632690429,3109067486
fw,-67.668716430664,-80.5311813354492,49.7987556457519,-256.805969238281,3109084153
fw,-68.9276809692382,-76.502815246582,67.7184066772461,-239.235763549804,3109100820
fw,-70.188362121582,-72.703140258789,69.4851837158203,-226.124542236328,3109117487
fw,-71.3952407836914,-69.005256652832,61.6669425964355,-225.366577148437,3109134154
fw,-72.6073913574218,-65.5667266845703,57.0738410949707,-212.124237060546,3109150821
fw,-73.9302215576171,-62.5027542114257,60.9420509338378,-190.9189453125,3109167488
fw,-75.3671646118164,-59.6478729248046,66.8243103027343,-177.599487304687,3109184155
fw,-76.8761978149414,-57.247760772705,73.7854843139648,-145.512664794921,3109200822
fw,-78.4142913818359,-55.5613479614257,77.4449386596679,-98.4889755249023,3109217489
fw,-79.9954757690429,-53.521987915039,80.2303390502929,-122.232795715332,3109234156
fw,-81.5826797485351,-51.1247215270996,81.4190521240234,-148.548385620117,3109250823
fw,-83.1171569824218,-48.6808815002441,79.1802902221679,-156.007415771484,3109267490
fw,-84.5842742919921,-46.5958671569824,75.4776229858398,-136.242553710937,3109284157
fw,-86.0430526733398,-45.2938346862793,76.1823959350586,-90.5125274658203,3109300824
fw,-87.489631652832,-44.8274002075195,78.3171005249023,-40.3891410827636,3109317491
fw,-88.8279724121093,-44.9956245422363,83.8780822753906,0.892030477523803,3109334158
fw,-88.8336639404296,-45.6499671936035,81.5402908325195,33.0905303955078,3109350825
fw,-87.6054306030273,-47.2029609680175,77.47314453125,89.7730941772461,3109367492
fw,-86.2231750488281,-48.5069198608398,75.14111328125,72.4347076416015,3109384159
fw,-84.9418182373046,-50.48384475708,64.3891296386718,110.528335571289,3109400826
fw,-83.7938919067382,-53.5311775207519,55.3469886779785,176.077575683593,3109417493
fw,-82.7799911499023,-55.492820739746,47.7664413452148,111.221710205078,3109434160
fw,-81.7949142456054,-57.160358428955,48.8720092773437,94.393440246582,3109450827
fw,-80.8230743408203,-58.1173210144043,49.2099914550781,50.4881629943847,3109467494
fw,-80.0153884887695,-58.6845016479492,40.362434387207,21.5432090759277,3109484161
fw,-79.4523239135742,-59.268756866455,31.0302944183349,26.0094337463378,3109500828
fw,-79.2066345214843,-59.4292297363281,17.02978515625,4.35127925872802,3109517495
fw,-79.3819046020507,-60.6726684570312,-4.66172838211059,69.9886016845703,3109534162
fw,-80.0073776245117,-61.8859329223632,-28.5707206726074,72.3134765625,3109550829
fw,-81.2867889404296,-61.6171379089355,-65.8257675170898,-18.2039699554443,3109567496
fw,-83.3969345092773,-61.0128707885742,-109.506126403808,-43.3963165283203,3109584163
fw,-86.2379302978515,-61.0310821533203,-144.699462890625,-4.40354013442993,3109600830
fw,-88.4853439331054,-61.1330337524414,-143.101943969726,3.08579850196838,3109617497
fw,-86.8410491943359,-61.3518180847168,-119.792518615722,12.2728052139282,3109634164
fw,-84.1028594970703,-61.7919998168945,-131.877960205078,25.0741519927978,3109650831
fw,-81.118782043457,-62.4429779052734,-158.343536376953,37.4682273864746,3109667498
fw,-78.2149124145507,-63.3487434387207,-173.630142211914,52.933666229248,3109684165
fw,-75.1807022094726,-64.5392990112304,-190.941253662109,70.0035934448242,3109700832
fw,-72.054214477539,-65.8187713623046,-197.798156738281,75.0990676879882,3109717499
fw,-69.1756515502929,-67.0970687866211,-167.140426635742,74.8871994018554,3109734166
fw,-66.7942276000976,-68.3952178955078,-120.999900817871,76.3411712646484,3109750833
fw,-64.5966873168945,-69.9107818603515,-103.014640808105,90.0761184692382,3109767500
fw,-62.3676414489746,-71.7078552246093,-100.529296875,107.769569396972,3109784167
fw,-60.151569366455,-73.6603240966796,-109.509971618652,117.763648986816,3109800834
fw,-57.8896369934082,-75.6082153320312,-130.77586364746,118.032310485839,3109817501
fw,-55.9142532348632,-77.7693405151367,-128.128982543945,132.281387329101,3109834168
fw,-54.2518348693847,-80.0996475219726,-116.174949645996,147.478820800781,3109850835
fw,-53.0497398376464,-82.3526535034179,-89.7994842529296,151.62776184082,3109867502
fw,-52.4693756103515,-84.1393356323242,-49.1414451599121,139.194381713867,3109884169
fw,-52.639404296875,-85.2676620483398,2.42929434776306,127.527786254882,3109900836
fw,-53.3832778930664,-85.6768646240234,36.9784355163574,119.47663116455,3109917503
fw,-54.3898849487304,-85.3930892944336,45.1139259338378,99.8436965942382,3109934170
fw,-55.1838264465332,-84.7703323364257,14.960597038269,76.82080078125,3109950837
fw,-56.4091529846191,-84.0234832763671,40.2318878173828,65.2387542724609,3109967504
fw,-57.7144966125488,-83.1764526367187,47.5856628417968,62.767822265625,3109984171
fw,-58.9610214233398,-82.1958389282226,45.5829238891601,64.4239196777343,3110000838
fw,-60.2327346801757,-81.142219543457,46.6289367675781,65.0620880126953,3110017505
fw,-61.2824440002441,-80.1441574096679,35.80171585083,61.3036880493164,3110034172
fw,-61.6637077331543,-79.2212905883789,0.86536031961441,58.9897079467773,3110050839
fw,-61.5803184509277,-78.2593688964843,-18.7084865570068,63.24898147583,3110067506
fw,-61.4829406738281,-77.3909530639648,-16.8367290496826,54.592041015625,3110084173
fw,-61.9614486694335,-76.7644882202148,9.91052818298339,36.6215209960937,3110100840
fw,-63.156021118164,-76.5057067871093,40.9526901245117,13.7394313812255,3110117507
fw,-63.7272109985351,-76.7029724121093,13.1233386993408,-13.0837335586547,3110134174
fw,-63.751537322998,-77.7793884277343,-6.11030578613281,-63.8831977844238,3110150841
fw,-63.7380561828613,-79.8305130004882,-12.0960464477539,-118.277236938476,3110167508
fw,-63.7406501770019,-82.5583724975586,-21.8496494293212,-157.90754699707,3110184175
fw,-63.7508277893066,-85.8210678100586,-8.67245388031005,-192.027404785156,3110200842
fw,-64.1510162353515,-89.2818145751953,14.8053331375122,-209.585128784179,3110217509
fw,-65.0906753540039,-86.7276229858398,37.6235961914062,-219.767990112304,3110234176
fw,-66.3473968505859,-82.6282348632812,62.4363594055175,-240.55516052246,3110250843
fw,-67.6289443969726,-78.829849243164,68.9288482666015,-225.861236572265,3110267510
fw,-68.8224334716796,-75.1143646240234,60.7152252197265,-227.986236572265,3110284177
fw,-70.0299682617187,-71.4740295410156,58.3301048278808,-224.636688232421,3110300844
fw,-71.3416366577148,-68.1446990966796,63.6073188781738,-205.480270385742,3110317511
fw,-72.7692947387695,-65.0371551513671,69.4024581909179,-192.036895751953,3110334178
fw,-74.2681350708007,-62.1977996826171,72.7114791870117,-174.911972045898,3110350845
fw,-75.8702926635742,-59.2948684692382,79.7807464599609,-174.766876220703,3110367512
fw,-77.5530242919921,-57.0508689880371,84.6283493041992,-133.753799438476,3110384179
fw,-79.2000350952148,-55.0161018371582,82.6399002075195,-123.767616271972,3110400846
fw,-80.7863388061523,-52.7984962463378,80.5030059814453,-138.185958862304,3110417513
fw,-82.3428344726562,-50.8190040588378,81.4355850219726,-126.540580749511,3110434180
fw,-83.8678970336914,-49.7878303527832,82.3244476318359,-70.9913101196289,3110450847
fw,-85.328987121582,-48.8890686035156,80.4547576904296,-64.9902648925781,3110467514
fw,-86.7105636596679,-48.2657089233398,78.3419113159179,-47.3100624084472,3110484181
fw,-87.9356918334961,-47.7482261657714,77.9037933349609,-37.6108894348144,3110500848
fw,-88.5468063354492,-47.5664329528808,72.9318695068359,-15.6173505783081,3110517515
fw,-88.0955657958984,-48.0029907226562,65.8296127319336,20.672508239746,3110534182
fw,-87.0946502685546,-48.7572517395019,64.4072494506836,38.1177825927734,3110550849
fw,-85.9284057617187,-49.8358917236328,65.2328414916992,55.1431350708007,3110567516
fw,-84.7577209472656,-51.4314613342285,65.1384124755859,87.6953353881836,3110584183
fw,-83.652603149414,-53.8443908691406,61.8249473571777,138.735549926757,3110600850
fw,-82.6180267333984,-55.6703834533691,58.105354309082,103.623588562011,3110617517
fw,-81.6720886230468,-57.3115577697753,53.6336326599121,93.4177780151367,3110634184
fw,-80.6979217529296,-58.4861602783203,53.4965209960937,64.5491790771484,3110650851
fw,-79.9320755004882,-58.8983268737793,37.1072616577148,16.92427444458,3110667518
fw,-79.4542083740234,-59.0753364562988,21.5643730163574,3.8712842464447,3110684185
fw,-79.249755859375,-59.0188331604003,9.85737895965576,-9.32270526885986,3110700852
fw,-79.4191284179687,-59.8354835510253,-6.72955513000488,42.5836143493652,3110717519
fw,-80.0941467285156,-60.9765968322753,-29.8736839294433,66.5749740600586,3110734186
fw,-81.4789581298828,-61.0525703430175,-66.9767761230468,3.32196044921875,3110750853
fw,-83.5361022949218,-60.6313362121582,-99.7025070190429,-30.0879669189453,3110767520
fw,-85.9402542114257,-60.2803268432617,-116.256156921386,-28.5589866638183,3110784187
fw,-87.3047790527343,-60.2219848632812,-102.68423461914,-9.35256576538086,3110800854
fw,-86.3533630371093,-60.5531845092773,-113.592048645019,17.3163166046142,3110817521
fw,-84.0138244628906,-61.019676208496,-148.28466796875,26.0972118377685,3110834188
fw,-81.3151779174804,-61.7642211914062,-169.931884765625,42.9052085876464,3110850855
fw,-78.4604263305664,-62.82320022583,-192.32453918457,62.0014991760253,3110867522
fw,-75.3571548461914,-64.1006698608398,-207.331817626953,75.2970581054687,3110884189
fw,-72.0509262084961,-65.4205474853515,-210.849044799804,77.5235214233398,3110900856
fw,-69.0119247436523,-66.7557220458984,-174.105560302734,78.2765502929687,3110917523
fw,-66.6172256469726,-68.1745986938476,-122.81623840332,83.3629074096679,3110934190
fw,-64.5103149414062,-69.7838668823242,-102.365631103515,95.3744583129882,3110950857
fw,-62.5149345397949,-71.5001449584961,-96.1984176635742,102.648452758789,3110967524
fw,-60.5283508300781,-73.1896133422851,-96.2361831665039,101.485176086425,3110984191
fw,-58.2903366088867,-74.9191436767578,-127.429298400878,104.242858886718,3111000858
fw,-56.1399612426757,-76.7951126098632,-139.214126586914,114.555458068847,3111017525
fw,-54.3241958618164,-78.7734756469726,-124.573051452636,124.306838989257,3111034192
fw,-53.1241302490234,-80.7934417724609,-84.1908111572265,130.922058105468,3111050859
fw,-52.7769699096679,-82.6973876953125,-21.8386554718017,131.828369140625,3111067526
fw,-53.1432495117187,-84.2583999633789,25.7206306457519,129.443008422851,3111084193
fw,-53.8660354614257,-85.3304595947265,37.9645652770996,135.032119750976,3111100860
fw,-54.5400619506835,-85.468879699707,21.7690105438232,132.438537597656,3111117527
fw,-55.138816833496,-84.8077850341796,1.74998652935028,110.241081237792,3111134194
fw,-56.2864875793457,-83.9275588989257,39.7884445190429,83.3063659667968,3111150861
fw,-57.6095504760742,-83.0248947143554,51.265697479248,69.6029891967773,3111167528
fw,-58.9775428771972,-82.1515197753906,51.4247436523437,62.9937705993652,3111184195
fw,-60.3588066101074,-81.2510452270507,52.1069297790527,61.3970642089843,3111200862
fw,-61.4987831115722,-80.3467712402343,46.0324821472168,57.4968185424804,3111217529
fw,-61.7072143554687,-79.5006408691406,-6.92083120346069,51.84033203125,3111234196
fw,-61.5225257873535,-78.7461929321289,-26.1668891906738,45.7876510620117,3111250863
fw,-61.350357055664,-78.133560180664,-26.9272727966308,35.8140602111816,3111267530
fw,-61.9119758605957,-77.8217315673828,13.0545625686645,18.9117622375488,3111284197
fw,-62.9153099060058,-77.9266128540039,29.5385437011718,-3.92344737052917,3111300864
fw,-63.1775207519531,-78.3733444213867,-5.84394884109497,-24.9372959136962,3111317531
fw,-63.1106834411621,-79.4614715576171,-12.602237701416,-64.0056457519531,3111334198
fw,-63.084903717041,-81.2173614501953,-13.485764503479,-102.774780273437,3111350865
fw,-63.1311874389648,-83.6876144409179,-17.8556003570556,-145.717941284179,3111367532
fw,-63.3544311523437,-86.8955612182617,0.301672279834747,-192.740661621093,3111384199
fw,-63.9356727600097,-88.8881149291992,21.9803371429443,-218.435989379882,3111400866
fw,-64.7932586669921,-85.5322647094726,33.3585166931152,-209.569885253906,3111417533
fw,-65.9966278076171,-81.4416580200195,56.0060768127441,-236.482757568359,3111434200
fw,-67.3769378662109,-77.6758193969726,70.4469833374023,-215.002487182617,3111450867
fw,-68.8061141967773,-74.3866195678711,75.4991836547851,-197.34228515625,3111467534
fw,-70.2322463989257,-70.8539886474609,70.6558074951171,-218.658111572265,3111484201
fw,-71.6447219848632,-67.6048889160156,63.3228607177734,-201.628768920898,3111500868
fw,-73.0844650268554,-64.6046600341796,59.8470954895019,-185.568069458007,3111517535
fw,-74.5160446166992,-61.7106781005859,57.0880622863769,-177.627517700195,3111534202
fw,-75.9393615722656,-59.0396575927734,58.3880500793457,-163.633529663085,3111550869
fw,-77.3871612548828,-56.9346580505371,63.5970344543457,-128.154037475585,3111567536
fw,-78.9105606079101,-55.1432991027832,71.1541900634765,-109.777732849121,3111584203
fw,-80.517593383789,-52.8886375427246,79.586685180664,-143.397430419921,3111600870
fw,-82.1859588623046,-50.4205818176269,85.9947891235351,-161.046127319335,3111617537
fw,-83.8242263793945,-48.5801048278808,86.2973861694336,-123.581535339355,3111634204
fw,-85.2743682861328,-48.3135337829589,77.543701171875,-26.8544559478759,3111650871
fw,-86.5200271606445,-48.1625747680664,68.142349243164,-20.2229118347167,3111667538
fw,-87.6550674438476,-48.2956047058105,67.5391540527343,-0.834970116615295,3111684205
fw,-88.4588394165039,-48.6326942443847,67.6206283569336,13.4441471099853,3111700872
fw,-88.3415298461914,-49.213321685791,66.3351974487304,28.5292778015136,3111717539
fw,-87.4800567626953,-50.0678062438964,66.5102996826171,43.4854278564453,3111734206
fw,-86.4200744628906,-51.4357452392578,64.3950271606445,70.22314453125,3111750873
fw,-85.2998123168945,-53.2647438049316,65.2983779907226,99.3527908325195,3111767540
fw,-84.193130493164,-55.142276763916,61.8408279418945,106.065567016601,3111784207
fw,-83.0753936767578,-56.4199447631835,59.9789314270019,70.2890167236328,3111800874
fw,-82.0295181274414,-57.6248741149902,54.3139343261718,66.6008758544921,3111817541
fw,-81.1389389038086,-58.621238708496,45.2157096862793,52.9102706909179,3111834208
fw,-80.4667739868164,-59.1728744506835,31.8329162597656,25.1907844543457,3111850875
fw,-80.0961685180664,-59.2209663391113,15.0871744155883,-3.90726494789123,3111867542
fw,-80.0237426757812,-59.1056098937988,2.18140888214111,-13.7312440872192,3111884209
fw,-80.3208847045898,-60.1256637573242,-12.2213516235351,53.15625,3111900876
fw,-81.0592575073242,-61.323070526123,-31.5629806518554,68.5229263305664,3111917543
fw,-82.4262771606445,-61.2993583679199,-67.0136032104492,-2.78910589218139,3111934210
fw,-84.4833908081054,-60.9166679382324,-103.265014648437,-26.2602787017822,3111950877
fw,-87.1155471801757,-60.666820526123,-130.663391113281,-21.6559677124023,3111967544
fw,-88.1977844238281,-60.730655670166,-127.506980895996,-5.63685655593872,3111984211
fw,-85.8768768310546,-61.0178794860839,-112.777359008789,10.8861799240112,3112000878
fw,-83.0099258422851,-61.3025131225585,-138.091064453125,13.1057138442993,3112017545
fw,-80.0127868652343,-61.9061851501464,-157.982589721679,34.4756927490234,3112034212
fw,-77.1115417480468,-62.9253921508789,-172.631271362304,60.0292778015136,3112050879
fw,-74.0674514770507,-64.2173919677734,-195.18603515625,76.0492248535156,3112067546
fw,-70.7901382446289,-65.4747924804687,-209.831756591796,73.6269302368164,3112084213
fw,-67.7246322631836,-66.6703567504882,-180.028594970703,69.7875823974609,3112100880
fw,-65.1708450317382,-68.0337219238281,-135.420791625976,79.8570327758789,3112117547
fw,-62.9630279541015,-69.6500396728515,-109.97248840332,95.4667816162109,3112134214
fw,-60.8939094543457,-71.3908233642578,-105.966018676757,103.893341064453,3112150881
fw,-58.8982315063476,-73.1160736083984,-110.437065124511,103.939186096191,3112167548
fw,-56.9283485412597,-74.8840866088867,-119.432029724121,106.803344726562,3112184215
fw,-55.2242355346679,-76.9202499389648,-109.698402404785,124.212158203125,3112200882
fw,-53.8799400329589,-79.2424011230468,-93.9511642456054,144.873779296875,3112217549
fw,-53.0774993896484,-81.6429061889648,-62.6163139343261,155.834686279296,3112234216
fw,-52.8710289001464,-83.5332794189453,-24.9716739654541,134.424163818359,3112250883
fw,-53.5045204162597,-84.7589569091796,32.0712814331054,109.381248474121,3112267550
fw,-54.7473640441894,-85.52197265625,66.0090026855468,102.752624511718,3112284217
fw,-56.0306091308593,-85.7512054443359,53.2253227233886,100.416748046875,3112300884
fw,-57.196678161621,-85.3345642089843,30.7948551177978,91.802993774414,3112317551
fw,-58.3755836486816,-84.5942687988281,31.9121742248535,75.0379333496093,3112334218
fw,-59.363052368164,-83.7951889038086,34.0024642944335,64.4686050415039,3112350885
fw,-60.1457176208496,-82.9449768066406,23.576560974121,62.912052154541,3112367552
fw,-60.8752098083496,-82.0305557250976,22.023826599121,60.923240661621,3112384219
fw,-61.1648292541503,-81.0958099365234,4.27062177658081,58.2900924682617,3112400886
fw,-61.061050415039,-80.1584548950195,-19.2491359710693,57.7875061035156,3112417553
fw,-60.81787109375,-79.3155746459961,-24.2555694580078,49.260570526123,3112434220
fw,-60.428897857666,-78.7042770385742,-33.2940826416015,34.6172904968261,3112450887
fw,-60.7035179138183,-78.3439788818359,2.48450994491577,21.82248878479,3112467554
fw,-61.8709602355957,-78.2760696411132,43.7958869934082,7.52608156204223,3112484221
fw,-62.6149826049804,-78.4864044189453,23.9684867858886,-8.13043594360351,3112500888
fw,-62.7673759460449,-79.2423019409179,2.47803807258605,-40.7720603942871,3112517555
fw,-62.7828178405761,-80.7332458496093,-0.20313461124897,-84.9075469970703,3112534222
fw,-62.6253776550293,-83.0301055908203,-24.5604591369628,-134.371200561523,3112550889
fw,-62.7994995117187,-86.0528106689453,-0.791517734527587,-181.828018188476,3112567556
fw,-63.6939544677734,-88.9162826538086,43.1371383666992,-217.951965332031,3112584223
fw,-64.9793701171875,-86.1750564575195,50.9897346496582,-220.93000793457,3112600890
fw,-66.5008850097656,-82.2687606811523,66.1906814575195,-231.779876708984,3112617557
fw,-67.9951934814453,-78.5724563598632,73.8213348388671,-213.069625854492,3112634224
fw,-69.3974609375,-75.1094894409179,74.4492721557617,-203.257232666015,3112650891
fw,-70.7943344116211,-71.5438079833984,69.9728775024414,-218.830078125,3112667558
fw,-72.2522048950195,-68.2757492065429,68.5308685302734,-203.947723388671,3112684225
fw,-73.7790756225586,-65.2410812377929,69.7426147460937,-190.034088134765,3112700892
fw,-75.3275375366211,-62.3188934326171,69.4811706542968,-181.902999877929,3112717559
fw,-76.9046401977539,-59.6738052368164,71.5976638793945,-162.801773071289,3112734226
fw,-78.5631484985351,-57.9735794067382,78.1741409301757,-101.278221130371,3112750893
fw,-80.3242950439453,-55.8790168762207,87.1342849731445,-125.627494812011,3112767560
fw,-82.1749725341796,-53.4841499328613,95.4202651977539,-146.986541748046,3112784227
fw,-84.0489273071289,-51.1602096557617,98.5150299072265,-144.981231689453,3112800894
fw,-85.8353881835937,-49.3722190856933,93.2348556518554,-115.436302185058,3112817561
fw,-87.4340209960937,-48.7102890014648,81.8080444335937,-49.9039344787597,3112834228
fw,-88.9472427368164,-48.6441764831543,76.7806854248046,-13.606665611267,3112850895
fw,-89.7209320068359,-48.973762512207,76.0367889404296,12.3908042907714,3112867562
fw,-88.3013076782226,-49.4344940185546,68.1806945800781,21.9882984161376,3112884229
fw,-87.028694152832,-50.4878349304199,63.8043823242187,59.6631774902343,3112900896
fw,-85.7402572631836,-51.3870468139648,64.8836135864257,47.5823860168457,3112917563
fw,-84.4316253662109,-53.2502174377441,65.7189865112304,102.010864257812,3112934230
fw,-83.1967544555664,-54.8092002868652,61.6221809387207,84.8474197387695,3112950897
fw,-82.1249771118164,-56.0124740600585,53.6759033203125,66.0397109985351,3112967564
fw,-81.1701889038086,-57.1104698181152,48.1895217895507,61.9656410217285,3112984231
fw,-80.2993545532226,-58.4551773071289,44.905101776123,78.2304077148437,3113000898
fw,-79.6241149902343,-59.1805763244628,34.6738891601562,37.6421470642089,3113017565
fw,-79.2479400634765,-59.2100830078125,18.0581264495849,-5.68522882461547,3113034232
fw,-79.1463088989257,-58.9582328796386,2.8388500213623,-23.9261226654052,3113050899
fw,-79.3340301513671,-59.6228256225585,-12.1501941680908,29.9337005615234,3113067566
fw,-79.8926162719726,-60.7823677062988,-28.9306125640869,66.9299163818359,3113084233
fw,-80.9195022583007,-60.9321327209472,-52.3374710083007,9.64912128448486,3113100900
fw,-82.6077423095703,-60.6242485046386,-87.9621810913086,-20.2179107666015,3113117567
fw,-85.0092315673828,-60.3572082519531,-124.769386291503,-20.6248207092285,3113134234
fw,-87.5401916503906,-60.2187385559082,-145.117309570312,-14.737473487854,3113150901
fw,-87.3326644897461,-60.5422439575195,-140.316253662109,12.8142356872558,3113167568
fw,-84.6466827392578,-61.3079223632812,-142.917755126953,41.2814559936523,3113184235
fw,-81.5368728637695,-62.3461723327636,-161.224288940429,59.5047454833984,3113200902
fw,-78.5129470825195,-63.6205825805664,-170.21092224121,74.3995819091796,3113217569
fw,-75.5119400024414,-65.1762084960937,-185.44253540039,91.1643371582031,3113234236
fw,-72.4668579101562,-66.7586517333984,-189.903335571289,92.5683670043945,3113250903
fw,-69.4367904663086,-68.2529144287109,-182.311431884765,87.4094772338867,3113267570
fw,-66.6746520996093,-69.8110656738281,-154.251358032226,91.3370208740234,3113284237
fw,-64.2991027832031,-71.5463256835937,-122.070182800292,102.467475891113,3113300904
fw,-62.1317329406738,-73.4392700195312,-107.486602783203,113.155242919921,3113317571
fw,-60.0730094909668,-75.426887512207,-109.631401062011,120.05020904541,3113334238
fw,-58.0636711120605,-77.3891983032226,-117.290069580078,119.8716506958,3113350905
fw,-56.2334518432617,-79.5682907104492,-115.117485046386,135.462127685546,3113367572
fw,-54.8133926391601,-81.8388519287109,-93.1636047363281,145.430801391601,3113384239
fw,-53.8598594665527,-83.8423156738281,-70.6070709228515,137.69204711914,3113400906
fw,-53.1519966125488,-85.1695785522461,-60.5099639892578,110.546951293945,3113417573
fw,-52.94091796875,-85.9539794921875,-30.3736190795898,95.6291732788086,3113434240
fw,-53.2579154968261,-86.2591705322265,2.90910911560058,80.3545913696289,3113450907
fw,-53.9854927062988,-86.1691665649414,25.3505496978759,68.1265563964843,3113467574
fw,-54.8450164794921,-85.7677917480468,21.4848937988281,61.9393310546875,3113484241
fw,-55.8948287963867,-85.0918426513671,23.6102333068847,62.4072074890136,3113500908
fw,-57.2951736450195,-84.3096313476562,47.6196365356445,59.5539855957031,3113517575
fw,-58.651554107666,-83.5398406982421,47.5765876770019,52.0688591003418,3113534242
fw,-59.6087608337402,-82.7683868408203,23.4753189086914,48.2909355163574,3113550909
fw,-60.4884071350097,-81.9566116333007,17.2696170806884,49.2173995971679,3113567576
fw,-61.3326416015625,-81.1038284301757,21.6210632324218,53.3666534423828,3113584243
fw,-61.4882316589355,-80.2752685546875,-8.337646484375,54.8953590393066,3113600910
fw,-61.2519226074218,-79.5754776000976,-27.0732421875,46.6634483337402,3113617577
fw,-61.2561149597168,-79.0808181762695,-15.2836513519287,30.1510753631591,3113634244
fw,-61.8724784851074,-78.8910522460937,9.73859786987304,8.58146381378173,3113650911
fw,-62.7008171081543,-79.1989974975586,26.5303840637207,-20.3139610290527,3113667578
fw,-62.9654731750488,-80.262092590332,6.58183574676513,-62.0712432861328,3113684245
fw,-62.6265716552734,-82.2615585327148,-15.7944679260253,-113.883674621582,3113700912
fw,-62.1076431274414,-84.8923187255859,-29.1659488677978,-150.153411865234,3113717579
fw,-61.752513885498,-88.0249404907226,-13.3006687164306,-181.838150024414,3113734246
fw,-62.1644973754882,-88.0784835815429,27.4845294952392,-218.160461425781,3113750913
fw,-63.2337837219238,-84.0302505493164,44.6555747985839,-235.593856811523,3113767580
fw,-64.5208511352539,-80.1682434082031,62.9840240478515,-224.608276367187,3113784247
fw,-65.9219055175781,-76.5587310791015,75.9638671875,-217.279235839843,3113800914
fw,-67.4740295410156,-72.7368850708007,86.7751235961914,-240.47085571289,3113817581
fw,-69.0483093261718,-68.9415817260742,86.4832077026367,-238.445205688476,3113834248
fw,-70.5629959106445,-65.5575332641601,79.3431777954101,-212.34016418457,3113850915
fw,-72.0940628051757,-62.601089477539,79.0896987915039,-186.577880859375,3113867582
fw,-73.5269088745117,-60.0478973388671,69.7008743286132,-160.107376098632,3113884249
fw,-74.8752746582031,-58.0752487182617,60.4944534301757,-120.631675720214,3113900916
fw,-76.2719955444336,-56.138011932373,62.0957908630371,-118.73477935791,3113917583
fw,-77.7827987670898,-53.7799568176269,71.2605590820312,-149.126159667968,3113934250
fw,-79.3959197998046,-51.5178413391113,81.2409744262695,-148.532745361328,3113950917
fw,-81.1494750976562,-49.6471366882324,93.7617568969726,-128.278442382812,3113967584
fw,-82.9745712280273,-48.9105720520019,100.946723937988,-59.9884948730468,3113984251
fw,-84.7951965332031,-48.5740280151367,103.922409057617,-35.2107505798339,3114000918
fw,-86.4816436767578,-48.4977874755859,101.690216064453,-17.9270324707031,3114017585
fw,-87.7562484741211,-48.3752250671386,93.8652267456054,-17.7587013244628,3114034252
fw,-88.121955871582,-48.4997787475585,83.8497924804687,0.260360032320022,3114050919
fw,-87.56201171875,-49.3007125854492,70.3494567871093,41.5868873596191,3114067586
fw,-86.7252349853515,-50.236572265625,57.7134132385253,45.8350143432617,3114084253
fw,-85.8159561157226,-51.674518585205,52.7080726623535,73.7683029174804,3114100920
fw,-84.8920135498046,-53.7309951782226,52.5716209411621,114.221580505371,3114117587
fw,-83.8971939086914,-55.7470626831054,56.0684204101562,112.127182006835,3114134254
fw,-82.9221649169921,-57.2053642272949,52.5891494750976,79.0550003051757,3114150921
fw,-82.0153503417968,-58.4429168701171,47.6594009399414,65.8655319213867,3114167588
fw,-81.2712707519531,-58.8231468200683,38.3582420349121,13.2566881179809,3114184255
fw,-80.8189163208007,-58.8244934082031,22.4599361419677,-7.93125915527343,3114200922
fw,-80.5493850708007,-58.7744903564453,15.8753538131713,-8.66408348083496,3114217589
fw,-80.412368774414,-58.8044052124023,11.7980909347534,-4.10654020309448,3114234256
fw,-80.5663681030273,-60.0475273132324,-1.15083742141723,69.2985305786132,3114250923
fw,-81.1227645874023,-61.0755462646484,-22.2353649139404,59.8716163635253,3114267590
fw,-82.3125228881836,-60.7298889160156,-58.1961364746093,-21.7064266204834,3114284257
fw,-84.3196640014648,-60.366470336914,-102.451522827148,-24.8492736816406,3114300924
fw,-86.9059219360351,-60.2142868041992,-133.929794311523,-14.1529159545898,3114317591
fw,-87.9977722167968,-60.5214729309082,-123.026626586914,13.2947368621826,3114334258
fw,-85.993423461914,-61.0855369567871,-113.04759979248,29.427282333374,3114350925
fw,-83.2289733886718,-61.807201385498,-132.549102783203,40.4857559204101,3114367592
fw,-80.4156494140625,-62.8173675537109,-150.505935668945,58.8221969604492,3114384259
fw,-77.6435317993164,-64.2663192749023,-170.995880126953,85.2949142456054,3114400926
fw,-74.6729202270507,-65.9051818847656,-194.429946899414,96.5380630493164,3114417593
fw,-71.4661712646484,-67.5244445800781,-207.13475036621,95.4408874511718,3114434260
fw,-68.4412384033203,-69.0725936889648,-176.758178710937,91.6734237670898,3114450927
fw,-65.8893890380859,-70.6990280151367,-134.088806152343,97.6828155517578,3114467594
fw,-63.6481704711914,-72.5096740722656,-107.880722045898,110.613639831542,3114484261
fw,-61.5616226196289,-74.3322677612304,-104.111366271972,113.373970031738,3114500928
fw,-59.4956550598144,-76.1064300537109,-116.811714172363,111.489654541015,3114517595
fw,-57.4570121765136,-78.052749633789,-127.580627441406,123.294189453125,3114534262
fw,-55.6073112487793,-80.2759094238281,-124.175064086914,145.288055419921,3114550929
fw,-54.0074234008789,-82.6722259521484,-118.808189392089,170.698516845703,3114567596
fw,-52.9141235351562,-84.4597778320312,-85.598030090332,159.545761108398,3114584263
fw,-52.3915367126464,-85.1039123535156,-46.2645454406738,131.620468139648,3114600930
fw,-52.5966835021972,-84.9543762207031,2.74498796463012,105.000701904296,3114617597
fw,-53.382095336914,-84.5454788208007,36.7486038208007,74.937271118164,3114634264
fw,-54.1751594543457,-83.9904479980468,19.7218627929687,62.9973678588867,3114650931
fw,-55.3344573974609,-83.2613220214843,37.4177703857421,62.9894523620605,3114667598
fw,-56.7890472412109,-82.4251632690429,52.7198371887207,62.7427062988281,3114684265
fw,-58.2300491333007,-81.612319946289,51.3232917785644,53.9555435180664,3114700932
fw,-59.6005592346191,-80.8310012817382,47.7341117858886,44.6633262634277,3114717599
fw,-60.8767395019531,-80.0399932861328,51.0742378234863,43.8966522216796,3114734266
fw,-61.5822372436523,-79.175910949707,20.677074432373,53.1249656677246,3114750933
fw,-61.627815246582,-78.3486785888671,-12.97860622406,54.7734718322753,3114767600
fw,-61.4721603393554,-77.6424942016601,-19.8150310516357,45.5829429626464,3114784267
fw,-61.3802070617675,-77.1583633422851,-20.4011802673339,27.9770183563232,3114800934
fw,-62.0551261901855,-76.9433441162109,21.4576416015625,11.0168123245239,3114817601
fw,-62.9535484313964,-76.9899520874023,33.4673233032226,-3.32413649559021,3114834268
fw,-63.15571975708,-77.4285583496093,-0.531528055667877,-25.9664592742919,3114850935
fw,-63.0486373901367,-78.5713577270507,-10.0485486984252,-66.7097244262695,3114867602
fw,-62.9833679199218,-80.3561019897461,-12.9330759048461,-103.521835327148,3114884269
fw,-63.0008811950683,-82.931282043457,-12.6701030731201,-151.987350463867,3114900936
fw,-63.4567756652832,-86.2711791992187,17.9082450866699,-203.126846313476,3114917603
fw,-64.4907455444336,-88.682258605957,39.0056228637695,-229.714401245117,3114934270
fw,-65.7264938354492,-85.5274429321289,51.9951057434082,-225.791625976562,3114950937
fw,-67.1658782958984,-81.4813385009765,72.1174240112304,-237.613891601562,3114967604
fw,-68.7169647216796,-77.5711898803711,82.3903579711914,-227.50633239746,3114984271
fw,-70.3444213867187,-73.9369506835937,84.2295989990234,-219.071945190429,3115000938
fw,-71.9652709960937,-70.1064834594726,78.37060546875,-234.767013549804,3115017605
fw,-73.5473022460937,-66.8454895019531,71.1397323608398,-200.96028137207,3115034272
fw,-75.0905303955078,-63.9446144104003,64.102783203125,-178.657821655273,3115050939
fw,-76.5849380493164,-61.0476722717285,60.856834411621,-176.957901000976,3115067606
fw,-78.0853958129882,-58.6063423156738,65.3573608398437,-146.93635559082,3115084273
fw,-79.7316284179687,-56.8996086120605,78.2490921020507,-101.637626647949,3115100940
fw,-81.5384750366211,-54.7984962463378,91.0700988769531,-128.513153076171,3115117607
fw,-83.3981170654296,-52.6310653686523,96.2841262817382,-135.616668701171,3115134274
fw,-85.147964477539,-50.4079933166503,91.1249923706054,-141.304016113281,3115150941
fw,-86.7626342773437,-49.2533912658691,83.5152130126953,-77.4959335327148,3115167608
fw,-88.2562866210937,-49.0675773620605,78.6502456665039,-18.7875442504882,3115184275
fw,-89.5670471191406,-48.9968070983886,76.2251739501953,-11.0760097503662,3115200942
fw,-88.8921737670898,-49.0514411926269,71.1602401733398,-2.99054527282714,3115217609
fw,-87.682014465332,-49.4886474609375,64.9347839355468,21.1678733825683,3115234276
fw,-86.5561599731445,-50.6937179565429,58.2454414367675,68.0566101074218,3115250943
fw,-85.4759826660156,-52.0535354614257,53.9738121032714,72.9670257568359,3115267610
fw,-84.3414459228515,-54.1946601867675,55.5669212341308,119.637924194335,3115284277
fw,-83.2257003784179,-56.1227188110351,53.8147621154785,107.401176452636,3115300944
fw,-82.1815643310546,-57.2720069885253,51.359447479248,61.9344635009765,3115317611
fw,-81.1852416992187,-58.196922302246,50.9767799377441,50.9140243530273,3115334278
fw,-80.3470611572265,-58.654010772705,42.7994499206543,21.5661659240722,3115350945
fw,-79.8135604858398,-58.7491264343261,26.0601959228515,-1.74738907814025,3115367612
fw,-79.6064147949218,-58.4898948669433,10.0552787780761,-21.6316165924072,3115384279
fw,-79.7103271484375,-58.3485221862793,-5.89903879165649,-16.3324031829834,3115400946
fw,-80.2042541503906,-59.5919456481933,-24.8838310241699,66.5973129272461,3115417613
fw,-81.1320877075195,-60.5890998840332,-45.8256225585937,58.3105888366699,3115434280
fw,-82.7909469604492,-60.2927093505859,-86.7706832885742,-19.5775146484375,3115450947
fw,-85.10595703125,-59.7111740112304,-122.867866516113,-39.063362121582,3115467614
fw,-87.3974456787109,-59.3573417663574,-144.733459472656,-25.9930152893066,3115484281
fw,-86.8917846679687,-59.5498657226562,-131.451934814453,7.53891849517822,3115500948
fw,-84.4999008178711,-60.0636940002441,-128.250915527343,27.7271366119384,3115517615
fw,-81.6442413330078,-60.8475875854492,-156.705108642578,44.8123474121093,3115534282
fw,-78.6754760742187,-61.9803466796875,-177.914825439453,66.3746490478515,3115550949
fw,-75.6915969848632,-63.4450149536132,-189.723876953125,86.3965530395507,3115567616
fw,-72.5561904907226,-64.981575012207,-200.387390136718,90.4261627197265,3115584283
fw,-69.3734512329101,-66.4687194824218,-197.300399780273,87.4204864501953,3115600950
fw,-66.6891174316406,-67.9833068847656,-151.014343261718,89.0835800170898,3115617617
fw,-64.415771484375,-69.6454620361328,-117.606941223144,98.1541671752929,3115634284
fw,-62.3897094726562,-71.5380477905273,-100.373489379882,112.601417541503,3115650951
fw,-60.5774116516113,-73.4818267822265,-92.0455551147461,116.629295349121,3115667618
fw,-58.7325363159179,-75.4556655883789,-108.699485778808,119.331848144531,3115684285
fw,-56.8491821289062,-77.5498046875,-124.344444274902,128.329986572265,3115700952
fw,-55.1892471313476,-79.8028106689453,-113.871376037597,141.999923706054,3115717619
fw,-53.9304084777832,-81.9048843383789,-95.6078720092773,138.499359130859,3115734286
fw,-53.1449584960937,-83.7174682617187,-70.8255386352539,129.691986083984,3115750953
fw,-53.0494346618652,-85.1671829223632,-23.2591609954834,125.54727935791,3115767620
fw,-53.6486587524414,-85.9528121948242,23.4106159210205,116.336524963378,3115784287
fw,-54.5404586791992,-85.9706649780273,37.2680511474609,100.538543701171,3115800954
fw,-55.4577026367187,-85.4872894287109,22.8166599273681,79.682502746582,3115817621
fw,-56.7928237915039,-84.9196319580078,43.1786308288574,57.4032592773437,3115834288
fw,-58.2747840881347,-84.3618469238281,49.9227333068847,47.3929061889648,3115850955
fw,-59.6833953857421,-83.7670669555664,50.8041229248046,44.052188873291,3115867622
fw,-60.8877029418945,-83.0882339477539,42.6360130310058,45.0742263793945,3115884289
fw,-61.8606071472168,-82.3113479614257,29.7103633880615,47.9284210205078,3115900956
fw,-62.2423057556152,-81.4175109863281,3.20355010032653,54.685935974121,3115917623
fw,-62.0883064270019,-80.4039611816406,-17.7485294342041,63.4346122741699,3115934290
fw,-61.8451385498046,-79.5183868408203,-18.7786064147949,54.9343528747558,3115950957
fw,-62.0097846984863,-78.999641418457,0.367538422346115,30.338918685913,3115967624
fw,-62.8827781677246,-78.8772354125976,32.8892097473144,5.40474319458007,3115984291
fw,-63.3393440246582,-79.1646041870117,19.5941162109375,-18.0667896270751,3116000958
fw,-63.1675643920898,-80.0546569824218,-5.84066438674926,-52.3053131103515,3116017625
fw,-62.8896179199218,-81.6609878540039,-6.40600395202636,-92.2314453125,3116034292
fw,-62.5951461791992,-83.9522705078125,-17.4433002471923,-132.838546752929,3116050959
fw,-62.6612701416015,-86.9826049804687,4.08071041107177,-181.61929321289,3116067626
fw,-63.3390502929687,-88.7752380371093,32.1877670288085,-218.219497680664,3116084293
fw,-64.4175186157226,-85.1388931274414,42.4600563049316,-228.259674072265,3116100960
fw,-65.6722412109375,-81.214729309082,58.8863525390625,-229.418380737304,3116117627
fw,-67.0575790405273,-77.4531326293945,72.047119140625,-219.245666503906,3116134294
fw,-68.5451889038086,-73.783935546875,80.7055206298828,-221.397796630859,3116150961
fw,-70.0535659790039,-70.0508422851562,77.4736785888671,-230.554016113281,3116167628
fw,-71.4745788574218,-66.7617568969726,64.812629699707,-203.905838012695,3116184295
fw,-72.8856353759765,-63.7953605651855,60.5171356201171,-183.864685058593,3116200962
fw,-74.2773361206054,-60.8751754760742,59.1720466613769,-180.608184814453,3116217629
fw,-75.6776657104492,-58.2460441589355,60.1081428527832,-160.416809082031,3116234296
fw,-77.1415481567382,-56.4873809814453,66.1564102172851,-104.781440734863,3116250963
fw,-78.7041549682617,-54.3568458557128,74.6881942749023,-130.773742675781,3116267630
fw,-80.3489532470703,-52.11372756958,82.7803955078125,-141.327941894531,3116284297
fw,-82.1002502441406,-49.8541221618652,92.4833984375,-145.313613891601,3116300964
fw,-83.8456268310546,-48.2318420410156,93.7652511596679,-107.768806457519,3116317631
fw,-85.5246887207031,-48.3025474548339,90.0642318725586,-3.74541282653808,3116334298
fw,-87.1359786987304,-48.6736373901367,86.9021301269531,15.5699853897094,3116350965
fw,-88.6886520385742,-48.9073104858398,84.6302795410156,7.74481487274169,3116367632
fw,-89.6113357543945,-49.1864280700683,72.3199615478515,10.7231683731079,3116384299
fw,-88.5764617919921,-50.0173187255859,62.8688583374023,45.5493621826171,3116400966
fw,-87.5320129394531,-51.1213760375976,53.5786056518554,60.7176361083984,3116417633
fw,-86.5163650512695,-52.6453247070312,53.1960945129394,81.761116027832,3116434300
fw,-85.482307434082,-54.6276893615722,54.2110252380371,110.805107116699,3116450967
fw,-84.4845962524414,-56.0515174865722,49.0868759155273,77.9415740966796,3116467634
fw,-83.5886459350586,-57.0229110717773,41.9128723144531,53.0233993530273,3116484301
fw,-82.7805786132812,-58.110424041748,38.4626693725585,62.5513153076171,3116500968
fw,-82.1791839599609,-58.4749641418457,25.5680465698242,15.1325988769531,3116517635
fw,-81.9025802612304,-58.5802116394043,8.20122718811035,-2.2277386188507,3116534302
fw,-81.8415908813476,-58.2573204040527,3.08258271217346,-26.1740589141845,3116550969
fw,-81.877082824707,-58.177734375,3.30447602272033,-13.5154418945312,3116567636
fw,-82.1465988159179,-59.4090614318847,-6.18743324279785,66.5529861450195,3116584303
fw,-82.8384780883789,-60.1131324768066,-29.3444900512695,41.2604675292968,3116600970
fw,-84.1766815185546,-59.6852874755859,-67.3565979003906,-28.9248104095459,3116617637
fw,-86.2146759033203,-59.1551361083984,-105.743087768554,-37.2796287536621,3116634304
fw,-88.4309005737304,-59.0161972045898,-132.508544921875,-14.8946361541748,3116650971
fw,-87.0734405517578,-59.377082824707,-136.602981567382,16.0217628479003,3116667638
fw,-84.134292602539,-60.029556274414,-126.899559020996,33.1907768249511,3116684305
fw,-80.994140625,-60.7662391662597,-145.854629516601,39.7264442443847,3116700972
fw,-77.8989181518554,-61.7116546630859,-152.851898193359,54.1759796142578,3116717639
fw,-75.0060882568359,-63.0364799499511,-168.713760375976,77.6091766357421,3116734306
fw,-71.9032363891601,-64.4032897949218,-201.810989379882,79.9136199951171,3116750973
fw,-68.6093215942382,-65.7121276855468,-210.939315795898,76.3845596313476,3116767640
fw,-65.783462524414,-67.0121231079101,-164.617095947265,75.7972640991211,3116784307
fw,-63.3843269348144,-68.4306488037109,-127.613906860351,82.3807830810546,3116800974
fw,-61.3527488708496,-70.1070022583007,-100.835296630859,97.9401626586914,3116817641
fw,-59.6102104187011,-71.869140625,-89.2838973999023,104.028182983398,3116834308
fw,-57.9552688598632,-73.5350952148437,-93.4320449829101,99.3917465209961,3116850975
fw,-56.3042068481445,-75.2391738891601,-103.438438415527,101.998710632324,3116867642
fw,-54.6953010559082,-77.1882400512695,-108.857147216796,117.337570190429,3116884309
fw,-53.4173545837402,-79.293472290039,-93.9941711425781,127.761940002441,3116900976
fw,-52.7661056518554,-81.4640884399414,-55.6706466674804,135.441223144531,3116917643
fw,-52.8656120300293,-83.376350402832,-3.50469875335693,125.609802246093,3116934310
fw,-53.5537872314453,-84.8861083984375,35.6011085510253,111.891471862792,3116950977
fw,-54.6300621032714,-86.0152282714843,55.7877502441406,108.160346984863,3116967644
fw,-55.5998458862304,-86.4815292358398,33.426414489746,110.184074401855,3116984311
fw,-56.7631950378418,-86.0370559692382,35.8651123046875,97.4654083251953,3117000978
fw,-58.0878829956054,-85.1544723510742,42.8983116149902,81.7138061523437,3117017645
fw,-59.3953819274902,-84.1451568603515,46.3998985290527,75.1202545166015,3117034312
fw,-60.5155601501464,-83.0547103881836,41.7234802246093,76.0402450561523,3117050979
fw,-61.4314613342285,-81.9080123901367,33.0155448913574,77.4770431518554,3117067646
fw,-61.6282386779785,-80.8031616210937,-4.54793262481689,72.5411682128906,3117084313
fw,-61.4351463317871,-79.8379287719726,-17.9479389190673,61.9938354492187,3117100980
fw,-61.186725616455,-79.0921401977539,-19.2522583007812,45.4997749328613,3117117647
fw,-61.3168144226074,-78.6203918457031,-2.143075466156,26.5750770568847,3117134314
fw,-62.2817687988281,-78.5241394042968,34.7644081115722,4.16361141204834,3117150981
fw,-62.9841194152832,-78.8471221923828,23.3357791900634,-20.1068267822265,3117167648
fw,-62.9812355041503,-79.7148208618164,-2.48614835739135,-51.2024765014648,3117184315
fw,-62.7861671447753,-81.4132766723632,-10.6756525039672,-97.6951065063476,3117200982
fw,-62.6487846374511,-83.877212524414,-16.0855026245117,-144.178070068359,3117217649
fw,-62.7078437805175,-86.9650115966796,-3.81444764137268,-188.109405517578,3117234316
fw,-63.0217475891113,-88.5779800415039,16.3685817718505,-221.15998840332,3117250983
fw,-63.9058723449707,-84.9358520507812,39.1986427307128,-233.252578735351,3117267650
fw,-64.9934310913086,-80.8112411499023,52.380386352539,-242.055191040039,3117284317
fw,-66.3349990844726,-76.9300308227539,71.1306457519531,-227.632110595703,3117300984
fw,-67.7627944946289,-73.1444396972656,77.796890258789,-229.34031677246,3117317651
fw,-69.2230453491211,-69.2439727783203,75.9611129760742,-239.577117919921,3117334318
fw,-70.6287078857421,-65.9403610229492,63.8347702026367,-203.946426391601,3117350985
fw,-72.0497055053711,-62.9009628295898,62.0367584228515,-188.087249755859,3117367652
fw,-73.4634628295898,-59.8166580200195,62.6229934692382,-189.735809326171,3117384319
fw,-74.880256652832,-57.3688507080078,64.3501052856445,-147.271240234375,3117400986
fw,-76.3049011230468,-55.6591072082519,65.7421875,-100.077583312988,3117417653
fw,-77.8000411987304,-53.4909553527832,70.8153381347656,-131.716522216796,3117434320
fw,-79.3400268554687,-51.2875900268554,74.9672393798828,-137.512390136718,3117450987
fw,-80.9378814697265,-49.1129150390625,80.0021514892578,-137.925720214843,3117467654
fw,-82.5973129272461,-48.1083030700683,85.2791290283203,-67.3703384399414,3117484321
fw,-84.2262344360351,-47.9495658874511,84.9929275512695,-17.2276096343994,3117500988
fw,-85.7723770141601,-47.8979721069335,81.126350402832,-9.93486785888671,3117517655
fw,-87.2975234985351,-47.9993743896484,80.1196517944336,0.69811987876892,3117534322
fw,-88.8387069702148,-48.3917617797851,80.8851165771484,19.9067459106445,3117550989
fw,-89.6194763183593,-49.4495849609375,74.6744689941406,60.6633224487304,3117567656
fw,-88.3470840454101,-50.3307075500488,66.1581039428711,45.4951591491699,3117584323
fw,-87.1115417480468,-51.874168395996,62.10396194458,83.6468658447265,3117600990
fw,-85.8849182128906,-53.2832260131835,61.186782836914,76.5196762084961,3117617657
fw,-84.7137985229492,-54.7023735046386,59.7039489746093,78.0991821289062,3117634324
fw,-83.572883605957,-55.7504959106445,61.817398071289,57.5136642456054,3117650991
fw,-82.5392837524414,-56.7976112365722,55.1118698120117,59.4131164550781,3117667658
fw,-81.7704238891601,-57.3263244628906,37.270206451416,27.4782047271728,3117684325
fw,-81.3121261596679,-57.5254783630371,20.3683433532714,7.57614135742187,3117700992
fw,-81.0929870605468,-57.4268569946289,9.54211044311523,-11.2113094329833,3117717659
fw,-81.156135559082,-57.7331924438476,-4.8729395866394,10.9159431457519,3117734326
fw,-81.6653671264648,-58.8699874877929,-25.8271503448486,63.2404975891113,3117750993
fw,-82.6673889160156,-59.3612480163574,-50.2717208862304,28.5989570617675,3117767660
fw,-84.3477172851562,-58.9904098510742,-87.6133651733398,-25.324384689331,3117784327
fw,-86.7844772338867,-58.7261161804199,-125.328758239746,-20.0588474273681,3117800994
fw,-89.0160293579101,-58.8237495422363,-135.51985168457,-0.0381117574870586,3117817661
fw,-86.9915008544921,-59.4236717224121,-122.518264770507,30.6904029846191,3117834328
fw,-84.0868606567382,-60.1280479431152,-128.623992919921,39.4383850097656,3117850995
fw,-81.0317459106445,-60.9991836547851,-146.323425292968,50.1063385009765,3117867662
fw,-78.1724548339843,-62.1731986999511,-150.848342895507,68.5298309326171,3117884329
fw,-75.3623733520507,-63.5327949523925,-170.055847167968,79.6449813842773,3117900996
fw,-72.3277206420898,-64.9446258544921,-190.019577026367,82.6476211547851,3117917663
fw,-69.2352828979492,-66.3769912719726,-183.655441284179,83.8875732421875,3117934330
fw,-66.5303344726562,-67.8862533569336,-150.07192993164,88.5691375732421,3117950997
fw,-64.1704864501953,-69.5241470336914,-126.691131591796,96.5265350341796,3117967664
fw,-62.02779006958,-71.2640762329101,-112.294227600097,103.257209777832,3117984331
fw,-60.0198860168457,-73.0463256835937,-107.68017578125,106.719657897949,3118000998
fw,-58.1051788330078,-74.7722549438476,-107.897079467773,104.475936889648,3118017665
fw,-56.391788482666,-76.5434036254882,-102.093620300292,108.013442993164,3118034332
fw,-54.9420509338378,-78.4838333129882,-90.4515304565429,119.493530273437,3118050999
fw,-53.8919792175293,-80.5062866210937,-73.4222259521484,127.395874023437,3118067666
fw,-53.1760025024414,-82.3955307006836,-58.8152427673339,126.034927368164,3118084333
fw,-53.0444221496582,-83.8703002929687,-19.8574504852294,108.356788635253,3118101000
fw,-53.5610618591308,-85.0655364990234,23.9727668762207,100.913253784179,3118117667
fw,-54.537353515625,-85.8696136474609,50.4403381347656,98.3955688476562,3118134334
fw,-55.4373321533203,-86.0718078613281,29.1524200439453,92.2306823730468,3118151001
fw,-56.6128730773925,-85.6728820800781,39.110740661621,83.3952865600586,3118167668
fw,-57.9426727294921,-84.9898834228515,49.783706665039,69.9133529663086,3118184335
fw,-59.0842361450195,-84.2636947631836,45.3599624633789,59.349365234375,3118201002
fw,-59.9685630798339,-83.4376831054687,36.0384330749511,62.0662574768066,3118217669
fw,-60.7048568725585,-82.5098800659179,29.8796844482421,65.2207260131836,3118234336
fw,-61.0478973388671,-81.5155181884765,9.73389720916748,67.030403137207,3118251003
fw,-61.16157913208,-80.5081024169921,-1.5310810804367,65.9124755859375,3118267670
fw,-61.1564750671386,-79.6238861083984,-10.3270874023437,54.4073905944824,3118284337
fw,-61.4557495117187,-78.9636917114257,2.49107861518859,37.4815940856933,3118301004
fw,-62.4661102294921,-78.7411956787109,37.874168395996,10.2420139312744,3118317671
fw,-63.3593139648437,-79.0117263793945,32.8551483154296,-17.3994522094726,3118334338
fw,-63.5728416442871,-79.9276046752929,1.95126163959503,-53.2399215698242,3118351005
fw,-63.559959411621,-81.6578598022461,-0.384562730789184,-98.1221389770507,3118367672
fw,-63.6064376831054,-84.0895156860351,-2.72859454154968,-142.757980346679,3118384339
fw,-63.9164657592773,-87.1042327880859,12.5221424102783,-193.176803588867,3118401006
fw,-64.561767578125,-87.789192199707,30.6921310424804,-232.704849243164,3118417673
fw,-65.6341171264648,-84.1611175537109,45.3439750671386,-241.085250854492,3118434340
fw,-66.8081970214843,-80.236457824707,57.9958953857421,-235.367385864257,3118451007
fw,-68.1397705078125,-76.3935165405273,70.7572402954101,-227.928253173828,3118467674
fw,-69.4523544311523,-72.6552734375,67.6932754516601,-225.375366210937,3118484341
fw,-70.7406463623046,-68.9569625854492,63.0216903686523,-225.811325073242,3118501008
fw,-72.0419692993164,-65.6559906005859,58.9663696289062,-202.900436401367,3118517675
fw,-73.3542709350586,-62.7607994079589,57.565673828125,-179.523605346679,3118534342
fw,-74.7451858520507,-59.9292678833007,62.8933029174804,-174.770553588867,3118551009
fw,-76.2526779174804,-57.4934730529785,71.8643341064453,-144.64663696289,3118567676
fw,-77.8271102905273,-55.8677062988281,77.4424743652343,-94.75390625,3118584343
fw,-79.4981079101562,-53.8128204345703,84.8102569580078,-124.902275085449,3118601010
fw,-81.238525390625,-51.5097579956054,91.3605194091796,-143.916885375976,3118617677
fw,-82.8421249389648,-49.3958435058593,83.1961822509765,-134.440383911132,3118634344
fw,-84.3339004516601,-48.4421005249023,75.3712310791015,-64.6553878784179,3118651011
fw,-85.7275390625,-48.2609405517578,70.8029174804687,-17.2874450683593,3118667678
fw,-87.0899429321289,-48.297191619873,71.1849517822265,-3.17879033088684,3118684345
fw,-88.4158859252929,-48.4264755249023,71.3152694702148,2.82288908958435,3118701012
fw,-89.6118469238281,-48.8176574707031,65.4028625488281,19.3874740600585,3118717679
fw,-89.2294998168945,-49.7169075012207,58.6644477844238,51.1613311767578,3118734346
fw,-88.1536865234375,-50.7296409606933,56.1682968139648,54.8015251159668,3118751013
fw,-87.0114212036132,-52.4727668762207,57.2189254760742,96.8611297607421,3118767680
fw,-85.8616638183593,-54.3428001403808,55.4059219360351,105.539657592773,3118784347
fw,-84.7980575561523,-55.7770690917968,49.7712249755859,79.7025375366211,3118801014
fw,-83.825942993164,-56.9984970092773,46.1806297302246,67.32275390625,3118817681
fw,-82.9719543457031,-58.5676574707031,42.2952117919921,89.8838653564453,3118834348
fw,-82.303108215332,-59.1530876159668,32.8000259399414,29.5560054779052,3118851015
fw,-81.8794631958007,-59.3881683349609,20.8628616333007,7.20539808273315,3118867682
fw,-81.6900253295898,-59.2100639343261,10.4702396392822,-18.0136108398437,3118884349
fw,-81.7023696899414,-59.3130416870117,1.29679560661315,-2.51216602325439,3118901016
fw,-82.1474990844726,-60.573616027832,-18.9117908477783,69.2787704467773,3118917683
fw,-83.222915649414,-61.2546119689941,-50.337116241455,41.4922561645507,3118934350
fw,-84.9571762084961,-60.7506484985351,-85.8717193603515,-32.509479522705,3118951017
fw,-87.1448059082031,-60.2928314208984,-113.3413772583,-31.766881942749,3118967684
fw,-87.959243774414,-60.0139694213867,-120.3970413208,-23.3968029022216,3118984351
fw,-85.750015258789,-60.0996055603027,-112.085990905761,0.245724782347679,3119001018
fw,-82.9649429321289,-60.4141654968261,-129.012588500976,15.3806247711181,3119017685
fw,-80.0828323364257,-60.90376663208,-149.805435180664,27.4788780212402,3119034352
fw,-77.2654113769531,-61.7090301513671,-168.510665893554,47.127586364746,3119051019
fw,-74.3210830688476,-62.9267654418945,-194.653930664062,71.7587738037109,3119067686
fw,-71.0931777954101,-64.254280090332,-213.98501586914,77.8459167480468,3119084353
fw,-67.8995361328125,-65.6471862792968,-197.265243530273,81.5236129760742,3119101020
fw,-65.2728500366211,-67.0904922485351,-147.652114868164,84.476203918457,3119117687
fw,-62.9318885803222,-68.6618041992187,-124.232398986816,92.2079696655273,3119134354
fw,-60.8837928771972,-70.4432373046875,-103.346328735351,105.474349975585,3119151021
fw,-59.1419601440429,-72.203498840332,-89.8764572143554,105.36595916748,3119167688
fw,-57.5364151000976,-73.8332901000976,-92.2289428710937,98.1902542114257,3119184355
fw,-55.9064598083496,-75.5274429321289,-103.045021057128,102.633323669433,3119201022
fw,-54.3511390686035,-77.4749603271484,-106.48412322998,119.321548461914,3119217689
fw,-53.2399444580078,-79.5630111694336,-81.0917739868164,130.597686767578,3119234356
fw,-52.7295341491699,-81.5316085815429,-43.4249877929687,129.627044677734,3119251023
fw,-53.0789985656738,-83.2114105224609,18.0926723480224,121.030609130859,3119267690
fw,-53.9031982421875,-84.5683364868164,45.0167007446289,114.600700378417,3119284357
fw,-54.5798835754394,-85.5129318237304,16.4200077056884,111.842819213867,3119301024
fw,-55.7842063903808,-85.7950439453125,46.5457458496093,106.157333374023,3119317691
fw,-57.0373229980468,-85.4255218505859,45.423713684082,90.4315338134765,3119334358
fw,-58.2161903381347,-84.7142105102539,45.1704025268554,72.9619140625,3119351025
fw,-59.338882446289,-83.8871154785156,44.5664863586425,63.7525482177734,3119367692
fw,-60.4263229370117,-83.0170288085937,43.4590950012207,63.6451301574707,3119384359
fw,-61.2068634033203,-82.0617065429687,25.2410221099853,66.9388809204101,3119401026
fw,-61.5514945983886,-81.022720336914,3.76714944839477,68.736213684082,3119417693
fw,-61.6986579895019,-80.1470108032226,-5.12051725387573,54.2763175964355,3119434360
fw,-62.0852851867675,-79.5835342407226,4.38075256347656,31.6423950195312,3119451027
fw,-63.0390815734863,-79.4509811401367,37.8994636535644,5.04023313522338,3119467694
fw,-63.9504890441894,-79.7629241943359,42.7781257629394,-20.9206066131591,3119484361
fw,-64.0472030639648,-80.6996383666992,1.67892956733703,-57.9775695800781,3119501028
fw,-63.9222984313964,-82.4612121582031,-8.21290111541748,-105.132820129394,3119517695
fw,-64.0003967285156,-84.8579177856445,-2.20344805717468,-147.946823120117,3119534362
fw,-64.3188323974609,-87.3164978027343,12.1028652191162,-202.493698120117,3119551029
fw,-64.9323501586914,-85.9603729248046,34.0232009887695,-251.222061157226,3119567696
fw,-65.9351806640625,-82.2007217407226,44.9337081909179,-248.06460571289,3119584363
fw,-67.0159759521484,-78.3691711425781,54.6318206787109,-231.26203918457,3119601030
fw,-68.2645263671875,-74.7349853515625,68.0597381591796,-215.394012451171,3119617697
fw,-69.5921325683593,-71.0079498291015,70.8235473632812,-224.881057739257,3119634364
fw,-70.9391555786132,-67.2555694580078,66.9492111206054,-228.361083984375,3119651031
fw,-72.2845840454101,-64.0425872802734,61.5852546691894,-196.428329467773,3119667698
fw,-73.6604080200195,-61.3596000671386,60.0958023071289,-165.356567382812,3119684365
fw,-75.1347732543945,-58.7143096923828,67.1324310302734,-162.020217895507,3119701032
fw,-76.6714706420898,-56.7141456604003,73.4612960815429,-117.490280151367,3119717699
fw,-78.2529678344726,-55.1751899719238,77.9953918457031,-89.0703659057617,3119734366
fw,-79.8943939208984,-53.2085723876953,80.8984146118164,-119.094665527343,3119751033
fw,-81.5414657592773,-51.1385650634765,82.1561965942382,-129.724609375,3119767700
fw,-83.1149597167968,-49.1619911193847,80.4103851318359,-126.19213104248,3119784367
fw,-84.6302032470703,-47.9207382202148,79.6600570678711,-80.7945175170898,3119801034
fw,-86.0859375,-47.7435836791992,79.2078094482421,-14.7189540863037,3119817701
fw,-87.4120712280273,-47.9434051513671,74.0041961669921,9.77724361419677,3119834368
fw,-88.5414276123046,-48.2534523010253,68.4517517089843,16.8139934539794,3119851035
fw,-89.0591354370117,-48.9592552185058,65.3098068237304,40.9560165405273,3119867702
fw,-88.3350524902343,-50.2066192626953,66.6502685546875,73.0199127197265,3119884369
fw,-87.2431716918945,-51.4328689575195,64.0157394409179,66.6793975830078,3119901036
fw,-86.0868835449218,-53.3473358154296,61.8885498046875,107.411758422851,3119917703
fw,-84.8828964233398,-55.3425216674804,61.8691787719726,114.311813354492,3119934370
fw,-83.6256332397461,-56.8887329101562,63.8205223083496,87.6329956054687,3119951037
fw,-82.4017791748046,-58.5661277770996,62.0077095031738,96.7085494995117,3119967704
fw,-81.3433303833007,-59.9303817749023,54.5983009338378,78.2236633300781,3119984371
fw,-80.6310806274414,-60.5444641113281,35.976261138916,30.6101722717285,3120001038
fw,-80.3248825073242,-60.6879577636718,13.3893823623657,2.40389966964721,3120017705
fw,-80.3368606567382,-60.7045097351074,-2.88479661941528,-5.52316570281982,3120034372
fw,-80.7853927612304,-61.7495765686035,-24.4371032714843,57.1140480041503,3120051039
fw,-81.814582824707,-62.7808456420898,-53.2296028137207,62.1455841064453,3120067706
fw,-83.4702453613281,-62.6897506713867,-88.0536422729492,-6.12406730651855,3120084373
fw,-85.8002624511718,-62.4347801208496,-125.779174804687,-18.0860404968261,3120101040
fw,-88.3461380004882,-62.3807678222656,-152.546249389648,-6.82956409454345,3120117707
fw,-87.3162765502929,-62.6987113952636,-152.502563476562,17.1064834594726,3120134374
fw,-84.3487548828125,-63.5073585510253,-149.19075012207,47.0841331481933,3120151041
fw,-81.2149047851562,-64.5646591186523,-161.404586791992,61.7560768127441,3120167708
fw,-78.2193603515625,-65.9147338867187,-167.612823486328,79.2900238037109,3120184375
fw,-75.1975708007812,-67.4635848999023,-182.96939086914,91.1395568847656,3120201042
fw,-71.9999389648437,-68.9065246582031,-200.751235961914,84.9749755859375,3120217709
fw,-68.9807891845703,-70.2193298339843,-181.885421752929,77.7245178222656,3120234376
fw,-66.520767211914,-71.5551681518554,-133.635269165039,79.7184066772461,3120251043
fw,-64.2970657348632,-72.9661483764648,-114.891281127929,85.2085876464843,3120267710
fw,-62.2975425720214,-74.4474487304687,-97.7423400878906,90.6619644165039,3120284377
fw,-60.4472846984863,-75.9442672729492,-87.905891418457,92.5169830322265,3120301044
fw,-58.602123260498,-77.5014419555664,-95.2611465454101,97.089599609375,3120317711
fw,-56.8489303588867,-79.0429306030273,-100.225700378417,97.9232482910156,3120334378
fw,-55.373249053955,-80.5238800048828,-92.7092132568359,96.1344223022461,3120351045
fw,-54.0231704711914,-81.8843688964843,-98.9648284912109,93.2003860473632,3120367712
fw,-53.1134796142578,-83.2639083862304,-73.1677627563476,100.14501953125,3120384379
fw,-53.0459594726562,-84.5640792846679,-14.0593509674072,106.340454101562,3120401046
fw,-53.5821838378906,-85.4315948486328,26.4217872619628,98.481704711914,3120417713
fw,-54.3694076538085,-85.7747421264648,37.24702835083,83.6504516601562,3120434380
fw,-55.1498832702636,-85.6709823608398,25.3033294677734,81.5748748779296,3120451047
fw,-56.2821464538574,-85.108154296875,39.8317070007324,82.9660110473632,3120467714
fw,-57.8808479309082,-84.221923828125,67.0498809814453,81.6257171630859,3120484381
fw,-59.6190071105957,-83.2118148803711,80.4272384643554,74.1440734863281,3120501048
fw,-61.0072708129882,-82.1690292358398,55.9749145507812,69.3104553222656,3120517715
fw,-62.0998344421386,-81.155891418457,35.2323989868164,64.9025115966796,3120534382
fw,-62.8797950744628,-80.1559982299804,24.6535968780517,65.8399047851562,3120551049
fw,-63.093334197998,-79.1732177734375,-0.737152874469757,66.667251586914,3120567716
fw,-63.2581253051757,-78.3080825805664,-2.41121459007263,55.9898834228515,3120584383
fw,-63.8922805786132,-77.6764144897461,19.0348854064941,36.9119987487793,3120601050
fw,-64.9499053955078,-77.5338745117187,43.550968170166,6.31280708312988,3120617717
fw,-65.2691421508789,-78.1436309814453,11.5818500518798,-37.6114616394043,3120634384
fw,-65.042495727539,-79.6882247924804,-13.730993270874,-91.9189376831054,3120651051
fw,-64.878791809082,-82.0948028564453,-16.5901546478271,-140.170379638671,3120667718
fw,-65.0754013061523,-84.9859313964843,1.73890495300292,-168.814331054687,3120684385
fw,-65.3836288452148,-88.3717727661132,16.0750408172607,-213.096237182617,3120701052
fw,-66.0619812011718,-86.984619140625,32.2468109130859,-242.84846496582,3120717719
fw,-67.060920715332,-83.0310897827148,47.4189109802246,-238.153701782226,3120734386
fw,-68.2969970703125,-79.0120010375976,65.0088653564453,-239.502548217773,3120751053
fw,-69.6524200439453,-75.1110610961914,74.0947723388671,-235.920196533203,3120767720
fw,-70.912841796875,-71.3437576293945,65.6744384765625,-230.815979003906,3120784387
fw,-72.1453323364257,-67.873176574707,59.5454673767089,-213.063262939453,3120801054
fw,-73.4776000976562,-64.9203720092773,62.5546493530273,-181.712951660156,3120817721
fw,-74.9059524536132,-62.2913475036621,67.5580062866211,-161.098861694335,3120834388
fw,-76.3822479248046,-59.5952453613281,71.8300323486328,-160.266891479492,3120851055
fw,-77.8936767578125,-57.6963653564453,73.7684555053711,-108.34358215332,3120867722
fw,-79.4581680297851,-55.8066673278808,76.8489456176757,-112.239776611328,3120884389
fw,-81.1237640380859,-53.4666671752929,83.0811386108398,-143.916549682617,3120901056
fw,-82.7922210693359,-51.1194534301757,85.1191329956054,-147.421997070312,3120917723
fw,-84.4623565673828,-49.2925682067871,87.7210845947265,-116.758491516113,3120934390
fw,-86.0253677368164,-48.3337326049804,83.4890365600586,-63.8735275268554,3120951057
fw,-87.3902359008789,-48.0327796936035,75.7478942871093,-23.8266105651855,3120967724
fw,-88.5165481567382,-48.2661705017089,72.2542343139648,9.30518817901611,3120984391
fw,-88.8644332885742,-48.7473526000976,68.6299514770507,24.6679134368896,3121001058
fw,-88.1570816040039,-49.327651977539,62.7239837646484,30.7865352630615,3121017725
fw,-87.161376953125,-50.2771682739257,60.113426208496,51.8827896118164,3121034392
fw,-86.0515670776367,-51.2479133605957,61.1151885986328,50.0006675720214,3121051059
fw,-84.915771484375,-53.3362045288085,59.1328811645507,119.037902832031,3121067726
fw,-83.7920227050781,-55.6355934143066,58.4490318298339,131.980926513671,3121084393
fw,-82.6913452148437,-57.4007415771484,58.7298278808593,99.3235931396484,3121101060
fw,-81.6208877563476,-59.01607131958,58.6604194641113,90.7767715454101,3121117727
fw,-80.6960830688476,-59.9987258911132,48.7951202392578,52.1592025756835,3121134394
fw,-80.1125869750976,-60.5291023254394,26.7991008758544,24.9087619781494,3121151061
fw,-79.9423828125,-60.6690597534179,4.43308305740356,3.37390303611755,3121167728
fw,-80.2112197875976,-61.3068695068359,-16.4147319793701,32.867618560791,3121184395
fw,-81.012336730957,-62.4648742675781,-38.9021949768066,67.5485382080078,3121201062
fw,-82.5031509399414,-62.6136512756347,-72.271858215332,9.11673641204834,3121217729
fw,-84.7068328857421,-62.0834159851074,-106.260101318359,-36.7975349426269,3121234396
fw,-87.3004913330078,-61.7297897338867,-128.4482421875,-28.2141284942626,3121251063
fw,-88.2954406738281,-61.8512496948242,-130.349807739257,3.29811429977417,3121267730
fw,-85.9135208129882,-62.339500427246,-136.264328002929,27.6660404205322,3121284397
fw,-82.8152618408203,-63.1710472106933,-166.045959472656,48.2702484130859,3121301064
fw,-79.7439498901367,-64.1637954711914,-175.827041625976,57.7334442138671,3121317731
fw,-76.7147903442382,-65.3212585449218,-185.944305419921,67.8411483764648,3121334398
fw,-73.4568328857421,-66.6181030273437,-203.111434936523,76.1088027954101,3121351065
fw,-70.2418746948242,-67.9851684570312,-186.918746948242,80.0526046752929,3121367732
fw,-67.5801544189453,-69.4690017700195,-138.580978393554,87.0218124389648,3121384399
fw,-65.230842590332,-71.1000289916992,-115.478637695312,96.0502777099609,3121401066
fw,-63.1887588500976,-72.7989196777343,-91.001838684082,100.720680236816,3121417733
fw,-61.3259544372558,-74.4788513183593,-77.5600662231445,100.459129333496,3121434400
fw,-59.4889869689941,-76.1309661865234,-88.3660888671875,99.284309387207,3121451067
fw,-57.6369361877441,-77.8245468139648,-103.732505798339,101.776901245117,3121467734
fw,-56.0713500976562,-79.5642852783203,-94.0822601318359,105.68113708496,3121484401
fw,-54.6590385437011,-81.3352584838867,-92.4289398193359,109.992988586425,3121501068
fw,-53.7592163085937,-82.9782028198242,-62.4499969482421,106.756927490234,3121517735
fw,-53.5912170410156,-84.5555877685546,-13.6369886398315,108.546737670898,3121534402
fw,-54.1723327636718,-86.0495834350586,35.209617614746,119.022811889648,3121551069
fw,-55.168285369873,-86.8615036010742,52.6855964660644,114.947357177734,3121567736
fw,-56.1332130432128,-86.685302734375,35.2615776062011,96.9037780761718,3121584403
fw,-57.3821334838867,-85.9899520874023,39.8668937683105,78.7727966308593,3121601070
fw,-58.7655220031738,-85.1453857421875,46.8338813781738,66.9413681030273,3121617737
fw,-60.380859375,-84.2011642456054,73.0012664794921,63.4680519104003,3121634404
fw,-61.6267890930175,-83.1478042602539,57.0287857055664,66.1899719238281,3121651071
fw,-62.3105659484863,-82.0182266235351,14.8360004425048,70.2068862915039,3121667738
fw,-62.2942352294921,-80.8423690795898,-18.9595146179199,72.8661193847656,3121684405
fw,-62.0635871887207,-79.6513366699218,-21.1963882446289,73.2961349487304,3121701072
fw,-61.8714752197265,-78.7003479003906,-18.8104782104492,56.1528587341308,3121717739
fw,-62.2420310974121,-78.2184448242187,7.82270812988281,26.3984336853027,3121734406
fw,-63.1221847534179,-78.2847137451171,28.6447734832763,-4.24899816513061,3121751073
fw,-63.3905372619628,-78.9525070190429,7.24211454391479,-38.537483215332,3121767740
fw,-63.0648384094238,-80.2967834472656,-19.2361755371093,-77.2666244506836,3121784407
fw,-62.7962951660156,-82.4194869995117,-25.3376960754394,-121.801231384277,3121801074
fw,-62.6184921264648,-85.2902297973632,-18.409065246582,-167.381088256835,3121817741
fw,-62.703254699707,-88.7947235107421,13.393117904663,-206.536010742187,3121834408
fw,-63.4177589416503,-87.2750930786132,38.5161170959472,-225.436538696289,3121851075
fw,-64.4938812255859,-83.230972290039,46.7384071350097,-235.789276123046,3121867742
fw,-65.742446899414,-79.5492172241211,59.5926895141601,-216.46369934082,3121884409
fw,-67.1038513183593,-76.0204849243164,70.0717697143554,-214.954208374023,3121901076
fw,-68.515625,-72.3350067138671,73.1269454956054,-227.798049926757,3121917743
fw,-69.9144287109375,-68.786018371582,67.2373352050781,-218.295684814453,3121934410
fw,-71.3298416137695,-65.6839828491211,62.1841392517089,-190.666687011718,3121951077
fw,-72.7547760009765,-63.0495643615722,61.1301803588867,-161.885848999023,3121967744
fw,-74.1975326538086,-60.6768608093261,65.1117095947265,-143.523468017578,3121984411
fw,-75.6943130493164,-58.0802764892578,70.3962631225586,-150.983291625976,3122001078
fw,-77.1978225708007,-56.2356719970703,70.3695297241211,-105.562469482421,3122017745
fw,-78.7184448242187,-54.3708038330078,70.061294555664,-111.662155151367,3122034412
fw,-80.1995239257812,-52.5864677429199,69.7783966064453,-112.029815673828,3122051079
fw,-81.5833892822265,-51.1253318786621,66.559097290039,-96.0772933959961,3122067746
fw,-83.0207901000976,-50.0335693359375,72.3171234130859,-73.3955917358398,3122084413
fw,-84.5723495483398,-49.4921607971191,80.369888305664,-36.6618347167968,3122101080
fw,-86.1788482666015,-48.9524154663085,84.4793548583984,-35.0521392822265,3122117747
fw,-87.7653350830078,-48.6030197143554,82.4927291870117,-24.8971710205078,3122134414
fw,-89.2371597290039,-48.5908279418945,73.8830261230468,-6.71893119812011,3122151081
fw,-89.5094146728515,-49.0717544555664,66.3408813476562,21.2118968963623,3122167748
fw,-88.215347290039,-49.9599685668945,63.9178123474121,44.4725875854492,3122184415
fw,-86.9248352050781,-51.2119102478027,66.0999450683593,67.1180801391601,3122201082
fw,-85.5961608886718,-53.359748840332,69.2695083618164,122.16893005371,3122217749
fw,-84.2929153442382,-55.5112991333007,68.2054214477539,122.692504882812,3122234416
fw,-83.0643234252929,-56.5956192016601,64.9303359985351,59.2148933410644,3122251083
fw,-81.9709701538086,-57.5232391357421,57.6322135925293,50.2983436584472,3122267750
fw,-81.1056976318359,-58.0086250305175,43.5484886169433,20.6904830932617,3122284417
fw,-80.5519180297851,-58.1252937316894,25.5129337310791,-1.49349892139434,3122301084
fw,-80.3324203491211,-58.023078918457,8.67548656463623,-12.885154724121,3122317751
fw,-80.4027023315429,-58.2296867370605,-3.89952826499938,4.76734542846679,3122334418
fw,-80.9435806274414,-59.5132637023925,-25.1603698730468,70.9363403320312,3122351085
fw,-82.116958618164,-60.4755821228027,-56.742992401123,56.8183479309082,3122367752
fw,-83.9174346923828,-60.2114181518554,-89.2822647094726,-17.8092155456542,3122384419
fw,-85.9952316284179,-59.8074531555175,-109.086807250976,-29.3061389923095,3122401086
fw,-86.9328002929687,-59.6442604064941,-108.439079284667,-15.2499122619628,3122417753
fw,-85.6563415527343,-60.0140571594238,-100.338287353515,18.8636302947998,3122434420
fw,-83.48046875,-60.6318778991699,-133.392181396484,34.0882034301757,3122451087
fw,-80.9128646850586,-61.4691619873046,-162.817825317382,47.9785346984863,3122467754
fw,-78.1834182739257,-62.5806579589843,-187.671966552734,64.8677368164062,3122484421
fw,-75.2064056396484,-63.9736099243164,-207.80972290039,81.7942657470703,3122501088
fw,-72.045181274414,-65.4331665039062,-213.325241088867,85.7616271972656,3122517755
fw,-68.8773880004882,-66.7976455688476,-200.315185546875,80.1615829467773,3122534422
fw,-66.1389770507812,-68.2021942138671,-154.488082885742,82.8977127075195,3122551089
fw,-63.814712524414,-69.7445297241211,-118.942680358886,91.9710617065429,3122567756
fw,-61.7876815795898,-71.379653930664,-101.627349853515,98.7008895874023,3122584423
fw,-59.9325408935546,-73.104133605957,-97.4865798950195,105.148559570312,3122601090
fw,-58.1767120361328,-74.8626480102539,-103.247512817382,107.710487365722,3122617757
fw,-56.4759902954101,-76.8304595947265,-109.669860839843,122.718460083007,3122634424
fw,-54.99556350708,-78.9841156005859,-100.94026184082,137.781982421875,3122651091
fw,-53.8294410705566,-81.1743240356445,-88.9490051269531,146.468688964843,3122667758
fw,-53.1733322143554,-83.1381378173828,-57.307876586914,147.470642089843,3122684425
fw,-53.19580078125,-84.5516586303711,-9.22797012329101,136.384979248046,3122701092
fw,-53.8806343078613,-85.2769012451171,35.2930107116699,124.899543762207,3122717759
fw,-54.8794136047363,-85.240005493164,45.7183685302734,102.495246887207,3122734426
fw,-55.7869110107421,-84.7274627685546,22.3403759002685,80.2256393432617,3122751093
fw,-56.9811363220214,-84.0710067749023,34.1080093383789,64.6872177124023,3122767760
fw,-58.3062324523925,-83.32861328125,41.4873847961425,59.4559783935546,3122784427
fw,-59.5959281921386,-82.4862442016601,46.0224723815918,58.1464118957519,3122801094
fw,-60.791690826416,-81.6264038085937,47.5743904113769,55.4648170471191,3122817761
fw,-61.6286010742187,-80.8250656127929,27.0694007873535,49.3893013000488,3122834428
fw,-61.9044647216796,-80.0551300048828,4.49115991592407,46.7432403564453,3122851095
fw,-61.6550674438476,-79.3246231079101,-21.5980529785156,45.1944007873535,3122867762
fw,-61.3161125183105,-78.7162094116211,-28.0483894348144,35.4002532958984,3122884429
fw,-61.5091400146484,-78.3355178833007,-0.99039602279663,19.892967224121,3122901096
fw,-62.4061698913574,-78.2826461791992,37.8760910034179,-0.0231925547122955,3122917763
fw,-62.5735702514648,-78.691535949707,3.44764041900634,-27.2676219940185,3122934430
fw,-62.2792625427246,-79.8656997680664,-15.7889814376831,-71.0306549072265,3122951097
fw,-62.2346267700195,-81.9167251586914,-2.47993397712707,-119.201347351074,3122967764
fw,-62.212547302246,-84.6087493896484,-15.6118917465209,-161.963119506835,3122984431
fw,-62.7034797668457,-87.4798202514648,15.1959075927734,-205.698165893554,3123001098
fw,-63.912799835205,-86.7863006591796,43.2209167480468,-233.885269165039,3123017765
fw,-65.2761688232421,-83.2383041381836,48.6818885803222,-230.286224365234,3123034432
fw,-66.6144561767578,-79.442886352539,64.6503524780273,-225.546264648437,3123051099
fw,-67.6934356689453,-75.8488082885742,59.1381340026855,-212.207427978515,3123067766
fw,-68.7895126342773,-72.2001953125,60.183837890625,-221.7607421875,3123084433
fw,-69.9211654663086,-68.6215744018554,54.2434387207031,-219.34959411621,3123101100
fw,-71.128059387207,-65.5613784790039,54.6010780334472,-187.999969482421,3123117767
fw,-72.4446182250976,-62.8298187255859,59.2203216552734,-167.785095214843,3123134434
fw,-73.7848739624023,-60.0755233764648,58.3342018127441,-167.57469177246,3123151101
fw,-75.2428359985351,-58.2201652526855,66.9495239257812,-109.771118164062,3123167768
fw,-76.8236618041992,-56.1448745727539,77.661880493164,-123.46401977539,3123184435
fw,-78.4569625854492,-53.7778930664062,83.3322830200195,-144.70295715332,3123201102
fw,-80.0607147216796,-51.4611129760742,83.3294677734375,-146.115570068359,3123217769
fw,-81.6528701782226,-49.4235153198242,82.7238693237304,-131.224853515625,3123234436
fw,-83.2347946166992,-48.4319343566894,81.3789901733398,-67.0028991699218,3123251103
fw,-84.7981338500976,-48.3358192443847,79.3141937255859,-10.2994689941406,3123267770
fw,-86.3325424194336,-48.4069137573242,77.3949737548828,0.785574078559875,3123284437
fw,-87.7860107421875,-48.5355148315429,71.0656051635742,4.14939355850219,3123301104
fw,-89.2082061767578,-48.9025650024414,68.3801345825195,18.3360004425048,3123317771
fw,-89.4995422363281,-49.9311904907226,68.1016616821289,58.7649803161621,3123334438
fw,-88.1298904418945,-51.091136932373,69.0843200683593,62.3959083557128,3123351105
fw,-86.7406387329101,-52.831916809082,72.9123382568359,96.334716796875,3123367772
fw,-85.3233337402343,-54.5603065490722,75.0467834472656,97.5462799072265,3123384439
fw,-83.9087677001953,-55.5566787719726,73.6338500976562,53.6861038208007,3123401106
fw,-82.6061019897461,-56.769187927246,66.177375793457,67.9666290283203,3123417773
fw,-81.5077972412109,-58.0245971679687,55.1989250183105,73.6233978271484,3123434440
fw,-80.6996994018554,-58.6101341247558,38.578125,28.8865089416503,3123451107
fw,-80.2278060913086,-58.6523513793945,19.6632938385009,-6.05332708358764,3123467774
fw,-79.9954376220703,-58.3711509704589,8.2789831161499,-25.9436454772949,3123484441
fw,-80.0241546630859,-58.8934097290039,-3.76344585418701,21.4195156097412,3123501108
fw,-80.4804306030273,-60.05419921875,-22.1689052581787,67.3541641235351,3123517775
fw,-81.4803924560546,-60.3740043640136,-48.0431022644043,19.9328327178955,3123534442
fw,-83.2713012695312,-60.0823669433593,-89.8712844848632,-20.2342567443847,3123551109
fw,-85.8336029052734,-59.8155136108398,-129.306640625,-20.826316833496,3123567776
fw,-87.961067199707,-59.7991867065429,-134.923995971679,-7.005699634552,3123584443
fw,-86.7581024169921,-60.2424278259277,-119.816902160644,21.0266189575195,3123601110
fw,-84.0836486816406,-60.911506652832,-140.057434082031,36.3664016723632,3123617777
fw,-81.1078796386718,-61.7675170898437,-165.334808349609,49.4609909057617,3123634444
fw,-78.2289505004882,-62.9592857360839,-177.912521362304,70.16845703125,3123651111
fw,-75.2006378173828,-64.3925018310546,-195.960510253906,84.3950805664062,3123667778
fw,-72.0020523071289,-65.7988967895507,-203.536209106445,82.474365234375,3123684445
fw,-68.8904953002929,-67.1914291381836,-185.960235595703,81.4413833618164,3123701112
fw,-66.2853317260742,-68.6698226928711,-140.010986328125,86.3006210327148,3123717779
fw,-63.9601783752441,-70.2814254760742,-118.898857116699,94.3066711425781,3123734446
fw,-61.7978858947753,-72.0406799316406,-108.726455688476,104.133399963378,3123751113
fw,-59.8382568359375,-73.8047866821289,-102.140274047851,105.414810180664,3123767780
fw,-57.9277305603027,-75.6923446655273,-113.125244140625,113.635681152343,3123784447
fw,-56.1944999694824,-77.7570648193359,-110.224731445312,125.847999572753,3123801114
fw,-54.8140907287597,-80.0930557250976,-90.4730224609375,145.888702392578,3123817781
fw,-53.8697242736816,-82.3764572143554,-66.7142181396484,149.32518005371,3123834448
fw,-53.4424705505371,-84.1767120361328,-37.5994873046875,128.356018066406,3123851115
fw,-53.5689392089843,-85.4551162719726,-5.47029972076416,108.170639038085,3123867782
fw,-54.3070106506347,-86.2809066772461,30.0212364196777,92.7457046508789,3123884449
fw,-55.3171768188476,-86.5839614868164,37.3002700805664,80.0228729248046,3123901116
fw,-56.6088066101074,-86.3264617919921,52.8402557373046,74.946792602539,3123917783
fw,-58.055004119873,-85.6348037719726,62.4875907897949,74.4026260375976,3123934450
fw,-59.1264495849609,-84.6895751953125,32.5067100524902,74.198127746582,3123951117
fw,-60.0337486267089,-83.6559448242187,22.2572517395019,69.395637512207,3123967784
fw,-61.218147277832,-82.7095413208007,49.9850845336914,57.3144187927246,3123984451
fw,-61.9993896484375,-81.8539199829101,36.4952507019043,50.5128097534179,3124001118
fw,-62.0153579711914,-80.980712890625,-6.93089246749877,54.4735679626464,3124017785
fw,-61.8941383361816,-80.1216812133789,-12.2965793609619,53.8210639953613,3124034452
fw,-61.8997230529785,-79.4794082641601,-2.45640110969543,37.6387138366699,3124051119
fw,-62.569580078125,-79.1298217773437,33.635929107666,19.6581802368164,3124067786
fw,-63.1363372802734,-79.1823501586914,29.2964096069335,-3.7128472328186,3124084453
fw,-62.8723983764648,-79.8658142089843,-20.381441116333,-40.1835899353027,3124101120
fw,-62.4424285888671,-81.3594207763671,-28.2938518524169,-85.8048706054687,3124117787
fw,-62.3793449401855,-83.6425094604492,-6.28370857238769,-132.253616333007,3124134454
fw,-62.5246238708496,-86.7602767944336,3.40408515930175,-189.012893676757,3124151121
fw,-63.2002601623535,-88.5622329711914,36.4832763671875,-235.311279296875,3124167788
fw,-64.3642501831054,-84.7977981567382,48.4911880493164,-245.274124145507,3124184455
fw,-65.6051254272461,-80.828254699707,54.998550415039,-235.486953735351,3124201122
fw,-66.9662704467773,-76.9498443603515,69.5392379760742,-227.472030639648,3124217789
fw,-68.4633712768554,-73.1334152221679,79.7969436645507,-228.821868896484,3124234456
fw,-70.0476455688476,-69.1546478271484,83.8169784545898,-243.797698974609,3124251123
fw,-71.639175415039,-65.7155532836914,78.8572387695312,-212.557373046875,3124267790
fw,-73.2284927368164,-62.6729621887207,74.3038635253906,-188.538681030273,3124284457
fw,-74.7933883666992,-59.9283180236816,69.1235046386718,-168.911499023437,3124301124
fw,-76.2950363159179,-57.3378868103027,63.997875213623,-153.793380737304,3124317791
fw,-77.7876510620117,-55.7228622436523,64.1036376953125,-91.590576171875,3124334458
fw,-79.3767700195312,-53.6795578002929,73.3385848999023,-121.843223571777,3124351125
fw,-81.0969314575195,-51.5775642395019,85.2641220092773,-129.374145507812,3124367792
fw,-82.9516830444336,-49.5348396301269,97.6765594482421,-129.919998168945,3124384459
fw,-84.7760314941406,-48.0497741699218,96.9489135742187,-98.8107376098632,3124401126
fw,-86.4494552612304,-47.9135055541992,89.0099868774414,-16.7271633148193,3124417793
fw,-87.951301574707,-48.3137588500976,79.6148071289062,17.89866065979,3124434460
fw,-89.3172912597656,-48.7828407287597,72.4195404052734,22.996187210083,3124451127
fw,-89.2317886352539,-49.3271026611328,71.4931869506836,27.9494724273681,3124467794
fw,-88.0008087158203,-50.4631729125976,65.0750427246093,64.0292663574218,3124484461
fw,-86.8357238769531,-51.4871559143066,60.810733795166,51.9999160766601,3124501128
fw,-85.6758270263671,-53.2683715820312,59.536334991455,96.7836380004882,3124517795
fw,-84.5865173339843,-54.8836936950683,54.096393585205,88.7664184570312,3124534462
fw,-83.5752029418945,-56.0676155090332,49.4806213378906,65.003547668457,3124551129
fw,-82.6575698852539,-57.275405883789,45.1133689880371,67.8907928466796,3124567796
fw,-81.8812255859375,-58.1218719482421,37.268985748291,45.9282684326171,3124584463
fw,-81.4151077270507,-58.3190383911132,20.2240161895751,5.58463954925537,3124601130
fw,-81.2420272827148,-58.152545928955,9.139328956604,-16.5138664245605,3124617797
fw,-81.3340835571289,-58.035415649414,-1.64853990077972,-15.4009561538696,3124634464
fw,-81.7792053222656,-59.0791969299316,-18.0150051116943,54.3725128173828,3124651131
fw,-82.7394790649414,-59.8642311096191,-45.370849609375,45.1374969482421,3124667798
fw,-84.3954544067382,-59.2826957702636,-85.1128311157226,-38.1899604797363,3124684465
fw,-86.632453918457,-58.6763648986816,-116.47696685791,-41.2879257202148,3124701132
fw,-88.4517440795898,-58.5282859802246,-138.119171142578,-13.7251987457275,3124717799
fw,-86.4737472534179,-58.8370246887207,-126.759132385253,14.6018228530883,3124734466
fw,-83.6474456787109,-59.5361022949218,-123.608512878417,39.5733261108398,3124751133
fw,-80.6017074584961,-60.4419822692871,-149.130905151367,52.3800506591796,3124767800
fw,-77.635871887207,-61.6424255371093,-160.754119873046,70.6384887695312,3124784467
fw,-74.7038116455078,-63.0746383666992,-180.223159790039,84.4828872680664,3124801134
fw,-71.5772933959961,-64.4565963745117,-203.358810424804,81.0003585815429,3124817801
fw,-68.4030990600586,-65.8564834594726,-201.646240234375,82.014663696289,3124834468
fw,-65.6765747070312,-67.3181533813476,-158.877456665039,85.5368194580078,3124851135
fw,-63.3213272094726,-68.9301605224609,-127.041687011718,94.3960189819336,3124867802
fw,-61.1291618347168,-70.6319808959961,-113.331085205078,100.082664489746,3124884469
fw,-59.0339813232421,-72.3114700317382,-112.053924560546,99.6962890625,3124901136
fw,-57.1009445190429,-73.9648132324218,-111.700439453125,99.1565551757812,3124917803
fw,-55.3540916442871,-75.739143371582,-108.788078308105,107.418434143066,3124934470
fw,-53.8201446533203,-77.7353591918945,-102.202941894531,122.600723266601,3124951137
fw,-52.7721824645996,-79.8382720947265,-75.0739059448242,131.678527832031,3124967804
fw,-52.1978569030761,-81.8906860351562,-49.3723411560058,133.311370849609,3124984471
fw,-52.1827812194824,-83.7383804321289,-14.7519369125366,128.706466674804,3125001138
fw,-52.8253936767578,-85.2220916748046,27.9107818603515,120.988807678222,3125017805
fw,-53.8365592956543,-86.1542739868164,44.01997756958,117.391143798828,3125034472
fw,-54.9295349121093,-86.1829452514648,35.375259399414,109.614448547363,3125051139
fw,-56.4321708679199,-85.4592514038086,61.6844177246093,95.7109909057617,3125067806
fw,-57.7769203186035,-84.5501861572265,44.7468566894531,74.3291702270507,3125084473
fw,-59.1442604064941,-83.6711120605468,52.922752380371,62.2476806640625,3125101140
fw,-60.2345237731933,-82.7721405029296,38.1424980163574,61.323932647705,3125117807
fw,-61.1541404724121,-81.8312454223632,28.6155567169189,62.5010185241699,3125134474
fw,-61.6042785644531,-80.8541107177734,9.29063415527343,63.6964721679687,3125151141
fw,-61.6913681030273,-79.9743041992187,-5.78047037124633,54.9141387939453,3125167808
fw,-61.7392082214355,-79.4164352416992,-8.31250667572021,29.7313556671142,3125184475
fw,-62.3516502380371,-79.2352523803711,23.5752983093261,5.2849702835083,3125201142
fw,-63.3638153076171,-79.4196166992187,46.6268119812011,-13.7419919967651,3125217809
fw,-63.654426574707,-80.1001434326171,13.5950393676757,-40.2134628295898,3125234476
fw,-63.3716239929199,-81.5761032104492,-15.0014553070068,-83.2372283935546,3125251143
fw,-63.1944351196289,-83.7150344848632,-10.2840642929077,-118.986511230468,3125267810
fw,-63.27583694458,-86.5070495605468,-0.177854642271995,-162.115051269531,3125284477
fw,-63.59321975708,-89.0874252319336,14.6709012985229,-214.182342529296,3125301144
fw,-64.4502792358398,-85.4799652099609,36.074893951416,-241.331710815429,3125317811
fw,-65.5742797851562,-81.3409118652343,48.3185195922851,-243.217254638671,3125334478
fw,-66.8805313110351,-77.3591842651367,66.4233703613281,-233.64990234375,3125351145
fw,-68.3259735107421,-73.5901565551757,78.3343734741211,-225.383651733398,3125367812
fw,-69.8279800415039,-69.7623214721679,80.9074401855468,-235.12060546875,3125384479
fw,-71.287971496582,-66.2199325561523,73.4810333251953,-219.071838378906,3125401146
fw,-72.7474594116211,-63.2148208618164,66.6806716918945,-187.2822265625,3125417813
fw,-74.2285385131836,-60.4675216674804,63.7901077270507,-170.753387451171,3125434480
fw,-75.7063751220703,-57.6789894104003,63.1519927978515,-168.358993530273,3125451147
fw,-77.2243576049804,-55.8972663879394,67.234130859375,-102.106117248535,3125467814
fw,-78.8636093139648,-53.9736747741699,76.8754196166992,-114.767776489257,3125484481
fw,-80.5957565307617,-51.8925743103027,85.6892700195312,-129.506607055664,3125501148
fw,-82.3943939208984,-49.6979064941406,93.4552993774414,-139.748062133789,3125517815
fw,-84.2001571655273,-47.7831535339355,97.1064682006836,-124.711288452148,3125534482
fw,-85.7971420288086,-47.1523284912109,85.1830139160156,-47.8117904663085,3125551149
fw,-87.2180709838867,-47.3988342285156,74.3535537719726,6.80352115631103,3125567816
fw,-88.5753631591796,-47.9782066345214,70.8420333862304,29.1751670837402,3125584483
fw,-89.8916473388671,-48.585033416748,65.7272720336914,32.0820541381835,3125601150
fw,-89.0827255249023,-49.6813621520996,57.6228790283203,62.3278999328613,3125617817
fw,-88.0143661499023,-50.6945648193359,55.54292678833,54.7088775634765,3125634484
fw,-86.8477478027343,-52.5864143371582,60.9017028808593,103.665588378906,3125651151
fw,-85.6867980957031,-54.4754371643066,59.0515708923339,105.534843444824,3125667818
fw,-84.5973205566406,-56.0372352600097,53.3822135925293,86.2190017700195,3125684485
fw,-83.5810089111328,-57.3367767333984,49.2447280883789,71.3752288818359,3125701152
fw,-82.6862716674804,-58.569351196289,43.0340270996093,67.2717208862304,3125717819
fw,-82.0842819213867,-58.9788360595703,26.2915782928466,14.9164533615112,3125734486
fw,-81.7888870239257,-59.0650329589843,11.8749113082885,-3.48660731315612,3125751153
fw,-81.6922760009765,-58.9884223937988,6.85683870315551,-11.9106121063232,3125767820
fw,-81.8569259643554,-59.8461799621582,-2.63026905059814,44.090950012207,3125784487
fw,-82.451919555664,-60.9277420043945,-24.4394397735595,63.2210235595703,3125801154
fw,-83.7145385742187,-60.7409133911132,-64.0736999511718,-11.9099702835083,3125817821
fw,-85.6706161499023,-59.9940071105957,-100.880409240722,-48.5681533813476,3125834488
fw,-88.1127014160156,-59.6125183105468,-134.899520874023,-28.7298011779785,3125851155
fw,-87.3343505859375,-59.6466979980468,-136.264358520507,-1.61953103542327,3125867822
fw,-84.559829711914,-60.0578689575195,-120.033363342285,21.8248195648193,3125884489
fw,-81.5668563842773,-60.7459869384765,-145.314376831054,38.2857322692871,3125901156
fw,-78.4883346557617,-61.5793952941894,-166.656005859375,48.1476173400878,3125917823
fw,-75.5076675415039,-62.7003669738769,-181.987396240234,65.8438415527343,3125934490
fw,-72.3557968139648,-63.9446678161621,-205.082260131835,73.0664749145507,3125951157
fw,-69.1946411132812,-65.1611328125,-203.239013671875,71.2031936645507,3125967824
fw,-66.5872039794921,-66.3269805908203,-148.163589477539,68.172622680664,3125984491
fw,-64.4110870361328,-67.6484451293945,-110.229019165039,77.6960296630859,3126001158
fw,-62.3495941162109,-69.1861114501953,-99.1521072387695,91.2247619628906,3126017825
fw,-60.3320808410644,-70.7509613037109,-96.767707824707,93.8874588012695,3126034492
fw,-58.320068359375,-72.3046035766601,-107.082969665527,93.711799621582,3126051159
fw,-56.3647918701171,-73.85595703125,-117.900009155273,93.4541244506836,3126067826
fw,-54.6340522766113,-75.5955734252929,-115.070167541503,105.29133605957,3126084493
fw,-53.1893005371093,-77.4453048706054,-106.350173950195,112.764694213867,3126101160
fw,-52.2662277221679,-79.3923416137695,-76.7687835693359,120.466316223144,3126117827
fw,-52.0364875793457,-81.2466049194336,-29.0962371826171,119.277931213378,3126134494
fw,-52.4981956481933,-82.872802734375,19.0542945861816,112.701187133789,3126151161
fw,-53.3107604980468,-84.3328247070312,37.7156333923339,113.2622756958,3126167828
fw,-54.11372756958,-85.4492568969726,25.6381149291992,112.241081237792,3126184495
fw,-55.1027755737304,-85.9039459228515,28.0012264251709,102.154891967773,3126201162
fw,-56.2640991210937,-85.6900253295898,35.8748588562011,86.3251876831054,3126217829
fw,-57.3857192993164,-85.0716094970703,39.2750930786132,72.5833511352539,3126234496
fw,-58.3527526855468,-84.2602157592773,31.5908279418945,68.0716247558593,3126251163
fw,-59.3969993591308,-83.2978286743164,37.346565246582,72.9281997680664,3126267830
fw,-60.1643371582031,-82.1655654907226,24.2430629730224,81.0115737915039,3126284497
fw,-60.5284194946289,-80.9710464477539,7.36237955093383,80.1440277099609,3126301164
fw,-60.6819343566894,-79.9199752807617,-4.9038348197937,65.0514984130859,3126317831
fw,-60.8394126892089,-79.1547470092773,-7.34911632537841,43.1030731201171,3126334498
fw,-61.6327514648437,-78.7056884765625,27.1467876434326,24.3018798828125,3126351165
fw,-62.7651634216308,-78.6327514648437,47.5389213562011,3.19035649299621,3126367832
fw,-63.2405166625976,-79.0797500610351,18.4050197601318,-27.0149459838867,3126384499
fw,-63.2838134765625,-80.3130264282226,0.638211011886596,-71.8140029907226,3126401166
fw,-63.4050216674804,-82.3479843139648,5.22216653823852,-117.771575927734,3126417833
fw,-63.5789794921875,-85.1505889892578,-0.515878736972808,-171.446060180664,3126434500
fw,-63.883861541748,-87.9615478515625,14.0439558029174,-220.663253784179,3126451167
fw,-64.7479095458984,-85.9898071289062,39.5674171447753,-250.71971130371,3126467834
fw,-65.9401397705078,-82.0838928222656,56.4063072204589,-241.162536621093,3126484501
fw,-67.296157836914,-78.2424163818359,71.9112014770507,-225.031661987304,3126501168
fw,-68.6363983154296,-74.6305389404296,72.7526092529296,-213.06216430664,3126517835
fw,-69.9875869750976,-70.9803161621093,68.9136352539062,-222.566818237304,3126534502
fw,-71.3368606567382,-67.4011306762695,60.3539237976074,-220.050247192382,3126551169
fw,-72.6969909667968,-64.2987899780273,56.0457458496093,-191.252792358398,3126567836
fw,-74.1259307861328,-61.49409866333,60.4954452514648,-173.182952880859,3126584503
fw,-75.6240158081054,-58.685806274414,67.6158752441406,-171.073867797851,3126601170
fw,-77.2004776000976,-56.6159324645996,75.7741012573242,-121.748313903808,3126617837
fw,-78.8880004882812,-54.5361824035644,83.7633514404296,-124.47599029541,3126634504
fw,-80.6371078491211,-52.0462417602539,88.857307434082,-154.412063598632,3126651171
fw,-82.3770294189453,-49.7661781311035,89.6966476440429,-145.519546508789,3126667838
fw,-84.0189666748046,-47.8936614990234,84.4389419555664,-123.208023071289,3126684505
fw,-85.5553894042968,-47.1368217468261,79.6473693847656,-55.5046577453613,3126701172
fw,-87.0137786865234,-47.1673545837402,77.0164413452148,-6.38844442367553,3126717839
fw,-88.3651809692382,-47.4831733703613,74.0326843261718,12.4564361572265,3126734506
fw,-89.3230514526367,-48.0392227172851,70.0188522338867,27.9570064544677,3126751173
fw,-88.7648849487304,-49.0381317138671,65.7316207885742,54.9656066894531,3126767840
fw,-87.6953125,-50.0448608398437,60.2354927062988,53.5901527404785,3126784507
fw,-86.5740661621093,-51.4374923706054,58.3009643554687,73.9507217407226,3126801174
fw,-85.4370498657226,-53.8358993530273,56.7107849121093,136.618682861328,3126817841
fw,-84.3067779541015,-55.8333740234375,54.5949401855468,112.711921691894,3126834508
fw,-83.1986846923828,-57.2376098632812,52.9607543945312,77.0436172485351,3126851175
fw,-82.1776504516601,-58.4099693298339,49.7601623535156,63.3339080810546,3126867842
fw,-81.3701782226562,-59.0106163024902,38.1580047607421,27.4805526733398,3126884509
fw,-80.887580871582,-59.4258422851562,21.7282066345214,17.3720989227294,3126901176
fw,-80.7306213378906,-59.4951438903808,7.01068115234375,-1.20807683467865,3126917843
fw,-80.8666229248046,-59.8869361877441,-5.92317962646484,16.6011085510253,3126934510
fw,-81.4271240234375,-61.2070198059082,-24.1705017089843,75.0609130859375,3126951177
fw,-82.5578231811523,-61.5961952209472,-52.8804664611816,23.1809215545654,3126967844
fw,-84.4377517700195,-60.8583793640136,-92.0050048828125,-47.5358543395996,3126984511
fw,-86.9180297851562,-60.333267211914,-121.548065185546,-37.3537979125976,3127001178
fw,-88.5442428588867,-60.3295402526855,-128.467468261718,-3.83055019378662,3127017845
fw,-86.4905548095703,-60.7514190673828,-116.745361328125,24.3498592376709,3127034512
fw,-83.6292953491211,-61.4793319702148,-137.451065063476,41.291706085205,3127051179
fw,-80.5945892333984,-62.3650703430175,-160.480987548828,50.4737854003906,3127067846
fw,-77.646499633789,-63.4700469970703,-172.693283081054,64.1827392578125,3127084513
fw,-74.6329727172851,-64.7438583374023,-191.719894409179,74.630500793457,3127101180
fw,-71.4053878784179,-66.0661239624023,-203.778396606445,77.534683227539,3127117847
fw,-68.4371337890625,-67.4124755859375,-167.463653564453,79.0822677612304,3127134514
fw,-65.9522628784179,-68.7767105102539,-124.774238586425,80.5116806030273,3127151181
fw,-63.7393112182617,-70.2982788085937,-101.715354919433,90.6780166625976,3127167848
fw,-61.6696281433105,-71.9113845825195,-89.9354476928711,96.9214477539062,3127184515
fw,-59.6425590515136,-73.5329360961914,-93.4154891967773,97.9721374511718,3127201182
fw,-57.6839523315429,-75.181411743164,-105.67472076416,100.029876708984,3127217849
fw,-55.9826164245605,-76.9943542480468,-102.131881713867,111.77855682373,3127234516
fw,-54.6148300170898,-78.8893280029296,-89.9591369628906,119.984733581542,3127251183
fw,-53.60986328125,-80.916519165039,-75.2215042114257,133.108291625976,3127267850
fw,-53.1255836486816,-82.9279861450195,-44.3807296752929,144.008743286132,3127284517
fw,-53.3907470703125,-84.5958251953125,5.57905054092407,145.746551513671,3127301184
fw,-54.1803359985351,-85.5107040405273,34.6589622497558,141.726760864257,3127317851
fw,-55.1194686889648,-85.3905334472656,34.0920715332031,125.613204956054,3127334518
fw,-56.4975624084472,-84.6766738891601,55.6221160888671,99.2964630126953,3127351185
fw,-57.6587219238281,-83.8181610107421,28.6835441589355,75.9620819091796,3127367852
fw,-58.8967819213867,-82.9327621459961,40.394603729248,62.9145278930664,3127384519
fw,-60.1894378662109,-82.0146865844726,52.5496940612793,60.3554306030273,3127401186
fw,-61.1826286315918,-81.034439086914,33.3587570190429,63.5826759338378,3127417853
fw,-61.6645050048828,-80.0031433105468,-1.57098960876464,65.2533721923828,3127434520
fw,-61.8707771301269,-78.9720764160156,-7.17508554458618,63.0902786254882,3127451187
fw,-61.8777923583984,-78.1054153442382,-18.1854667663574,49.7058410644531,3127467854
fw,-62.3888893127441,-77.5841751098632,12.2011995315551,29.1386623382568,3127484521
fw,-63.5571937561035,-77.5588226318359,54.3512496948242,1.68063175678253,3127501188
fw,-64.1351089477539,-77.9754486083984,29.0708389282226,-24.5386753082275,3127517855
fw,-63.9975395202636,-79.0249099731445,-10.778805732727,-62.5244598388671,3127534522
fw,-63.8366088867187,-80.9153289794921,-15.6324815750122,-111.309471130371,3127551189
fw,-63.9169311523437,-83.6447372436523,1.01315510272979,-162.531616210937,3127567856
fw,-64.2343139648437,-86.9561233520507,23.2859668731689,-209.380325317382,3127584523
fw,-65.0194778442382,-87.8670501708984,39.2768478393554,-239.631423950195,3127601190
fw,-66.1488494873046,-84.2129745483398,49.7159805297851,-244.285659790039,3127617857
fw,-67.4548263549804,-80.5397186279296,62.9510803222656,-222.637100219726,3127634524
fw,-68.9096984863281,-76.7560958862304,74.9892654418945,-227.793426513671,3127651191
fw,-70.4328308105468,-72.9650497436523,75.442024230957,-229.701690673828,3127667858
fw,-71.9709701538086,-69.0876083374023,71.473892211914,-235.069107055664,3127684525
fw,-73.4913253784179,-65.548110961914,67.2042999267578,-215.104843139648,3127701192
fw,-75.0102310180664,-62.5343856811523,66.5086059570312,-183.611633300781,3127717859
fw,-76.538101196289,-60.0187797546386,66.8388290405273,-150.572219848632,3127734526
fw,-78.1387481689453,-57.4646759033203,73.6938018798828,-143.525695800781,3127751193
fw,-79.8843688964843,-55.8565406799316,84.8690795898437,-84.4292373657226,3127767860
fw,-81.7314376831054,-53.9680061340332,92.6924743652343,-108.365394592285,3127784527
fw,-83.5683441162109,-51.8425407409668,92.8279342651367,-128.541305541992,3127801194
fw,-85.2562026977539,-49.9534301757812,84.9369506835937,-116.643501281738,3127817861
fw,-86.828125,-48.592601776123,78.9214859008789,-85.3941497802734,3127834528
fw,-88.2992324829101,-48.0159454345703,74.6673431396484,-38.9594688415527,3127851195
fw,-89.6400909423828,-47.9168624877929,73.9374237060546,-11.1389036178588,3127867862
fw,-88.9352264404296,-48.2563858032226,67.8281021118164,14.6140594482421,3127884529
fw,-87.7161254882812,-49.0333137512207,64.709846496582,40.9961776733398,3127901196
fw,-86.4999923706054,-50.2027931213378,63.4925384521484,64.7041931152343,3127917863
fw,-85.232437133789,-51.4542007446289,65.151496887207,68.7602005004882,3127934530
fw,-83.969123840332,-53.684585571289,62.8582382202148,127.101364135742,3127951197
fw,-82.8208084106445,-55.1025924682617,54.980167388916,78.1016464233398,3127967864
fw,-81.8416671752929,-55.7334289550781,45.4202728271484,31.6001682281494,3127984531
fw,-80.9661483764648,-57.0129241943359,42.538963317871,73.3889389038086,3128001198
fw,-80.2381973266601,-57.5901489257812,34.3655967712402,29.8700866699218,3128017865
fw,-79.8085479736328,-58.0304298400878,17.5188465118408,18.8980598449707,3128034532
fw,-79.6582641601562,-58.0979843139648,5.59910011291503,-1.35408449172973,3128051199
fw,-79.8922882080078,-58.384162902832,-11.8791437149047,12.1783552169799,3128067866
fw,-80.6802978515625,-59.5322723388671,-37.6352653503418,65.283447265625,3128084533
fw,-82.0890731811523,-59.9680519104003,-69.1824645996093,28.7363986968994,3128101200
fw,-84.2132110595703,-59.4623832702636,-109.472068786621,-31.4623336791992,3128117867
fw,-86.7951507568359,-59.113956451416,-139.054962158203,-25.2685527801513,3128134534
fw,-87.7924728393554,-59.1367683410644,-136.676483154296,-1.63668274879455,3128151201
fw,-85.7501983642578,-59.4723854064941,-123.246597290039,17.8650875091552,3128167868
fw,-83.0400238037109,-60.1847038269043,-146.239913940429,41.1653671264648,3128184535
fw,-80.1100997924804,-61.2623863220214,-173.59341430664,63.0569915771484,3128201202
fw,-77.1346206665039,-62.5574111938476,-191.92170715332,76.2864990234375,3128217869
fw,-73.9391326904296,-63.9542045593261,-206.347091674804,82.353157043457,3128234536
fw,-70.5738372802734,-65.3551712036132,-210.76284790039,81.9971694946289,3128251203
fw,-67.4451446533203,-66.7049331665039,-183.236267089843,78.5371322631836,3128267870
fw,-64.8157730102539,-68.1072845458984,-140.694244384765,81.6596221923828,3128284537
fw,-62.3849601745605,-69.7121505737304,-122.106216430664,94.133056640625,3128301204
fw,-60.2339630126953,-71.4987564086914,-105.654861450195,105.856887817382,3128317871
fw,-58.4878273010253,-73.3365402221679,-89.6292877197265,109.805694580078,3128334538
fw,-56.8737907409668,-75.1228637695312,-90.2975540161132,107.816741943359,3128351205
fw,-55.3492240905761,-76.972412109375,-91.0652618408203,113.111099243164,3128367872
fw,-54.1959266662597,-78.9015121459961,-70.6220474243164,119.637924194335,3128384539
fw,-53.3506660461425,-80.832778930664,-60.6702079772949,122.237831115722,3128401206
fw,-52.9949378967285,-82.6421432495117,-35.0802879333496,119.028167724609,3128417873
fw,-53.4159049987793,-84.2116928100586,16.4150047302246,115.247451782226,3128434540
fw,-54.4922828674316,-85.5051651000976,57.6663055419921,119.5825881958,3128451207
fw,-55.547752380371,-86.1632461547851,44.0129051208496,114.30883026123,3128467874
fw,-56.7025604248046,-86.0204391479492,39.8858642578125,95.7960205078125,3128484541
fw,-57.66943359375,-85.4204635620117,18.9536819458007,78.2020263671875,3128501208
fw,-58.7060508728027,-84.5719833374023,28.0890159606933,73.7810821533203,3128517875
fw,-59.8997573852539,-83.526252746582,44.0104637145996,75.3482818603515,3128534542
fw,-60.9023780822753,-82.3396835327148,31.5783348083496,78.1943206787109,3128551209
fw,-61.4655227661132,-81.1646041870117,8.72318840026855,73.0732955932617,3128567876
fw,-61.6521987915039,-79.9772262573242,-3.90220117568969,72.1651153564453,3128584543
fw,-61.4816741943359,-78.9575576782226,-23.4264602661132,58.969928741455,3128601210
fw,-61.7112464904785,-78.2145156860351,-2.14732575416564,42.9985198974609,3128617877
fw,-62.7464561462402,-77.9775772094726,37.9742736816406,16.8581466674804,3128634544
fw,-63.5445137023925,-78.1283493041992,29.8212852478027,-4.42319536209106,3128651211
fw,-63.360668182373,-78.8445281982421,-17.7198677062988,-37.8254966735839,3128667878
fw,-62.9570503234863,-80.4226684570312,-24.452163696289,-88.8490676879882,3128684545
fw,-62.7635841369628,-82.7721099853515,-16.7861003875732,-135.563735961914,3128701212
fw,-62.8675155639648,-85.9223022460937,2.5178050994873,-187.274383544921,3128717879
fw,-63.2536125183105,-89.2807235717773,16.4155120849609,-234.316421508789,3128734546
fw,-64.1830596923828,-85.6276702880859,36.5905494689941,-259.151763916015,3128751213
fw,-65.3553390502929,-81.5110855102539,54.9492073059082,-244.734832763671,3128767880
fw,-66.7220306396484,-77.7021713256836,74.233413696289,-225.258819580078,3128784547
fw,-68.1069793701171,-74.0878219604492,76.157844543457,-217.233596801757,3128801214
fw,-69.5070114135742,-70.3969802856445,73.8649978637695,-226.421112060546,3128817881
fw,-70.9130020141601,-66.9756927490234,68.6416244506836,-211.488037109375,3128834548
fw,-72.2997970581054,-64.0473022460937,61.6208457946777,-181.499252319335,3128851215
fw,-73.7216567993164,-61.4072189331054,62.1193542480468,-162.633193969726,3128867882
fw,-75.2352600097656,-58.633560180664,69.6199035644531,-166.18618774414,3128884549
fw,-76.8265686035156,-56.4388694763183,77.3490142822265,-127.721412658691,3128901216
fw,-78.4873962402343,-54.4049568176269,83.3763809204101,-122.334373474121,3128917883
fw,-80.2274475097656,-51.9425506591796,88.2726745605468,-153.788665771484,3128934550
fw,-82.1058883666992,-49.6535148620605,97.3529891967773,-145.623901367187,3128951217
fw,-84.0099868774414,-48.0221557617187,100.492378234863,-106.743133544921,3128967884
fw,-85.7466049194336,-47.3942642211914,92.6019592285156,-47.1672248840332,3128984551
fw,-87.2278747558593,-47.2769584655761,80.2973937988281,-16.3950977325439,3129001218
fw,-88.498062133789,-47.5380325317382,75.5783081054687,8.40476036071777,3129017885
fw,-89.0292434692382,-48.1476211547851,70.0341796875,31.1068782806396,3129034552
fw,-88.357177734375,-49.2323493957519,61.5240631103515,60.6979713439941,3129051219
fw,-87.3148956298828,-50.2685928344726,61.0639419555664,55.5094299316406,3129067886
fw,-86.1303176879882,-52.2275085449218,63.4526481628418,107.652053833007,3129084553
fw,-84.8815155029296,-54.4631996154785,63.9505577087402,125.890235900878,3129101220
fw,-83.698371887207,-55.9377250671386,57.6004409790039,80.3020858764648,3129117887
fw,-82.6063842773437,-56.9998130798339,53.2805252075195,56.2834587097168,3129134554
fw,-81.6150283813476,-57.9332199096679,49.0326843261718,50.0073547363281,3129151221
fw,-80.8750610351562,-58.2585105895996,33.4174003601074,10.7591171264648,3129167888
fw,-80.4312286376953,-58.4024429321289,18.6366748809814,1.96878051757812,3129184555
fw,-80.2543792724609,-58.0347862243652,7.01079559326171,-27.8258247375488,3129201222
fw,-80.3650588989257,-58.4424819946289,-6.86241388320922,15.644003868103,3129217889
fw,-80.9169998168945,-59.8727760314941,-25.1251792907714,80.4944381713867,3129234556
fw,-82.0177764892578,-60.3206405639648,-53.452293395996,26.515790939331,3129251223
fw,-83.9232025146484,-59.8177986145019,-98.2872543334961,-33.5770530700683,3129267890
fw,-86.6343154907226,-59.5021362304687,-136.080703735351,-24.4696388244628,3129284557
fw,-89.4446792602539,-59.6431121826171,-146.745956420898,4.58822917938232,3129301224
fw,-87.0720977783203,-60.1747322082519,-133.087829589843,28.4498710632324,3129317891
fw,-83.9448928833007,-60.9113807678222,-145.695602416992,40.7082786560058,3129334558
fw,-80.612678527832,-61.9331932067871,-167.285446166992,58.3171615600585,3129351225
fw,-77.4486083984375,-63.3623123168945,-174.79670715332,83.9488754272461,3129367892
fw,-74.301399230957,-64.9628067016601,-185.119964599609,94.3806076049804,3129384559
fw,-71.0117263793945,-66.4370727539062,-197.629241943359,86.6105346679687,3129401226
fw,-67.9038772583007,-67.8543701171875,-175.327407836914,83.0434494018554,3129417893
fw,-65.221435546875,-69.3367385864257,-136.93049621582,86.7818222045898,3129434560
fw,-62.7423095703125,-70.9524993896484,-117.502296447753,94.9398727416992,3129451227
fw,-60.4241981506347,-72.6978073120117,-108.083976745605,103.378684997558,3129467894
fw,-58.2834320068359,-74.3956604003906,-107.416107177734,101.413932800292,3129484561
fw,-56.2928619384765,-76.1805725097656,-113.941001892089,107.354957580566,3129501228
fw,-54.4428596496582,-78.2102966308593,-112.409751892089,123.518547058105,3129517895
fw,-52.9539070129394,-80.3925018310546,-93.0760498046875,134.675048828125,3129534562
fw,-52.043472290039,-82.4669113159179,-60.072525024414,131.871017456054,3129551229
fw,-51.6978797912597,-84.2093887329101,-29.5008106231689,120.810089111328,3129567896
fw,-52.0655975341796,-85.4854660034179,13.1553335189819,104.137550354003,3129584563
fw,-53.1210060119628,-86.3027572631836,53.2831382751464,89.9627456665039,3129601230
fw,-54.4429588317871,-86.6565475463867,60.4043426513671,77.7143478393554,3129617897
fw,-55.9981575012207,-86.4858169555664,67.073860168457,73.1819763183593,3129634564
fw,-57.4452857971191,-85.9149093627929,52.331974029541,67.4958724975586,3129651231
fw,-58.7580490112304,-85.1586380004882,51.890151977539,59.8761024475097,3129667898
fw,-59.8888053894043,-84.3067092895507,42.1756439208984,56.1839447021484,3129684565
fw,-60.9430656433105,-83.3829879760742,45.3137474060058,57.3048934936523,3129701232
fw,-61.3237876892089,-82.4361114501953,11.3328056335449,59.5291290283203,3129717899
fw,-61.3774681091308,-81.442138671875,-2.56806111335754,64.1372833251953,3129734566
fw,-61.3568611145019,-80.6171188354492,-8.53600978851318,50.4344062805175,3129751233
fw,-61.6142768859863,-80.1415863037109,1.23308277130126,25.4778156280517,3129767900
fw,-62.6570472717285,-80.1106185913086,46.7356338500976,-0.154573887586593,3129784567
fw,-63.2920188903808,-80.5510330200195,29.1693878173828,-25.5117092132568,3129801234
fw,-63.115608215332,-81.6664352416992,-13.4058742523193,-63.1705703735351,3129817901
fw,-62.9782180786132,-83.54736328125,-7.6684832572937,-105.64793395996,3129834568
fw,-62.9698219299316,-86.1967239379882,-8.6445198059082,-155.351287841796,3129851235
fw,-63.2845802307128,-88.8191604614257,12.7350511550903,-215.660888671875,3129867902
fw,-64.2000656127929,-85.3709487915039,45.7602958679199,-257.204711914062,3129884569
fw,-65.378921508789,-81.0555038452148,51.3466987609863,-256.254974365234,3129901236
fw,-66.6689071655273,-77.0495300292968,64.520767211914,-234.522094726562,3129917903
fw,-68.0723648071289,-73.3055801391601,73.4801406860351,-220.69676208496,3129934570
fw,-69.5335159301757,-69.5782089233398,75.1090621948242,-227.437255859375,3129951237
fw,-70.9722290039062,-65.9288711547851,67.6679000854492,-225.00340270996,3129967904
fw,-72.4320678710937,-62.7385597229003,64.498779296875,-196.945068359375,3129984571
fw,-73.9026870727539,-59.5650978088378,64.216926574707,-195.404403686523,3130001238
fw,-75.3273468017578,-56.731273651123,62.8154067993164,-174.304412841796,3130017905
fw,-76.731330871582,-54.9190635681152,63.7345314025878,-109.386238098144,3130034572
fw,-78.2074279785156,-52.6843032836914,70.4613037109375,-134.492233276367,3130051239
fw,-79.7732620239257,-50.3233375549316,77.9683227539062,-145.04051208496,3130067906
fw,-81.3723831176757,-48.1131706237793,82.2332382202148,-138.456649780273,3130084573
fw,-82.9431228637695,-46.1486892700195,81.8794860839843,-126.442543029785,3130101240
fw,-84.4558563232421,-45.1866455078125,79.4938201904296,-66.8602142333984,3130117907
fw,-85.8691482543945,-45.1228065490722,73.3417358398437,-12.2062587738037,3130134574
fw,-87.2416763305664,-45.8744888305664,69.6962280273437,39.9165000915527,3130151241
fw,-88.6407318115234,-46.7171630859375,70.7275009155273,46.9514083862304,3130167908
fw,-90.0,-47.5807418823242,72.5848846435546,47.8546714782714,3130184575
fw,-88.7209854125976,-48.8497505187988,67.803955078125,71.8280944824218,3130201242
fw,-87.5432205200195,-50.4531326293945,60.5150871276855,87.9452438354492,3130217909
fw,-86.4197463989257,-52.6891403198242,58.0704116821289,123.567329406738,3130234576
fw,-85.3204803466796,-54.6616020202636,55.9128036499023,110.284172058105,3130251243
fw,-84.2415313720703,-56.0536575317382,53.5829353332519,76.3296890258789,3130267910
fw,-83.1920776367187,-57.6429710388183,51.971508026123,89.8174972534179,3130284577
fw,-82.1916885375976,-58.76851272583,49.6247787475585,62.6836242675781,3130301244
fw,-81.4942779541015,-59.2070236206054,30.9500865936279,20.0270633697509,3130317911
fw,-81.1437683105468,-59.1335716247558,12.9015207290649,-9.91351985931396,3130334578
fw,-80.970718383789,-58.9680137634277,7.21722888946533,-16.3196430206298,3130351245
fw,-81.0861511230468,-60.1499443054199,-5.77288818359375,62.6719398498535,3130367912
fw,-81.6811981201171,-61.4368553161621,-27.0072574615478,74.7651901245117,3130384579
fw,-82.9196395874023,-61.4813537597656,-60.5482635498046,1.37409484386444,3130401246
fw,-84.9235305786132,-61.1671638488769,-101.987182617187,-22.629072189331,3130417913
fw,-87.3207321166992,-60.9292564392089,-126.46434020996,-19.646427154541,3130434580
fw,-87.9516830444336,-61.0842056274414,-128.939483642578,4.02653646469116,3130451247
fw,-85.5579452514648,-61.4907302856445,-126.008468627929,22.2335205078125,3130467914
fw,-82.5542068481445,-61.8736381530761,-151.632827758789,19.8589630126953,3130484581
fw,-79.4428558349609,-62.7269897460937,-173.002212524414,49.1136093139648,3130501248
fw,-76.3550643920898,-63.9396018981933,-191.956558227539,71.0541152954101,3130517915
fw,-73.0036239624023,-65.1958312988281,-221.84373474121,73.627944946289,3130534582
fw,-69.4669189453125,-66.3912582397461,-230.627288818359,69.9673538208007,3130551249
fw,-66.2784271240234,-67.6022872924804,-188.422409057617,71.0841064453125,3130567916
fw,-63.499095916748,-68.9489974975586,-150.051025390625,79.8021392822265,3130584583
fw,-61.0596313476562,-70.3968811035156,-122.219680786132,86.8209533691406,3130601250
fw,-58.9386711120605,-71.8539047241211,-105.286582946777,88.1412658691406,3130617917
fw,-56.9204597473144,-73.3632431030273,-110.642150878906,91.4719543457031,3130634584
fw,-55.0407066345214,-74.9553604125976,-114.682540893554,96.5461959838867,3130651251
fw,-53.4443588256835,-76.7507858276367,-103.614639282226,110.117530822753,3130667918
fw,-52.207160949707,-78.6387863159179,-87.710205078125,118.90478515625,3130684585
fw,-51.2616958618164,-80.6840286254882,-75.1258850097656,133.682846069335,3130701252
fw,-50.7457389831543,-82.5555572509765,-51.6000175476074,132.50650024414,3130717919
fw,-51.109203338623,-84.1423416137695,7.53044176101684,128.929595947265,3130734586
fw,-52.2629280090332,-85.2504272460937,57.9871864318847,118.560623168945,3130751253
fw,-53.709602355957,-85.673469543457,73.3144760131836,92.1819534301757,3130767920
fw,-55.2379837036132,-85.5569305419921,64.7162933349609,73.0920639038086,3130784587
fw,-56.7816581726074,-85.1111984252929,59.3882713317871,62.2241859436035,3130801254
fw,-58.3105354309082,-84.4321823120117,64.1066665649414,61.1473159790039,3130817921
fw,-59.8077583312988,-83.5487670898437,66.1354675292968,64.9375228881836,3130834588
fw,-61.1833343505859,-82.6475830078125,61.1514816284179,60.1576309204101,3130851255
fw,-62.0772628784179,-81.8350448608398,40.0808868408203,52.0028495788574,3130867922
fw,-62.2078399658203,-81.04638671875,1.83920693397521,50.393440246582,3130884589
fw,-62.2268028259277,-80.3749237060546,-0.685362040996551,39.6418113708496,3130901256
fw,-62.5033340454101,-79.9862747192382,15.4196186065673,17.460350036621,3130917923
fw,-63.3257369995117,-79.9397048950195,43.6172828674316,-4.05228090286254,3130934590
fw,-63.5792274475097,-80.2449417114257,11.6239862442016,-23.8446674346923,3130951257
fw,-63.1914100646972,-81.1492080688476,-25.1638736724853,-58.0319862365722,3130967924
fw,-62.8510932922363,-82.7404479980468,-25.2500019073486,-95.5801849365234,3130984591
fw,-63.0092964172363,-84.9522476196289,5.03367328643798,-147.716827392578,3131001258
fw,-63.3852348327636,-86.7989425659179,19.0497169494628,-218.288345336914,3131017925
fw,-64.1393280029296,-84.7980575561523,31.2681694030761,-254.849655151367,3131034592
fw,-65.2960815429687,-81.0974426269531,46.8008155822753,-245.777770996093,3131051259
fw,-66.5675354003906,-77.1793746948242,57.6835021972656,-238.50242614746,3131067926
fw,-67.861946105957,-73.5317306518554,62.5310859680175,-216.075942993164,3131084593
fw,-69.1180038452148,-69.8492050170898,61.5302505493164,-221.009216308593,3131101260
fw,-70.3415908813476,-66.1940536499023,57.5469665527343,-222.76448059082,3131117927
fw,-71.59326171875,-63.2671356201171,53.9451179504394,-179.338241577148,3131134594
fw,-72.9240188598632,-60.9215393066406,58.5255470275878,-143.81623840332,3131151261
fw,-74.2698974609375,-58.4436607360839,61.0688514709472,-149.23681640625,3131167928
fw,-75.6650619506836,-56.4019355773925,66.1063995361328,-118.03507232666,3131184595
fw,-77.2034072875976,-54.8075637817382,76.3895568847656,-92.0041580200195,3131201262
fw,-78.8641815185546,-52.5841255187988,84.4762725830078,-134.542449951171,3131217929
fw,-80.5977401733398,-50.240379333496,90.0194473266601,-145.385620117187,3131234596
fw,-82.3601303100586,-48.1229858398437,91.7359161376953,-133.261016845703,3131251263
fw,-84.0963134765625,-46.9692039489746,90.1504516601562,-75.5773086547851,3131267930
fw,-85.7743225097656,-46.9012870788574,87.9957580566406,-9.93162155151367,3131284597
fw,-87.3839416503906,-47.2252769470214,84.936279296875,14.2761173248291,3131301264
fw,-88.9535751342773,-47.8343200683593,81.3985977172851,32.0825653076171,3131317931
fw,-89.6999893188476,-48.8818206787109,76.3535537719726,58.5104675292968,3131334598
fw,-88.2408599853515,-50.2631340026855,71.4975280761718,78.9385604858398,3131351265
fw,-86.939826965332,-51.7107620239257,66.556884765625,78.6989822387695,3131367932
fw,-85.6643371582031,-53.680908203125,64.2421188354492,109.58829498291,3131384599
fw,-84.2900009155273,-55.8184585571289,70.3181228637695,120.925575256347,3131401266
fw,-82.9157409667968,-57.5996894836425,70.5787353515625,99.5330657958984,3131417933
fw,-81.6202850341796,-58.7796592712402,66.9361572265625,64.7093048095703,3131434600
fw,-80.5613479614257,-59.1794166564941,53.110553741455,15.7901458740234,3131451267
fw,-79.9682464599609,-59.132957458496,25.8220462799072,-8.18275642395019,3131467934
fw,-79.8321914672851,-58.7769203186035,3.88890051841735,-25.2730979919433,3131484601
fw,-80.0932159423828,-58.7873840332031,-14.3481492996215,-5.52656078338623,3131501268
fw,-80.8124771118164,-59.8863067626953,-35.2639961242675,59.1326103210449,3131517935
fw,-82.0443344116211,-60.382698059082,-60.4688758850097,28.5202236175537,3131534602
fw,-83.9747467041015,-59.7832336425781,-97.9392166137695,-37.2385749816894,3131551269
fw,-86.4771881103515,-59.2812767028808,-126.864990234375,-33.8566360473632,3131567936
fw,-88.3533782958984,-59.4603767395019,-137.313995361328,5.897141456604,3131584603
fw,-86.4971466064453,-59.9589538574218,-133.271392822265,25.4660148620605,3131601270
fw,-83.554817199707,-60.603416442871,-153.292709350585,35.2939872741699,3131617937
fw,-80.3603286743164,-61.5409812927246,-177.651672363281,53.6984100341796,3131634604
fw,-77.2000122070312,-62.9470291137695,-192.316375732421,82.6609802246093,3131651271
fw,-73.766128540039,-64.3958511352539,-213.742233276367,85.2322463989257,3131667938
fw,-70.0458755493164,-65.8148727416992,-228.9130859375,83.148941040039,3131684605
fw,-66.7482223510742,-67.1213760375976,-190.835006713867,76.3983840942382,3131701272
fw,-64.1341705322265,-68.47119140625,-135.909393310546,79.0586318969726,3131717939
fw,-61.74116897583,-69.9336853027343,-116.664451599121,86.2998275756836,3131734606
fw,-59.7303886413574,-71.4740524291992,-94.9908142089843,91.8151092529296,3131751273
fw,-57.8749923706054,-73.0196990966796,-97.7384490966796,93.0181198120117,3131767940
fw,-56.0291290283203,-74.6708068847656,-108.060791015625,100.26781463623,3131784607
fw,-54.3479995727539,-76.5176239013671,-103.755195617675,114.361335754394,3131801274
fw,-52.8172760009765,-78.5390472412109,-103.275520324707,129.912384033203,3131817941
fw,-51.7063636779785,-80.4818801879882,-80.29638671875,129.924530029296,3131834608
fw,-51.3760070800781,-82.285659790039,-29.0802612304687,127.556022644042,3131851275
fw,-51.9241027832031,-83.9033660888671,30.2204036712646,127.736831665039,3131867942
fw,-53.1259498596191,-85.1132431030273,68.8937377929687,125.493843078613,3131884609
fw,-54.328815460205,-85.5876770019531,51.8104705810546,119.810081481933,3131901276
