Label,Left_Hip_q,Right_Hip_q,Left_Hip_qd,Right_Hip_qd,SampleTimeFine
sw,-84.1001358032226,-62.4410896301269,20.7717094421386,40.9362907409668,420138470
sw,-84.0210571289062,-63.5615348815918,18.6974277496337,28.9323062896728,420155137
sw,-83.9567794799804,-64.4916915893554,14.5769491195678,18.0275478363037,420171804
sw,-83.9488754272461,-65.4753341674804,9.01512908935546,25.7050876617431,420188471
sw,-84.0068130493164,-66.702766418457,4.42902040481567,42.6026878356933,420205138
sw,-84.1191024780273,-67.6465377807617,-2.5264503955841,46.3981094360351,420221805
sw,-84.185676574707,-68.1554641723632,-4.64631128311157,23.8175373077392,420238472
sw,-84.1025924682617,-68.1215744018554,-0.394717425107955,-13.5199794769287,420255139
sw,-83.8338546752929,-68.0195236206054,3.10723185539245,-23.5160980224609,420271806
sw,-83.4616317749023,-68.5414505004882,-0.74368017911911,1.72275865077972,420288473
sw,-82.9611511230468,-69.4430923461914,-13.331298828125,29.8573722839355,420305140
sw,-82.190689086914,-69.6463317871093,-35.6666030883789,1.05619001388549,420321807
sw,-80.9141616821289,-69.8711929321289,-57.1049652099609,-13.9084138870239,420338474
sw,-79.1411972045898,-70.1578903198242,-77.892349243164,-17.1478652954101,420355141
sw,-76.7522811889648,-70.6016616821289,-88.7902679443359,-11.3786554336547,420371808
sw,-73.94580078125,-71.3408508300781,-108.318786621093,2.25580382347106,420388475
sw,-71.4594955444336,-72.5170516967773,-135.06201171875,39.2400169372558,420405142
sw,-69.8786926269531,-73.7412719726562,-156.441802978515,47.4787788391113,420421809
sw,-68.4805221557617,-74.7039718627929,-176.379684448242,36.6573143005371,420438476
sw,-66.9295654296875,-75.7162704467773,-181.430877685546,41.9635848999023,420455143
sw,-65.3036270141601,-76.9158706665039,-158.738174438476,53.8453750610351,420471810
sw,-64.1167068481445,-78.1545333862304,-110.094017028808,57.2645835876464,420488477
sw,-63.0939903259277,-79.3449935913086,-92.1049194335937,54.7542686462402,420505144
sw,-61.8617324829101,-80.6470336914062,-106.70750427246,65.3079605102539,420521811
sw,-60.3602409362793,-82.0318832397461,-123.91665649414,77.0623168945312,420538478
sw,-58.922622680664,-83.5997848510742,-116.634048461914,91.9766159057617,420555145
sw,-57.6246147155761,-85.3360366821289,-105.598602294921,103.842887878417,420571812
sw,-56.4520950317382,-86.9749603271484,-93.5066604614257,102.924934387207,420588479
sw,-55.4350471496582,-87.9143753051757,-77.2825851440429,78.3732604980468,420605146
sw,-54.6749038696289,-87.9488143920898,-52.6782798767089,46.0128364562988,420621813
sw,-54.328987121582,-87.6421661376953,-20.206729888916,27.4017868041992,420638480
sw,-54.4042930603027,-87.2013778686523,3.79894924163818,25.6280708312988,420655147
sw,-54.6703300476074,-86.651985168457,8.57611751556396,24.2297439575195,420671814
sw,-55.1397361755371,-86.1441040039062,14.6453924179077,20.7181911468505,420688481
sw,-55.8790473937988,-85.7008972167968,26.5170841217041,20.160078048706,420705148
sw,-57.2641487121582,-85.2975921630859,76.430191040039,25.0432186126709,420721815
sw,-58.9295120239257,-84.804084777832,104.568840026855,35.5746421813964,420738482
sw,-60.4570045471191,-84.3267745971679,95.6606369018554,38.9790573120117,420755149
sw,-61.6746406555175,-83.9959335327148,68.3032684326171,34.7926025390625,420771816
sw,-63.3833656311035,-83.7824935913086,88.5929794311523,29.3439960479736,420788483
sw,-65.2036666870117,-83.6165390014648,117.417335510253,24.8882312774658,420805150
sw,-65.9995422363281,-83.6626892089843,60.8939971923828,11.7247800827026,420821817
sw,-66.1165618896484,-83.9426193237304,-6.68348884582519,0.570748567581176,420838484
sw,-66.3194427490234,-84.3639984130859,-3.25890851020813,-3.91017842292785,420855151
sw,-67.0130538940429,-84.9110336303711,27.8353767395019,-11.0147409439086,420871818
sw,-68.2704467773437,-85.4736404418945,47.206916809082,-15.1453523635864,420888485
sw,-69.5380783081054,-85.9154434204101,64.2369079589843,-17.9695777893066,420905152
sw,-70.19482421875,-85.951171875,40.3594856262207,-23.6871509552001,420921819
sw,-70.7908172607421,-85.1320877075195,38.4400558471679,-41.6576957702636,420938486
sw,-71.8266525268554,-83.3454284667968,54.0733375549316,-65.7046508789062,420955153
sw,-72.9290008544921,-81.1602935791015,33.4080810546875,-93.4347686767578,420971820
sw,-74.1187896728515,-79.029426574707,40.7460632324218,-124.57373046875,420988487
sw,-75.485725402832,-77.0334396362304,68.7846374511718,-138.888565063476,421005154
sw,-76.9988937377929,-75.0040664672851,70.8603363037109,-148.109146118164,421021821
sw,-78.488540649414,-73.0245819091796,69.9379577636718,-153.221481323242,421038488
sw,-79.7293624877929,-71.3388366699218,65.2534408569336,-141.767318725585,421055155
sw,-80.7148818969726,-69.9435806274414,49.3442459106445,-120.621032714843,421071822
sw,-81.5970458984375,-68.50439453125,37.0319786071777,-115.617179870605,421088489
sw,-82.3127517700195,-67.0045166015625,32.2308654785156,-114.133346557617,421105156
sw,-82.9076766967773,-65.6436538696289,37.9614753723144,-101.800582885742,421121823
sw,-83.4389953613281,-64.7101516723632,46.6438064575195,-80.1575775146484,421138490
sw,-83.874526977539,-64.2739791870117,46.7518157958984,-71.0318908691406,421155157
sw,-84.2206039428711,-63.5522384643554,43.5102424621582,-94.0284881591796,421171824
sw,-84.4693374633789,-62.51655960083,40.5399017333984,-89.0650787353515,421188491
sw,-84.6207275390625,-61.6772422790527,36.1064796447753,-53.2046241760253,421205158
sw,-84.6859970092773,-61.0994224548339,30.174669265747,-30.4456672668457,421221825
sw,-84.7074584960937,-60.9332389831543,25.3078517913818,-13.9269046783447,421238492
sw,-84.7263031005859,-60.9459342956543,23.5212116241455,-10.2715330123901,421255159
sw,-84.7616424560546,-61.2922210693359,21.9641551971435,4.85614681243896,421271826
sw,-84.7887573242187,-61.948257446289,22.5040740966796,18.9415817260742,421288493
sw,-84.7771987915039,-62.697525024414,23.2780609130859,20.8194408416748,421305160
sw,-84.6954040527343,-63.4695053100585,26.5455417633056,23.8845977783203,421321827
sw,-84.5470581054687,-64.0513076782226,28.4995765686035,19.1638927459716,421338494
sw,-84.3462219238281,-64.5191574096679,28.3914604187011,11.179419517517,421355161
sw,-84.1458969116211,-64.8605117797851,24.3786525726318,-5.67171907424926,421371828
sw,-84.0050201416015,-65.3484725952148,17.6431655883789,4.81065320968627,421388495
sw,-83.9508209228515,-65.9979248046875,11.4590692520141,24.6963806152343,421405162
sw,-83.9532470703125,-66.4732818603515,5.49020910263061,21.948860168457,421421829
sw,-83.9022674560546,-66.5638351440429,4.46269989013671,0.248924866318702,421438496
sw,-83.7485656738281,-66.4162216186523,8.11693000793457,-15.5161190032958,421455163
sw,-83.547737121582,-66.2760314941406,9.10768985748291,-18.3539009094238,421471830
sw,-83.3071594238281,-66.482192993164,7.93215131759643,-0.00765828695148229,421488497
sw,-83.01953125,-67.6798095703125,3.99400782585144,45.4673995971679,421505164
sw,-82.5642547607421,-69.1017913818359,1.14459455013275,59.1138801574707,421521831
sw,-81.8931503295898,-70.1234436035156,-3.17639327049255,37.7170257568359,421538498
sw,-80.9474029541015,-71.1725234985351,-11.6685161590576,23.2017383575439,421555165
sw,-79.8897171020507,-72.2266311645507,-40.3704185485839,4.06315183639526,421571832
sw,-78.4257888793945,-73.3640060424804,-83.3938980102539,3.50760054588317,421588499
sw,-76.2734375,-74.5384063720703,-92.7055130004882,19.0804023742675,421605166
sw,-73.9623184204101,-75.5228195190429,-107.562026977539,20.3779907226562,421621833
sw,-72.0653305053711,-76.6564712524414,-134.809982299804,37.6071090698242,421638500
sw,-70.9488754272461,-77.9037094116211,-163.242874145507,49.4993019104003,421655167
sw,-69.9378051757812,-79.174331665039,-170.892486572265,54.7682723999023,421671834
sw,-68.8389053344726,-80.2501907348632,-164.883834838867,48.4186515808105,421688501
sw,-67.5351181030273,-81.0059738159179,-156.618438720703,32.9991226196289,421705168
sw,-66.2840042114257,-81.5983047485351,-130.842514038085,24.9825210571289,421721835
sw,-65.15478515625,-82.1163864135742,-113.087844848632,23.4844398498535,421738502
sw,-63.9247322082519,-82.6699295043945,-119.118949890136,28.6890907287597,421755169
sw,-62.5233688354492,-83.3280258178711,-128.162353515625,37.0841178894043,421771836
sw,-61.1160430908203,-84.0754013061523,-125.658256530761,43.7148857116699,421788503
sw,-59.8390617370605,-84.8568115234375,-115.490409851074,46.7116355895996,421805170
sw,-58.6553916931152,-85.6088562011718,-105.333976745605,46.5958976745605,421821837
sw,-57.5526618957519,-86.3287048339843,-94.7074966430664,47.9795989990234,421838504
sw,-56.6332855224609,-86.9175186157226,-77.7792892456054,46.3687782287597,421855171
sw,-56.0502662658691,-87.2280883789062,-50.3150215148925,38.2788124084472,421871838
sw,-55.8264694213867,-87.2794799804687,-25.3856868743896,29.5708713531494,421888505
sw,-55.7968482971191,-87.1652450561523,-15.810863494873,26.4206371307373,421905172
sw,-55.8431282043457,-86.925910949707,-13.1768808364868,26.3498020172119,421921839
sw,-56.108715057373,-86.5532073974609,2.68338680267334,27.1227531433105,421938506
sw,-56.7139701843261,-86.0891418457031,29.3283367156982,29.9216213226318,421955173
sw,-57.6198806762695,-85.5842132568359,56.0761985778808,34.8303642272949,421971840
sw,-58.648151397705,-85.0762252807617,70.1888656616211,34.3263854980468,421988507
sw,-59.5966644287109,-84.6268463134765,63.7882385253906,30.1850147247314,422005174
sw,-60.4126815795898,-84.3822860717773,50.6852493286132,22.4383182525634,422021841
sw,-61.4854125976562,-84.2846450805664,65.7226181030273,17.5329685211181,422038508
sw,-63.0618247985839,-84.2481002807617,102.145217895507,12.5112285614013,422055175
sw,-64.3684921264648,-84.3228759765625,99.8511581420898,6.43887424468994,422071842
sw,-65.1943969726562,-84.5961532592773,64.3756408691406,0.0960162281990051,422088509
sw,-65.5978469848632,-85.0089569091796,13.9395065307617,-2.19079089164733,422105176
sw,-66.079605102539,-85.4988098144531,20.7975692749023,-1.05303657054901,422121843
sw,-66.7138290405273,-85.9305191040039,25.1358795166015,5.10115623474121,422138510
sw,-67.8112564086914,-86.2899093627929,43.2785682678222,3.4423611164093,422155177
sw,-69.0734786987304,-86.5327682495117,63.334056854248,-11.2888736724853,422171844
sw,-69.7625045776367,-86.0519638061523,39.3362503051757,-33.3397102355957,422188511
sw,-70.3829040527343,-84.1531372070312,32.6771697998046,-59.3256149291992,422205178
sw,-71.4970245361328,-81.2226409912109,41.9437980651855,-90.4507446289062,422221845
sw,-72.7418060302734,-77.9518966674804,35.6157798767089,-134.380935668945,422238512
sw,-73.9110870361328,-74.8457336425781,38.5589408874511,-172.695205688476,422255179
sw,-75.149673461914,-72.1317672729492,60.3101959228515,-174.112014770507,422271846
sw,-76.6865539550781,-69.7349243164062,74.6059036254882,-182.896774291992,422288513
sw,-78.235237121582,-67.6349792480468,77.3902130126953,-177.3701171875,422305180
sw,-79.5659637451171,-65.956672668457,72.8762588500976,-142.725830078125,422321847
sw,-80.7685623168945,-64.4393157958984,60.8672866821289,-118.153465270996,422338514
sw,-81.8352355957031,-62.8877601623535,54.469123840332,-109.12449645996,422355181
sw,-82.6450271606445,-61.6382980346679,49.3243293762207,-96.4854049682617,422371848
sw,-83.263931274414,-60.7922782897949,46.1108169555664,-85.8599090576171,422388515
sw,-83.81103515625,-60.3604393005371,45.8946914672851,-64.5511474609375,422405182
sw,-84.2302093505859,-60.125732421875,42.9976615905761,-52.1302795410156,422421849
sw,-84.5334243774414,-60.074909210205,42.3771057128906,-45.2506713867187,422438516
sw,-84.7097930908203,-59.633617401123,44.6017761230468,-62.4807014465332,422455183
sw,-84.7739334106445,-59.0333671569824,39.1890258789062,-47.0002746582031,422471850
sw,-84.7913970947265,-58.7187881469726,32.0539398193359,-14.681221961975,422488517
sw,-84.8045806884765,-59.095718383789,28.3195838928222,23.1194114685058,422505184
sw,-84.8224029541015,-59.8497123718261,26.7175540924072,31.7208194732666,422521851
sw,-84.7873306274414,-60.9161033630371,28.9679012298584,39.712890625,422538518
sw,-84.6714553833007,-62.1377983093261,31.8341388702392,41.4960746765136,422555185
sw,-84.4514007568359,-63.2163505554199,33.6497383117675,28.7758197784423,422571852
sw,-84.1442565917968,-64.1385879516601,34.0182571411132,23.0144023895263,422588519
sw,-83.8501205444336,-64.7121658325195,28.5844459533691,-0.263629615306854,422605186
sw,-83.6540603637695,-65.3177642822265,19.0734062194824,1.2808678150177,422621853
sw,-83.5971527099609,-66.1707153320312,6.75694608688354,29.0246086120605,422638520
sw,-83.6184768676757,-66.8726425170898,-1.93205547332763,34.3154335021972,422655187
sw,-83.6725921630859,-67.0211944580078,-7.64554548263549,4.48748302459716,422671854
sw,-83.6688766479492,-66.8407745361328,-5.90071964263916,-18.5006008148193,422688521
sw,-83.5380783081054,-66.7172698974609,1.35329341888427,-25.8660697937011,422705188
sw,-83.3197784423828,-67.2878265380859,5.52776288986206,-0.189029216766357,422721855
sw,-83.0622863769531,-68.8081130981445,2.09280157089233,54.6099472045898,422738522
sw,-82.7195892333984,-70.0275192260742,-5.22637510299682,64.5986328125,422755189
sw,-82.1177291870117,-71.1830444335937,-9.51883029937744,46.6980743408203,422771856
sw,-81.2499694824218,-72.409683227539,-25.3296489715576,10.272307395935,422788523
sw,-79.9396438598632,-73.5827178955078,-46.7685508728027,-7.75142192840576,422805190
sw,-78.0709991455078,-75.0034866333007,-74.5808868408203,29.3130855560302,422821857
sw,-75.816291809082,-76.3457412719726,-89.1259307861328,37.2299423217773,422838524
sw,-73.7890090942382,-77.8515396118164,-121.526374816894,53.5751571655273,422855191
sw,-72.5826034545898,-79.4321746826171,-161.80224609375,64.0419540405273,422871858
sw,-71.5196380615234,-80.8429489135742,-183.881454467773,62.5399856567382,422888525
sw,-70.2467346191406,-81.7207565307617,-177.325424194335,39.1638526916503,422905192
sw,-68.8064651489257,-82.1872406005859,-165.820053100585,17.4617481231689,422921859
sw,-67.5412902832031,-82.564338684082,-132.175643920898,13.5590314865112,422938526
sw,-66.4487152099609,-82.9185028076171,-107.908462524414,15.1349649429321,422955193
sw,-65.2576446533203,-83.4023361206054,-111.276306152343,24.5763912200927,422971860
sw,-63.8903770446777,-84.1238403320312,-122.494049072265,39.4392585754394,422988527
sw,-62.4283447265625,-84.9817886352539,-125.378219604492,48.9257354736328,423005194
sw,-61.0448303222656,-85.9483184814453,-118.319313049316,56.4446868896484,423021861
sw,-59.6857528686523,-86.9584350585937,-114.176849365234,59.9552497863769,423038528
sw,-58.3506813049316,-87.8830795288086,-106.315757751464,57.1740226745605,423055195
sw,-57.1530151367187,-88.5508499145507,-90.5690383911132,48.7167930603027,423071862
sw,-56.3005447387695,-88.8054885864257,-61.3213920593261,38.9450225830078,423088529
sw,-55.8894348144531,-88.6265563964843,-30.5812530517578,30.5180568695068,423105196
sw,-55.8792419433593,-88.2138137817382,-7.01594018936157,23.3797454833984,423121863
sw,-56.1425819396972,-87.7547607421875,8.16245651245117,18.3966751098632,423138530
sw,-56.5843658447265,-87.219482421875,18.1575756072998,21.2086029052734,423155197
sw,-57.2358932495117,-86.6369857788086,32.1445350646972,24.2521419525146,423171864
sw,-58.3086357116699,-86.088638305664,65.4545822143554,26.8559513092041,423188531
sw,-59.6449089050293,-85.6068038940429,92.2498168945312,27.6995105743408,423205198
sw,-60.9633407592773,-85.2094421386718,90.6663513183593,26.4815597534179,423221865
sw,-62.0252952575683,-85.1038284301757,64.2332763671875,14.2218742370605,423238532
sw,-63.2802467346191,-85.2674942016601,64.8018646240234,1.81181526184082,423255199
sw,-65.1788940429687,-85.5550308227539,121.434272766113,-3.89980578422546,423271866
sw,-66.3672790527343,-85.7840728759765,90.3004913330078,2.38104677200317,423288533
sw,-66.789680480957,-86.032958984375,21.2049732208251,4.13515567779541,423305200
sw,-66.9541854858398,-86.6770477294921,-5.45106697082519,-12.2126789093017,423321867
sw,-67.5053024291992,-87.2816390991211,26.1888885498046,-17.3388404846191,423338534
sw,-68.4717712402343,-87.1226806640625,34.6544113159179,-16.3105220794677,423355201
sw,-69.6494979858398,-85.8837280273437,60.9028968811035,-28.5739879608154,423371868
sw,-70.3963012695312,-83.5674896240234,49.7653770446777,-53.5868225097656,423388535
sw,-70.8888778686523,-80.436408996582,28.5529079437255,-83.5815658569336,423405202
sw,-71.8438873291015,-76.7783889770507,31.2203311920166,-131.308944702148,423421869
sw,-73.0595932006836,-73.2865905761718,32.8536376953125,-178.502990722656,423438536
sw,-74.2738189697265,-70.6884689331054,49.2967948913574,-164.259490966796,423455203
sw,-75.6809005737304,-68.4822769165039,68.1759796142578,-183.987808227539,423471870
sw,-77.3339309692382,-66.2751922607421,74.8362960815429,-190.35757446289,423488537
sw,-78.8583068847656,-64.39306640625,76.4281616210937,-160.13475036621,423505204
sw,-80.0173416137695,-63.1496696472168,67.2179641723632,-110.775604248046,423521871
sw,-80.9894714355468,-61.8323783874511,50.849006652832,-104.210441589355,423538538
sw,-81.8605728149414,-60.6066513061523,44.3159141540527,-104.298873901367,423555205
sw,-82.534439086914,-59.802375793457,39.228702545166,-95.468521118164,423571872
sw,-83.106819152832,-59.4489555358886,41.2083015441894,-76.1174621582031,423588539
sw,-83.5979766845703,-59.4787635803222,42.0292930603027,-50.7446250915527,423605206
sw,-84.0178146362304,-59.4752883911132,46.6389541625976,-46.3151321411132,423621873
sw,-84.331298828125,-59.3525009155273,50.5527534484863,-48.5161819458007,423638540
sw,-84.4896469116211,-58.9222679138183,49.4643821716308,-42.1495399475097,423655207
sw,-84.5491104125976,-58.5134201049804,42.8308410644531,-16.0378608703613,423671874
sw,-84.5895614624023,-58.7383422851562,35.4530372619628,21.0011806488037,423688541
sw,-84.6567993164062,-59.461856842041,31.2664623260498,40.1953735351562,423705208
sw,-84.7505111694336,-60.4856567382812,29.2901630401611,47.4516716003418,423721875
sw,-84.7866592407226,-61.780460357666,32.7094421386718,56.4850730895996,423738542
sw,-84.6593246459961,-62.8676986694335,39.255084991455,37.7984008789062,423755209
sw,-84.337287902832,-63.8037223815918,43.5066833496093,33.0958633422851,423771876
sw,-83.9377059936523,-64.5358276367187,41.400592803955,23.1744327545166,423788543
sw,-83.5877227783203,-64.9192886352539,33.2354431152343,-7.72851276397705,423805210
sw,-83.4516830444336,-65.6616287231445,14.3289718627929,19.5507984161376,423821877
sw,-83.5342254638671,-66.4360046386718,-4.57556962966918,36.9260711669921,423838544
sw,-83.7237091064453,-66.8497009277343,-14.6552925109863,21.7603378295898,423855211
sw,-83.9401016235351,-66.8646392822265,-19.8598365783691,-5.2215552330017,423871878
sw,-84.0770568847656,-66.8116073608398,-19.7743053436279,-17.2812213897705,423888545
sw,-84.0232849121093,-67.3962249755859,-11.5778160095214,6.40037727355957,423905212
sw,-83.7832565307617,-68.6433334350586,-6.0253562927246,46.1742210388183,423921879
sw,-83.3858337402343,-69.7174606323242,-7.14445400238037,53.3103675842285,423938546
sw,-82.6739730834961,-70.4015045166015,-4.06335926055908,23.6985683441162,423955213
sw,-81.624641418457,-71.4304885864257,-21.2379035949707,17.1341743469238,423971880
sw,-80.2004776000976,-72.5501861572265,-46.0114784240722,-3.62114906311035,423988547
sw,-78.32763671875,-73.5769271850586,-83.2525634765625,-1.0836671590805,424005214
sw,-75.9584732055664,-74.5594482421875,-104.939048767089,16.1820049285888,424021881
sw,-73.5591201782226,-75.6279983520507,-125.706954956054,33.9385223388671,424038548
sw,-71.6879653930664,-76.9754333496093,-158.586608886718,52.5939407348632,424055215
sw,-70.3389816284179,-78.5134506225586,-178.923797607421,68.3093109130859,424071882
sw,-68.9696884155273,-79.9674072265625,-177.18911743164,67.5723114013671,424088549
sw,-67.4215621948242,-81.0773391723632,-176.133316040039,49.6685905456543,424105216
sw,-65.9184799194336,-81.975227355957,-150.781494140625,36.6586952209472,424121883
sw,-64.6726760864257,-82.7903518676757,-117.629562377929,33.3116188049316,424138550
sw,-63.4996070861816,-83.4907913208007,-108.398742675781,31.7053432464599,424155217
sw,-62.2104988098144,-84.2453079223632,-115.612960815429,39.2580795288085,424171884
sw,-60.8721847534179,-85.0837097167968,-115.225196838378,47.2489700317382,424188551
sw,-59.5590324401855,-85.9721145629882,-113.086349487304,51.5975761413574,424205218
sw,-58.3868408203125,-86.9391250610351,-104.531883239746,55.7528495788574,424221885
sw,-57.3257446289062,-87.9196395874023,-93.2896728515625,55.3904876708984,424238552
sw,-56.4169616699218,-88.8113937377929,-77.895278930664,49.0901870727539,424255219
sw,-55.7819480895996,-89.5094146728515,-54.1574478149414,40.4995422363281,424271886
sw,-55.5113449096679,-89.565689086914,-27.8719863891601,30.9652404785156,424288553
sw,-55.6037483215332,-89.1482009887695,-7.05718755722045,23.3682537078857,424305220
sw,-55.9505271911621,-88.6691055297851,6.16145086288452,22.2528896331787,424321887
sw,-56.4955368041992,-88.1577224731445,16.1755104064941,21.9061470031738,424338554
sw,-57.3178024291992,-87.5902709960937,34.08589553833,22.6897754669189,424355221
sw,-58.6035690307617,-87.0791244506836,72.525405883789,22.1618976593017,424371888
sw,-60.1128425598144,-86.6628189086914,96.41259765625,21.7430629730224,424388555
sw,-61.4928703308105,-86.2963638305664,89.6020431518554,20.7671546936035,424405222
sw,-62.4081649780273,-86.0802841186523,50.1783409118652,14.3508386611938,424421889
sw,-63.6394348144531,-85.9715347290039,60.4648704528808,9.56960582733154,424438556
sw,-64.9996566772461,-85.9353866577148,84.5978393554687,10.131492614746,424455223
sw,-65.856086730957,-85.9542617797851,66.8805541992187,12.289771080017,424471890
sw,-66.1800155639648,-86.0856323242187,23.2506790161132,9.50734901428222,424488557
sw,-66.4259567260742,-86.4167404174804,12.4298591613769,-3.85833549499511,424505224
sw,-67.2065277099609,-86.6731033325195,40.4279670715332,-10.5725507736206,424521891
sw,-68.4298019409179,-86.5437393188476,63.6306228637695,-10.0811386108398,424538558
sw,-69.4666595458984,-85.9012680053711,64.6892700195312,-19.8702850341796,424555225
sw,-70.003059387207,-84.4694061279296,32.8108291625976,-43.3577766418457,424571892
sw,-70.8607482910156,-82.1689529418945,32.7624626159668,-74.3729476928711,424588559
sw,-72.1194458007812,-79.349624633789,34.8658332824707,-107.033920288085,424605226
sw,-73.472785949707,-76.4782333374023,48.431468963623,-141.168563842773,424621893
sw,-74.7089004516601,-73.8878021240234,59.5587730407714,-152.851104736328,424638560
sw,-76.1104736328125,-71.5007019042968,68.8158264160156,-157.363677978515,424655227
sw,-77.6893844604492,-69.4282073974609,79.0903778076171,-158.681045532226,424671894
sw,-79.1103134155273,-67.675308227539,77.9098205566406,-143.754302978515,424688561
sw,-80.2520065307617,-66.1178436279296,61.6842460632324,-130.664916992187,424705228
sw,-81.356819152832,-64.6894607543945,50.9711837768554,-116.1470413208,424721895
sw,-82.3203353881836,-63.4394187927246,50.048770904541,-103.303955078125,424738562
sw,-83.0914077758789,-62.5128288269043,49.8229179382324,-86.5065002441406,424755229
sw,-83.77587890625,-61.866283416748,53.505443572998,-71.9144668579101,424771896
sw,-84.3767395019531,-61.4879646301269,52.5549201965332,-64.7162780761718,424788563
sw,-84.863784790039,-61.2534637451171,54.1513519287109,-70.2586975097656,424805230
sw,-85.2173385620117,-60.536521911621,52.4120292663574,-87.9036102294921,424821897
sw,-85.4187545776367,-59.6940040588378,44.1493682861328,-67.9717025756836,424838564
sw,-85.5164184570312,-59.0814514160156,34.9380912780761,-45.2734146118164,424855231
sw,-85.5251693725586,-58.8678588867187,31.1090297698974,-19.3989906311035,424871898
sw,-85.5077438354492,-59.0354576110839,29.0178089141845,0.481801003217697,424888565
sw,-85.4676742553711,-59.4134178161621,29.5749073028564,4.71014499664306,424905232
sw,-85.3373794555664,-60.154556274414,34.4919738769531,23.0128536224365,424921899
sw,-85.0544281005859,-61.2012290954589,40.5111007690429,36.7444229125976,424938566
sw,-84.6232070922851,-62.1114120483398,44.390811920166,31.4277973175048,424955233
sw,-84.0989074707031,-62.8560523986816,44.3267669677734,22.1191692352294,424971900
sw,-83.5769729614257,-63.4367218017578,39.7801132202148,9.07883358001709,424988567
sw,-83.1996612548828,-63.7248268127441,27.4653377532959,-14.5481033325195,425005234
sw,-83.0033874511718,-64.2559967041015,14.0444746017456,5.74435853958129,425021901
sw,-82.9623031616211,-65.0424270629882,2.31206798553466,33.8790473937988,425038568
sw,-83.0090255737304,-65.6482238769531,-4.79971122741699,27.1656188964843,425055235
sw,-83.1369323730468,-65.7578125,-11.3100700378417,1.21681571006774,425071902
sw,-83.2461929321289,-65.646614074707,-11.2135791778564,-9.46335983276367,425088569
sw,-83.2456512451171,-65.5254898071289,-4.05990839004516,-15.7897682189941,425105236
sw,-83.0544891357421,-65.6939620971679,8.16646289825439,-10.9013566970825,425121903
sw,-82.6814193725586,-67.0332107543945,14.7454614639282,36.460391998291,425138570
sw,-82.2593002319336,-68.7987213134765,9.79877853393554,66.3892288208007,425155237
sw,-81.8019256591796,-70.0242919921875,-0.623865902423858,49.4532394409179,425171904
sw,-81.2598266601562,-70.8779525756836,-10.5761642456054,17.0906009674072,425188571
sw,-80.6362838745117,-71.8312530517578,-30.4096488952636,9.51551818847656,425205238
sw,-79.7921371459961,-73.2048721313476,-52.5452537536621,25.468448638916,425221905
sw,-78.5283660888671,-74.4849090576171,-76.6205749511718,27.1254291534423,425238572
sw,-76.8022384643554,-75.5919418334961,-103.53758239746,26.6647872924804,425255239
sw,-74.9145736694336,-76.7430419921875,-128.355758666992,35.8697776794433,425271906
sw,-73.3035736083984,-77.8165740966796,-156.404602050781,38.0117721557617,425288573
sw,-72.2321472167968,-78.8400497436523,-191.983444213867,40.6408538818359,425305240
sw,-70.9515151977539,-79.6794357299804,-203.550109863281,35.5265007019043,425321907
sw,-69.5574340820312,-80.3179397583007,-180.562240600585,26.454210281372,425338574
sw,-68.0936965942382,-80.8115997314453,-160.763626098632,19.36962890625,425355241
sw,-66.7778778076171,-81.3132553100586,-131.260192871093,21.5712947845459,425371908
sw,-65.437271118164,-81.9459228515625,-127.396224975585,31.2819690704345,425388575
sw,-63.9523315429687,-82.7361221313476,-135.027786254882,43.0027999877929,425405242
sw,-62.3934860229492,-83.7021331787109,-133.616180419921,55.7762336730957,425421909
sw,-60.9389686584472,-84.7140960693359,-122.236465454101,60.6972198486328,425438576
sw,-59.6232223510742,-85.6087188720703,-110.715957641601,56.8860282897949,425455243
sw,-58.398021697998,-86.2596893310546,-100.498260498046,46.8746833801269,425471910
sw,-57.303165435791,-86.7477951049804,-86.8303833007812,43.8443412780761,425488577
sw,-56.4238624572753,-87.0458068847656,-67.4924774169921,38.5576400756835,425505244
sw,-55.8454551696777,-87.2027816772461,-45.0407981872558,32.7150688171386,425521911
sw,-55.6673202514648,-87.2426681518554,-20.3471431732177,27.8669452667236,425538578
sw,-55.7757568359375,-87.1619338989257,-4.94652366638183,22.7069129943847,425555245
sw,-56.1095008850097,-86.9384155273437,6.7000823020935,18.6367416381835,425571912
sw,-56.6676864624023,-86.6935806274414,20.9490737915039,15.4372367858886,425588579
sw,-57.7907791137695,-86.4484634399414,62.8301582336425,19.5984477996826,425605246
sw,-59.2426490783691,-86.2359466552734,90.1755752563476,23.9848575592041,425621913
sw,-60.7968940734863,-86.1038360595703,96.1683807373046,23.4005546569824,425638580
sw,-62.1419372558593,-86.0815353393554,77.1233520507812,19.2964515686035,425655247
sw,-63.7640495300293,-86.1160202026367,89.6562881469726,16.7555351257324,425671914
sw,-66.0043106079101,-86.1305160522461,136.331878662109,17.0208587646484,425688581
sw,-67.5842895507812,-86.2964172363281,104.636444091796,11.7916994094848,425705248
sw,-68.2351303100586,-86.7872772216796,35.4509735107421,2.54263615608215,425721915
sw,-68.4678039550781,-87.4029388427734,-10.383222579956,-1.71014523506164,425738582
sw,-69.0716400146484,-87.7392959594726,12.4908628463745,-10.6972379684448,425755249
sw,-70.2959060668945,-86.8811569213867,35.0489120483398,-17.4974288940429,425771916
sw,-71.5552215576171,-84.7209548950195,53.0583534240722,-26.1398544311523,425788583
sw,-72.043212890625,-81.7554321289062,28.9136180877685,-44.0024261474609,425805250
sw,-72.4252243041992,-78.1642303466796,24.7885494232177,-79.3160705566406,425821917
sw,-73.1760101318359,-74.1659317016601,25.0835361480712,-159.053527832031,425838584
sw,-74.2506408691406,-70.681884765625,29.6146831512451,-197.861831665039,425855251
sw,-75.4965896606445,-68.1628875732421,49.4277763366699,-199.205474853515,425871918
sw,-77.0721740722656,-66.0164718627929,80.9127349853515,-214.407287597656,425888585
sw,-79.07421875,-63.9199638366699,100.690803527832,-199.201370239257,425905252
sw,-80.9044418334961,-62.2124977111816,94.9137878417968,-149.385269165039,425921919
sw,-82.2530136108398,-60.7699546813964,79.5850524902343,-113.203926086425,425938586
sw,-83.3366241455078,-59.5065879821777,61.264289855957,-102.861755371093,425955253
sw,-84.2015762329101,-58.5888862609863,45.0336036682128,-99.9565277099609,425971920
sw,-84.8220748901367,-58.1445198059082,32.8108749389648,-86.1704330444336,425988587
sw,-85.3568725585937,-58.068862915039,32.9827613830566,-67.6524658203125,426005254
sw,-85.8336868286132,-58.1529083251953,36.1123466491699,-55.811710357666,426021921
sw,-86.2408905029296,-58.1643257141113,43.5684165954589,-56.0573844909668,426038588
sw,-86.4694137573242,-57.98091506958,51.2206268310546,-52.5190467834472,426055255
sw,-86.4288940429687,-57.6683464050293,53.640037536621,-28.1509971618652,426071922
sw,-86.2071304321289,-57.80415725708,48.6485214233398,11.5136709213256,426088589
sw,-85.9564971923828,-58.3892097473144,42.0005874633789,28.6207733154296,426105256
sw,-85.7565155029296,-59.2668838500976,35.163158416748,38.4563789367675,426121923
sw,-85.5290603637695,-60.7699165344238,33.91015625,69.6186065673828,426138590
sw,-85.1835861206054,-62.0860176086425,37.9265708923339,50.856201171875,426155257
sw,-84.7075042724609,-63.1243782043457,41.8180313110351,35.7952919006347,426171924
sw,-84.1580276489257,-63.9740943908691,42.2879257202148,29.6073169708251,426188591
sw,-83.6218566894531,-64.5452880859375,38.5070686340332,10.1823186874389,426205258
sw,-83.2236175537109,-65.3700180053711,27.5536003112792,22.4829750061035,426221925
sw,-83.0394821166992,-66.1525039672851,12.1518297195434,40.3094291687011,426238592
sw,-83.0799484252929,-66.4151458740234,-3.59836864471435,19.869421005249,426255259
sw,-83.3282089233398,-66.2213897705078,-18.3728828430175,-9.63580703735351,426271926
sw,-83.6772155761718,-66.0426025390625,-27.2112960815429,-21.4523429870605,426288593
sw,-84.047378540039,-66.0802536010742,-31.508316040039,-25.3323516845703,426305260
sw,-84.2720108032226,-67.0687179565429,-27.6761074066162,17.3485527038574,426321927
sw,-84.1978912353515,-68.7005004882812,-18.1542072296142,62.7952232360839,426338594
sw,-83.901626586914,-69.677001953125,-14.8326253890991,47.3680038452148,426355261
sw,-83.3623886108398,-70.3684921264648,-14.0904102325439,18.0118007659912,426371928
sw,-82.4198532104492,-71.6238327026367,-25.414306640625,17.6315956115722,426388595
sw,-80.8699798583984,-73.1291351318359,-41.9408950805664,5.00080490112304,426405262
sw,-78.686279296875,-74.4638519287109,-70.7244491577148,10.1061401367187,426421929
sw,-76.0932922363281,-75.5930557250976,-91.1882095336914,19.7654228210449,426438596
sw,-73.6419448852539,-76.9105072021484,-121.673141479492,41.6097755432128,426455263
sw,-71.9580917358398,-78.4066543579101,-167.28677368164,54.6010093688964,426471930
sw,-70.6451263427734,-80.065185546875,-198.160278320312,70.4931488037109,426488597
sw,-69.0799255371093,-81.4472427368164,-194.55271911621,61.910831451416,426505264
sw,-67.2204513549804,-82.3905258178711,-190.136352539062,41.13179397583,426521931
sw,-65.5416488647461,-83.0986557006836,-152.792404174804,26.7567539215087,426538598
sw,-64.2610855102539,-83.6335144042968,-113.161575317382,18.6911830902099,426555265
sw,-63.1625175476074,-84.1603775024414,-99.5074615478515,21.9549465179443,426571932
sw,-61.9899864196777,-84.8432235717773,-107.165237426757,35.0224494934082,426588599
sw,-60.6218376159668,-85.6244964599609,-120.822868347167,43.8669929504394,426605266
sw,-59.2852973937988,-86.3925018310546,-115.954566955566,44.669075012207,426621933
sw,-58.0223083496093,-87.2360763549804,-107.156883239746,47.9571495056152,426638600
sw,-56.7675743103027,-88.1788787841796,-101.513916015625,50.5460205078125,426655267
sw,-55.6303672790527,-89.1491241455078,-88.755012512207,47.8243827819824,426671934
sw,-54.8152160644531,-90.0,-61.5601806640625,39.4201011657714,426688601
sw,-54.5142250061035,-90.0,-25.3515262603759,29.7241878509521,426705268
sw,-54.7338104248046,-89.1877136230468,5.56915712356567,21.9484882354736,426721935
sw,-55.2829437255859,-88.6203079223632,21.6411457061767,15.2834243774414,426738602
sw,-56.10546875,-88.0711593627929,33.518455505371,15.3501586914062,426755269
sw,-57.4558448791503,-87.5296325683593,70.0513916015625,19.8400421142578,426771936
sw,-59.3057327270507,-87.0573577880859,110.805595397949,23.6808700561523,426788603
sw,-61.2682266235351,-86.6599426269531,120.612411499023,23.5897045135498,426805270
sw,-62.8757934570312,-86.4051208496093,92.9447860717773,17.4726333618164,426821937
sw,-64.3071136474609,-86.2474670410156,64.7520141601562,15.1941404342651,426838604
sw,-65.9959411621093,-85.9071044921875,87.7174911499023,26.7898025512695,426855271
sw,-66.8844680786132,-85.3728942871093,56.9631538391113,38.8578300476074,426871938
sw,-67.2071228027343,-85.1129608154296,21.3548278808593,25.8902339935302,426888605
sw,-67.3637466430664,-85.4334869384765,23.0096855163574,-3.90873384475708,426905272
sw,-67.9262084960937,-85.8657760620117,33.4938926696777,-14.4297533035278,426921939
sw,-69.1190185546875,-86.1043930053711,50.1403732299804,-17.0689888000488,426938606
sw,-70.2697448730468,-86.0682678222656,66.1731414794921,-30.8580265045166,426955273
sw,-70.9396133422851,-85.3122024536132,47.4899711608886,-50.0212211608886,426971940
sw,-71.8590469360351,-83.4977264404296,35.1633110046386,-72.0105361938476,426988607
sw,-73.1576843261718,-81.0850296020507,42.0943794250488,-83.1643600463867,427005274
sw,-74.3341674804687,-78.5738220214843,47.3777542114257,-98.9309539794921,427021941
sw,-75.4848709106445,-76.0287628173828,56.9928283691406,-122.928718566894,427038608
sw,-77.0057983398437,-73.5018005371093,72.1370010375976,-134.075241088867,427055275
sw,-78.7578048706054,-71.11669921875,87.6511917114257,-142.712051391601,427071942
sw,-80.2878112792968,-69.1413879394531,86.9937896728515,-142.413253784179,427088609
sw,-81.581428527832,-67.4595184326171,73.3184356689453,-137.095596313476,427105276
sw,-82.8248748779296,-65.7491607666015,66.1327514648437,-137.915390014648,427121943
sw,-83.8590240478515,-64.1925659179687,62.677074432373,-123.640647888183,427138610
sw,-84.5980758666992,-62.8000526428222,58.7247505187988,-112.194847106933,427155277
sw,-85.1019515991211,-61.7023811340332,58.9217872619628,-97.9902801513671,427171944
sw,-85.3773803710937,-60.8992919921875,55.7134628295898,-82.0902099609375,427188611
sw,-85.4806137084961,-60.3408775329589,47.3981437683105,-65.0963134765625,427205278
sw,-85.4575271606445,-60.0167350769043,40.1401901245117,-51.7163505554199,427221945
sw,-85.3783569335937,-59.7805480957031,31.9532718658447,-48.1358757019043,427238612
sw,-85.2516250610351,-59.3676300048828,25.4380569458007,-54.5455856323242,427255279
sw,-85.0910415649414,-59.0817985534668,22.8515663146972,-39.2147178649902,427271946
sw,-84.9738311767578,-59.1031303405761,17.9218864440917,-19.9202938079834,427288613
sw,-84.8621826171875,-59.5194358825683,16.7569427490234,1.02712631225585,427305280
sw,-84.7047271728515,-60.3348121643066,18.171983718872,21.5435791015625,427321947
sw,-84.5112380981445,-61.5011749267578,18.1553726196289,39.3155097961425,427338614
sw,-84.2872543334961,-62.6850318908691,16.6906547546386,47.0320625305175,427355281
sw,-84.0606002807617,-63.6162796020507,14.1632366180419,36.4712295532226,427371948
sw,-83.9078063964843,-64.4379425048828,8.41234683990478,25.8639945983886,427388615
sw,-83.858413696289,-64.9442672729492,1.34950160980224,-1.37529611587524,427405282
sw,-83.865982055664,-65.7507400512695,-0.950052618980407,23.2580032348632,427421949
sw,-83.8812484741211,-66.5439376831054,1.3762422800064,39.81880569458,427438616
sw,-83.8699188232421,-66.8935623168945,3.25613903999328,20.315351486206,427455283
sw,-83.7507629394531,-66.7935638427734,7.05271244049072,-8.00169563293457,427471950
sw,-83.5249481201171,-66.646499633789,9.26862144470214,-18.272834777832,427488617
sw,-83.2801666259765,-67.0299606323242,5.52212285995483,-1.30192053318023,427505284
sw,-83.0567474365234,-68.3266067504882,0.126712620258331,42.753547668457,427521951
sw,-82.7125778198242,-69.5420837402343,-4.35645723342895,56.067081451416,427538618
sw,-82.1480484008789,-70.4293975830078,-12.3243055343627,35.4749221801757,427555285
sw,-81.2839126586914,-71.4862060546875,-29.4867286682128,16.8372421264648,427571952
sw,-79.9667739868164,-72.3777618408203,-47.708683013916,-7.9952368736267,427588619
sw,-78.1121749877929,-73.8252716064453,-74.669319152832,32.7786483764648,427605286
sw,-75.8658905029296,-75.3021926879882,-99.6952438354492,44.4980850219726,427621953
sw,-73.872817993164,-76.7754440307617,-130.089767456054,48.5295944213867,427638620
sw,-72.6929168701171,-78.2560501098632,-162.98371887207,57.5462303161621,427655287
sw,-71.6907348632812,-79.7283477783203,-178.639221191406,65.8282318115234,427671954
sw,-70.6053466796875,-80.8346176147461,-168.338821411132,49.6681022644043,427688621
sw,-69.4280242919921,-81.5519180297851,-149.865997314453,29.2579860687255,427705288
sw,-68.3784484863281,-82.1353378295898,-112.921737670898,23.3822631835937,427721955
sw,-67.4118118286132,-82.6599197387695,-93.155891418457,22.6680736541748,427738622
sw,-66.3537826538086,-83.2260437011718,-99.6501388549804,27.6933822631835,427755289
sw,-65.0788269042968,-83.9743881225586,-115.515823364257,39.8625869750976,427771956
sw,-63.7222290039062,-84.9015350341796,-117.828330993652,51.7830924987793,427788623
sw,-62.4250679016113,-85.9260940551757,-114.041206359863,58.133502960205,427805290
sw,-61.1704521179199,-86.892349243164,-109.892509460449,54.6946945190429,427821957
sw,-59.9370079040527,-87.7980651855468,-102.435623168945,50.8832626342773,427838624
sw,-58.8470458984375,-88.6466522216796,-85.3539962768554,48.1755256652832,427855291
sw,-58.072769165039,-89.2975158691406,-57.6364135742187,42.0675354003906,427871958
sw,-57.6734275817871,-89.3931579589843,-34.4069366455078,36.3479423522949,427888625
sw,-57.6643295288085,-88.9422302246093,-14.2861890792846,30.536563873291,427905292
sw,-57.8345527648925,-88.4662246704101,-6.08277893066406,21.8429622650146,427921959
sw,-58.1853904724121,-88.0149536132812,3.93880319595336,15.0822563171386,427938626
sw,-58.7994384765625,-87.5858917236328,24.1494483947753,12.4902639389038,427955293
sw,-59.6594619750976,-87.1986541748046,47.7593803405761,14.4648351669311,427971960
sw,-60.5043029785156,-86.8486862182617,53.8044624328613,18.7429103851318,427988627
sw,-61.0888977050781,-86.5154113769531,36.5541038513183,22.3372020721435,428005294
sw,-61.3167381286621,-86.1682510375976,8.89252185821533,24.8892745971679,428021961
sw,-61.5583305358886,-85.8795394897461,9.80195045471191,22.7673664093017,428038628
sw,-62.0137596130371,-85.6536865234375,24.1217403411865,22.7260570526123,428055295
sw,-62.5609626770019,-85.561164855957,30.6514854431152,20.2264823913574,428071962
sw,-63.1189727783203,-85.5295486450195,36.4340667724609,17.5038013458251,428088629
sw,-63.4110794067382,-85.6592330932617,16.8286514282226,5.99855756759643,428105296
sw,-63.477928161621,-85.8289031982421,-2.848477602005,-1.11630988121032,428121963
sw,-63.5833511352539,-85.8958282470703,-2.30822467803955,-5.30586671829223,428138630
sw,-64.0469055175781,-85.7074127197265,18.0500335693359,-14.1150379180908,428155297
sw,-65.1300582885742,-84.8122329711914,46.8461036682128,-24.1728954315185,428171964
sw,-66.2907638549804,-82.9782028198242,51.7442054748535,-43.3027572631835,428188631
sw,-66.8653259277343,-80.3596115112304,14.4959869384765,-70.2511520385742,428205298
sw,-67.3309860229492,-77.5046920776367,0.197933986783027,-110.737129211425,428221965
sw,-68.2048263549804,-74.8699722290039,21.3483448028564,-156.584381103515,428238632
sw,-69.552375793457,-72.5364685058593,60.6537399291992,-172.874450683593,428255299
sw,-71.0493927001953,-70.3406524658203,73.3343811035156,-186.874191284179,428271966
sw,-72.397216796875,-68.5490112304687,67.1273422241211,-184.863327026367,428288633
sw,-73.857681274414,-67.0066909790039,69.1602325439453,-160.395858764648,428305300
sw,-75.5808334350586,-65.2870254516601,82.8672409057617,-148.65315246582,428321967
sw,-77.4105834960937,-63.6777229309082,91.3804702758789,-126.289253234863,428338634
sw,-79.2564392089843,-62.4276084899902,97.6827011108398,-105.914199829101,428355301
sw,-81.0914459228515,-61.4268569946289,104.67529296875,-97.2368392944336,428371968
sw,-82.9390640258789,-60.5710258483886,109.134094238281,-83.1644973754882,428388635
sw,-84.7237472534179,-59.8032875061035,110.22891998291,-68.3233108520507,428405302
sw,-86.1951217651367,-59.290168762207,106.643379211425,-50.9736824035644,428421969
sw,-87.0244216918945,-58.8915863037109,104.600814819335,-47.7900505065918,428438636
sw,-86.8805847167968,-58.3674354553222,99.0920867919921,-52.2772216796875,428455303
sw,-86.2154006958007,-57.988052368164,80.4164428710937,-30.4617900848388,428471970
sw,-85.5883865356445,-58.1902198791503,56.3007087707519,1.67540824413299,428488637
sw,-85.0815963745117,-59.0013885498046,40.47119140625,29.8507442474365,428505304
sw,-84.6323928833007,-60.2425231933593,32.7997970581054,47.5654029846191,428521971
sw,-84.172134399414,-61.4296073913574,31.1900520324707,40.2392845153808,428538638
sw,-83.7440490722656,-62.7014503479003,28.3623332977294,40.7586402893066,428555305
sw,-83.3577270507812,-63.8699607849121,25.1391887664794,41.1850357055664,428571972
sw,-83.1011581420898,-64.6461715698242,16.0136203765869,18.3490734100341,428588639
sw,-83.0083312988281,-65.6431884765625,5.12749576568603,21.8682022094726,428605306
sw,-83.083267211914,-66.7687072753906,-5.95268678665161,35.2812843322753,428621973
sw,-83.2372283935546,-67.3638458251953,-11.3971881866455,26.2624320983886,428638640
sw,-83.37255859375,-67.381851196289,-10.7465209960937,-4.61770296096801,428655307
sw,-83.4810028076171,-67.0936660766601,-11.2835798263549,-24.9683609008789,428671974
sw,-83.5079803466796,-66.8287582397461,-10.0336589813232,-26.836082458496,428688641
sw,-83.407241821289,-67.0064315795898,-8.27045631408691,-0.582694053649902,428705308
sw,-83.2595443725586,-67.3291091918945,-12.4875860214233,19.9604911804199,428721975
sw,-82.9193344116211,-67.1658782958984,-13.1537246704101,-14.2517509460449,428738642
sw,-82.3336868286132,-67.0592041015625,-25.9173107147216,-39.3355140686035,428755309
sw,-81.4202041625976,-67.1492843627929,-48.2703704833984,-44.5855369567871,428771976
sw,-79.9616622924804,-67.8372573852539,-69.2015380859375,-19.2568492889404,428788643
sw,-77.9707107543945,-69.4011993408203,-82.6665267944336,37.7591400146484,428805310
sw,-75.9510269165039,-71.1812973022461,-101.507164001464,63.498794555664,428821977
sw,-74.3223419189453,-72.3894577026367,-127.35708618164,34.0891799926757,428838644
sw,-73.2643051147461,-73.5336608886718,-153.646408081054,34.5845756530761,428855311
sw,-72.3715133666992,-74.9202194213867,-162.887390136718,51.1966323852539,428871978
sw,-71.4186477661132,-76.2921524047851,-148.108108520507,51.1294288635253,428888645
sw,-70.3227157592773,-77.6568450927734,-128.978393554687,50.874153137207,428905312
sw,-69.1787567138671,-79.1119003295898,-109.6070022583,54.3924598693847,428921979
sw,-67.8210754394531,-80.7066879272461,-117.037353515625,63.180549621582,428938646
sw,-66.1382217407226,-82.3697662353515,-136.288787841796,74.8584594726562,428955313
sw,-64.3642501831054,-84.093032836914,-134.301467895507,87.2147598266601,428971980
sw,-62.7608947753906,-85.7831420898437,-118.652297973632,89.5163269042968,428988647
sw,-61.2524490356445,-87.3287811279296,-110.038223266601,83.668472290039,429005314
sw,-59.7780609130859,-88.4664764404296,-102.868698120117,69.2902450561523,429021981
sw,-58.4048118591308,-88.8145294189453,-90.5600433349609,49.99560546875,429038648
sw,-57.2897338867187,-88.5833511352539,-67.472915649414,36.1248512268066,429055315
sw,-56.5653915405273,-88.1595306396484,-39.209487915039,32.284381866455,429071982
sw,-56.1916275024414,-87.6548156738281,-23.1614265441894,30.116340637207,429088649
sw,-56.0122642517089,-87.1466598510742,-21.3868293762207,27.5021343231201,429105316
sw,-55.9030990600585,-86.7742691040039,-25.9939537048339,19.341588973999,429121983
sw,-55.9579544067382,-86.5027389526367,-17.7479248046875,15.6456975936889,429138650
sw,-56.5677299499511,-86.2119903564453,26.3626689910888,17.547212600708,429155317
sw,-57.5450820922851,-85.9538345336914,56.1658477783203,19.949649810791,429171984
sw,-58.6810035705566,-85.755126953125,64.3813781738281,19.168249130249,429188651
sw,-59.5451049804687,-85.6618957519531,40.5762748718261,14.9292755126953,429205318
sw,-60.187156677246,-85.7024917602539,21.6469116210937,9.11381816864013,429221985
sw,-60.9790153503418,-85.7943038940429,35.2030792236328,6.74438190460205,429238652
sw,-62.0378990173339,-85.9121856689453,51.258975982666,6.45869827270507,429255319
sw,-63.2148818969726,-85.9569778442382,56.7090644836425,8.73171424865722,429271986
sw,-64.2067337036132,-85.9174118041992,47.164321899414,4.11972475051879,429288653
sw,-64.6371154785156,-85.7136306762695,16.904405593872,-12.1199159622192,429305320
sw,-64.9780044555664,-84.9324111938476,11.1799612045288,-37.6370620727539,429321987
sw,-65.5766906738281,-83.1030654907226,11.708324432373,-65.101936340332,429338654
sw,-65.6933364868164,-80.5364837646484,-6.45364999771118,-82.1690063476562,429355321
sw,-65.9761581420898,-77.7118301391601,12.1714420318603,-106.599327087402,429371988
sw,-66.7045440673828,-74.9186630249023,34.8950996398925,-142.910888671875,429388655
sw,-67.9214096069336,-72.4100265502929,62.9837074279785,-148.02473449707,429405322
sw,-69.2947235107421,-70.1996002197265,67.6969757080078,-151.170150756835,429421989
sw,-70.5084533691406,-68.263069152832,51.0690383911132,-163.480407714843,429438656
sw,-71.695083618164,-66.5196533203125,52.487133026123,-160.192459106445,429455323
sw,-73.0949478149414,-64.8790664672851,68.8434524536132,-141.906768798828,429471990
sw,-74.7055130004882,-63.457103729248,86.1949996948242,-120.965599060058,429488657
sw,-76.399543762207,-62.3316383361816,93.0538482666015,-98.2732620239257,429505324
sw,-78.1816864013671,-61.5094184875488,99.884162902832,-83.5128479003906,429521991
sw,-80.0377731323242,-60.8368911743164,107.165489196777,-74.0171661376953,429538658
sw,-81.8325424194336,-60.2661628723144,109.647003173828,-58.9524765014648,429555325
sw,-83.5149612426757,-59.9061813354492,113.801750183105,-44.6331100463867,429571992
sw,-84.9727478027343,-59.7467727661132,117.332336425781,-37.0796661376953,429588659
sw,-85.8556594848632,-59.3575057983398,111.137329101562,-48.6296272277832,429605326
sw,-86.0258102416992,-59.0690269470214,98.9136199951171,-26.950023651123,429621993
sw,-85.6536865234375,-59.2375755310058,85.4719619750976,1.29174065589904,429638660
sw,-85.1098403930664,-59.9692649841308,64.0336227416992,28.3116741180419,429655327
sw,-84.5685882568359,-60.9259300231933,48.7411880493164,30.6099891662597,429671994
sw,-84.048599243164,-62.0137596130371,40.408836364746,28.7015419006347,429688661
sw,-83.5914306640625,-63.1636352539062,32.5710563659668,30.4694786071777,429705328
sw,-83.2323303222656,-64.2652893066406,24.1185874938964,33.8161125183105,429721995
sw,-82.9797134399414,-65.086669921875,16.4181365966796,17.5139064788818,429738662
sw,-82.8089523315429,-65.9467849731445,10.7691221237182,19.5088481903076,429755329
sw,-82.7031707763671,-66.9198303222656,4.66082906723022,28.2077178955078,429771996
sw,-82.6434707641601,-67.5284729003906,-0.680952370166778,22.3242034912109,429788663
sw,-82.6678390502929,-67.6561889648437,-8.70000267028808,2.5458071231842,429805330
sw,-82.6974105834961,-67.4051666259765,-12.2023267745971,-16.1652069091796,429821997
sw,-82.6272506713867,-67.0977783203125,-7.83887910842895,-18.6992435455322,429838664
sw,-82.4654235839843,-67.2022323608398,-2.53859329223632,-3.64495015144348,429855331
sw,-82.2901916503906,-67.9152297973632,-3.14137554168701,30.0292930603027,429871998
sw,-82.0684051513671,-68.4858245849609,-9.09911155700683,28.7702159881591,429888665
sw,-81.6179122924804,-69.0602874755859,-8.10254383087158,21.1314601898193,429905332
sw,-80.9886169433593,-69.5463104248046,-12.5345935821533,-10.0938577651977,429921999
sw,-80.2737503051757,-69.9499740600586,-39.6941223144531,-30.3064346313476,429938666
sw,-79.3261489868164,-70.7888717651367,-72.7813262939453,3.83306336402893,429955333
sw,-78.0116653442382,-71.8838577270507,-91.5199356079101,29.4436779022216,429972000
sw,-76.4944839477539,-73.1279144287109,-104.772705078125,37.0691184997558,429988667
sw,-74.9412765502929,-74.4430236816406,-125.114692687988,44.648136138916,430005334
sw,-73.644416809082,-75.5696411132812,-143.087081909179,41.8614845275878,430022001
sw,-72.7180938720703,-76.5663146972656,-152.35871887207,37.7666778564453,430038668
sw,-71.7653350830078,-77.5277862548828,-147.269805908203,34.616901397705,430055335
sw,-70.81494140625,-78.546028137207,-126.15941619873,37.3501014709472,430072002
sw,-69.8864364624023,-79.6402435302734,-104.727310180664,44.5746383666992,430088669
sw,-68.9632034301757,-80.8652877807617,-95.8320388793945,55.9140319824218,430105336
sw,-67.8923034667968,-82.2799606323242,-107.170616149902,70.4341125488281,430122003
sw,-66.6036682128906,-83.8593444824218,-119.188171386718,84.6298141479492,430138670
sw,-65.2842102050781,-85.3784408569336,-114.096252441406,84.5777893066406,430155337
sw,-64.0357666015625,-86.6805267333984,-104.775825500488,71.2435836791992,430172004
sw,-62.7843780517578,-87.66552734375,-102.091476440429,52.2676086425781,430188671
sw,-61.5921745300293,-88.3370513916015,-94.9605102539062,36.0152969360351,430205338
sw,-60.4932518005371,-88.8233032226562,-86.3828353881836,28.3961067199707,430222005
sw,-59.603775024414,-89.1947326660156,-69.8065795898437,26.0318069458007,430238672
sw,-59.0265922546386,-89.3164291381836,-49.978645324707,25.5252227783203,430255339
sw,-58.6422424316406,-89.0504455566406,-39.1240501403808,21.8073101043701,430272006
sw,-58.1884307861328,-88.6262741088867,-47.7061576843261,19.8507900238037,430288673
sw,-57.9761199951171,-88.1448059082031,-33.1010932922363,24.7581424713134,430305340
sw,-58.0573806762695,-87.6964111328125,-7.46240091323852,28.1075458526611,430322007
sw,-58.2636528015136,-87.3792343139648,5.78834056854248,25.7997951507568,430338674
sw,-58.5759773254394,-87.1235656738281,13.7868242263793,21.7257480621337,430355341
sw,-58.9577026367187,-86.9487991333007,17.0605964660644,12.8341703414917,430372008
sw,-59.3748970031738,-86.9775466918945,17.0035400390625,0.153529316186904,430388675
sw,-59.8580245971679,-87.1806182861328,20.3545799255371,-7.64487791061401,430405342
sw,-60.4072189331054,-87.4439620971679,25.4051971435546,-8.16802978515625,430422009
sw,-61.0507850646972,-87.7035675048828,33.1727828979492,-4.70631027221679,430438676
sw,-61.810977935791,-87.9621200561523,40.7543296813964,-1.04842138290405,430455343
sw,-62.6622657775878,-88.1411209106445,46.105598449707,1.49958932399749,430472010
sw,-63.4433822631835,-88.0485610961914,42.5284576416015,-2.43174624443054,430488677
sw,-64.0575256347656,-87.2941207885742,34.3734016418457,-8.69311904907226,430505344
sw,-64.7370223999023,-85.7483520507812,33.578987121582,-20.2979145050048,430522011
sw,-65.3723373413086,-83.4044189453125,19.1404857635498,-44.6549682617187,430538678
sw,-65.9629745483398,-80.4248809814453,13.0199947357177,-72.2529373168945,430555345
sw,-66.8455657958984,-77.0931930541992,34.4195823669433,-101.694122314453,430572012
sw,-68.1163330078125,-73.6340637207031,57.7884063720703,-145.656829833984,430588679
sw,-69.6193542480468,-70.6399993896484,80.1602935791015,-159.940567016601,430605346
sw,-71.0135803222656,-68.3792037963867,68.4071884155273,-154.467468261718,430622013
sw,-72.2758712768554,-66.5673828125,55.5335617065429,-161.140853881835,430638680
sw,-73.5658950805664,-64.7784423828125,57.5036506652832,-164.930221557617,430655347
sw,-74.9953308105468,-63.0072441101074,67.4216384887695,-151.845977783203,430672014
sw,-76.6353454589843,-61.6329727172851,81.8846130371093,-109.512008666992,430688681
sw,-78.4235458374023,-60.6866607666015,96.0142822265625,-81.5174102783203,430705348
sw,-80.187026977539,-59.9929046630859,98.4591445922851,-73.8348388671875,430722015
sw,-81.8690643310546,-59.4573287963867,98.0950622558593,-66.5156936645507,430738682
sw,-83.4504852294921,-58.9184417724609,97.9785919189453,-65.5726623535156,430755349
sw,-84.8589401245117,-58.5036506652832,94.4100341796875,-57.1258659362793,430772016
sw,-85.9870681762695,-58.2371864318847,89.9667434692382,-44.2394943237304,430788683
sw,-86.6664581298828,-57.9715919494628,89.9651412963867,-37.924087524414,430805350
sw,-86.741958618164,-57.8991317749023,84.4466476440429,-18.2154674530029,430822017
sw,-86.4111175537109,-57.9917297363281,68.8087921142578,-1.72384440898895,430838684
sw,-85.9575653076171,-58.5448303222656,54.0576171875,23.612356185913,430855351
sw,-85.4516677856445,-59.3624992370605,47.0035133361816,31.7269401550292,430872018
sw,-84.9752731323242,-60.3551712036132,40.2542991638183,37.4053840637207,430888685
sw,-84.5516204833984,-61.5686988830566,33.1057205200195,50.1603164672851,430905352
sw,-84.1142044067382,-62.7657241821289,30.5085983276367,50.3009567260742,430922019
sw,-83.7053680419921,-63.7451744079589,27.3408603668212,34.1123733520507,430938686
sw,-83.3953857421875,-64.4405441284179,20.525032043457,14.8077116012573,430955353
sw,-83.2547149658203,-65.0533447265625,9.14457607269287,13.7992076873779,430972020
sw,-83.2928466796875,-65.7816772460937,-3.60702204704284,27.5355567932128,430988687
sw,-83.4221038818359,-66.2394638061523,-10.7483139038085,23.7731781005859,431005354
sw,-83.6535034179687,-66.3401565551757,-17.5026683807373,1.83327376842498,431022021
sw,-83.8601379394531,-66.1895217895507,-18.0078182220459,-13.5449275970458,431038688
sw,-83.8896102905273,-65.9377288818359,-10.8439922332763,-19.2626953125,431055355
sw,-83.7716293334961,-65.9826354980468,-6.84628629684448,-5.50931978225708,431072022
sw,-83.6172103881836,-66.6682052612304,-9.79303073883056,24.5199356079101,431088689
sw,-83.2789993286132,-67.2059860229492,-15.0710086822509,15.2982320785522,431105356
sw,-82.6528701782226,-67.5576095581054,-28.2208042144775,-5.01285123825073,431122023
sw,-81.7774429321289,-67.9067153930664,-47.7469444274902,-16.3607521057128,431138690
sw,-80.5069046020507,-68.2806930541992,-79.1268997192382,-20.336498260498,431155357
sw,-78.4848327636718,-68.8033142089843,-103.535705566406,-17.0345497131347,431172024
sw,-76.1261672973632,-69.7746200561523,-112.755683898925,18.146484375,431188691
sw,-74.0610885620117,-70.9504776000976,-136.586868286132,41.2668876647949,431205358
sw,-72.7559814453125,-71.892578125,-162.121490478515,28.0866222381591,431222025
sw,-71.5104827880859,-72.8066787719726,-176.373886108398,27.3083362579345,431238692
sw,-70.1513442993164,-73.9134292602539,-169.603408813476,41.4469490051269,431255359
sw,-68.7759552001953,-75.1656417846679,-146.548767089843,55.4378814697265,431272026
sw,-67.7980270385742,-76.4434432983398,-102.405014038085,63.3673057556152,431288693
sw,-66.8206634521484,-77.7619323730468,-96.9653549194336,65.097541809082,431305360
sw,-65.5076446533203,-79.1657562255859,-118.257705688476,67.4356613159179,431322027
sw,-63.9348182678222,-80.6385116577148,-129.200820922851,73.4878234863281,431338694
sw,-62.3412399291992,-82.1989364624023,-126.273818969726,83.3937530517578,431355361
sw,-60.9027290344238,-83.9045486450195,-113.82029724121,97.0724945068359,431372028
sw,-59.6430625915527,-85.718147277832,-96.0470733642578,106.517402648925,431388695
sw,-58.5480804443359,-87.4825363159179,-77.74462890625,106.166709899902,431405362
sw,-57.6663093566894,-88.8632354736328,-56.1099815368652,93.3933944702148,431422029
sw,-57.0740356445312,-88.9332122802734,-33.7644462585449,72.9776077270507,431438696
sw,-56.876537322998,-88.2824020385742,-11.1513786315917,42.7096824645996,431455363
sw,-56.8211059570312,-87.7784194946289,-8.46856880187988,25.2231254577636,431472030
sw,-56.7819595336914,-87.2225112915039,-14.8078060150146,26.0153007507324,431488697
sw,-57.289794921875,-86.6691589355468,22.8557548522949,25.9090499877929,431505364
sw,-58.1032180786132,-86.3055648803711,49.6832389831543,16.9014739990234,431522031
sw,-58.8863868713378,-86.1827392578125,46.1863861083984,4.8116865158081,431538698
sw,-59.4540710449218,-86.2517471313476,27.3054275512695,-4.27428913116455,431555365
sw,-59.9401779174804,-86.4503936767578,21.8826503753662,-7.5137972831726,431572032
sw,-60.5281410217285,-86.5957336425781,31.8955154418945,-1.68966448307037,431588699
sw,-61.2349205017089,-86.5986099243164,40.7720260620117,5.88104534149169,431605366
sw,-62.1164054870605,-86.4297103881836,53.5524864196777,8.0198221206665,431622033
sw,-62.9199905395507,-86.0583114624023,51.471923828125,-0.684631586074829,431638700
sw,-63.4584808349609,-85.3386840820312,41.3447227478027,-21.3951587677001,431655367
sw,-63.8271827697753,-83.9535751342773,22.3940734863281,-45.7763366699218,431672034
sw,-63.9051208496093,-81.799201965332,-7.78918361663818,-81.9913558959961,431688701
sw,-63.9540328979492,-78.9677276611328,-2.52599215507507,-119.631149291992,431705368
sw,-64.5724563598632,-75.6823120117187,29.9128818511962,-153.548950195312,431722035
sw,-65.8521499633789,-72.5582885742187,63.0899467468261,-172.865600585937,431738702
sw,-67.3864364624023,-70.2924423217773,91.9583740234375,-142.418838500976,431755369
sw,-68.6676635742187,-68.3193359375,63.4280395507812,-143.986404418945,431772036
sw,-69.8033447265625,-66.2259140014648,43.9257659912109,-168.185989379882,431788703
sw,-71.1141967773437,-64.3832626342773,55.0453071594238,-155.358001708984,431805370
sw,-72.6513290405273,-62.8108901977539,72.5199813842773,-130.812515258789,431822037
sw,-74.3532562255859,-61.4377632141113,83.4207916259765,-108.97444152832,431838704
sw,-76.1490249633789,-60.4348068237304,90.3875427246093,-87.7767944335937,431855371
sw,-77.999038696289,-59.7722549438476,97.4812850952148,-73.0587844848632,431872038
sw,-79.8510589599609,-59.1790733337402,105.010543823242,-69.4102478027343,431888705
sw,-81.6254196166992,-58.6728401184082,109.566757202148,-59.3130226135253,431905372
sw,-83.2436141967773,-58.4548377990722,108.233642578125,-38.9605712890625,431922039
sw,-84.6680679321289,-58.3166732788085,106.223579406738,-30.6619701385498,431938706
sw,-85.7821655273437,-58.2490882873535,102.458992004394,-22.847951889038,431955373
sw,-86.3467712402343,-58.2242431640625,97.8736877441406,-9.99430274963378,431972040
sw,-86.143798828125,-58.4391822814941,93.8199234008789,4.90375518798828,431988707
sw,-85.4840393066406,-59.2689247131347,78.6191024780273,36.9242630004882,432005374
sw,-84.8258514404296,-60.490493774414,57.3282089233398,50.5987701416015,432022041
sw,-84.3613204956054,-61.7176170349121,37.991470336914,37.4578895568847,432038708
sw,-84.0879211425781,-63.0238380432128,22.291820526123,35.0176544189453,432055375
sw,-83.9684448242187,-63.9639091491699,9.38068389892578,15.1579370498657,432072042
sw,-83.9460525512695,-64.7160491943359,1.30614280700683,12.842824935913,432088709
sw,-83.95947265625,-65.819709777832,-0.251619547605514,36.5694198608398,432105376
sw,-83.9583358764648,-66.8069915771484,0.833098471164703,51.0116462707519,432122043
sw,-83.8587951660156,-67.1673355102539,6.10410165786743,21.6860847473144,432138710
sw,-83.6240997314453,-66.9383010864257,12.380386352539,-14.6783580780029,432155377
sw,-83.2931747436523,-66.4958343505859,13.7874021530151,-27.3808937072753,432172044
sw,-82.9890823364257,-66.1779556274414,5.18513107299804,-26.4690151214599,432188711
sw,-82.7933120727539,-66.4570159912109,-6.97956609725952,-1.1842393875122,432205378
sw,-82.5911712646484,-66.9836044311523,-15.780626296997,21.275089263916,432222045
sw,-82.2052307128906,-67.3922271728515,-21.3129520416259,10.1248750686645,432238712
sw,-81.573989868164,-67.977912902832,-32.7629966735839,-0.0299671124666929,432255379
sw,-80.650650024414,-68.40087890625,-50.5633506774902,-13.893624305725,432272046
sw,-79.1655120849609,-69.1109390258789,-70.4886856079101,3.35508394241333,432288713
sw,-77.10205078125,-70.1430511474609,-86.2201766967773,24.3047199249267,432305380
sw,-74.9330062866211,-71.3356475830078,-105.4683303833,40.989273071289,432322047
sw,-73.185791015625,-72.4487762451171,-131.478866577148,36.4733009338378,432338714
sw,-72.1412734985351,-73.6026153564453,-163.044998168945,37.5253067016601,432355381
sw,-71.2271041870117,-74.8705978393554,-185.593017578125,47.6612548828125,432372048
sw,-70.1350021362304,-76.2042541503906,-174.052871704101,56.4866485595703,432388715
sw,-68.9567947387695,-77.4793624877929,-148.738510131835,58.6629791259765,432405382
sw,-67.8075180053711,-78.6785659790039,-123.498138427734,56.5386543273925,432422049
sw,-66.561782836914,-79.9297180175781,-119.840751647949,59.027587890625,432438716
sw,-65.1016159057617,-81.2612915039062,-130.546432495117,67.8658981323242,432455383
sw,-63.5453071594238,-82.636489868164,-130.079025268554,76.4280166625976,432472050
sw,-62.1205291748046,-84.0833435058593,-117.268829345703,84.0372619628906,432488717
sw,-60.8148078918457,-85.5896301269531,-106.798286437988,87.3510284423828,432505384
sw,-59.5793113708496,-87.0200119018554,-97.1655731201171,80.042121887207,432522051
sw,-58.4919662475585,-88.3490982055664,-81.7412490844726,69.3855667114257,432538718
sw,-57.6456489562988,-89.6053466796875,-60.7539939880371,54.6582794189453,432555385
sw,-57.1578674316406,-90.0,-37.3871116638183,40.5505180358886,432572052
sw,-56.7813987731933,-89.4972076416015,-30.6690959930419,30.9372291564941,432588719
sw,-56.3503913879394,-88.7861404418945,-42.0017395019531,25.4596214294433,432605386
sw,-56.5573425292968,-88.3102035522461,-4.1035041809082,19.3859939575195,432622053
sw,-57.2788772583007,-87.9940643310546,34.0821266174316,14.4911203384399,432638720
sw,-58.2144470214843,-87.7854766845703,46.471622467041,10.0439405441284,432655387
sw,-59.1649513244628,-87.5920639038086,47.2515983581543,10.7224445343017,432672054
sw,-59.9898681640625,-87.321533203125,39.0946311950683,18.8653125762939,432688721
sw,-60.6926193237304,-87.0451507568359,31.5907516479492,25.0105972290039,432705388
sw,-61.4137954711914,-86.8482437133789,34.4436912536621,24.0964221954345,432722055
sw,-62.3148612976074,-86.7428588867187,43.8649826049804,17.9643096923828,432738722
sw,-63.5048789978027,-86.5737228393554,57.2880973815918,14.6609086990356,432755389
sw,-64.7154312133789,-86.2041397094726,60.1194419860839,13.4034996032714,432772056
sw,-65.5741195678711,-85.7638549804687,39.418228149414,-2.21335363388061,432788723
sw,-66.2036437988281,-85.0065689086914,24.6869583129882,-25.1834678649902,432805390
sw,-67.2168273925781,-83.3741836547851,39.0268859863281,-47.8221282958984,432822057
sw,-68.3955612182617,-80.8407974243164,49.9318504333496,-64.1430206298828,432838724
sw,-68.8155364990234,-77.7306976318359,18.2926216125488,-82.9550628662109,432855391
sw,-68.9306182861328,-74.3253631591796,0.339094996452331,-128.170196533203,432872058
sw,-69.4734573364257,-71.2183227539062,14.8802728652954,-176.071487426757,432888725
sw,-70.6156768798828,-68.8469314575195,50.1288528442382,-171.497360229492,432905392
sw,-71.9236221313476,-66.8081130981445,64.9351730346679,-193.10806274414,432922059
sw,-73.0206527709961,-64.9972686767578,51.156394958496,-194.488677978515,432938726
sw,-74.1059875488281,-63.3530311584472,48.2088012695312,-171.728713989257,432955393
sw,-75.406509399414,-61.8125305175781,59.3926696777343,-146.313232421875,432972060
sw,-76.8961410522461,-60.5093574523925,72.9761810302734,-120.6070022583,432988727
sw,-78.4310150146484,-59.5522422790527,83.1181259155273,-104.994102478027,433005394
sw,-79.980110168457,-58.8743476867675,89.1630935668945,-95.764419555664,433022061
sw,-81.5323410034179,-58.5041847229003,92.9866714477539,-72.4424972534179,433038728
sw,-83.0248184204101,-58.3479690551757,92.3707656860351,-52.6704940795898,433055395
sw,-84.3953857421875,-58.4651222229003,87.3062210083007,-39.7527046203613,433072062
sw,-85.6249389648437,-58.4943008422851,85.1036834716796,-46.7267990112304,433088729
sw,-86.6703948974609,-58.2942848205566,91.5230407714843,-36.7774848937988,433105396
sw,-87.2307739257812,-58.3012390136718,100.651069641113,-10.4933967590332,433122063
sw,-86.9290313720703,-58.9149703979492,98.6787185668945,28.4186973571777,433138730
sw,-86.1843338012695,-59.915054321289,80.1888580322265,42.0425872802734,433155397
sw,-85.491455078125,-61.1359786987304,57.1424560546875,52.3046913146972,433172064
sw,-84.9522857666015,-62.3766708374023,40.701171875,45.4540786743164,433188731
sw,-84.4844512939453,-63.5102005004882,33.1836738586425,32.0627212524414,433205398
sw,-84.0641632080078,-64.4208831787109,28.3449897766113,27.1293144226074,433222065
sw,-83.729995727539,-65.0317306518554,22.0039596557617,7.27042245864868,433238732
sw,-83.526741027832,-65.7595901489257,13.1314315795898,11.0163087844848,433255399
sw,-83.4088745117187,-66.5660781860351,6.34602117538452,27.8267860412597,433272066
sw,-83.3481979370117,-67.099006652832,0.867215573787689,24.8557777404785,433288733
sw,-83.3430938720703,-67.1079483032226,-4.18801259994506,-4.99528694152832,433305400
sw,-83.4284896850586,-66.8926391601562,-10.9925470352172,-19.2026596069335,433322067
sw,-83.631851196289,-66.7254562377929,-19.2185859680175,-21.8801116943359,433338734
sw,-83.8533706665039,-67.3622665405273,-22.8847122192382,13.8795738220214,433355401
sw,-83.8580322265625,-68.5206604003906,-16.4297618865966,53.2462272644043,433372068
sw,-83.6631546020507,-69.3825378417968,-14.1200866699218,40.2577209472656,433388735
sw,-83.2714538574218,-70.1964950561523,-12.2304677963256,18.8988227844238,433405402
sw,-82.6303634643554,-71.2986221313476,-21.550682067871,2.51310157775878,433422069
sw,-81.6617202758789,-72.4407348632812,-43.036636352539,-8.16569805145263,433438736
sw,-80.1837615966796,-73.7614593505859,-71.4088592529296,18.4168605804443,433455403
sw,-78.1780700683593,-74.9729385375976,-92.1789169311523,25.5385589599609,433472070
sw,-76.1288909912109,-76.2909622192382,-118.722625732421,39.0666351318359,433488737
sw,-74.3481369018554,-77.8092193603515,-154.952682495117,57.4508247375488,433505404
sw,-73.0407333374023,-79.402587890625,-186.136199951171,67.4607238769531,433522071
sw,-71.6812133789062,-80.8563919067382,-187.126846313476,61.0169067382812,433538738
sw,-70.2891082763671,-82.0811080932617,-165.440475463867,48.416633605957,433555405
sw,-68.8427429199218,-83.1778030395507,-146.12109375,40.7576828002929,433572072
sw,-67.6396179199218,-84.0862655639648,-113.365859985351,36.1060485839843,433588739
sw,-66.4797439575195,-84.9034576416015,-103.845420837402,39.0038948059082,433605406
sw,-65.1400680541992,-85.7667236328125,-113.333343505859,46.7830924987793,433622073
sw,-63.6870193481445,-86.6692199707031,-116.417137145996,50.900821685791,433638740
sw,-62.3178215026855,-87.522590637207,-108.451934814453,48.5565071105957,433655407
sw,-61.0099143981933,-88.4021072387695,-102.250083923339,47.5315017700195,433672074
sw,-59.7052993774414,-89.3577575683593,-98.0417098999023,44.0549011230468,433688741
sw,-58.4969253540039,-90.0,-88.1158752441406,40.0475730895996,433705408
sw,-57.5137596130371,-90.0,-69.3488159179687,34.564769744873,433722075
sw,-56.9147071838378,-89.1781311035156,-42.3826332092285,30.261432647705,433738742
sw,-56.7264213562011,-88.6560821533203,-19.8607292175292,24.6364097595214,433755409
sw,-56.7895774841308,-88.227668762207,-7.86836528778076,20.8153457641601,433772076
sw,-56.8752708435058,-87.8146667480468,-11.4981660842895,18.7170848846435,433788743
sw,-57.4918823242187,-87.4990005493164,22.3032722473144,13.9200820922851,433805410
sw,-58.5986175537109,-87.3299560546875,59.6391639709472,8.4852819442749,433822077
sw,-59.8747291564941,-87.2400436401367,71.8174438476562,5.5509557723999,433838744
sw,-61.0546798706054,-87.2340240478515,63.5746917724609,4.02680444717407,433855411
sw,-62.0185966491699,-87.2497100830078,47.1003608703613,6.18872213363647,433872078
sw,-62.8133316040039,-87.2346649169921,35.4623527526855,8.24411487579345,433888745
sw,-63.8575820922851,-87.2699279785156,49.4567070007324,2.99220633506774,433905412
sw,-65.1128463745117,-87.2290802001953,64.1059265136718,-5.35833024978637,433922079
sw,-66.1248092651367,-86.703010559082,58.1313781738281,-5.59175109863281,433938746
sw,-66.7285537719726,-85.6455841064453,44.4450073242187,-14.3332958221435,433955413
sw,-67.3015823364257,-83.9020767211914,26.2548999786376,-38.864200592041,433972080
sw,-67.8515930175781,-81.3355331420898,1.30416905879974,-69.7340850830078,433988747
sw,-68.3275299072265,-78.2416381835937,15.4037685394287,-94.6648406982421,434005414
sw,-69.0335998535156,-74.8589706420898,36.4829902648925,-130.205596923828,434022081
sw,-69.9182357788086,-71.6871566772461,53.85396194458,-158.255126953125,434038748
sw,-71.2185668945312,-69.3058547973632,70.945442199707,-146.162200927734,434055415
sw,-72.5623321533203,-67.471206665039,61.8987197875976,-139.201217651367,434072082
sw,-73.7393188476562,-65.7663040161132,46.5130805969238,-149.666183471679,434088749
sw,-74.9390563964843,-63.9924926757812,49.4602432250976,-152.401885986328,434105416
sw,-76.3320159912109,-62.4519233703613,64.9019317626953,-128.869049072265,434122083
sw,-77.8562850952148,-61.1866722106933,76.9477310180664,-99.8330535888671,434138750
sw,-79.4492645263671,-60.3454933166503,85.8934631347656,-74.2832565307617,434155417
sw,-81.1021423339843,-59.6616401672363,90.9734115600586,-74.2693557739257,434172084
sw,-82.7812347412109,-59.1086082458496,95.4163513183593,-70.69970703125,434188751
sw,-84.3242492675781,-58.7370796203613,91.1160354614257,-58.3600387573242,434205418
sw,-85.6966171264648,-58.4216957092285,87.2415237426757,-53.6925773620605,434222085
sw,-86.7843551635742,-58.3187026977539,83.991340637207,-41.8502693176269,434238752
sw,-87.398193359375,-58.1435012817382,76.2555770874023,-44.2185897827148,434255419
sw,-87.537727355957,-58.0109710693359,60.4332008361816,-26.6306095123291,434272086
sw,-87.4242782592773,-58.1925506591796,44.5606536865234,-0.549036145210266,434288753
sw,-87.2024993896484,-58.8053016662597,33.9086647033691,21.827293395996,434305420
sw,-86.9413604736328,-59.7151489257812,30.9598407745361,32.1901168823242,434322087
sw,-86.6440963745117,-60.9254913330078,31.4838638305664,46.1035728454589,434338754
sw,-86.290657043457,-62.1426582336425,32.5405006408691,46.2857322692871,434355421
sw,-85.9298934936523,-63.2088737487793,28.6523914337158,32.714111328125,434372088
sw,-85.6005630493164,-63.9626655578613,22.5505943298339,9.08254528045654,434388755
sw,-85.3468017578125,-64.6009140014648,15.3886213302612,5.87896823883056,434405422
sw,-85.1328887939453,-65.37890625,11.8055772781372,14.3836498260498,434422089
sw,-84.9346923828125,-66.1647567749023,10.6146717071533,33.6309280395507,434438756
sw,-84.7218856811523,-66.6230239868164,11.8745203018188,18.5009994506835,434455423
sw,-84.4649505615234,-66.5709075927734,13.6642293930053,-14.5071907043457,434472090
sw,-84.1671676635742,-66.4052276611328,14.2281370162963,-24.1586055755615,434488757
sw,-83.8534317016601,-66.3314819335937,12.8489542007446,-21.7253971099853,434505424
sw,-83.5391082763671,-67.3568344116211,12.9037199020385,29.7036228179931,434522091
sw,-83.3126983642578,-68.8312454223632,6.70024871826171,56.9827270507812,434538758
sw,-83.1183853149414,-69.9467315673828,-1.96000492572784,43.4777336120605,434555425
sw,-82.8508987426757,-71.2067489624023,-9.19966983795166,35.6070480346679,434572092
sw,-82.4730834960937,-72.5008544921875,-24.6497459411621,15.657278060913,434588759
sw,-81.7673721313476,-74.0686264038086,-45.0415916442871,25.9324550628662,434605426
sw,-80.5278625488281,-75.6519317626953,-67.7210693359375,40.3541374206543,434622093
sw,-78.8345794677734,-76.9310913085937,-92.1754989624023,33.1138496398925,434638760
sw,-76.925910949707,-78.2526626586914,-118.574882507324,41.4286346435546,434655427
sw,-75.1342163085937,-79.609375,-143.559265136718,50.1528739929199,434672094
sw,-73.826904296875,-80.8740310668945,-175.88052368164,51.2839317321777,434688761
sw,-72.5060882568359,-81.878303527832,-185.033569335937,40.7663688659668,434705428
sw,-71.0597076416015,-82.6717758178711,-175.870330810546,29.6204643249511,434722095
sw,-69.4563217163086,-83.3521194458007,-168.079345703125,24.71262550354,434738762
sw,-67.9912567138671,-83.9706497192382,-140.875427246093,25.9144210815429,434755429
sw,-66.5362854003906,-84.5789566040039,-130.737213134765,29.6253318786621,434772096
sw,-65.0016937255859,-85.2852401733398,-130.280654907226,37.8935775756835,434788763
sw,-63.4120216369628,-86.0641326904296,-128.791275024414,44.3133697509765,434805430
sw,-61.9005584716796,-86.8637542724609,-121.948997497558,47.285545349121,434822097
sw,-60.5055656433105,-87.6664505004882,-113.063095092773,46.7480239868164,434838764
sw,-59.1783370971679,-88.5657806396484,-104.891395568847,48.8852882385253,434855431
sw,-57.9692993164062,-89.9374465942382,-93.4802780151367,49.1711692810058,434872098
sw,-56.9957656860351,-90.0,-73.9784927368164,42.5958137512207,434888765
sw,-56.3732147216796,-90.0,-49.5786018371582,31.5073070526123,434905432
sw,-56.1388931274414,-89.1408920288086,-26.4222774505615,24.165620803833,434922099
sw,-56.2039337158203,-88.5922164916992,-7.20442914962768,22.0000438690185,434938766
sw,-56.5469131469726,-88.0496673583984,9.99248313903808,24.7915420532226,434955433
sw,-57.4638786315918,-87.6214218139648,47.8758926391601,20.2183170318603,434972100
sw,-58.9020271301269,-87.3044128417968,85.1952438354492,14.0909128189086,434988767
sw,-60.4861335754394,-87.1796417236328,93.3026885986328,4.32060146331787,435005434
sw,-61.9548568725585,-87.2677001953125,81.3024978637695,-3.51938366889953,435022101
sw,-63.2179908752441,-87.4644927978515,66.7414093017578,-4.29365825653076,435038768
sw,-64.8077316284179,-87.5418624877929,82.6475677490234,3.27972507476806,435055435
sw,-66.5231781005859,-87.3348693847656,89.9160842895507,17.9132022857666,435072102
sw,-67.7084884643554,-87.0242843627929,60.9549446105957,18.4261264801025,435088769
sw,-68.4152374267578,-86.7000427246093,38.3466720581054,-0.431199818849563,435105436
sw,-69.2016525268554,-85.9116058349609,56.7147102355957,-15.2315492630004,435122103
sw,-70.6596374511718,-84.4011535644531,88.7198791503906,-26.9895401000976,435138770
sw,-71.8107376098632,-82.1289443969726,65.0839691162109,-58.8453178405761,435155437
sw,-72.5070419311523,-79.0090179443359,23.2475833892822,-97.8594436645507,435172104
sw,-73.4213333129882,-75.391860961914,22.737886428833,-134.839416503906,435188771
sw,-74.5368270874023,-71.826919555664,51.0118026733398,-178.068374633789,435205438
sw,-75.6054000854492,-68.9883575439453,62.1289176940918,-172.411895751953,435222105
sw,-76.6402893066406,-66.7740173339843,55.4794197082519,-163.628036499023,435238772
sw,-78.059326171875,-64.6851730346679,71.2118377685546,-168.825942993164,435255439
sw,-79.6526336669921,-62.6767654418945,94.6115264892578,-160.355804443359,435272106
sw,-80.9676513671875,-60.8473014831543,88.6699600219726,-142.649002075195,435288773
sw,-82.1887741088867,-59.3083686828613,69.162483215332,-119.426239013671,435305440
sw,-83.2192687988281,-58.1792182922363,60.3557395935058,-97.4750213623046,435322107
sw,-83.9824981689453,-57.5357513427734,55.8156280517578,-83.0186386108398,435338774
sw,-84.5968017578125,-57.2161865234375,52.1917152404785,-72.7254257202148,435355441
sw,-85.0556945800781,-57.3201637268066,49.5395202636718,-51.2809219360351,435372108
sw,-85.3438568115234,-57.37060546875,48.0549278259277,-50.6421699523925,435388775
sw,-85.4487838745117,-57.3083152770996,47.4428977966308,-53.3739624023437,435405442
sw,-85.3691253662109,-57.0936546325683,45.7349967956543,-55.4078559875488,435422109
sw,-85.1934432983398,-56.8349494934082,42.1172256469726,-31.5076599121093,435438776
sw,-85.0289764404296,-57.0405044555664,34.9390220642089,4.47540569305419,435455443
sw,-84.9176635742187,-57.979736328125,29.3502788543701,36.6019554138183,435472110
sw,-84.8258514404296,-59.3225288391113,27.5129680633544,53.7126884460449,435488777
sw,-84.6908264160156,-61.1200981140136,28.5733337402343,75.2160720825195,435505444
sw,-84.4481201171875,-62.7476501464843,34.1653442382812,65.5505218505859,435522111
sw,-84.0846099853515,-64.0865173339843,38.7578201293945,56.0771942138671,435538778
sw,-83.6447982788086,-65.1492309570312,38.8286781311035,51.60152053833,435555445
sw,-83.1984252929687,-65.861587524414,35.6007690429687,19.0158767700195,435572112
sw,-82.8663940429687,-66.6013641357421,25.0636692047119,19.4865264892578,435588779
sw,-82.7116394042968,-67.2182006835937,10.6162157058715,38.1668815612793,435605446
sw,-82.7789840698242,-67.2192764282226,-5.60423374176025,7.11721801757812,435622113
sw,-83.0497436523437,-67.093032836914,-19.2737941741943,-8.39776992797851,435638780
sw,-83.4117965698242,-67.1545333862304,-28.045274734497,-17.8283882141113,435655447
sw,-83.7439270019531,-68.2881240844726,-30.9408454895019,27.3333663940429,435672114
sw,-83.912727355957,-69.5839614868164,-27.4237174987792,56.7219276428222,435688781
sw,-83.8434982299804,-70.2597503662109,-25.3253650665283,35.8168869018554,435705448
sw,-83.5940628051757,-70.910659790039,-27.6429214477539,15.1182212829589,435722115
sw,-82.9869766235351,-72.0635833740234,-39.8387031555175,16.5420894622802,435738782
sw,-81.7615737915039,-73.2516403198242,-62.9620933532714,-0.0138632748275995,435755449
sw,-79.7952346801757,-74.492561340332,-94.5109481811523,20.7845859527587,435772116
sw,-77.257209777832,-75.6198959350586,-116.626220703125,26.4109954833984,435788783
sw,-74.7033004760742,-77.0206832885742,-146.022048950195,47.2303581237793,435805450
sw,-72.8561325073242,-78.6636047363281,-175.914154052734,66.2274398803711,435822117
sw,-71.2581100463867,-80.288818359375,-178.127334594726,72.6592407226562,435838784
sw,-69.6352386474609,-81.6286010742187,-173.002471923828,63.5320968627929,435855451
sw,-67.916015625,-82.6791915893554,-158.943954467773,46.8205909729003,435872118
sw,-66.5291213989257,-83.5921325683593,-117.294227600097,38.597557067871,435888785
sw,-65.4527511596679,-84.2744369506836,-89.2994537353515,29.3844585418701,435905452
sw,-64.4789581298828,-84.8619918823242,-83.1769180297851,28.625539779663,435922119
sw,-63.4254302978515,-85.5624465942382,-89.4560470581054,40.2169151306152,435938786
sw,-62.2524337768554,-86.3510589599609,-96.8603057861328,50.2900123596191,435955453
sw,-60.9362030029296,-87.1283340454101,-105.24641418457,53.3981742858886,435972120
sw,-59.6055870056152,-87.9578018188476,-104.231063842773,55.7601127624511,435988787
sw,-58.2919921875,-88.7633056640625,-96.1660766601562,51.3386268615722,436005454
sw,-57.046875,-89.4232482910156,-83.7228698730468,43.5794372558593,436022121
sw,-56.134048461914,-89.4725112915039,-54.4266052246093,33.6332054138183,436038788
sw,-55.6603317260742,-89.0820846557617,-24.5834426879882,23.7565231323242,436055455
sw,-55.7053794860839,-88.7057800292968,4.41202926635742,15.8425455093383,436072122
sw,-56.0134620666503,-88.3460159301757,17.8830890655517,10.787371635437,436088789
sw,-56.6343154907226,-88.0010986328125,32.3575820922851,5.51207399368286,436105456
sw,-57.9995574951171,-87.7587738037109,80.0852661132812,-1.08455419540405,436122123
sw,-59.7595710754394,-87.5865402221679,103.989868164062,0.597475171089172,436138790
sw,-61.5585823059082,-87.4811477661132,101.183738708496,6.73324298858642,436155457
sw,-63.0501060485839,-87.3704376220703,77.3353576660156,15.2249479293823,436172124
sw,-64.8094100952148,-87.1565551757812,91.4662094116211,22.3124027252197,436188791
sw,-67.3329467773437,-86.7637863159179,145.010314941406,32.2613677978515,436205458
sw,-69.2120285034179,-86.3323822021484,120.046493530273,33.581371307373,436222125
sw,-70.010498046875,-86.0816421508789,34.0966110229492,19.0927410125732,436238792
sw,-70.4983444213867,-85.9436264038086,0.712033748626709,-3.06931519508361,436255459
sw,-71.6141204833984,-85.6263275146484,34.9738082885742,-23.8062286376953,436272126
sw,-73.3485794067382,-84.7446136474609,64.721565246582,-33.591682434082,436288793
sw,-74.3490676879882,-83.0961303710937,52.568992614746,-47.9928741455078,436305460
sw,-74.920913696289,-80.6208114624023,33.4408645629882,-68.1395950317382,436322127
sw,-75.8266448974609,-77.6070709228515,41.6646118164062,-96.8248748779296,436338794
sw,-76.9150466918945,-74.4268341064453,49.1723709106445,-146.8447265625,436355461
sw,-77.9177017211914,-71.5623779296875,51.4497489929199,-173.083023071289,436372128
sw,-79.0380783081054,-69.1177673339843,59.7642021179199,-174.307556152343,436388795
sw,-80.6946487426757,-67.0734786987304,86.3629684448242,-171.519088745117,436405462
sw,-82.3650131225586,-65.3081893920898,89.3448104858398,-156.188827514648,436422129
sw,-83.6931076049804,-63.6007766723632,75.0067138671875,-144.411087036132,436438796
sw,-84.8923950195312,-62.0916328430175,67.037124633789,-117.545631408691,436455463
sw,-85.8511657714843,-60.7948913574218,63.8501472473144,-100.971847534179,436472130
sw,-86.4349212646484,-59.783519744873,53.3863067626953,-95.0176467895507,436488797
sw,-86.7895965576171,-58.9639167785644,47.6465759277343,-91.1242141723632,436505464
sw,-86.9175872802734,-58.3745613098144,44.7863044738769,-77.9321365356445,436522131
sw,-86.8470687866211,-57.9859924316406,40.7349395751953,-60.819480895996,436538798
sw,-86.6091003417968,-57.7014999389648,39.0293655395507,-47.8425140380859,436555465
sw,-86.2274780273437,-57.4922981262207,37.4798698425293,-34.7756042480468,436572132
sw,-85.8043670654296,-57.5249862670898,32.9862403869628,-11.3017129898071,436588799
sw,-85.4642562866211,-57.7293281555175,25.1020717620849,6.10815715789794,436605466
sw,-85.2379913330078,-58.5552177429199,18.6033172607421,41.4431190490722,436622133
sw,-85.0500717163086,-59.6940765380859,16.680736541748,51.6600074768066,436638800
sw,-84.8268356323242,-60.9186363220214,18.567398071289,50.910472869873,436655467
sw,-84.5548629760742,-62.1318740844726,20.784553527832,39.6805458068847,436672134
sw,-84.2580261230468,-63.1957397460937,20.5951385498046,29.9141082763671,436688801
sw,-84.0073699951171,-63.9576873779296,16.3492240905761,12.814790725708,436705468
sw,-83.8319702148437,-64.8435897827148,10.8469648361206,19.4634685516357,436722135
sw,-83.6995468139648,-66.0964279174804,7.36851215362548,40.6483116149902,436738802
sw,-83.667724609375,-66.9946670532226,0.254532635211944,47.8937644958496,436755469
sw,-83.6814270019531,-67.3200073242187,-4.43662023544311,16.6859321594238,436772136
sw,-83.6256942749023,-67.3553695678711,-3.4783272743225,-10.2823152542114,436788803
sw,-83.4360656738281,-67.5501174926757,2.34644508361816,-14.5495223999023,436805470
sw,-83.2442855834961,-68.5381393432617,-0.856477916240692,16.5086479187011,436822137
sw,-82.950569152832,-69.8000717163086,-7.92184829711914,45.0683898925781,436838804
sw,-82.4722518920898,-70.6426544189453,-23.3995018005371,33.3634338378906,436855471
sw,-81.6052322387695,-71.6222686767578,-39.2618522644043,11.7209329605102,436872138
sw,-80.2439575195312,-72.4812850952148,-56.6207847595214,-18.7763214111328,436888805
sw,-78.371223449707,-73.5796508789062,-87.0744323730468,16.3038940429687,436905472
sw,-76.1710662841796,-74.7989883422851,-117.724182128906,38.3510627746582,436922139
sw,-74.0648956298828,-76.0112686157226,-158.22412109375,40.5005340576171,436938806
sw,-72.581314086914,-77.3154602050781,-192.62889099121,49.4347763061523,436955473
sw,-71.0636367797851,-78.7856369018554,-204.459777832031,66.1218566894531,436972140
sw,-69.3619003295898,-80.1073989868164,-190.234573364257,63.8731307983398,436988807
sw,-67.6895904541015,-81.2517395019531,-165.88655090332,51.4006118774414,437005474
sw,-66.3403625488281,-82.3669357299804,-122.27448272705,48.0609588623046,437022141
sw,-65.2512054443359,-83.3672103881836,-96.5591049194336,43.7324447631835,437038808
sw,-64.1027908325195,-84.2485809326171,-101.613037109375,41.841739654541,437055475
sw,-62.7558326721191,-85.1541900634765,-115.894294738769,47.9855728149414,437072142
sw,-61.3137702941894,-86.054443359375,-118.245780944824,52.5351791381835,437088809
sw,-59.8770027160644,-86.9215927124023,-116.599555969238,55.09419631958,437105476
sw,-58.5091171264648,-87.8704528808593,-109.91291809082,61.0063896179199,437122143
sw,-57.2424201965332,-88.8534622192382,-98.6317901611328,61.9417762756347,437138810
sw,-56.2135848999023,-89.6023864746093,-77.8537139892578,53.422752380371,437155477
sw,-55.5882186889648,-89.3565444946289,-48.8787994384765,38.3612670898437,437172144
sw,-55.6034927368164,-88.8174972534179,-8.32741260528564,29.029541015625,437188811
sw,-55.911449432373,-88.2723999023437,12.3558511734008,27.6170864105224,437205478
sw,-56.4086875915527,-87.7900848388671,14.8628368377685,24.530138015747,437222145
sw,-57.7131881713867,-87.4254150390625,63.9974784851074,17.7052421569824,437238812
sw,-59.5121002197265,-87.2811279296875,101.502311706542,6.56263446807861,437255479
sw,-61.4502487182617,-87.3243103027343,112.066658020019,-1.21738576889038,437272146
sw,-63.1878967285156,-87.3883590698242,96.3629455566406,-0.946397006511688,437288813
sw,-64.7346038818359,-87.3303909301757,77.8791046142578,4.93496990203857,437305480
sw,-66.6661529541015,-87.0777893066406,91.5127182006836,13.2935743331909,437322147
sw,-68.1553802490234,-86.5813293457031,75.0675506591796,22.2092037200927,437338814
sw,-69.0249099731445,-85.9585266113281,37.0877952575683,15.2821826934814,437355481
sw,-69.5472335815429,-85.1678695678711,25.6368560791015,-1.44595026969909,437372148
sw,-70.4615325927734,-84.106216430664,65.8742752075195,-22.2905139923095,437388815
sw,-71.8510665893554,-82.5774383544921,89.2097930908203,-44.2682991027832,437405482
sw,-73.0377197265625,-80.3225479125976,57.2287635803222,-70.8913116455078,437422149
sw,-73.8900680541992,-77.3692245483398,13.4016542434692,-98.2206420898437,437438816
sw,-74.9702758789062,-74.0022201538086,29.4759216308593,-134.722183227539,437455483
sw,-76.1437530517578,-70.8064041137695,66.6484985351562,-164.197540283203,437472150
sw,-77.2519378662109,-68.2967147827148,62.1488533020019,-161.346969604492,437488817
sw,-78.4324264526367,-66.346435546875,56.0311851501464,-158.507751464843,437505484
sw,-80.0693817138671,-64.5679016113281,85.9818954467773,-158.337707519531,437522151
sw,-81.7028503417968,-62.93505859375,106.488395690917,-148.208435058593,437538818
sw,-83.1877288818359,-61.609561920166,94.6679153442382,-119.226646423339,437555485
sw,-84.4780960083007,-60.5991134643554,73.8139114379882,-93.2676467895507,437572152
sw,-85.4331893920898,-59.8177795410156,61.3543281555175,-84.771858215332,437588819
sw,-86.0573272705078,-59.5017890930175,52.6895713806152,-68.1291427612304,437605486
sw,-86.4067001342773,-59.4045600891113,42.3632202148437,-60.8194732666015,437622153
sw,-86.5091247558593,-59.5076560974121,44.0954704284668,-60.1533622741699,437638820
sw,-86.3938598632812,-59.316349029541,44.6248817443847,-84.0295867919921,437655487
sw,-86.1651840209961,-58.641990661621,39.913475036621,-91.4390029907226,437672154
sw,-85.9005050659179,-58.0170211791992,32.357810974121,-61.4213523864746,437688821
sw,-85.7015838623046,-57.7850265502929,24.3790454864501,-25.9294757843017,437705488
sw,-85.6086730957031,-58.1900901794433,17.0073204040527,11.0064764022827,437722155
sw,-85.5203170776367,-58.9554290771484,16.2557773590087,26.9869384765625,437738822
sw,-85.3680267333984,-60.0323371887207,19.4555377960205,43.093204498291,437755489
sw,-85.1108016967773,-61.3938522338867,24.2081279754638,57.7872810363769,437772156
sw,-84.7135772705078,-62.6365852355957,30.7965793609619,50.8742866516113,437788823
sw,-84.2567291259765,-63.6017379760742,32.3651962280273,42.6748733520507,437805490
sw,-83.8464889526367,-64.2737426757812,27.5068340301513,19.2218570709228,437822157
sw,-83.574348449707,-64.8002014160156,17.9145221710205,2.63601827621459,437838824
sw,-83.4958267211914,-65.76806640625,6.12547397613525,34.3663291931152,437855491
sw,-83.6108856201171,-66.5814132690429,-6.24029350280761,39.1320724487304,437872158
sw,-83.8314666748046,-66.9843063354492,-13.5124855041503,21.2004890441894,437888825
sw,-84.0226287841796,-67.1014862060546,-13.3190622329711,-1.12734389305114,437905492
sw,-84.1153030395507,-67.2119674682617,-10.0622396469116,-11.1468362808227,437922159
sw,-84.0874938964843,-67.9553451538086,-7.78654623031616,18.1682090759277,437938826
sw,-83.9727325439453,-69.2724456787109,-8.59123992919921,52.6399230957031,437955493
sw,-83.6933517456054,-70.2737350463867,-8.39093208312988,43.4075279235839,437972160
sw,-83.2243423461914,-71.3696517944336,-16.526964187622,25.3235092163085,437988827
sw,-82.4309692382812,-72.4207458496093,-34.870262145996,-8.95546340942382,438005494
sw,-81.0840988159179,-73.5541763305664,-64.8443450927734,2.88875842094421,438022161
sw,-79.0297622680664,-74.7823791503906,-96.6088714599609,32.5656356811523,438038828
sw,-76.6180648803711,-75.9637222290039,-121.542015075683,33.806396484375,438055495
sw,-74.278694152832,-77.2619018554687,-159.15867614746,40.9763450622558,438072162
sw,-72.5098037719726,-78.8033370971679,-190.842864990234,58.4170570373535,438088829
sw,-70.7897033691406,-80.2862930297851,-204.74429321289,66.2122802734375,438105496
sw,-69.1256027221679,-81.4583587646484,-180.145706176757,52.7283859252929,438122163
sw,-67.349739074707,-82.523941040039,-167.923217773437,44.2915382385253,438138830
sw,-65.9252243041992,-83.5178070068359,-124.837265014648,42.2457885742187,438155497
sw,-64.7914657592773,-84.28173828125,-97.925048828125,34.1617126464843,438172164
sw,-63.6558418273925,-84.88818359375,-98.8152999877929,30.5106258392334,438188831
sw,-62.4203414916992,-85.5025100708007,-106.948165893554,35.3173599243164,438205498
sw,-61.1413764953613,-86.1390304565429,-108.296150207519,40.3837699890136,438222165
sw,-59.9378623962402,-86.8128509521484,-102.728157043457,44.3312721252441,438238832
sw,-58.7831306457519,-87.6280975341796,-98.1659317016601,51.233528137207,438255499
sw,-57.6895942687988,-88.5366058349609,-89.9582595825195,51.6917343139648,438272166
sw,-56.7801628112793,-89.4496383666992,-73.3097305297851,43.8202438354492,438288833
sw,-56.197696685791,-90.0,-48.9721946716308,35.6952476501464,438305500
sw,-56.0989570617675,-89.9115295410156,-18.3239440917968,31.1230316162109,438322167
sw,-56.3687324523925,-88.9789428710937,3.96681904792785,29.8550682067871,438338834
sw,-56.9832496643066,-88.3607559204101,22.1272010803222,26.1990184783935,438355501
sw,-58.1658020019531,-87.9196395874023,55.3937606811523,16.5363025665283,438372168
sw,-59.8881187438964,-87.6561584472656,95.7154464721679,8.08661460876464,438388835
sw,-61.8611335754394,-87.4797439575195,114.889045715332,6.77492189407348,438405502
sw,-63.599250793457,-87.390754699707,96.4135437011718,5.9027624130249,438422169
sw,-65.0821533203125,-87.384765625,72.8229827880859,3.73510980606079,438438836
sw,-67.1296157836914,-87.3150329589843,107.859016418457,8.34437084197998,438455503
sw,-68.7535171508789,-87.0827484130859,101.366233825683,18.6161384582519,438472170
sw,-69.4169921875,-86.9114227294921,41.658935546875,14.7161750793457,438488837
sw,-69.5791625976562,-86.8704986572265,8.47947692871093,-3.29195261001586,438505504
sw,-70.1636734008789,-86.5047531127929,26.9905242919921,-14.4598350524902,438522171
sw,-71.5869216918945,-85.5745086669921,56.8635597229003,-17.6392021179199,438538838
sw,-72.8455581665039,-84.0635070800781,62.9658622741699,-30.4776802062988,438555505
sw,-73.5123825073242,-81.7098541259765,47.1597747802734,-57.5913696289062,438572172
sw,-74.2220687866211,-78.5443954467773,30.3293762207031,-93.5424575805664,438588839
sw,-75.2718353271484,-74.9424362182617,32.005199432373,-135.563125610351,438605506
sw,-76.3110198974609,-71.5916671752929,38.0456962585449,-176.649230957031,438622173
sw,-77.3038635253906,-68.9263687133789,50.5244674682617,-171.514892578125,438638840
sw,-78.8329620361328,-66.7107009887695,74.4844741821289,-179.272811889648,438655507
sw,-80.7132949829101,-64.6905517578125,95.7311935424804,-174.32666015625,438672174
sw,-82.3129806518554,-62.8632736206054,92.7437057495117,-154.472259521484,438688841
sw,-83.5936965942382,-61.3497161865234,70.8674011230468,-122.226989746093,438705508
sw,-84.70361328125,-60.0306510925293,60.7606735229492,-100.245208740234,438722175
sw,-85.4508514404296,-59.0015525817871,47.5219039916992,-93.0862503051757,438738842
sw,-85.9666748046875,-58.2906379699707,36.664134979248,-88.0743713378906,438755509
sw,-86.4206237792968,-58.1329154968261,34.53462600708,-62.4951934814453,438772176
sw,-86.7980270385742,-58.1983566284179,34.7276916503906,-51.6758804321289,438788843
sw,-87.0658874511718,-58.3185539245605,34.207233428955,-47.5596885681152,438805510
sw,-87.1585464477539,-58.1741065979003,32.4598808288574,-60.055320739746,438822177
sw,-87.0884552001953,-57.7774925231933,30.8973274230957,-51.4894561767578,438838844
sw,-86.9633331298828,-57.5414695739746,25.4645347595214,-21.561050415039,438855511
sw,-86.8447113037109,-57.9687118530273,22.1787528991699,18.6814270019531,438872178
sw,-86.7528533935546,-58.9156150817871,20.8516616821289,37.7322273254394,438888845
sw,-86.645034790039,-60.0530815124511,23.2065620422363,46.4366950988769,438905512
sw,-86.4104614257812,-61.4762573242187,30.7803401947021,61.1328239440918,438922179
sw,-85.9718246459961,-62.8219299316406,38.9678192138671,54.0806503295898,438938846
sw,-85.3203125,-63.8946113586425,46.4426727294921,49.000259399414,438955513
sw,-84.5920257568359,-64.843391418457,47.7121963500976,38.5524024963378,438972180
sw,-83.9841918945312,-65.5530242919921,38.762466430664,7.44104290008544,438988847
sw,-83.6155853271484,-66.5284957885742,23.2505321502685,31.1110515594482,439005514
sw,-83.6039581298828,-67.2726135253906,1.11277961730957,40.8395881652832,439022181
sw,-83.8141403198242,-67.316665649414,-12.7635898590087,3.98741102218627,439038848
sw,-84.0685958862304,-67.2112655639648,-16.2717037200927,-8.90993213653564,439055515
sw,-84.2928466796875,-67.2859802246093,-15.6384162902832,-14.7188100814819,439072182
sw,-84.4272232055664,-68.2316665649414,-11.8034353256225,15.8518877029418,439088849
sw,-84.4351806640625,-69.5363311767578,-7.51122760772705,53.2640953063964,439105516
sw,-84.3734283447265,-70.3155975341796,-9.06244850158691,38.5051040649414,439122183
sw,-84.1912384033203,-71.0330429077148,-10.9851579666137,17.9849472045898,439138850
sw,-83.835220336914,-72.3733291625976,-28.6208457946777,22.2584705352783,439155517
sw,-82.9976196289062,-73.8223571777343,-52.8188705444335,2.51298928260803,439172184
sw,-81.4105987548828,-75.24267578125,-81.4762115478515,16.8760890960693,439188851
sw,-79.127212524414,-76.3696060180664,-106.514892578125,20.259765625,439205518
sw,-76.6551284790039,-77.632095336914,-130.012985229492,36.5346908569335,439222185
sw,-74.5368347167968,-79.0848007202148,-164.939880371093,51.1622619628906,439238852
sw,-72.7798919677734,-80.5571823120117,-183.335464477539,58.7947044372558,439255519
sw,-71.0732040405273,-81.8182296752929,-174.772399902343,52.6016387939453,439272186
sw,-69.2264099121093,-82.7992248535156,-174.202194213867,39.74361038208,439288853
sw,-67.5328521728515,-83.7039947509765,-146.487991333007,34.5286331176757,439305520
sw,-66.21728515625,-84.4586105346679,-110.656883239746,29.8976345062255,439322187
sw,-65.0866317749023,-85.1262969970703,-95.5952911376953,30.4432868957519,439338854
sw,-63.9291381835937,-85.8829650878906,-97.9858932495117,39.843765258789,439355521
sw,-62.6583175659179,-86.6178283691406,-104.774314880371,43.5527000427246,439372188
sw,-61.4263763427734,-87.3175201416015,-102.523361206054,44.4782028198242,439388855
sw,-60.3099212646484,-88.0423583984375,-95.5896072387695,46.2009773254394,439405522
sw,-59.2365989685058,-88.8176651000976,-91.7861251831054,46.6453437805175,439422189
sw,-58.2603950500488,-89.6689758300781,-81.4671630859375,43.3671531677246,439438856
sw,-57.4930305480957,-90.0,-62.8457374572753,38.6644783020019,439455523
sw,-57.0371131896972,-89.1681976318359,-39.9767341613769,34.1020431518554,439472190
sw,-56.9707565307617,-88.5051193237304,-16.5843658447265,31.7061176300048,439488857
sw,-57.2996749877929,-87.8573532104492,5.636812210083,32.0815773010253,439505524
sw,-57.9957389831543,-87.2619018554687,24.8769569396972,29.3510341644287,439522191
sw,-59.2649383544921,-86.8516693115234,61.7599639892578,17.9800300598144,439538858
sw,-61.0622406005859,-86.6450881958007,103.290824890136,6.75590085983276,439555525
sw,-63.0272712707519,-86.5688095092773,118.141441345214,2.5618872642517,439572192
sw,-64.5882034301757,-86.4832534790039,85.9096603393554,6.07892417907714,439588859
sw,-65.9608154296875,-86.3102874755859,60.1670837402343,12.055474281311,439605526
sw,-67.6274490356445,-85.9915618896484,83.3769226074218,22.3885803222656,439622193
sw,-68.6550064086914,-85.6721115112304,59.7241020202636,24.3090877532959,439638860
sw,-69.3307952880859,-85.5593566894531,45.3577308654785,8.97778701782226,439655527
sw,-69.8478088378906,-85.5622253417968,50.3831520080566,-11.8432102203369,439672194
sw,-70.7527389526367,-85.3745422363281,63.6044845581054,-28.5838375091552,439688861
sw,-72.1078720092773,-84.7445449829101,75.08544921875,-49.0491867065429,439705528
sw,-73.2064208984375,-83.1685562133789,50.3028984069824,-80.0414657592773,439722195
sw,-74.1122512817382,-80.5674743652343,23.3419513702392,-107.519241333007,439738862
sw,-75.2414779663086,-77.5902023315429,44.718994140625,-128.143585205078,439755529
sw,-76.2889251708984,-74.6635131835937,57.2137603759765,-151.030487060546,439772196
sw,-77.24609375,-72.2888793945312,45.880931854248,-140.626403808593,439788863
sw,-78.5255966186523,-70.1372604370117,58.6360359191894,-133.75682067871,439805530
sw,-80.2987442016601,-67.9871368408203,91.2479705810546,-149.592361450195,439822197
sw,-81.9247436523437,-66.0000915527343,95.3093795776367,-145.04246520996,439838864
sw,-83.3371505737304,-64.1314849853515,74.7043838500976,-139.659027099609,439855531
sw,-84.593032836914,-62.4569587707519,69.4919052124023,-122.436889648437,439872198
sw,-85.4791870117187,-61.1317100524902,67.2417526245117,-99.2815322875976,439888865
sw,-86.026252746582,-60.0913429260253,57.6155624389648,-90.4203262329101,439905532
sw,-86.3281631469726,-59.2496719360351,49.1287612915039,-83.2475967407226,439922199
sw,-86.4253311157226,-58.8130264282226,43.9345779418945,-61.1731910705566,439938866
sw,-86.4327850341796,-58.5005149841308,35.135643005371,-50.8079795837402,439955533
sw,-86.3569107055664,-58.2049865722656,29.6595096588134,-46.1326446533203,439972200
sw,-86.1846923828125,-57.9363822937011,26.717264175415,-42.6377296447753,439988867
sw,-85.9989929199218,-57.8068618774414,22.0273132324218,-29.9973793029785,440005534
sw,-85.8004455566406,-57.8634300231933,20.9393692016601,-13.5798025131225,440022201
sw,-85.6240463256836,-58.5348510742187,20.0650310516357,18.2369537353515,440038868
sw,-85.4166183471679,-59.9366455078125,22.7980556488037,59.620304107666,440055535
sw,-85.1229553222656,-61.3516960144043,27.491548538208,58.5862350463867,440072202
sw,-84.7588424682617,-62.6172294616699,29.9780006408691,47.7156600952148,440088869
sw,-84.3796768188476,-63.8052444458007,28.3477401733398,40.9853630065918,440105536
sw,-84.0752029418945,-64.6513900756836,21.573896408081,20.0230693817138,440122203
sw,-83.9088668823242,-65.504280090332,12.5490245819091,20.6226501464843,440138870
sw,-83.8723831176757,-66.6413497924804,4.29673624038696,45.2357635498046,440155537
sw,-83.9132461547851,-67.4976959228515,-0.618060946464538,44.7452545166015,440172204
sw,-84.0021057128906,-67.8700637817382,-4.72612810134887,17.8435440063476,440188871
sw,-83.9729309082031,-67.8542404174804,-0.880155026912689,-6.37950706481933,440205538
sw,-83.7557830810546,-67.9772644042968,7.62012290954589,-6.14163398742675,440222205
sw,-83.444709777832,-68.8276977539062,11.0696554183959,26.2781505584716,440238872
sw,-83.148452758789,-69.8686141967773,6.8991961479187,44.7613525390625,440255539
sw,-82.7777633666992,-70.6815338134765,4.05611133575439,31.2714138031005,440272206
sw,-82.2981414794921,-71.5766525268554,-3.73229718208313,7.12385511398315,440288873
sw,-81.7751693725586,-72.5544738769531,-28.1851005554199,-5.40064668655395,440305540
sw,-81.05908203125,-73.9685516357421,-64.6665267944336,28.2299060821533,440322207
sw,-79.9028396606445,-75.3851699829101,-92.1275939941406,35.3416938781738,440338874
sw,-78.3061370849609,-76.6714401245117,-118.313850402832,31.2439537048339,440355541
sw,-76.3610687255859,-78.1478805541992,-137.406646728515,45.2100524902343,440372208
sw,-74.4126663208007,-79.6586227416992,-158.497039794921,54.5623092651367,440388875
sw,-72.8852386474609,-81.0250015258789,-164.319900512695,53.9261665344238,440405542
sw,-71.4306945800781,-82.0987777709961,-163.054580688476,40.5955238342285,440422209
sw,-70.0472412109375,-83.0932922363281,-153.386245727539,36.6519737243652,440438876
sw,-68.5889739990234,-83.9945602416992,-144.554656982421,35.4826354980468,440455543
sw,-67.32177734375,-84.7288360595703,-118.544952392578,32.8937950134277,440472210
sw,-66.1183013916015,-85.4299697875976,-110.304298400878,35.2771263122558,440488877
sw,-64.8155212402343,-86.1610031127929,-113.126846313476,39.5851249694824,440505544
sw,-63.4577178955078,-86.8197479248046,-114.296096801757,37.4741439819335,440522211
sw,-62.1528625488281,-87.5086441040039,-110.455871582031,39.8238945007324,440538878
sw,-60.8853034973144,-88.2499008178711,-108.854545593261,41.2134323120117,440555545
sw,-59.7201690673828,-88.985481262207,-100.563911437988,37.7784576416015,440572212
sw,-58.7052154541015,-89.9406585693359,-87.4460830688476,33.4016380310058,440588879
sw,-57.9098739624023,-90.0,-69.0257797241211,29.1251354217529,440605546
sw,-57.3981971740722,-90.0,-49.555362701416,28.4005851745605,440622213
sw,-57.2875137329101,-89.164436340332,-25.4865493774414,26.7467975616455,440638880
sw,-57.4166526794433,-88.62158203125,-11.2212123870849,22.2645969390869,440655547
sw,-57.7799453735351,-88.1775894165039,0.665850460529327,17.0866336822509,440672214
sw,-58.86128616333,-87.7870712280273,48.5558815002441,15.8211975097656,440688881
sw,-60.3806610107421,-87.4259490966796,80.2881469726562,17.4739322662353,440705548
sw,-62.0601463317871,-87.0857772827148,90.7728958129882,19.1943359375,440722215
sw,-63.5296669006347,-86.7994918823242,75.7412490844726,19.837646484375,440738882
sw,-64.8478546142578,-86.5913619995117,64.9802093505859,17.9579067230224,440755549
sw,-66.7292327880859,-86.4434509277343,99.8387756347656,16.507339477539,440772216
sw,-68.3231887817382,-86.3018646240234,92.814712524414,17.3678855895996,440788883
sw,-69.3008117675781,-86.0796356201171,55.8499298095703,20.2830123901367,440805550
sw,-69.8067245483398,-85.8946380615234,24.5693950653076,7.83473014831543,440822217
sw,-70.4808502197265,-85.6891174316406,30.8828201293945,-15.5750703811645,440838884
sw,-71.9098358154296,-85.0055465698242,67.4826049804687,-28.4927215576171,440855551
sw,-73.1634979248046,-83.5550003051757,67.3806076049804,-41.8634300231933,440872218
sw,-73.8740081787109,-81.1438674926757,45.929759979248,-69.5707626342773,440888885
sw,-74.6529388427734,-78.0310363769531,34.1541900634765,-101.777465820312,440905552
sw,-75.7141342163086,-74.9055786132812,37.1230010986328,-141.073440551757,440922219
sw,-76.8494873046875,-72.5285339355468,47.4666442871093,-149.393737792968,440938886
sw,-77.9208450317382,-70.5902252197265,53.8931198120117,-146.686264038085,440955553
sw,-79.3185043334961,-68.581802368164,66.5743637084961,-166.157897949218,440972220
sw,-81.0130996704101,-66.67431640625,82.9473495483398,-164.430694580078,440988887
sw,-82.4754333496093,-65.012825012207,78.4491806030273,-143.622802734375,441005554
sw,-83.6357345581054,-63.5180206298828,58.404312133789,-124.857704162597,441022221
sw,-84.7444686889648,-62.2624702453613,51.2161178588867,-106.357360839843,441038888
sw,-85.6685333251953,-61.2923622131347,46.755271911621,-98.9875793457031,441055555
sw,-86.4445495605468,-60.6096038818359,48.588321685791,-85.2368469238281,441072222
sw,-87.1329727172851,-60.1347007751464,51.9289741516113,-70.0558090209961,441088889
sw,-87.6581573486328,-60.088207244873,51.1880722045898,-54.231834411621,441105556
sw,-87.9141845703125,-59.8911895751953,49.1899871826171,-68.0016098022461,441122223
sw,-87.8345489501953,-59.3506965637207,45.8343162536621,-66.0481338500976,441138890
sw,-87.5585556030273,-58.9485626220703,39.9988365173339,-39.4105186462402,441155557
sw,-87.2310485839843,-58.8485298156738,33.9973449707031,-15.0407772064208,441172224
sw,-86.8649368286132,-59.1233749389648,31.4607467651367,5.43032026290893,441188891
sw,-86.45751953125,-59.6314468383789,31.3409900665283,11.2423162460327,441205558
sw,-85.9974288940429,-60.5436859130859,33.0248680114746,30.8906650543212,441222225
sw,-85.4473648071289,-61.684341430664,36.8335723876953,44.8231620788574,441238892
sw,-84.8282012939453,-62.6141738891601,39.5147705078125,31.0868549346923,441255559
sw,-84.1803817749023,-63.5072212219238,40.0206909179687,27.769359588623,441272226
sw,-83.5992965698242,-64.1240692138671,35.3080444335937,9.77962112426757,441288893
sw,-83.1902084350586,-64.6233444213867,24.3874073028564,-1.11278212070465,441305560
sw,-83.0248413085937,-65.3830871582031,9.11461448669433,13.9810724258422,441322227
sw,-83.0544357299804,-66.2094650268554,-3.33698105812072,32.3577194213867,441338894
sw,-83.1916198730468,-66.7938842773437,-9.94520854949951,26.7461605072021,441355561
sw,-83.398208618164,-66.9473495483398,-14.5038509368896,0.42238825559616,441372228
sw,-83.5720672607421,-66.8448638916015,-13.496238708496,-18.2133388519287,441388895
sw,-83.602424621582,-66.7753448486328,-6.03369522094726,-20.578929901123,441405562
sw,-83.411148071289,-67.5994720458984,6.40401363372802,21.5066909790039,441422229
sw,-83.0895080566406,-69.1239852905273,12.4049968719482,66.2757034301757,441438896
sw,-82.7634887695312,-70.1437835693359,8.53992843627929,48.7418670654296,441455563
sw,-82.4513473510742,-71.0638580322265,-0.652897357940673,27.553819656372,441472230
sw,-82.1442260742187,-72.2040176391601,-16.283821105957,13.6321020126342,441488897
sw,-81.7839584350586,-73.5609359741211,-37.7509994506835,14.6231346130371,441505564
sw,-81.3039398193359,-75.1048202514648,-77.9397583007812,37.1169738769531,441522231
sw,-80.2317504882812,-76.3285064697265,-98.1676635742187,28.001537322998,441538898
sw,-78.7936630249023,-77.5546798706054,-112.820167541503,35.4120063781738,441555565
sw,-77.3312072753906,-78.8428039550781,-132.917098999023,46.3294792175293,441572232
sw,-76.0873870849609,-80.0455093383789,-153.680603027343,45.8093452453613,441588899
sw,-75.1101760864257,-81.0354690551757,-163.070190429687,37.3170738220214,441605566
sw,-73.9556274414062,-81.8421401977539,-160.132232666015,28.0811195373535,441622233
sw,-72.6404953002929,-82.6453475952148,-149.564422607421,28.9431247711181,441638900
sw,-71.1249771118164,-83.3660507202148,-144.703964233398,28.3772144317626,441655567
sw,-69.6049118041992,-84.1118392944336,-135.438903808593,33.6459007263183,441672234
sw,-67.9143371582031,-84.9943771362304,-143.011779785156,45.0130348205566,441688901
sw,-66.0816955566406,-85.9128036499023,-145.408309936523,49.9454116821289,441705568
sw,-64.38720703125,-86.7802200317382,-130.890625,48.1556816101074,441722235
sw,-62.8263473510742,-87.5570449829101,-117.31394958496,43.3707733154296,441738902
sw,-61.3253059387207,-88.2318725585937,-108.938377380371,37.9652976989746,441755569
sw,-59.9786529541015,-88.8383712768554,-95.1250915527343,35.9877319335937,441772236
sw,-58.8571891784668,-89.3486862182617,-76.958023071289,35.578327178955,441788903
sw,-58.0157089233398,-89.4937133789062,-55.6301460266113,34.754295349121,441805570
sw,-57.4640846252441,-89.1710205078125,-36.9882583618164,30.8625583648681,441822237
sw,-57.1844825744628,-88.7468032836914,-22.3636722564697,23.8812942504882,441838904
sw,-57.1696701049804,-88.3502883911132,-6.7711443901062,17.2235507965087,441855571
sw,-57.3702697753906,-88.0054168701171,8.0653715133667,12.5281200408935,441872238
sw,-57.9953880310058,-87.6167373657226,37.7832412719726,15.8968048095703,441888905
sw,-59.1175689697265,-87.0797958374023,73.7548065185546,26.6977100372314,441905572
sw,-60.5317955017089,-86.4798583984375,93.42431640625,33.1139869689941,441922239
sw,-61.9324073791503,-85.995132446289,87.9410171508789,30.559814453125,441938906
sw,-63.1774749755859,-85.7338256835937,73.100601196289,22.9520931243896,441955573
sw,-64.6700820922851,-85.6424331665039,89.3343658447265,15.2823143005371,441972240
sw,-66.8322830200195,-85.665054321289,132.448913574218,8.8644847869873,441988907
sw,-68.6089935302734,-85.721809387207,113.57347869873,7.27080583572387,442005574
sw,-69.5771331787109,-85.7000274658203,52.8227005004882,8.53961277008056,442022241
sw,-70.0705413818359,-85.6658706665039,13.2577323913574,-5.85228776931762,442038908
sw,-71.2520294189453,-85.3409957885742,53.5566520690918,-21.4776020050048,442055575
sw,-72.9384231567382,-84.3015060424804,76.1805953979492,-33.6800689697265,442072242
sw,-73.8756713867187,-82.3132400512695,28.8047275543212,-58.0890922546386,442088909
sw,-74.6305236816406,-79.5709152221679,18.7617378234863,-87.3951416015625,442105576
sw,-75.7761611938476,-76.6712951660156,52.6057052612304,-124.710830688476,442122243
sw,-76.951919555664,-74.0679855346679,60.838523864746,-153.78758239746,442138910
sw,-78.1034545898437,-71.8866729736328,53.796329498291,-152.666351318359,442155577
sw,-79.6072463989257,-69.8223114013671,74.3160400390625,-159.721282958984,442172244
sw,-81.491584777832,-67.890510559082,99.2771453857421,-159.459014892578,442188911
sw,-83.1047973632812,-66.012092590332,89.2396774291992,-152.194778442382,442205578
sw,-84.474868774414,-64.3301239013671,72.4464340209961,-132.676040649414,442222245
sw,-85.738784790039,-62.9177703857421,70.6719131469726,-108.571716308593,442238912
sw,-86.6789321899414,-61.7893486022949,63.6550407409668,-95.5244140625,442255579
sw,-87.3010711669921,-60.9188957214355,54.0776062011718,-89.1640014648437,442272246
sw,-87.6454086303711,-60.2929611206054,48.4729537963867,-80.7773361206054,442288913
sw,-87.6723327636718,-59.9012718200683,44.9490509033203,-70.3346557617187,442305580
sw,-87.43310546875,-59.7193145751953,43.3169593811035,-62.8250694274902,442322247
sw,-87.0335083007812,-59.2480201721191,38.7538986206054,-70.5979232788086,442338914
sw,-86.6072540283203,-58.5855445861816,31.6638927459716,-61.2774467468261,442355581
sw,-86.217529296875,-58.3307037353515,25.8366432189941,-29.3296661376953,442372248
sw,-85.8866806030273,-58.547077178955,21.9394989013671,0.925535440444946,442388915
sw,-85.6075592041015,-59.300796508789,20.3210620880126,24.6397743225097,442405582
sw,-85.3312072753906,-60.4598159790039,21.380744934082,46.6590118408203,442422249
sw,-84.9881973266601,-61.7186279296875,25.2140045166015,52.1085319519043,442438916
sw,-84.5981826782226,-62.790542602539,26.6424388885498,38.3016777038574,442455583
sw,-84.2275238037109,-63.8254814147949,23.4833793640136,36.2016372680664,442472250
sw,-83.9737091064453,-64.5071792602539,15.3255052566528,11.8730792999267,442488917
sw,-83.8898696899414,-65.1335525512695,4.7067699432373,9.92931461334228,442505584
sw,-83.9449157714843,-65.9880218505859,-3.98532438278198,28.225149154663,442522251
sw,-83.999526977539,-66.710220336914,-4.44438934326171,36.9991188049316,442538918
sw,-83.9821319580078,-66.9331665039062,-0.70519471168518,10.3541593551635,442555585
sw,-83.8440017700195,-66.8103942871093,4.83897590637207,-13.4737396240234,442572252
sw,-83.5742263793945,-66.8485412597656,9.92748069763183,-8.5087080001831,442588919
sw,-83.2760314941406,-67.5863723754882,9.27934646606445,22.6392574310302,442605586
sw,-83.0447845458984,-68.8455657958984,1.12475323677062,60.2875595092773,442622253
sw,-82.7518920898437,-69.7397689819336,-5.83806943893432,42.4156227111816,442638920
sw,-82.2302703857421,-70.6248092651367,-12.5796537399292,17.0463638305664,442655587
sw,-81.5939788818359,-71.548225402832,-38.8418350219726,-14.1600589752197,442672254
sw,-80.5464324951171,-72.6742248535156,-68.6052169799804,-2.01648831367492,442688921
sw,-78.8474960327148,-73.943115234375,-95.1664581298828,23.8891887664794,442705588
sw,-76.7885589599609,-75.0852432250976,-118.200675964355,25.8729095458984,442722255
sw,-74.9148712158203,-76.3684692382812,-145.591400146484,38.2922821044921,442738922
sw,-73.6806716918945,-77.8703460693359,-178.801940917968,54.1189231872558,442755589
sw,-72.3865814208984,-79.2520446777343,-195.012100219726,53.1950187683105,442772256
sw,-70.9142608642578,-80.3380355834961,-183.029571533203,41.5162658691406,442788923
sw,-69.2628326416015,-81.2168960571289,-174.287811279296,32.8540306091308,442805590
sw,-67.8023834228515,-82.0763549804687,-136.7861328125,32.3526344299316,442822257
sw,-66.4854049682617,-82.8487319946289,-116.220970153808,31.3924446105957,442838924
sw,-65.0482635498046,-83.5655975341796,-123.216735839843,33.6269187927246,442855591
sw,-63.5012741088867,-84.3590316772461,-126.045516967773,41.9464607238769,442872258
sw,-62.0030975341796,-85.1290283203125,-119.113990783691,43.8161239624023,442888925
sw,-60.6039199829101,-85.9270629882812,-112.074485778808,47.2195358276367,442905592
sw,-59.2472419738769,-86.8209762573242,-106.64402770996,53.215160369873,442922259
sw,-58.0114212036132,-87.7666473388671,-94.4112777709961,53.1679077148437,442938926
sw,-57.0002326965332,-88.6504211425781,-74.9069519042968,44.4917259216308,442955593
sw,-56.3451423645019,-89.5015029907226,-47.0066566467285,33.8760910034179,442972260
sw,-56.1250534057617,-90.0,-18.8189849853515,26.9139060974121,442988927
sw,-56.2747802734375,-90.0,3.17661714553833,22.2713203430175,443005594
sw,-56.6511039733886,-89.9259872436523,14.260645866394,17.2982368469238,443022261
sw,-57.280044555664,-89.2241897583007,26.2798748016357,11.4631471633911,443038928
sw,-58.5060348510742,-88.9376220703125,66.6762542724609,4.52295970916748,443055595
sw,-60.1183280944824,-88.8336639404296,97.9655990600586,-1.29596781730651,443072262
sw,-61.7788505554199,-88.83349609375,101.011138916015,-2.63896632194519,443088929
sw,-63.1092338562011,-88.8858337402343,76.0136032104492,-1.51164543628692,443105596
sw,-64.6603851318359,-88.9376220703125,85.2391738891601,3.33732843399047,443122263
sw,-66.8760833740234,-88.8064651489257,135.600845336914,17.8712501525878,443138930
sw,-68.3920364379882,-88.4771041870117,100.89924621582,32.2266311645507,443155597
sw,-68.9521026611328,-88.2958984375,25.2975959777832,23.9387321472167,443172264
sw,-69.2892150878906,-88.0758285522461,1.39018738269805,0.661842703819274,443188931
sw,-70.1770401000976,-87.0779190063476,32.7800598144531,-8.74077892303466,443205598
sw,-71.7556838989257,-85.4203796386718,56.1888694763183,-11.1186075210571,443222265
sw,-72.7546234130859,-83.1760864257812,44.3570404052734,-26.4490413665771,443238932
sw,-73.2039566040039,-80.1400299072265,28.9361782073974,-57.2512435913085,443255599
sw,-73.8596038818359,-76.317138671875,23.9816646575927,-93.0815353393554,443272266
sw,-74.7300262451171,-71.9820480346679,19.4856700897216,-164.662811279296,443288933
sw,-75.6236572265625,-68.0830154418945,25.6511497497558,-200.698837280273,443305600
sw,-76.5459518432617,-65.4675827026367,41.6031303405761,-183.598434448242,443322267
sw,-78.0713424682617,-63.3856735229492,68.2211227416992,-180.939880371093,443338934
sw,-79.9935073852539,-61.2598037719726,95.1407012939453,-178.0107421875,443355601
sw,-81.7357788085937,-59.5381050109863,98.3573455810546,-137.575454711914,443372268
sw,-83.075080871582,-58.1246833801269,74.9654693603515,-101.267196655273,443388935
sw,-84.2907180786132,-57.1419525146484,63.925365447998,-80.6072463989257,443405602
sw,-85.2116088867187,-56.5652961730957,49.2425003051757,-79.3203430175781,443422269
sw,-85.8908157348632,-56.5115585327148,39.3115615844726,-61.7329902648925,443438936
sw,-86.4918441772461,-56.9637832641601,35.5000801086425,-41.4402618408203,443455603
sw,-87.0352935791015,-57.4025421142578,36.8652877807617,-49.9752769470214,443472270
sw,-87.4563980102539,-57.4404907226562,42.8029289245605,-74.8368377685546,443488937
sw,-87.6184616088867,-56.8558082580566,46.0362548828125,-88.4697647094726,443505604
sw,-87.4919662475586,-56.3576164245605,44.6360931396484,-43.2890663146972,443522271
sw,-87.2253341674804,-56.6054191589355,38.6025390625,9.7213659286499,443538938
sw,-86.9758605957031,-57.3490028381347,30.5964336395263,32.8664741516113,443555605
sw,-86.7708663940429,-58.416202545166,25.1542282104492,38.8073959350585,443572272
sw,-86.5691528320312,-60.0773468017578,23.2035579681396,69.8200149536132,443588939
sw,-86.2395401000976,-61.7355041503906,29.4562702178955,64.982795715332,443605606
sw,-85.7116622924804,-63.1159629821777,38.6029777526855,48.4708061218261,443622273
sw,-85.0450057983398,-64.3604583740234,43.8681182861328,49.892650604248,443638940
sw,-84.3359756469726,-65.3330383300781,44.096393585205,27.837890625,443655607
sw,-83.7648315429687,-66.4580993652343,34.4976730346679,31.6783351898193,443672274
sw,-83.5131225585937,-67.3427429199218,14.3661451339721,34.5287361145019,443688941
sw,-83.6287384033203,-67.55908203125,-8.35240840911865,14.2759065628051,443705608
sw,-84.0535354614257,-67.5057296752929,-27.6842193603515,-2.16134786605834,443722275
sw,-84.6433563232421,-67.5895004272461,-39.0021820068359,-16.7432422637939,443738942
sw,-85.1874923706054,-68.3828353881836,-38.9988594055175,1.96977448463439,443755609
sw,-85.4720001220703,-69.6149749755859,-28.6228504180908,39.9429130554199,443772276
sw,-85.4928131103515,-70.177978515625,-23.1183815002441,32.8280563354492,443788943
sw,-85.4102935791015,-70.6661529541015,-30.5522556304931,19.0100364685058,443805610
sw,-84.8166198730468,-71.9022521972656,-34.814208984375,29.7354278564453,443822277
sw,-83.3686599731445,-73.4262008666992,-48.551586151123,15.2557249069213,443838944
sw,-81.0447235107421,-74.6800308227539,-80.579849243164,14.5349588394165,443855611
sw,-78.0590057373046,-75.5837707519531,-112.176162719726,15.2225294113159,443872278
sw,-74.9275970458984,-76.6731414794921,-136.247451782226,24.6371421813964,443888945
sw,-72.3502883911132,-78.0069046020507,-173.293395996093,40.2037315368652,443905612
sw,-70.1776733398437,-79.5143737792968,-192.636276245117,63.1585426330566,443922279
sw,-67.994026184082,-80.819709777832,-191.126190185546,66.6836395263671,443938946
sw,-65.6288299560546,-81.8402404785156,-198.287170410156,48.9816169738769,443955613
sw,-63.5721015930175,-82.578369140625,-164.388916015625,27.4547023773193,443972280
sw,-62.1058731079101,-83.0521469116211,-115.349166870117,12.7578010559082,443988947
sw,-61.0432319641113,-83.5097961425781,-84.1310348510742,16.0392475128173,444005614
sw,-60.1194763183593,-84.0447158813476,-76.7704544067382,26.4945449829101,444022281
sw,-59.1850509643554,-84.6625595092773,-79.4113082885742,35.9298820495605,444038948
sw,-58.232135772705,-85.3855667114257,-83.8325042724609,44.3624458312988,444055615
sw,-57.3800926208496,-86.2638320922851,-81.721565246582,51.7657165527343,444072282
sw,-56.6588630676269,-87.2299270629882,-73.5515747070312,54.9593276977539,444088949
sw,-56.0326881408691,-88.2210617065429,-63.6817550659179,54.2499046325683,444105616
sw,-55.6193084716796,-89.2020492553711,-45.5874710083007,48.1937255859375,444122283
sw,-55.5998725891113,-90.0,-17.1689147949218,39.0964469909668,444138950
sw,-56.0566291809082,-90.0,11.7473402023315,32.557144165039,444155617
