Label,Left_Hip_q,Right_Hip_q,Left_Hip_qd,Right_Hip_qd,SampleTimeFine
sw,-50.247932434082,-88.2975082397461,-30.8994960784912,-38.9988212585449,667491513
sw,-50.0054512023925,-88.7051773071289,-20.268210606266752,-53.05609638936053,667508180
sw,-49.9125862121582,-88.445442199707,-2.5635125438740554,-75.93760990425308,667524847
sw,-50.1331100463867,-87.2702102661132,14.435919642413495,-97.86473216538948,667541514
sw,-50.431224822998,-85.3227844238281,29.99432797325971,-117.89097689539054,667558181
sw,-51.0697555541992,-83.1373291015625,43.38712309028563,-135.1431376319728,667574848
sw,-52.2280464172363,-80.7435913085937,54.01902042678112,-148.88604024816817,667591515
sw,-53.7133445739746,-78.1708755493164,61.584350413207474,-158.60024545426853,667608182
sw,-55.091007232666,-75.3418197631836,66.19363242653101,-164.0569443804504,667624849
sw,-56.1273689270019,-72.3501663208007,68.38890357224781,-165.37094781748357,667641516
sw,-56.9213981628418,-69.4212036132812,69.01926638921434,-163.00938310341752,667658183
sw,-57.8854293823242,-67.2078399658203,69.01972345502067,-157.73859342994754,667674850
sw,-59.0911445617675,-65.0273742675781,69.18133061558383,-150.51277743440752,667691517
sw,-60.3717918395996,-62.6348838806152,69.99124345438652,-142.33388999879563,667708184
sw,-61.5673103332519,-60.2427558898925,71.57508266757381,-134.11805272162562,667724851
sw,-62.6448822021484,-58.0931015014648,73.73254654634023,-126.58185453002325,667741518
sw,-63.7896995544433,-56.1236038208007,76.04312219469203,-120.13752602875688,667758185
sw,-65.1351699829101,-54.359748840332,78.02034824320985,-114.78762456728957,667774852
sw,-66.7058792114257,-52.6980056762695,79.28663667468922,-110.03678737505595,667791519
sw,-68.3663635253906,-51.132755279541,79.72123159076988,-104.86550425743408,667808186
sw,-69.8527374267578,-49.6505393981933,79.5215720577519,-97.81703058746466,667824853
sw,-71.0146789550781,-48.3142051696777,79.13708818284593,-87.22856982714761,667841520
sw,-71.9391784667968,-47.2349433898925,79.08608365826511,-71.59922796422863,667858187
sw,-72.8104553222656,-46.4090690612793,79.72399714572087,-50.04126777556617,667874854
sw,-73.7983322143554,-45.9096870422363,81.0588067540197,-22.717834491351258,667891521
sw,-74.895637512207,-45.6550483703613,82.68945013907505,8.861575581963379,667908188
sw,-75.9128875732421,-45.4435653686523,83.88983875286668,41.824778545650716,667924855
sw,-76.7087631225586,-46.4713516235351,83.80591516525136,72.30131269520172,667941522
sw,-77.3059158325195,-48.4562759399414,81.7006285306237,96.17202450867147,667958189
sw,-77.8473587036132,-51.055320739746,77.17553449192775,110.05928387006468,667974856
sw,-78.6452407836914,-53.9523200988769,70.30807810875909,112.27262822756992,667991523
sw,-79.6384582519531,-56.4169960021972,61.66217107244857,103.37726588692801,668008190
sw,-80.430679321289,-57.9198493957519,52.156141959703554,86.14773131961402,668024857
sw,-80.7727584838867,-58.5809020996093,42.80807273517833,64.88089652071427,668041524
sw,-80.7239837646484,-58.3565025329589,34.418687752560544,44.28421322388588,668058191
sw,-80.4751510620117,-57.6107063293457,27.28296931275898,28.3195843340363,668074858
sw,-80.1398162841796,-57.5364418029785,21.02834222867015,19.3918818520898,668091525
sw,-79.9510650634765,-59.0053367614746,14.65063005291171,18.11052562012539,668108192
sw,-80.0577850341796,-60.555004119873,6.7614072694179805,23.593631631206875,668124859
sw,-80.3710021972656,-61.041259765625,-4.012766984620483,34.06516098888249,668141526
sw,-80.7633056640625,-61.6693534851074,-18.600360149538922,47.44063795903838,668158193
sw,-81.0556488037109,-62.9016799926757,-37.16502835362662,61.712754173920175,668174860
sw,-81.1804962158203,-63.955451965332,-58.999690790295254,75.11860281018672,668191527
sw,-81.127326965332,-65.2859802246093,-82.65925298105383,86.17702018866177,668208194
sw,-80.792610168457,-66.8444213867187,-106.27386883115915,93.70069906291732,668224861
sw,-80.1228713989257,-68.5417098999023,-127.93469008741053,96.84969688296361,668241528
sw,-79.0618438720703,-70.3037338256836,-146.04232180062547,95.23668718927621,668258195
sw,-77.4020919799804,-72.0591354370117,-159.54375841582763,89.04264810375143,668274862
sw,-75.0049209594726,-73.58837890625,-168.02967094920302,79.07390041040308,668291529
sw,-72.4256362915039,-74.6546249389648,-171.69883484120993,66.69926555615884,668308196
sw,-70.0602188110351,-75.3895263671875,-171.21834617923273,53.64660103676067,668324863
sw,-67.5153884887695,-76.0638961791992,-167.52574670032456,41.692736754308264,668341530
sw,-64.7455444335937,-76.5713119506836,-161.62929224535645,32.323867702340664,668358197
sw,-62.0628967285156,-76.8807983398437,-154.45100065086942,26.456587594462558,668374864
sw,-59.4655456542968,-77.2478408813476,-146.7241681796372,24.292353137450103,668391531
sw,-57.126220703125,-77.8347702026367,-138.9271014502682,25.34018486366236,668408198
sw,-54.9001541137695,-78.5135345458984,-131.2306640228361,28.594789623432966,668424865
sw,-52.8897247314453,-79.1122283935546,-123.45710465085402,32.81392215847506,668441532
sw,-51.1250839233398,-79.6726989746093,-115.0723965278365,36.816702611194984,668458199
sw,-49.4910850524902,-80.4180526733398,-105.2464996478526,39.7308814996126,668474866
sw,-47.9364700317382,-81.3030929565429,-93.00765779310512,41.14086908060972,668491533
sw,-46.669578552246,-82.0473175048828,-77.48918000256063,41.11431213919316,668508200
sw,-45.6818389892578,-82.6186828613281,-58.22980380192146,40.10969854003019,668524867
sw,-45.0013351440429,-83.1879043579101,-35.45643957415473,38.79473337389827,668541534
sw,-44.6183395385742,-83.7675018310546,-10.262653388016483,37.83001064512313,668558201
sw,-44.5695419311523,-84.3842391967773,15.396797707911285,37.68093752354867,668574868
sw,-45.1809425354003,-85.0419616699218,38.94220820436163,38.506257590085404,668591535
sw,-46.4357948303222,-85.7855072021484,57.62258823279467,40.14187806514651,668608202
sw,-47.9333992004394,-86.5994720458984,69.09676395823118,42.16828720954132,668624869
sw,-49.6717300415039,-87.3561019897461,71.98853489070585,44.02925967117773,668641536
sw,-51.0789222717285,-88.1039123535156,66.2476355610042,45.16305244814948,668658203
sw,-51.9610977172851,-88.8476791381836,53.19799729237946,45.11303237475827,668674870
sw,-52.6309738159179,-89.3832473754882,35.25315686656929,43.59606436532428,668691537
sw,-52.5156860351562,-89.1783752441406,15.386092600304185,40.51775925144651,668708204
sw,-52.1324462890625,-88.5983505249023,-3.484895467797076,35.932863617768454,668724871
sw,-51.7245941162109,-88.1188278198242,-19.01793445180736,29.959788431124622,668741538
sw,-51.0776939392089,-87.904541015625,-29.74830760890482,22.672342088080725,668758205
sw,-50.7872810363769,-87.8301239013671,-35.12835760778878,14.005878616924369,668774872
sw,-50.682632446289,-87.8638458251953,-35.359042123269774,3.720717882614983,668791539
sw,-50.1275291442871,-88.0508728027343,-31.123131387194526,-8.546103801522746,668808206
sw,-49.5661964416503,-88.3435363769531,-23.331615806208035,-23.139840327114328,668824873
sw,-49.6435432434082,-88.6275558471679,-12.9495802792508,-40.195003330261926,668841540
sw,-49.8069076538085,-88.9286346435546,-0.9118440655737632,-59.45710006563248,668858207
sw,-50.0841674804687,-88.518928527832,11.895604388251718,-80.1912970433939,668874874
sw,-50.2847251892089,-87.0003662109375,24.624574863786194,-101.22337922423581,668891541
sw,-50.5843811035156,-85.0356063842773,36.46561795757097,-121.10873785205503,668908208
sw,-51.4479331970214,-82.7385559082031,46.69856318037878,-138.37872661560274,668924875
sw,-52.7995109558105,-80.1983108520507,54.8012681869857,-151.79443010119485,668941542
sw,-54.2324066162109,-77.5261917114257,60.57554405494838,-160.54814760021742,668958209
sw,-55.3476905822753,-74.6969451904296,64.21482666464075,-164.37710607655987,668974876
sw,-56.1215782165527,-71.7393493652343,66.25517393120442,-163.57665108553,668991543
sw,-56.9847564697265,-69.2186431884765,67.41460409396271,-158.91775613986925,669008210
sw,-58.1366996765136,-67.1142120361328,68.387649355784,-151.49117943065798,669024877
sw,-59.3901748657226,-64.8139419555664,69.67630226357954,-142.51819287185222,669041544
sw,-60.6318550109863,-62.4706268310546,71.50438845101696,-133.17265047118707,669058211
sw,-61.8047447204589,-60.3263816833496,73.8177749824479,-124.44016013576974,669074878
sw,-62.9386177062988,-58.3249206542968,76.35104049018919,-117.00970978292528,669091545
sw,-64.1565170288086,-56.5450935363769,78.74210979504745,-111.17890752622901,669108212
sw,-65.6163024902343,-54.8674011230468,80.6773575241278,-106.76791322468084,669124879
sw,-67.3330078125,-53.2799835205078,82.0353279218038,-103.06509419045084,669141546
sw,-69.034194946289,-51.8275108337402,82.97582905703577,-98.8476448498018,669158213
sw,-70.4866638183593,-50.4943542480468,83.9180665940555,-92.52050306663105,669174880
sw,-71.6410369873046,-49.2969932556152,85.38558377311332,-82.39500149250622,669191547
sw,-72.5895919799804,-48.1519393920898,87.75835422563881,-67.08810666283907,669208214
sw,-73.5508270263671,-47.1631088256835,91.02864782672874,-45.97155500872266,669224881
sw,-74.5881118774414,-46.5901107788085,94.67154219706526,-19.553232313979706,669241548
sw,-75.7042160034179,-46.3466148376464,97.70211778084995,10.347179155797084,669258215
sw,-76.9084548950195,-46.5959396362304,98.9175719191126,40.74115589409354,669274882
sw,-78.0251541137695,-47.8910636901855,97.24658377250586,67.9700958909174,669291549
sw,-78.8342666625976,-49.7076568603515,92.08124207627132,88.48419431903251,669308216
sw,-79.3898239135742,-52.1033325195312,83.46806164333299,99.70964248229765,669324883
sw,-79.8617248535156,-54.5759925842285,72.0854702570937,100.74296924103619,669341550
sw,-80.2797164916992,-56.461124420166,59.01565949101379,92.6326128563068,669358217
sw,-80.5599975585937,-57.7572288513183,45.39441209279776,78.1294060665927,669374884
sw,-80.6632690429687,-58.1037559509277,32.06196060597964,60.97216186427429,669391551
sw,-80.6112518310546,-57.8857154846191,19.328303125917316,44.9481091624263,669408218
sw,-80.4497985839843,-57.8327484130859,6.918070378232487,33.04975647232615,669424885
sw,-80.2409515380859,-58.483585357666,-5.901326146885417,26.991645115849792,669441552
sw,-80.1819839477539,-60.2595291137695,-20.054526904003772,27.17198163411817,669458219
sw,-80.3411102294921,-61.2014617919921,-36.331582267375815,32.959914946074186,669474886
sw,-80.6152114868164,-61.6567459106445,-55.087199401653336,43.080847042468584,669491553
sw,-80.8290023803711,-62.5863418579101,-76.04866718742626,55.91661339572583,669508220
sw,-80.6781005859375,-63.6413536071777,-98.2882331394957,69.67517092972538,669524887
sw,-80.037239074707,-64.8239364624023,-120.3672705103895,82.49912514424382,669541554
sw,-78.950813293457,-66.4486465454101,-140.60865108594535,92.60779025221235,669558221
sw,-77.4786071777343,-68.3118057250976,-157.42352468111812,98.5181606514551,669574888
sw,-75.5378112792968,-70.3093948364257,-169.61546236679973,99.31411333266766,669591555
sw,-72.9304122924804,-72.2682189941406,-176.59748795241669,94.8731387426802,669608222
sw,-70.0808410644531,-73.907730102539,-178.4750222386086,85.9456481834532,669624889
sw,-67.5132751464843,-75.0137863159179,-175.97244185709695,74.02296833182113,669641556
sw,-65.0494995117187,-75.6886138916015,-170.22063639313654,61.0091906569499,669658223
sw,-62.5282249450683,-76.2352905273437,-162.46964716017854,48.79143057971815,669674890
sw,-59.939842224121,-76.8344650268554,-153.81550401124744,38.84308322788929,669691557
sw,-57.4204978942871,-77.3884506225586,-145.0123104796437,31.976260672150627,669708224
sw,-55.0587921142578,-77.92236328125,-136.39234455790833,28.296483317626734,669724891
sw,-52.8182144165039,-78.5931243896484,-127.87381873136982,27.339500194747743,669741558
sw,-50.8753623962402,-79.3619232177734,-119.02213965021285,28.316977294001298,669758225
sw,-49.2474327087402,-80.0090789794921,-109.14390100919336,30.377770335162733,669774892
sw,-47.7059516906738,-80.432632446289,-97.41452628066419,32.80562343201452,669791559
sw,-46.2897644042968,-80.807991027832,-83.04998713164973,35.11504964480773,669808226
sw,-45.2256126403808,-81.3466033935546,-65.52060761302417,37.055345086357,669824893
sw,-44.5261306762695,-82.1034545898437,-44.777821434173845,38.56225198700335,669841560
sw,-44.0903167724609,-82.9005508422851,-21.439630607654887,39.69520784562234,669858227
sw,-43.8124885559082,-83.5873031616211,3.1310018598893765,40.57774943454144,669874894
sw,-43.9630584716796,-84.2121963500976,26.914275377020708,41.342908193240014,669891561
sw,-44.9047050476074,-84.9054946899414,47.51720989120079,42.08488163822946,669908228
sw,-46.427864074707,-85.6421661376953,62.62215098850892,42.824185905505615,669924895
sw,-48.0141868591308,-86.3551940917968,70.49585391835828,43.49343338344006,669941562
sw,-49.5604629516601,-87.1249923706054,70.40775739230789,43.943603988245485,669958229
sw,-50.725486755371,-87.9037017822265,62.82123672645456,43.96372485517256,669974896
sw,-51.5295677185058,-88.500015258789,49.29739352829225,43.30537056886465,669991563
sw,-51.9198341369628,-88.8748245239257,32.14974563092967,41.70565595434031,670008230
sw,-51.9259757995605,-88.7729949951171,13.96570263274144,38.903520810401126,670024897
sw,-51.7355842590332,-88.2931442260742,-2.8608965901595886,34.64235051746639,670041564
sw,-51.341064453125,-88.0395584106445,-16.467474285043732,28.653594903496142,670058231
sw,-51.0084190368652,-88.0101318359375,-25.675276045175305,20.629880781319187,670074898
sw,-50.8641281127929,-88.0718688964843,-29.973219872342437,10.217939411992461,670091565
sw,-50.4153327941894,-88.23486328125,-29.39966919960439,-2.9294990694220675,670108232
sw,-49.9222145080566,-88.4571838378906,-24.399050020187268,-19.025239110103314,670124899
sw,-49.8738975524902,-88.6394424438476,-15.703327609449882,-37.97043272335554,670141566
sw,-49.9372863769531,-88.7821197509765,-4.248622816164094,-59.199298159116076,670158233
sw,-50.2862548828125,-88.3534927368164,8.888591694716359,-81.62821417574926,670174900
sw,-50.5693893432617,-86.7592468261718,22.55734300750722,-103.75931771590656,670191567
sw,-50.9342308044433,-84.7194747924804,35.61895336777373,-123.92494654166642,670208234
sw,-51.8004112243652,-82.3615417480468,47.06637569688393,-140.5996683675809,670224901
sw,-53.1152038574218,-79.749397277832,56.1677735482766,-152.68456076508156,670241568
sw,-54.5511054992675,-76.9941864013671,62.593919843624384,-159.68848036513668,670258235
sw,-55.7523498535156,-74.1923446655273,66.46832115383071,-161.77194932768037,670274902
sw,-56.5337867736816,-71.4036331176757,68.29848667551437,-159.65871887636612,670291569
sw,-57.3730430603027,-69.0893249511718,68.80437358385018,-154.44981587815715,670308236
sw,-58.538719177246,-67.0059585571289,68.71480103458838,-147.39476901021118,670324903
sw,-59.8360519409179,-64.7168884277343,68.61137079877258,-139.68046018683725,670341570
sw,-61.064884185791,-62.3751678466796,68.85997600861943,-132.28080967733268,670358237
sw,-62.1760673522949,-60.0772323608398,69.62083037451079,-125.87252953886754,670374904
sw,-63.2355995178222,-58.0939712524414,70.90560332281039,-120.78746469503741,670391571
sw,-64.3989944458007,-56.3759727478027,72.6557002949453,-116.96854635578406,670408238
sw,-65.725357055664,-54.5843849182128,74.82470869431846,-113.9261900597245,670424905
sw,-67.2546234130859,-52.87691116333,77.44359801472939,-110.72799227579209,670441572
sw,-68.8485794067382,-51.29439163208,80.63627778930957,-106.06800575767193,670458239
sw,-70.2780456542968,-49.7046203613281,84.55618684256457,-98.44584111504973,670474906
sw,-71.5114288330078,-48.2916183471679,89.24466113709992,-86.45194015840416,670491573
sw,-72.6122283935546,-47.0975074768066,94.45970060629428,-69.11780784046091,670508240
sw,-73.7180938720703,-46.3298606872558,99.56097005669642,-46.25929023473554,670524907
sw,-74.9713516235351,-45.8857727050781,103.53465812386732,-18.724668675325862,670541574
sw,-76.3885345458984,-45.7522048950195,105.19196715489076,11.538996854546415,670558241
sw,-77.8209075927734,-46.0595588684082,103.49695703118073,41.66653032270046,670574908
sw,-79.0127258300781,-47.2554321289062,97.9105039646463,68.32155107852113,670591575
sw,-79.6681365966796,-49.0635528564453,88.61356013702076,88.35438664068738,670608242
sw,-79.9393081665039,-51.1605644226074,76.5111664457164,99.52728133146819,670624909
sw,-80.2697677612304,-53.6260795593261,63.00418677386091,101.09982493159495,670641576
sw,-80.6780166625976,-55.6608085632324,49.60758176460505,94.0717561604435,670658243
sw,-81.0041580200195,-57.0752296447753,37.547900514392374,80.96895245290622,670674910
sw,-81.2065658569336,-57.6260681152343,27.467366843604186,65.21030526618839,670691577
sw,-81.2747421264648,-57.6090660095214,19.30848025632989,50.25271447539111,670708244
sw,-81.1632919311523,-57.5880508422851,12.383156693285148,38.804943221934494,670724911
sw,-80.9025421142578,-57.9814414978027,5.57742214432855,32.37147338437849,670741578
sw,-80.6304550170898,-59.5005302429199,-2.376033457909466,31.235005901136635,670758245
sw,-80.4758987426757,-61.0110702514648,-12.616430575469337,34.78400360067705,670774912
sw,-80.4914321899414,-61.5918731689453,-25.908999028398068,41.95376145726857,670791579
sw,-80.6917724609375,-62.3864707946777,-42.47224141973328,51.55605462032977,670808246
sw,-80.870491027832,-63.3232040405273,-61.910843084305846,62.403019132246335,670824913
sw,-80.8331680297851,-64.2539291381836,-83.2692489370042,73.28101065232626,670841580
sw,-80.4432601928711,-65.564208984375,-105.19053899287472,82.90556550707997,670858247
sw,-79.6934051513671,-67.0873870849609,-126.13787449986012,89.97078551014327,670874914
sw,-78.6161651611328,-68.8467788696289,-144.62776165762864,93.33194015980325,670891581
sw,-77.1075134277343,-70.78564453125,-159.43661110950623,92.27414903289959,670908248
sw,-74.8680267333984,-72.6210479736328,-169.7594535769533,86.75938652194196,670924915
sw,-72.0939712524414,-74.1184921264648,-175.3059584025311,77.53343588615724,670941582
sw,-69.4229354858398,-75.1270294189453,-176.315184497466,66.0195441761562,670958249
sw,-66.8339920043945,-75.767463684082,-173.47544994654058,54.00817056131461,670974916
sw,-64.1378021240234,-76.2609100341796,-167.76069907742064,43.23519202389922,670991583
sw,-61.4058799743652,-76.6761245727539,-160.2242733192318,34.98563788129783,671008250
sw,-58.7962379455566,-77.1275482177734,-151.79961909930233,29.84782899808624,671024917
sw,-56.3787727355957,-77.6931838989257,-143.141592907732,27.683393162423485,671041584
sw,-54.1074600219726,-78.4570770263671,-134.52170071091203,27.800120105704583,671058251
sw,-52.1026382446289,-79.2531051635742,-125.78337389291018,29.24778182675883,671074918
sw,-50.3082237243652,-79.8490753173828,-116.36801850132072,31.12556909110985,671091585
sw,-48.5931930541992,-80.2476272583007,-105.42582967371422,32.80393184874558,671108252
sw,-46.9979858398437,-80.7313613891601,-92.01553971501004,34.013133425986,671124919
sw,-45.7370147705078,-81.3806915283203,-75.37301394549726,34.8069432047286,671141586
sw,-44.8111495971679,-82.0079803466796,-55.20014307191404,35.44461442282282,671158253
sw,-44.2301940917968,-82.5565567016601,-31.90635038550127,36.241442396779426,671174920
sw,-43.9232559204101,-83.1292190551757,-6.7316371415677265,37.43113203072688,671191587
sw,-43.9533538818359,-83.7754364013671,18.30804797776881,39.07369149589165,671208254
sw,-44.5214614868164,-84.4751510620117,40.68368314387085,41.03001221375455,671224921
sw,-45.7444763183593,-85.2274703979492,57.80461704920951,43.00509301156496,671241588
sw,-47.4210700988769,-86.0808868408203,67.5714208909807,44.639687877355975,671258255
sw,-49.126178741455,-86.9644317626953,68.88361084843012,45.61393102194804,671274922
sw,-50.3013648986816,-87.7538909912109,61.94251232703389,45.72367980605382,671291589
sw,-51.0611419677734,-88.4284133911132,48.24408259467463,44.90305958953874,671308256
sw,-51.7235832214355,-88.9466857910156,30.25979797930756,43.18953739595511,671324923
sw,-51.6016197204589,-89.1001663208007,10.9064152119728,40.64881926941891,671341590
sw,-51.1201744079589,-88.7591934204101,-7.035414372186528,37.285992778167,671358257
sw,-50.5240287780761,-88.4119338989257,-21.392338821753892,32.967718720278754,671374924
sw,-49.9000968933105,-88.1716918945312,-30.848089089323732,27.37712844848265,671391591
sw,-49.8467330932617,-87.9792938232421,-34.94553707202015,20.02266261001617,671408258
sw,-49.5617065429687,-87.9035186767578,-33.90382897683935,10.31764232820703,671424925
sw,-48.9074935913085,-87.9475784301757,-28.36613087669791,-2.2695309201419556,671441592
sw,-48.7686691284179,-88.0561981201171,-19.184929124062887,-18.022537283463137,671458259
sw,-48.8513793945312,-88.2863998413086,-7.29700937427408,-36.796973639942806,671474926
sw,-49.0307884216308,-88.8744735717773,6.318646934705087,-57.919705339670976,671491593
sw,-49.2730064392089,-88.9087219238281,20.64186473918622,-80.21771414680676,671508260
sw,-49.4659805297851,-87.2757415771484,34.62489194898552,-102.1812793075248,671524927
sw,-50.3088951110839,-85.3744583129882,47.26467412875111,-122.21451997094647,671541594
sw,-51.7876739501953,-83.0989990234375,57.74529681278847,-138.89908441847345,671558261
sw,-53.4242095947265,-80.4974288940429,65.60557470159644,-151.20604596469923,671574928
sw,-54.6653900146484,-77.7560195922851,70.8445759241128,-158.6199532039557,671591595
sw,-55.5700225830078,-74.9837646484375,73.89272649640849,-161.16530063632268,671608262
sw,-56.4844398498535,-72.2440795898437,75.44814296517667,-159.3440184186791,671624929
sw,-57.6923484802246,-69.9507827758789,76.25374773254367,-154.00857601281322,671641596
sw,-59.0928230285644,-67.7961120605468,76.9128536114158,-146.20939346740394,671658263
sw,-60.4442520141601,-65.4187469482421,77.80133953134276,-137.05798344604005,671674930
sw,-61.7793426513671,-63.1433563232421,79.07455194538065,-127.62882357242766,671691597
sw,-63.1168174743652,-61.0562019348144,80.73046026043626,-118.88927433330048,671708264
sw,-64.4923629760742,-59.1879272460937,82.68780680079871,-111.62233097914404,671724931
sw,-65.8944625854492,-57.3940811157226,84.85213900347068,-106.31290976089164,671741598
sw,-67.4118118286132,-55.7920188903808,87.15567065476681,-103.00167983968305,671758265
sw,-69.0723266601562,-54.3788375854492,89.56322531354105,-101.1500025157772,671774932
sw,-70.7037200927734,-52.9580421447753,92.0399022367351,-99.58505749548716,671791599
sw,-72.220230102539,-51.611457824707,94.48382031216236,-96.59331926421069,671808266
sw,-73.4618377685546,-50.1855354309082,96.64425759205768,-90.19774108409416,671824933
sw,-74.5219955444336,-48.6000938415527,98.06698537011397,-78.59436256570666,671841600
sw,-75.7033462524414,-47.403564453125,98.11770928845156,-60.65722279314514,671858267
sw,-77.0163955688476,-46.7191772460937,96.11287819592602,-36.37562147457658,671874934
sw,-78.2740173339843,-46.507640838623,91.53409472825065,-7.087292178977847,671891601
sw,-79.2447433471679,-46.5013122558593,84.2446305225181,24.585626991309727,671908268
sw,-79.6131591796875,-47.3394203186035,74.60358103750706,55.12279488372627,671924935
sw,-79.3541564941406,-48.935375213623,63.40802229228854,80.76177017031712,671941602
sw,-79.0852508544921,-50.9727439880371,51.673023201243105,98.29261740825301,671958269
sw,-79.1729278564453,-53.3454933166503,40.33909091111258,105.79586401454922,671974936
sw,-79.4392318725586,-55.5332984924316,30.02862721454948,103.11306468045663,671991603
sw,-79.8042373657226,-57.2845764160156,20.93923408895408,91.89611995127352,672008270
sw,-80.2257766723632,-58.4874382019043,12.886184045171726,75.20344450519997,672024937
sw,-80.4676818847656,-58.6340599060058,5.435426192821348,56.75927954951668,672041604
sw,-80.4055862426757,-58.4797439575195,-1.959575713161832,40.110964742196295,672058271
sw,-80.094123840332,-58.5834274291992,-9.877796705018007,27.951898389332023,672074938
sw,-79.637092590332,-59.6678352355957,-18.907650371903284,21.795044684706475,672091605
sw,-79.2769088745117,-61.0125427246093,-29.62785835681712,22.012449376642444,672108272
sw,-79.1589050292968,-61.4950637817382,-42.530844497829655,28.09514193523528,672124939
sw,-79.2376098632812,-62.0044174194335,-57.87209497099823,38.93601903646443,672141606
sw,-79.3106231689453,-62.9687767028808,-75.49461442781924,53.01506937527543,672158273
sw,-79.1237640380859,-63.8603973388671,-94.71587949581196,68.49318603735615,672174940
sw,-78.5678253173828,-64.9829864501953,-114.35009045566167,83.30315007671264,672191607
sw,-77.5314254760742,-66.5431976318359,-132.88452164077634,95.32928491609907,672208274
sw,-76.031021118164,-68.5011596679687,-148.76845938387274,102.70936185497074,672224941
sw,-74.0619659423828,-70.6917343139648,-160.73284112066787,104.20818054981683,672241608
sw,-71.5749359130859,-72.7748031616211,-168.04822504514019,99.54199436542719,672258275
sw,-68.9489059448242,-74.4975433349609,-170.64655759150972,89.5160498475828,672274942
sw,-66.4957199096679,-75.6551513671875,-169.07289590080626,75.88980109268324,672291609
sw,-64.0109786987304,-76.3543167114257,-164.28785414981084,60.98383180866201,672308276
sw,-61.5098419189453,-76.902114868164,-157.39095560125426,47.141466625725194,672324943
sw,-58.991455078125,-77.3268814086914,-149.35414941838917,36.210412627818584,672341610
sw,-56.624755859375,-77.7221069335937,-140.83385998884478,29.195600474266847,672358277
sw,-54.3247871398925,-78.1888122558593,-132.08683086990598,26.1669542135546,672374944
sw,-52.1907730102539,-78.8988342285156,-122.97831022996644,26.417665967412567,672391611
sw,-50.3626747131347,-79.7367401123046,-113.05668899434808,28.791947476687273,672408278
sw,-48.8100433349609,-80.4216384887695,-101.67388603372092,32.05959399051946,672424945
sw,-47.3681488037109,-80.9278488159179,-88.14210996077722,35.22050562456336,672441612
sw,-46.1114463806152,-81.4413375854492,-71.92038951672507,37.67002313016782,672458279
sw,-45.2291221618652,-82.0874099731445,-52.81242784825113,39.21861271493522,672474946
sw,-44.6774139404296,-82.8495025634765,-31.138908885561573,40.00448608166089,672491613
sw,-44.4857788085937,-83.5125732421875,-7.836587373407853,40.35137185548854,672508280
sw,-44.5733489990234,-84.140380859375,15.559167401558309,40.616535632413466,672524947
sw,-45.1319389343261,-84.807746887207,37.07310784289823,41.063121538829606,672541614
sw,-46.1617355346679,-85.5217590332031,54.5842377821725,41.78119389870943,672558281
sw,-47.4634895324707,-86.292610168457,66.20999115712765,42.66923002175474,672574948
sw,-48.8637466430664,-87.056167602539,70.69729811154578,43.4710778927058,672591615
sw,-50.4422950744628,-87.8811416625976,67.7181615360437,43.84827173520883,672608282
sw,-51.4837684631347,-88.6908950805664,57.979995826941234,43.46021509421196,672624949
sw,-52.4066162109375,-89.337661743164,43.10727469934462,42.02655699535422,672641616
sw,-52.5677337646484,-89.5015029907226,25.320213362202058,39.35479272332489,672658283
sw,-52.2746696472168,-88.9639205932617,7.005181234030034,35.327991704115206,672674950
sw,-52.0493965148925,-88.4988403320312,-9.690816015555736,29.859543857686013,672691617
sw,-51.5682144165039,-88.328010559082,-23.126894013565796,22.833484315781316,672708284
sw,-51.3420677185058,-88.2545928955078,-32.25095281225774,14.059895365490663,672724951
sw,-51.2699127197265,-88.2400817871093,-36.5378161363875,3.2788555127752548,672741618
sw,-50.6541900634765,-88.4136581420898,-35.87518555649452,-9.766009324170724,672758285
sw,-49.8446807861328,-88.7314376831054,-30.4822539575533,-25.19277803946336,672774952
sw,-49.6032104492187,-89.0481719970703,-20.889389675290634,-42.82768569629028,672791619
sw,-49.5765876770019,-89.2464523315429,-7.946911550247293,-62.096514060461715,672808286
sw,-49.7323112487793,-88.3613510131836,7.192229652375795,-82.0199525582074,672824953
sw,-49.9128227233886,-86.5755538940429,23.155375009070973,-101.33680005372351,672841620
sw,-50.441780090332,-84.5232849121093,38.50884102537023,-118.72593915641353,672858287
sw,-51.6682929992675,-82.2649307250976,51.97308998126255,-133.05657767951462,672874954
sw,-53.1276893615722,-79.8910751342773,62.64350084855807,-143.59078012791142,672891621
sw,-54.5240287780761,-77.3634033203125,70.14162176821073,-150.09018872514176,672908288
sw,-55.6116676330566,-74.6303100585937,74.6311524650853,-152.81560790396392,672924955
sw,-56.4780006408691,-71.8979949951171,76.68665565949587,-152.4331422444786,672941622
sw,-57.5943260192871,-69.6630630493164,77.07182157141072,-149.85305303499783,672958289
sw,-58.9865264892578,-67.6380767822265,76.51913014177805,-146.03822349892607,672974956
sw,-60.3562240600585,-65.3667831420898,75.58167702735739,-141.8291227597513,672991623
sw,-61.6058349609375,-62.9385070800781,74.57561780338006,-137.82640010786375,673008290
sw,-62.7358627319335,-60.5879707336425,73.59274344042787,-134.34197013668722,673024957
sw,-63.8115768432617,-58.37251663208,72.55778506911751,-131.39325137064978,673041624
sw,-64.9330215454101,-56.3286514282226,71.31851495937285,-128.70352760248795,673058291
sw,-66.2062301635742,-54.3844604492187,69.76156285466821,-125.69308413791613,673074958
sw,-67.6368713378906,-52.534080505371,67.93264007865332,-121.48103109607908,673091625
sw,-68.9730987548828,-50.8534851074218,66.1186088326692,-114.94004809536368,673108292
sw,-70.0265731811523,-49.2296142578125,64.84272054207409,-104.842165977114,673124959
sw,-70.8729934692382,-47.662052154541,64.74753662344358,-90.10486392990569,673141626
sw,-71.5638809204101,-46.4494819641113,66.38616333110559,-70.10466889969058,673158293
sw,-72.251480102539,-45.74898147583,69.98757684176476,-44.98688418919365,673174960
sw,-73.0484085083007,-45.3731803894043,75.28164731482761,-15.880069760226595,673191627
sw,-73.8756484985351,-45.144546508789,81.45490213736188,15.072751573252711,673208294
sw,-74.6432113647461,-45.605670928955,87.26751458572149,44.929378086324455,673224961
sw,-75.4363861083984,-46.9083175659179,91.31232771422877,70.42321163060534,673241628
sw,-76.3658065795898,-48.7943382263183,92.35216292557598,88.63019188850683,673258295
sw,-77.3586654663086,-51.0307312011718,89.64047559272655,97.66895290162007,673274962
sw,-78.2386474609375,-53.1632919311523,83.12130985865471,97.21983152465616,673291629
sw,-78.9312667846679,-54.9751396179199,73.42969962747812,88.6721135576303,673308296
sw,-79.3416671752929,-56.453758239746,61.67660203422142,74.8161422438783,673324963
sw,-79.4358139038086,-56.719440460205,49.08291383678704,59.151351288507755,673341630
sw,-79.3569869995117,-56.5957794189453,36.58747169698671,45.02590406895423,673358297
sw,-79.2389068603515,-56.629596710205,24.564802326558834,34.89718279028311,673374964
sw,-79.1204376220703,-57.0289688110351,12.747202750599786,29.957623174503663,673391631
sw,-79.1092681884765,-58.6906967163085,0.37272336583720256,30.208432717495988,673408298
sw,-79.3066024780273,-60.2420997619628,-13.49647846508455,34.85876763167642,673424965
sw,-79.631851196289,-60.7630157470703,-29.597156122032974,42.79758950348445,673441632
sw,-80.0168075561523,-61.5465431213378,-48.157677992664965,52.90846891828527,673458299
sw,-80.2533493041992,-62.5648193359375,-68.75801498278035,64.1451797418556,673474966
sw,-80.1662826538086,-63.4665336608886,-90.38801112427656,75.44455103645926,673491633
sw,-79.7452392578125,-64.7809524536132,-111.66310812243262,85.62687137544332,673508300
sw,-79.0962753295898,-66.4221725463867,-131.11279628798087,93.40984133010934,673524967
sw,-78.1236495971679,-68.2779922485351,-147.45495487827858,97.5805134167232,673541634
sw,-76.6315994262695,-70.2950744628906,-159.79730112366596,97.27752210420051,673558301
sw,-74.4437179565429,-72.1476440429687,-167.741283324262,92.27150856974636,673574968
sw,-71.977668762207,-73.6698684692382,-171.38677847822717,83.12034506134131,673591635
sw,-69.5078506469726,-74.8564224243164,-171.24864911571413,71.11977770219839,673608302
sw,-66.9591217041015,-75.6516876220703,-168.10921669001968,58.04737454203835,673624969
sw,-64.3000869750976,-76.18798828125,-162.8451357488495,45.773804939541236,673641636
sw,-61.6558570861816,-76.6886367797851,-156.270308073322,35.860018432313126,673658303
sw,-59.0537338256835,-77.1556243896484,-149.02060817663613,29.25740284499416,673674970
sw,-56.681282043457,-77.6180038452148,-141.48243793199583,26.186014925668132,673691637
sw,-54.4435844421386,-78.2244338989257,-133.7542321511833,26.203920137356388,673708304
sw,-52.366828918457,-78.9955978393554,-125.63485538046123,28.42230733388555,673724971
sw,-50.510513305664,-79.7184906005859,-116.64647856102198,31.78417655733118,673741638
sw,-48.8120155334472,-80.2296371459961,-106.10832166434493,35.31919580692115,673758305
sw,-47.2223320007324,-80.6989593505859,-93.27341325260966,38.31416576108543,673774972
sw,-45.9064025878906,-81.3574142456054,-77.52322439713197,40.38232861722144,673791639
sw,-44.968162536621,-82.1536254882812,-58.59154277860172,41.44991266827042,673808306
sw,-44.3415336608886,-82.9004669189453,-36.769250299564874,41.68916365087267,673824973
sw,-43.9820480346679,-83.6018753051757,-13.03235995195326,41.420970554575625,673841640
sw,-43.8697853088378,-84.2859802246093,10.962019228346138,41.00468313567786,673858307
sw,-44.2993011474609,-84.9256515502929,33.050705665505575,40.73473947129405,673874974
sw,-45.4238128662109,-85.5783157348632,50.911909742213666,40.766158819068444,673891641
sw,-46.7385749816894,-86.339111328125,62.528193538076515,41.08522948425813,673908308
sw,-48.2939338684082,-87.149673461914,66.649380186018,41.52733830977673,673924975
sw,-49.7447166442871,-87.8779144287109,63.114965112601574,41.82816350861631,673941642
sw,-50.634838104248,-88.5366058349609,52.925961205623786,41.6862849377205,673958309
sw,-51.3089981079101,-89.1786117553711,38.034586519636925,40.8171389813037,673974976
sw,-51.3168296813964,-89.3580627441406,20.915551048840424,38.98407276836219,673991643
sw,-51.1279182434082,-88.8254699707031,4.055318460959085,35.996303659016746,674008310
sw,-50.8255500793457,-88.4120559692382,-10.484972228212902,31.669801651535987,674024977
sw,-50.3322486877441,-88.2293319702148,-21.318471193449703,25.76343218845896,674041644
sw,-50.1796684265136,-88.1280059814453,-27.760820970135214,17.925732868680438,674058311
sw,-50.1544151306152,-88.0982360839843,-29.690402439591704,7.699633696635564,674074978
sw,-49.7063331604003,-88.2135925292968,-27.34552126081374,-5.382562203087574,674091645
sw,-49.2370567321777,-88.4332733154296,-21.1605505496408,-21.62094640142645,674108312
sw,-49.2335319519043,-88.6900024414062,-11.692595273461093,-40.938382884855656,674124979
sw,-49.3653411865234,-88.9986877441406,0.37158682683554856,-62.720129094582134,674141646
sw,-49.6591072082519,-88.528205871582,14.176072146191963,-85.78010185215449,674158313
sw,-49.8501396179199,-86.7892990112304,28.678547381338415,-108.49118829911711,674174980
sw,-50.3607101440429,-84.6605377197265,42.70078528848558,-129.0548733436,674191647
sw,-51.4730606079101,-82.1432037353515,55.06896300145007,-145.83289310547283,674208314
sw,-53.0596313476562,-79.4256591796875,64.82265556570043,-157.64679768230982,674224981
sw,-54.6834526062011,-76.5442962646484,71.42061295387435,-163.9707232615542,674241648
sw,-55.8569221496582,-73.644775390625,74.85098116929176,-164.97990600910475,674258315
sw,-56.7038764953613,-70.8016967773437,75.59170020669431,-161.45604416254633,674274982
sw,-57.6753730773925,-68.6086349487304,74.44464110670954,-154.58467364670315,674291649
sw,-58.9196014404296,-66.5264739990234,72.32732217415747,-145.70641473103697,674308316
sw,-60.2422409057617,-64.2559585571289,70.10552167803338,-136.09330157058065,674324983
sw,-61.4871063232421,-61.9778594970703,68.49983335152673,-126.80056550872341,674341650
sw,-62.6289291381835,-59.8468132019043,68.04804080558038,-118.59784624344562,674358317
sw,-63.7385215759277,-58.0466651916503,69.0892983458507,-111.94200932647767,674374984
sw,-64.8429870605468,-56.2879371643066,71.75219231644321,-106.94659022531143,674391651
sw,-66.0022735595703,-54.629467010498,75.95021108995901,-103.33043534956046,674408318
sw,-67.5120315551757,-53.0375518798828,81.39420252003647,-100.36525369438078,674424985
sw,-69.2739868164062,-51.4764251708984,87.62036634468734,-96.86626905199134,674441652
sw,-70.9330215454101,-50.3186836242675,94.0187654694111,-91.27655429984749,674458319
sw,-72.3741455078125,-49.4132232666015,99.85045717820819,-81.88602145675029,674474986
sw,-73.6220397949218,-48.2339401245117,104.26680705531052,-67.19685569252553,674491653
sw,-74.7999191284179,-47.237808227539,106.37244020552801,-46.39189752275815,674508320
sw,-76.1923828125,-46.5551643371582,105.37098539328078,-19.790661306608698,674524987
sw,-77.7845687866211,-46.1706657409668,100.7858694777526,10.875207133093829,674541654
sw,-79.1301956176757,-46.353458404541,92.67993872350208,42.52822609602246,674558321
sw,-79.6816940307617,-47.7356452941894,81.7573524466588,71.23090081459533,674574988
sw,-79.5552673339843,-49.7411308288574,69.26006718242802,93.0275366730087,674591655
sw,-79.5263442993164,-52.2542724609375,56.664541138385545,104.92869126676437,674608322
sw,-79.853515625,-54.930866241455,45.28640319345397,105.73334838296604,674624989
sw,-80.3114852905273,-56.7816162109375,35.94620205896937,96.40367666691454,674641656
sw,-80.8092269897461,-58.188678741455,28.81365651032582,79.84445939129232,674658323
sw,-81.3330688476562,-58.6653900146484,23.459347349087125,60.145466689480514,674674990
sw,-81.6475067138671,-58.3376846313476,19.05351505213131,41.538587365341,674691657
sw,-81.6081085205078,-57.952537536621,14.605511935490652,27.42178434230004,674708324
sw,-81.2587966918945,-58.3080749511718,9.152593245978322,19.760140016756736,674724991
sw,-80.8381958007812,-59.742919921875,1.8668377299965655,18.99858831546815,674741658
sw,-80.5132446289062,-60.940860748291,-7.88941132587984,24.391904485450944,674758325
sw,-80.3843841552734,-61.3389244079589,-20.508164335312934,34.5017416236364,674774992
sw,-80.5779647827148,-62.1697082519531,-36.05757019152174,47.61454406718569,674791659
sw,-80.8666229248046,-63.1527481079101,-54.20607863842871,61.96884276879631,674808326
sw,-81.0047912597656,-64.1115646362304,-74.20005137009052,75.8314568810389,674824993
sw,-80.784927368164,-65.4773635864257,-94.93056511144249,87.53733124272031,674841660
sw,-80.1397323608398,-67.1822662353515,-115.08390520908823,95.59319980644547,674858327
sw,-79.1597366333007,-69.0894241333007,-133.33533389534097,98.87540365325114,674874994
sw,-77.8887634277343,-71.0159225463867,-148.53825000897197,96.87088586514328,674891661
sw,-75.9439697265625,-72.8562469482421,-159.8749138040432,89.8582733342953,674908328
sw,-73.2777633666992,-74.3769454956054,-166.94848686634654,78.92824192464681,674924995
sw,-70.5847778320312,-75.3212127685546,-169.79934145044052,65.79673863685335,674941662
sw,-68.2965621948242,-75.868423461914,-168.83623349567785,52.44515535264924,674958329
sw,-65.8528289794921,-76.3418960571289,-164.70084989705546,40.69167492613725,674974996
sw,-63.2168312072753,-76.7956314086914,-158.11746294232807,31.825153040702777,674991663
sw,-60.5072479248046,-77.2350540161132,-149.78235226030415,26.405406422588825,675008330
sw,-57.995750427246,-77.7646713256836,-140.3102753332798,24.268939383360753,675024997
sw,-55.7418670654296,-78.3973617553711,-130.21036117809265,24.709678647395403,675041664
sw,-53.7409324645996,-79.0788879394531,-119.85042071953814,26.75631034258065,675058331
sw,-52.01314163208,-79.7404022216796,-109.39336595881461,29.45206505876553,675074998
sw,-50.531623840332,-80.2625198364257,-98.72857266692708,32.05879958983947,675091665
sw,-49.167682647705,-80.6620788574218,-87.44709119353418,34.14667933471049,675108332
sw,-48.0290870666503,-81.0877990722656,-74.9084703691568,35.57749622182646,675124999
sw,-47.0870285034179,-81.6541442871093,-60.4195473570369,36.42338200943381,675141666
sw,-46.322956085205,-82.361587524414,-43.50280523750886,36.8695992083814,675158333
sw,-45.7436904907226,-83.0842971801757,-24.188478571432505,37.132900721398435,675175000
sw,-45.370132446289,-83.7562179565429,-3.234848881865894,37.40302477908648,675191667
sw,-45.4605369567871,-84.3802947998046,17.821548066208308,37.801814197163445,675208334
sw,-45.9514846801757,-84.9781188964843,36.8498564711726,38.356365682335166,675225001
sw,-47.0226974487304,-85.5738449096679,51.53690291828578,38.990290617125915,675241668
sw,-48.6141853332519,-86.258071899414,59.93389290584969,39.539045898268576,675258335
sw,-50.30859375,-87.0678939819336,60.974513208847256,39.78739005162915,675275002
sw,-51.3872680664062,-87.7656860351562,54.786942564714955,39.515020118711014,675291669
sw,-51.9850234985351,-88.3466110229492,42.68423649645755,38.53064836821252,675308336
sw,-52.2898941040039,-88.8830261230468,26.836356347114695,36.68075814530467,675325003
sw,-52.0849227905273,-89.1023483276367,9.74625922308012,33.832092547079824,675341670
sw,-51.7104377746582,-88.9275360107421,-6.285330776743495,29.837214168863678,675358337
sw,-51.2379188537597,-88.7017059326171,-19.53828280877884,24.497099424843388,675375004
sw,-50.7300148010253,-88.5741271972656,-29.004466990017704,17.53662622160439,675391671
sw,-50.6522140502929,-88.5810012817382,-34.285400708847334,8.608867795892651,675408338
sw,-50.5321922302246,-88.7196197509765,-35.357405180386124,-2.6600348981121957,675425005
sw,-49.9448699951171,-89.0689620971679,-32.34335637251773,-16.582389676288408,675441672
sw,-49.5536613464355,-89.4022598266601,-25.401344493456847,-33.28523115441247,675458339
sw,-49.4067878723144,-89.0656051635742,-14.76329348104074,-52.57343676771549,675475006
sw,-49.5227508544921,-88.2033309936523,-0.8766690439210675,-73.81734106361635,675491673
sw,-49.5763130187988,-86.7006912231445,15.44282929338863,-95.91266050350336,675508340
sw,-49.5915985107421,-84.8891372680664,32.945142416137436,-117.35261241706702,675525007
sw,-50.3841514587402,-82.725227355957,50.037977267270875,-136.42212924297334,675541674
sw,-51.9836387634277,-80.1346282958984,65.05109797033496,-151.48415726759004,675558341
sw,-53.9543838500976,-77.3085556030273,76.60367025791942,-161.29501098028925,675575008
sw,-55.5979690551757,-74.2992935180664,83.93784134772226,-165.26892317300042,675591675
sw,-56.6587181091308,-71.1603851318359,87.08369881081171,-163.61539317517384,675608342
sw,-57.7372436523437,-68.6660614013671,86.802080319588,-157.30097640419217,675625009
sw,-59.1404724121093,-66.7198486328125,84.35470018705725,-147.83942529686783,675641676
sw,-60.7074584960937,-64.6692733764648,81.20225188331142,-136.97409397214795,675658343
sw,-62.1102294921875,-62.5542526245117,78.71215936379386,-126.35084143953506,675675010
sw,-63.2991485595703,-60.5181732177734,77.91349282578803,-117.26328236190719,675691677
sw,-64.4358749389648,-58.5134124755859,79.31722950331569,-110.49830297746617,675708344
sw,-65.6511764526367,-56.7006301879882,82.82976306553981,-106.2610416756301,675725011
sw,-66.9179153442382,-55.0701026916503,87.79411627719256,-104.14689573336237,675741678
sw,-68.5535812377929,-53.5076332092285,93.17018371127797,-103.15133403932894,675758345
sw,-70.8055877685546,-52.0331153869628,97.81506402223562,-101.74087765320569,675775012
sw,-72.9803237915039,-50.4972763061523,100.7739965354122,-98.02383455478434,675791679
sw,-74.5163650512695,-49.0388870239257,101.47780895280994,-90.0444349757106,675808346
sw,-75.6511764526367,-47.8141708374023,99.78604561578047,-76.18433491353143,675825013
sw,-76.6131820678711,-46.9101982116699,95.89639307370422,-55.60828805026687,675841680
sw,-77.6234436035156,-46.2118301391601,90.20375470544118,-28.653098370039874,675858347
sw,-78.6319503784179,-45.8979911804199,83.1912372927893,2.959498851519028,675875014
sw,-79.324104309082,-45.89448928833,75.37948242400444,36.197324709366306,675891681
sw,-79.4879379272461,-46.9194107055664,67.30139154301403,67.14448264739697,675908348
sw,-79.3320007324218,-48.8306236267089,59.45209391118323,91.75172210986568,675925015
sw,-79.3421249389648,-51.2164916992187,52.19519334767372,106.75763126582159,675941682
sw,-79.7283172607421,-54.0223045349121,45.65508429963308,110.52422174454115,675958349
sw,-80.3198852539062,-56.1356010437011,39.65273672265462,103.50994830208599,675975016
sw,-80.8851242065429,-57.7897796630859,33.730467994564634,88.19673249545549,675991683
sw,-81.3328170776367,-58.4925994873046,27.26848951138796,68.46977007332482,676008350
sw,-81.5165481567382,-58.1715469360351,19.64774529821475,48.64778148402483,676025017
sw,-81.332405090332,-57.9346847534179,10.38886422794757,32.48947056450983,676041684
sw,-80.8520050048828,-58.4450874328613,-0.7859330458826664,22.493292816357055,676058351
sw,-80.3097991943359,-59.7523384094238,-13.970907006597066,19.656189896695306,676075018
sw,-79.8953170776367,-60.7390556335449,-29.1288867456084,23.641210285830383,676091685
sw,-79.697021484375,-61.0415115356445,-46.11875096914182,33.15325186865979,676108352
sw,-79.7148361206054,-61.8407707214355,-64.66922460950718,46.31904232253913,676125019
sw,-79.6880569458007,-62.7827224731445,-84.31516851809786,60.97731483407866,676141686
sw,-79.415786743164,-63.8058853149414,-104.34078179588569,74.90037165878134,676158353
sw,-78.8411102294921,-65.3309860229492,-123.77385864435772,86.01298323416898,676175020
sw,-77.8777770996093,-67.0608444213867,-141.45635819533086,92.64743051822914,676191687
sw,-76.4165344238281,-68.9412765502929,-156.1910666790945,93.81295395383307,676208354
sw,-74.2371063232421,-70.7679672241211,-166.93670224959155,89.40495521574483,676225021
sw,-71.5433197021484,-72.3173370361328,-172.9993683960515,80.26442188057733,676241688
sw,-68.9198303222656,-73.4810333251953,-174.15928030869392,68.03157824763862,676258355
sw,-66.4151229858398,-74.1824417114257,-170.69126003963163,54.80521916798813,676275022
sw,-63.9300918579101,-74.5957107543945,-163.28189172123137,42.68996949962799,676291689
sw,-61.4016990661621,-75.0088958740234,-152.88789311235058,33.35624652029607,676308356
sw,-58.9030799865722,-75.4327316284179,-140.5888374235421,27.73339885433642,676325023
sw,-56.6449851989746,-75.8502349853515,-127.46045668214754,25.909006851961713,676341690
sw,-54.5963439941406,-76.4249801635742,-114.46055732731477,27.239772347172643,676358357
sw,-52.8455657958984,-77.1786651611328,-102.30825629757244,30.618753373798402,676375024
sw,-51.4030799865722,-78.009407043457,-91.35582126174013,34.80691565446206,676391691
sw,-50.214126586914,-78.7614440917968,-81.48521796022456,38.73082569919034,676408358
sw,-49.204734802246,-79.3523635864257,-72.08541705120098,41.67326948685893,676425025
sw,-48.3374404907226,-79.9159545898437,-62.163712074214764,43.330684032184955,676441692
sw,-47.4705467224121,-80.5632934570312,-50.60887512269392,43.759691002378226,676458359
sw,-46.6444244384765,-81.3100204467773,-36.56510848381227,43.26215621949948,676475026
sw,-46.0268440246582,-82.1259078979492,-19.81606435046395,42.25605695920029,676491693
sw,-45.6847991943359,-82.9045867919921,-1.0459829828707834,41.15963606938135,676508360
sw,-45.8578643798828,-83.5384368896484,18.13862398860247,40.29855874860729,676525027
sw,-46.4913139343261,-84.1338195800781,35.47635149760795,39.84127253169847,676541694
sw,-47.6091842651367,-84.7903060913086,48.559800164725736,39.772080031099684,676558361
sw,-49.0669517517089,-85.4859008789062,55.446366879976026,39.91182282109438,676575028
sw,-50.5454292297363,-86.1739807128906,55.18114994204116,39.985536199315874,676591695
sw,-51.5334815979003,-86.9216537475586,48.05939702446062,39.71981587430737,676608362
sw,-51.7906761169433,-87.6880187988281,35.5422902658298,38.93956227353472,676625029
sw,-52.0085639953613,-88.3577728271484,19.86477994911799,37.62980378583585,676641696
sw,-51.703197479248,-88.9518966674804,3.482230606551524,35.934459664792435,676658363
sw,-51.2991752624511,-89.2386932373046,-11.454697818631328,34.079768727970645,676675030
sw,-50.8581771850585,-89.1192932128906,-23.44087871122528,32.23412229458258,676691697
sw,-50.2519760131835,-89.0014266967773,-31.700822403838014,30.343927759755307,676708364
sw,-49.8922996520996,-88.8611679077148,-36.04055859976333,28.007686353683397,676725031
sw,-49.9908485412597,-88.5986328125,-36.57162677275102,24.45364350606897,676741698
sw,-49.8264617919921,-88.3291854858398,-33.45082617058987,18.659982878840566,676758365
sw,-49.0247230529785,-88.0660934448242,-26.75949152034979,9.606135511062009,676775032
sw,-48.4967575073242,-87.7890167236328,-16.566555427154114,-3.410161805114993,676791699
sw,-48.5325851440429,-87.6300811767578,-3.118831139080554,-20.490532841855433,676808366
sw,-48.7838172912597,-87.9609756469726,12.959612258899973,-40.98974299194866,676825033
sw,-49.0925178527832,-88.5606002807617,30.570585512130904,-63.56775633137034,676841700
sw,-49.7275085449218,-88.1998443603515,48.20795644617594,-86.43290760553995,676858367
sw,-50.9403190612793,-86.6502838134765,64.18694611229401,-107.6998325206724,676875034
sw,-52.7190361022949,-84.5742568969726,76.97921380491441,-125.75121086665607,676891701
sw,-54.6934623718261,-82.1025085449218,85.54878640460002,-139.50479808906465,676908368
sw,-56.1708908081054,-79.642578125,89.57057283870782,-148.5312249775354,676925035
sw,-57.1720428466796,-77.0897064208984,89.45791988385194,-153.0192312548557,676941702
sw,-58.267723083496,-74.5416717529296,86.21264590704743,-153.6261111855443,676958369
sw,-59.6746749877929,-71.9996871948242,81.18248509577023,-151.27301754098158,676975036
sw,-61.1313552856445,-69.8464889526367,75.81715737420309,-146.9453208912702,676991703
sw,-62.453514099121,-67.7259445190429,71.46398309223851,-141.54320439329064,677008370
sw,-63.6129760742187,-65.3988876342773,69.19316732822767,-135.80407644754095,677025037
sw,-64.6404495239257,-63.0408172607421,69.63579951639943,-130.2886285766407,677041704
sw,-65.6422119140625,-60.7830963134765,72.84966552884426,-125.39275593503162,677058371
sw,-66.6264724731445,-58.829490661621,78.26288951207205,-121.33574573904795,677075038
sw,-67.7978515625,-56.9928436279296,84.75107832915732,-118.09575071976951,677091705
sw,-69.5840530395507,-55.1934432983398,90.8689561628205,-115.30806500955765,677108372
sw,-71.7229461669921,-53.5476188659668,95.19331992878563,-112.18239972573237,677125039
sw,-73.5815048217773,-51.9722023010253,96.67272859938099,-107.50871557164119,677141706
sw,-74.9569320678711,-50.3833885192871,94.8628811687911,-99.80176902786478,677158373
sw,-76.0433120727539,-48.804588317871,89.9744562907562,-87.59070005655924,677175040
sw,-76.9441452026367,-47.641300201416,82.74357917762487,-69.8070952799005,677191707
sw,-77.6784057617187,-46.8872566223144,74.19919482217827,-46.1822564064624,677208374
sw,-78.1161346435546,-46.4986381530761,65.41492542678601,-17.54641997695599,677225041
sw,-78.3285522460937,-46.3721466064453,57.306585079805565,14.070033185603247,677241708
sw,-78.4194259643554,-46.6644248962402,50.50017195318455,45.60723580109276,677258375
sw,-78.4265365600586,-47.864517211914,45.26910851386992,73.44447919843203,677275042
sw,-78.5233154296875,-49.8172950744628,41.52898585388393,94.11415780391401,677291709
sw,-78.8662414550781,-52.2310752868652,38.87951982074076,105.1081999924753,677308376
sw,-79.419204711914,-54.711441040039,36.688062965628156,105.54651128197071,677325043
sw,-80.0081787109375,-56.6391792297363,34.20703201911597,96.47616325448752,677341710
sw,-80.4698257446289,-58.204174041748,30.70611617798967,80.66883931082324,677358377
sw,-80.6926040649414,-58.5513687133789,25.58711041980292,61.95325754276642,677375044
sw,-80.6153564453125,-58.2575035095214,18.44802810551375,44.29164501892171,677391711
sw,-80.2974472045898,-58.2017974853515,9.081676580477792,30.906929998926522,677408378
sw,-79.8568954467773,-58.8990974426269,-2.5738669554458813,23.7330879995636,677425045
sw,-79.4853439331054,-60.4825820922851,-16.488661548179515,23.29957850429245,677441712
sw,-79.3125686645507,-61.1502342224121,-32.55305968375817,28.961091395879368,677458379
sw,-79.3743667602539,-61.5057029724121,-50.5330096752293,39.27101918057461,677475046
sw,-79.6054306030273,-62.5170783996582,-69.99392345165104,52.32818175250371,677491713
sw,-79.6794204711914,-63.5041198730468,-90.24206339193307,66.04077477385881,677508380
sw,-79.4432983398437,-64.6359176635742,-110.32519599764211,78.34268037544511,677525047
sw,-78.8390197753906,-66.2376174926757,-129.10845526035192,87.4146041269413,677541714
sw,-77.7745666503906,-67.9888763427734,-145.41623490269362,91.9253421463462,677558381
sw,-76.1328506469726,-69.8178634643554,-158.21287393627367,91.25637867429869,677575048
sw,-73.8019943237304,-71.5003280639648,-166.78064245851533,85.63785720251954,677591715
sw,-71.1774215698242,-72.91259765625,-170.84511547944186,76.12656335943345,677608382
sw,-68.6564331054687,-73.9497604370117,-170.60596290906494,64.39879337791218,677625049
sw,-66.1571884155273,-74.5668640136718,-166.66178981846207,52.39380235428807,677641716
sw,-63.546401977539,-75.0207290649414,-159.85868800595478,41.89874937277179,677658383
sw,-60.9801750183105,-75.5126266479492,-151.11694428936423,34.18956656883565,677675050
sw,-58.5771446228027,-75.9984741210937,-141.28280403842214,29.823440814380604,677691717
sw,-56.3096809387207,-76.4876022338867,-131.02352731248612,28.62654688520303,677708384
sw,-54.1311988830566,-77.1067657470703,-120.75899194077255,29.858962179325218,677725051
sw,-52.2346649169921,-77.9027633666992,-110.61649299189897,32.49033752519977,677741718
sw,-50.6552276611328,-78.6973037719726,-100.40624080062179,35.496739397181145,677758385
sw,-49.2892150878906,-79.3654632568359,-89.63405386300447,38.094309234227666,677775052
sw,-48.0978622436523,-79.8885498046875,-77.5812327896123,39.85711613759104,677791719
sw,-47.1357040405273,-80.3754272460937,-63.47579002515578,40.713847047341375,677808386
sw,-46.3361091613769,-80.9642791748046,-46.749568997711066,40.859751394713896,677825053
sw,-45.722900390625,-81.6998443603515,-27.33215019801514,40.63683335273231,677841720
sw,-45.3598937988281,-82.5097274780273,-5.893638149217106,40.422992923369506,677858387
sw,-45.283031463623,-83.2825317382812,16.066072880499622,40.54475683659464,677875054
sw,-45.7670135498046,-83.9833450317382,36.35987765023963,41.20985552643613,677891721
sw,-46.8814888000488,-84.6172637939453,52.50078079387708,42.45624572968854,677908388
sw,-48.4142265319824,-85.2256240844726,62.2562658730137,44.1269388090369,677925055
sw,-50.0392112731933,-85.9022216796875,64.21264641742785,45.88886926062149,677941722
sw,-51.3833656311035,-86.7872772216796,58.166760504345746,47.30644825313565,677958389
sw,-51.8304901123046,-87.7373046875,45.21283386695434,47.956855021979024,677975056
sw,-52.3688087463378,-88.4609985351562,27.500422247371944,47.54819552109562,677991723
sw,-52.3996200561523,-88.8170089721679,7.752727095813753,45.99120255028132,678008390
sw,-51.916706085205,-88.5920867919921,-11.297830146319413,43.38858749525308,678025057
sw,-51.2516784667968,-88.1076278686523,-27.394956366791426,39.936797959267864,678041724
sw,-50.4161033630371,-87.7635803222656,-39.04625163180733,35.769242035210404,678058391
sw,-49.6463813781738,-87.5250473022461,-45.566340750922784,30.797259651867137,678075058
sw,-49.4348335266113,-87.3270263671875,-46.91116072424604,24.61675030781378,678091725
sw,-49.2071456909179,-87.2292175292968,-43.41031949054357,16.536469344607728,678108392
sw,-48.4766769409179,-87.1606903076171,-35.53243049832146,5.747217998987498,678125059
sw,-47.9954643249511,-87.0013427734375,-23.782491345368342,-8.401129143771948,678141726
sw,-48.0406074523925,-86.8229446411132,-8.747292474341888,-26.09887529602691,678158393
sw,-48.1321334838867,-87.0057907104492,8.775305685279937,-46.86473642558428,678175060
sw,-48.2500877380371,-87.6365356445312,27.664157172832496,-69.51993162906165,678191727
sw,-48.7915802001953,-87.7162170410156,46.47090871255998,-92.37859481665163,678208394
sw,-50.0062522888183,-86.4743576049804,63.57234879174805,-113.59550366948761,678225061
sw,-51.7784233093261,-84.4691619873046,77.4585556496701,-131.54957463457743,678241728
sw,-53.8531837463378,-82.0066452026367,87.06256824591358,-145.139036392545,678258395
sw,-55.4657554626464,-79.4266128540039,92.00035601557552,-153.91317764509412,678275062
sw,-56.5680618286132,-76.7707443237304,92.62428595507505,-158.03190090235694,678291729
sw,-57.6097908020019,-74.2114562988281,89.88520540647004,-158.09850765749314,678308396
sw,-59.0218162536621,-71.7592468261718,85.08504467101655,-154.94007433261825,678325063
sw,-60.612621307373,-69.5874404907226,79.62304069320308,-149.41175422021925,678341730
sw,-61.995864868164,-67.3821945190429,74.79188173585656,-142.28011845466335,678358397
sw,-63.1894950866699,-65.0456390380859,71.62004118122248,-134.20255326025594,678375064
sw,-64.2496185302734,-62.7176475524902,70.73704340659016,-125.77461537095152,678391731
sw,-65.2265930175781,-60.6190147399902,72.26414585731975,-117.5824830271495,678408398
sw,-66.1703643798828,-58.8592910766601,75.76905041803323,-110.19414698949701,678425065
sw,-67.2893676757812,-57.3892784118652,80.33430008896944,-104.05815424174324,678441732
sw,-68.9438323974609,-55.8675498962402,84.76100035902799,-99.33395369407584,678458399
sw,-70.8715209960937,-54.192626953125,87.87157366850636,-95.72030916768244,678475066
sw,-72.4920196533203,-52.8505935668945,88.81774181731903,-92.35820695626803,678491733
sw,-73.7954406738281,-51.8859405517578,87.2825244512131,-87.86899621561395,678508400
sw,-74.8501968383789,-50.8017883300781,83.50639851513718,-80.56242239620914,678525067
sw,-75.7169494628906,-49.5416107177734,78.1442297085018,-68.81188165522619,678541734
sw,-76.4316177368164,-48.3937835693359,72.02441506167217,-51.53659442479364,678558401
sw,-76.9314804077148,-47.7622985839843,65.90462673327197,-28.66596657736677,678575068
sw,-77.3200302124023,-47.442569732666,60.3011636747463,-1.42820501790907,678591735
sw,-77.68505859375,-47.514850616455,55.429517229897236,27.6691391146841,678608402
sw,-78.0007019042968,-48.5396156311035,51.25016267049999,55.21971965987258,678625069
sw,-78.2985305786132,-50.1776161193847,47.579203675662804,77.60524429309598,678641736
sw,-78.6584930419921,-52.1847229003906,44.20844974764685,91.82850369483623,678658403
sw,-79.0673675537109,-54.2841186523437,40.98738648980196,96.26629864611648,678675070
sw,-79.5096817016601,-55.9435844421386,37.843615794789685,91.12089475028681,678691737
sw,-79.906867980957,-57.5813179016113,34.7450551024833,78.42816154476156,678708404
sw,-80.217170715332,-58.9341316223144,31.62482219958626,61.60489377263809,678725071
sw,-80.3794174194336,-59.1462478637695,28.295741049914085,44.64746063476064,678741738
sw,-80.4171752929687,-58.7298126220703,24.381738600939848,31.200067034645315,678758405
sw,-80.3742065429687,-58.4483413696289,19.293934169777327,23.765743524931324,678775072
sw,-80.2530899047851,-58.8256454467773,12.277721956857887,23.297951980698652,678791739
sw,-80.1379928588867,-60.3648452758789,2.545244653942107,29.267527456524412,678808406
sw,-80.1405715942382,-61.9292526245117,-10.519632861154125,40.10169949160629,678825073
sw,-80.2942886352539,-62.7280693054199,-27.133477431319708,53.75254212659597,678841740
sw,-80.6427917480468,-63.6730270385742,-46.940525790478645,68.15789238207914,678858407
sw,-80.9896697998046,-64.9051055908203,-68.97099375218994,81.48855482348691,678875074
sw,-81.0776443481445,-66.1609420776367,-91.76530105767091,92.22400592390555,678891741
sw,-80.8156280517578,-67.8025207519531,-113.6356665659706,99.16987492056641,678908408
sw,-80.066177368164,-69.6483535766601,-132.98472543279695,101.50906737081239,678925075
sw,-78.771125793457,-71.5045852661132,-148.58627791094474,98.90811794157369,678941742
sw,-76.9179611206054,-73.2432479858398,-159.75676697479796,91.63270970716933,678958409
sw,-74.5252990722656,-74.8314361572265,-166.38869686902777,80.5948535795043,678975076
sw,-72.0038223266601,-76.0509719848632,-168.8585167879226,67.26848501488357,678991743
sw,-69.5925216674804,-76.7858428955078,-167.85194409816415,53.45852425044309,679008410
sw,-67.03125,-77.2813186645507,-164.1669701580934,40.96770881147462,679025077
sw,-64.2553024291992,-77.6967697143554,-158.55345939263134,31.2501367427998,679041744
sw,-61.5074882507324,-78.0318069458007,-151.62270223413176,25.150368831356992,679058411
sw,-58.9584922790527,-78.4001083374023,-143.82009116338492,22.79816049259452,679075078
sw,-56.5957412719726,-78.8867034912109,-135.42486212603112,23.67631356896129,679091745
sw,-54.4500350952148,-79.5814437866211,-126.54165715260105,26.8253812456435,679108412
sw,-52.5334205627441,-80.3202133178711,-117.07476674574704,31.112598197026017,679125079
sw,-50.8786697387695,-80.9127197265625,-106.70696779951199,35.48479034452334,679141746
sw,-49.4124031066894,-81.4340438842773,-94.92268130445551,39.14767422736099,679158413
sw,-48.1314010620117,-82.1293411254882,-81.11109697442599,41.65304884441981,679175080
sw,-47.0751228332519,-83.0289459228515,-64.7591618788049,42.90626405892195,679191747
sw,-46.2587394714355,-83.9060974121093,-45.70509813587062,43.11380288691165,679208414
sw,-45.6951904296875,-84.5977096557617,-24.38456791593006,42.6839793250816,679225081
sw,-45.3757286071777,-85.1600189208984,-1.9789187464185882,42.09381025599108,679241748
sw,-45.4302787780761,-85.7531509399414,19.619948762313637,41.748763672970114,679258415
sw,-46.0914916992187,-86.4335556030273,38.073979174055026,41.874333320907986,679275082
sw,-47.209243774414,-87.1398773193359,51.06743469900019,42.47214369502862,679291749
sw,-48.6386489868164,-87.850601196289,56.8712311102859,43.34881203536832,679308416
sw,-50.1016159057617,-88.5181350708007,54.8352975040923,44.19819993963524,679325083
sw,-51.1090545654296,-88.9137573242187,45.639553444989005,44.70115551556396,679341750
sw,-51.5916099548339,-88.85791015625,31.202113060122564,44.605502743889424,679358417
sw,-51.7133178710937,-88.3242721557617,14.258161523995074,43.75899827982803,679375084
sw,-51.1325378417968,-87.5851593017578,-2.2631067520939823,42.08336178673491,679391751
sw,-50.6608848571777,-87.0108261108398,-15.871033226633006,39.495662918103115,679408418
sw,-50.2255325317382,-86.6707534790039,-24.971470301329983,35.80514255096413,679425085
sw,-49.5633163452148,-86.3990783691406,-29.039513751976937,30.635063937024814,679441752
sw,-49.4746704101562,-86.0447311401367,-28.499616013264834,23.425502491378516,679458419
sw,-49.46630859375,-85.693115234375,-24.396731908816946,13.548682168214002,679475086
sw,-49.1026268005371,-85.5125350952148,-17.990767680322648,0.5173733089083483,679491753
sw,-48.8613204956054,-85.5335006713867,-10.402203536534017,-15.784651276999499,679508420
sw,-49.1349182128906,-85.8432006835937,-2.391727879335531,-34.94352116100246,679525087
sw,-49.5494079589843,-86.6746292114257,5.698037341796186,-56.001588997968206,679541754
sw,-49.8383903503418,-88.152099609375,13.852394683951488,-77.60953430401275,679558421
sw,-49.8183822631835,-90.0,22.193038489984158,-98.29795303904508,679575088
sw,-49.9325981140136,-87.7770080566406,30.765108004415595,-116.77203261984108,679591755
sw,-50.6940383911132,-85.6126937866211,39.39649453732628,-132.1263237631903,679608422
sw,-51.9005966186523,-83.3279418945312,47.68964114015938,-143.91925596693488,679625089
sw,-53.1392784118652,-81.0297698974609,55.13350987119133,-152.11427566519902,679641756
sw,-54.1424903869628,-78.4331970214843,61.26192798215618,-156.94722202098717,679658423
sw,-55.0042877197265,-75.7476654052734,65.77923695492004,-158.79223949926023,679675090
sw,-56.0215759277343,-73.0791244506836,68.61911404054811,-158.07397730297,679691757
sw,-57.2255363464355,-70.6112747192382,69.95022352191074,-155.23584067548953,679708424
sw,-58.4927291870117,-68.1731643676757,70.15487116341482,-150.74647214545828,679725091
sw,-59.7312088012695,-65.6518096923828,69.78813550712417,-145.11606627641876,679741758
sw,-60.8841896057128,-63.1552429199218,69.50640791939838,-138.89245713493804,679758425
sw,-61.9660720825195,-60.9079246520996,69.958047325191,-132.60924950770652,679775092
sw,-63.1476821899414,-58.8424987792968,71.65045680924088,-126.67115309734913,679791759
sw,-64.3971481323242,-56.8711128234863,74.82756106357637,-121.19058492949948,679808426
sw,-65.7213134765625,-55.0704917907714,79.39467074434413,-115.82571511091093,679825093
sw,-67.2045059204101,-53.6219406127929,84.91360685367546,-109.69578202784034,679841760
sw,-68.8125305175781,-52.3777656555175,90.66896434979189,-101.45064374758016,679858427
sw,-70.4006423950195,-50.8305625915527,95.78726338136762,-89.53966833137235,679875094
sw,-71.8806915283203,-49.321434020996,99.38230282774784,-72.65811655314081,679891761
sw,-73.3261489868164,-48.1601409912109,100.70363128960047,-50.264113125945514,679908428
sw,-74.7732162475586,-47.4986839294433,99.27248210948645,-22.99682628730139,679925095
sw,-76.2056198120117,-47.2921485900878,94.98883967628855,7.174230122920912,679941762
sw,-77.4311447143554,-47.727725982666,88.18271363602798,37.17105328941112,679958429
sw,-78.1325149536132,-48.9038581848144,79.57653459250591,63.391417561302546,679975096
sw,-78.1493530273437,-50.7833366394043,70.1421734191657,82.52767662345343,679991763
sw,-77.9840240478515,-53.039867401123,60.876964756590496,92.39924480659056,680008430
sw,-78.1600265502929,-55.2141418457031,52.5647735321259,92.54567322509017,680025097
sw,-78.6389083862304,-56.519229888916,45.59977927861337,84.38128371801314,680041764
sw,-79.2572860717773,-57.775634765625,39.923253610794255,70.84631344450231,680058431
sw,-79.8743209838867,-58.4378776550293,35.07668176268747,55.655291603400336,680075098
sw,-80.3126602172851,-58.3450126647949,30.33475499381422,42.375224869311445,680091765
sw,-80.4829940795898,-58.0874671936035,24.864299205648052,33.61839380564778,680108432
sw,-80.4087219238281,-58.3133544921875,17.863697854056166,30.591209986295155,680125099
sw,-80.1922378540039,-59.6847763061523,8.66542811330718,33.10649945255328,680141766
sw,-79.9609146118164,-61.5696830749511,-3.1860905054378477,39.980414639715825,680158433
sw,-79.755989074707,-62.4490432739257,-17.85989677300961,49.58456573775819,680175100
sw,-79.6544418334961,-63.1701850891113,-35.164671833681965,60.30133647257137,680191767
sw,-79.7154083251953,-64.314956665039,-54.50385289327587,70.74660582830336,680208434
sw,-79.7873229980468,-65.4033966064453,-74.9008618326224,79.78662518863668,680225101
sw,-79.6557464599609,-66.6551895141601,-95.11586453507944,86.4745512248319,680241768
sw,-79.2471923828125,-68.1896209716796,-113.83547985463711,90.03045880541532,680258435
sw,-78.5169296264648,-69.9960174560546,-129.88407636011894,89.92004650326818,680275102
sw,-77.4216232299804,-71.7640762329101,-142.39884816332065,86.00238477762181,680291769
sw,-75.9169082641601,-73.2915878295898,-150.92959171877843,78.65845586970815,680308436
sw,-73.8251342773437,-74.5132598876953,-155.45181498843888,68.80772237785813,680325103
sw,-71.5645065307617,-75.3501205444336,-156.3032815100245,57.76948659827189,680341770
sw,-69.4152374267578,-75.8930740356445,-154.06706031452086,46.99913268416851,680358437
sw,-67.0956573486328,-76.3200988769531,-149.43384444785295,37.786096759830464,680375104
sw,-64.7089538574218,-76.8160095214843,-143.08053171605354,31.013743477711476,680391771
sw,-62.3892364501953,-77.4125595092773,-135.59151661575575,27.04908254230986,680408438
sw,-60.2143058776855,-78.0342788696289,-127.42476209023874,25.77298612655495,680425105
sw,-58.2323570251464,-78.6123886108398,-118.9029665809575,26.710188720577076,680441772
sw,-56.2664947509765,-79.1342697143554,-110.20553040436205,29.195985125564746,680458439
sw,-54.5596923828125,-79.7290573120117,-101.34877450963589,32.525782610035684,680475106
sw,-53.1838073730468,-80.3976821899414,-92.16088997100894,36.059419180471906,680491773
sw,-51.961326599121,-81.0448150634765,-82.27663501947856,39.27673698483074,680508440
sw,-50.9155654907226,-81.6586837768554,-71.18654625208588,41.7962376559106,680525107
sw,-50.0016937255859,-82.3343811035156,-58.366225957994075,43.37513116982247,680541774
sw,-49.2162933349609,-83.1508331298828,-43.480131485574745,43.90735025884861,680558441
sw,-48.6100463867187,-84.0149307250976,-26.61260556464444,43.425733991961266,680575108
sw,-48.2498512268066,-84.7990417480468,-8.446730287379756,42.10034473786538,680591775
sw,-48.215648651123,-85.5015487670898,9.69344222749591,40.217307632510376,680608442
sw,-48.6697044372558,-86.170654296875,25.99200569850246,38.128535543979325,680625109
sw,-49.4226951599121,-86.7526092529296,38.47771605501573,36.17823048515954,680641776
sw,-50.4619255065918,-87.2482147216796,45.47550479991141,34.626647196925134,680658443
sw,-51.5753326416015,-87.7994842529296,46.04866595551561,33.59694785328385,680675110
sw,-52.5552940368652,-88.4341506958007,40.29424131999031,33.064057374369035,680691777
sw,-53.211067199707,-89.0450973510742,29.388413388610346,32.88745493720025,680708444
sw,-53.3408851623535,-89.6063385009765,15.352388847200913,32.87066304052927,680725111
sw,-53.2228965759277,-89.5931396484375,0.599212367542232,32.81890938848854,680741778
sw,-52.5157089233398,-89.0816574096679,-12.603822610397769,32.56802113374786,680758445
sw,-51.9087142944335,-88.5034103393554,-22.593373462308577,31.96942016323574,680775112
sw,-51.5223083496093,-87.882339477539,-28.555165786468805,30.832573862137377,680791779
sw,-51.1282844543457,-87.4383773803711,-30.50220080102721,28.84379355185338,680808446
sw,-50.8281288146972,-87.2354431152343,-29.028840479734512,25.49701530593085,680825113
sw,-50.7955703735351,-87.0973434448242,-24.955514872723207,20.083446074870544,680841780
sw,-50.7439994812011,-86.978645324707,-19.000264814315482,11.781894179825787,680858447
sw,-50.4604530334472,-86.8356628417968,-11.583700028875196,-0.13982822325066097,680875114
sw,-50.1515274047851,-86.7267913818359,-2.8101548714928284,-16.0549333163462,680891781
sw,-50.4213066101074,-86.803840637207,7.401701497632534,-35.73146326895085,680908448
sw,-51.0577087402343,-87.3649291992187,19.109314052312303,-58.217844971667866,680925115
sw,-51.4300193786621,-88.3201904296875,32.13485582749347,-81.93182195904653,680941782
sw,-51.8029899597168,-87.9514923095703,45.91742267880679,-104.94611661245781,680958449
sw,-52.5984764099121,-86.0442886352539,59.48384427706962,-125.3816886377016,680975116
sw,-53.86763381958,-83.6799774169921,71.57366846733275,-141.77755317509786,680991783
sw,-55.7593421936035,-81.1116638183593,80.90455192795753,-153.32559374260634,681008450
sw,-57.6723747253418,-78.6486511230468,86.49739753403253,-159.92274215726528,681025117
sw,-59.0389060974121,-76.0432205200195,87.94301435750758,-162.06308447394483,681041784
sw,-60.0914230346679,-73.3013000488281,85.51890785920068,-160.63626988922462,681058451
sw,-61.2700538635253,-70.8301925659179,80.13874532879467,-156.70495399297081,681075118
sw,-62.598159790039,-68.5718765258789,73.18080766637307,-151.314114806288,681091785
sw,-63.8633956909179,-66.1386642456054,66.25444773916549,-145.35838952467952,681108452
sw,-64.9309921264648,-63.6347503662109,60.93912742617505,-139.50958455886877,681125119
sw,-65.7872695922851,-61.3233451843261,58.51371740894664,-134.18547800993255,681141786
sw,-66.5609741210937,-59.2057952880859,59.707242672648476,-129.52946918595188,681158453
sw,-67.3419723510742,-57.2259292602539,64.52865290183207,-125.37973841233976,681175120
sw,-68.2905120849609,-55.31441116333,72.23986954158156,-121.23368052486629,681191787
sw,-69.7641983032226,-53.4876518249511,81.50568556354173,-116.23918961791212,681208454
sw,-71.8483047485351,-51.6716690063476,90.69334493722667,-109.25162687351363,681225121
sw,-73.947883605957,-50.0731544494628,98.23221741830375,-98.98232724449461,681241788
sw,-75.5323333740234,-48.9457473754882,102.91822572763368,-84.2411632771887,681258455
sw,-76.8022842407226,-48.0337867736816,104.08129182782011,-64.2509242706887,681275122
sw,-77.9223403930664,-47.269187927246,101.60703505131838,-38.98466200665566,681291789
sw,-79.0930786132812,-46.7856407165527,95.86235023105387,-9.44439843092859,681308456
sw,-80.1348648071289,-46.5283546447753,87.57944330241587,22.230579616114184,681325123
sw,-80.6208114624023,-47.0346031188964,77.7173430903739,52.93690068842402,681341790
sw,-80.5583953857421,-48.5049934387207,67.29134507599477,79.11242629119674,681358457
sw,-80.4875869750976,-50.6226501464843,57.17153862153189,97.5054502650507,681375124
sw,-80.7969207763671,-53.2661056518554,47.88896068105335,106.00729604597485,681391791
sw,-81.4353103637695,-55.7640037536621,39.512159353098475,104.27282674280904,681408458
sw,-82.1410751342773,-57.5151062011718,31.642823413211797,93.88937746291523,681425125
sw,-82.761962890625,-58.6445579528808,23.535923557608513,78.00316056013838,681441792
sw,-83.1894912719726,-58.5408477783203,14.304555938039236,60.516532341874054,681458459
sw,-83.3494644165039,-58.3446655273437,3.1436584464633848,45.13736125845461,681475126
sw,-83.3223342895507,-58.8459396362304,-10.49085665644836,34.60571696727504,681491793
sw,-83.2826232910156,-60.7046737670898,-26.78244416992068,30.310615705822368,681508460
sw,-83.3349685668945,-61.8914604187011,-45.53016671398796,32.30354130086367,681525127
sw,-83.4539566040039,-61.8551025390625,-66.17351763639326,39.55417185160647,681541794
sw,-83.386604309082,-62.3140296936035,-87.84183211432654,50.280657038048396,681558461
sw,-82.8979797363281,-63.7060546875,-109.4223339892121,62.286251217753495,681575128
sw,-81.9294891357421,-65.2581024169921,-129.65283883780384,73.31505278698526,681591795
sw,-80.3903121948242,-66.9963836669921,-147.24486979915167,81.42798595224438,681608462
sw,-78.2127227783203,-68.6807708740234,-161.03600866472223,85.34119152427256,681625129
sw,-75.4240036010742,-70.1402282714843,-170.15767293944572,84.64052007279328,681641796
sw,-72.1607589721679,-71.5850830078125,-174.18504264737763,79.81025488305467,681658463
sw,-69.2674102783203,-72.8690185546875,-173.22106782010118,72.06597284487722,681675130
sw,-66.8915100097656,-73.7075424194336,-167.87708406212454,63.033409529752504,681691797
sw,-64.4671936035156,-74.1899719238281,-159.15274969246332,54.35598755943426,681708464
sw,-61.8538513183593,-74.7057189941406,-148.2595275606615,47.336239960007674,681725131
sw,-59.3709640502929,-75.4687118530273,-136.43856536318413,42.70768462604063,681741798
sw,-57.0859832763671,-76.3263549804687,-124.7945050538814,40.58643547832472,681758465
sw,-55.3180694580078,-77.094985961914,-114.13880306905526,40.58400523540498,681775132
sw,-53.7025642395019,-77.835578918457,-104.841236608934,42.01171062915469,681791799
sw,-52.2110366821289,-78.597785949707,-96.71902584701454,44.09722150434089,681808466
sw,-50.8702087402343,-79.4483108520507,-89.0171112225259,46.157131459193145,681825133
sw,-49.7270545959472,-80.3055801391601,-80.52809532107217,47.70086085247491,681841800
sw,-48.7530136108398,-81.0361022949218,-69.86734564680619,48.46486509684451,681858467
sw,-47.8132286071777,-81.663818359375,-55.87036562766069,48.39202421385018,681875134
sw,-46.85542678833,-82.3608016967773,-38.02739313332667,47.58201516980989,681891801
sw,-46.1670265197753,-83.2178268432617,-16.828286704413582,46.239793345191615,681908468
sw,-45.9127693176269,-84.1250381469726,6.1182837651829125,44.635865026584824,681925135
sw,-46.4310989379882,-84.8855743408203,28.281917706316033,43.07128031859013,681941802
sw,-47.6051902770996,-85.4889450073242,46.71566880343056,41.830569532993614,681958469
sw,-49.0526847839355,-86.0305938720703,58.7442057469628,41.11760933678097,681975136
sw,-50.7258911132812,-86.5338363647461,62.62901788329179,40.992046546257775,681991803
sw,-52.05615234375,-87.0639495849609,58.00175814111606,41.33592210254199,682008470
sw,-52.539207458496,-87.6822662353515,45.93628674901341,41.87012113879738,682025137
sw,-52.8076820373535,-88.1292648315429,28.657222334566644,42.21541476770627,682041804
sw,-53.2190933227539,-88.2026748657226,9.000507241811137,41.97041256209708,682058471
sw,-52.6724853515625,-87.8567962646484,-10.198753958198912,40.77218079903332,682075138
sw,-51.958683013916,-87.2782516479492,-26.623389444468717,38.31572432922767,682091805
sw,-51.2481002807617,-86.7426147460937,-38.77889742411978,34.32756686643283,682108472
sw,-50.4540748596191,-86.5054779052734,-46.03925817840599,28.5091994842445,682125139
sw,-50.0528030395507,-86.4896087646484,-48.467141478133755,20.486047150836168,682141806
sw,-49.7055053710937,-86.4843139648437,-46.51219680062274,9.810355490117015,682158473
sw,-49.1085891723632,-86.4246215820312,-40.722666346513826,-3.942935188530679,682175140
sw,-48.563232421875,-86.3677291870117,-31.580731001408832,-20.988515244877036,682191807
sw,-48.520278930664,-86.4563598632812,-19.50312654774415,-41.109406238038225,682208474
sw,-48.495018005371,-86.7616653442382,-4.971727773275185,-63.50067806542285,682225141
sw,-48.3522109985351,-87.1217956542968,11.293888274988424,-86.7705057193318,682241808
sw,-48.3827629089355,-86.457290649414,28.228265293433772,-109.13237628228069,682258475
sw,-49.1003189086914,-84.871109008789,44.46493898603728,-128.7396989732502,682275142
sw,-50.4997749328613,-82.7237701416015,58.56343769524464,-144.05501633994515,682291809
sw,-52.3243331909179,-80.2581405639648,69.35668715042509,-154.14220250857414,682308476
sw,-53.9338455200195,-77.6419525146484,76.28125159683388,-158.81247983198395,682325143
sw,-55.0604553222656,-74.8655395507812,79.54690927337714,-158.6085984898677,682341810
sw,-56.0047416687011,-72.1253662109375,80.07761776423335,-154.649667951674,682358477
sw,-57.196979522705,-70.0279006958007,79.2628117466851,-148.3799950680784,682375144
sw,-58.6379241943359,-68.0217666625976,78.62451893001567,-141.27918309531174,682391811
sw,-60.1051750183105,-65.8989486694336,79.50033406654781,-134.59890944283984,682408478
sw,-61.5302581787109,-63.6891593933105,82.79406560828289,-129.18141776173164,682425145
sw,-62.9397850036621,-61.3739166259765,88.80688484518016,-125.37969868099452,682441812
sw,-64.3877792358398,-59.366153717041,97.15650303253666,-123.05868005208568,682458479
sw,-65.9543914794921,-57.4876556396484,106.8054640816535,-121.6400868327203,682475146
sw,-67.761962890625,-55.5856857299804,116.22280417867282,-120.16962012498728,682491813
sw,-70.036392211914,-53.7363739013671,123.67848100014031,-117.41342560706067,682508480
sw,-72.7189636230468,-52.0116729736328,127.62110988784406,-112.00455976489891,682525147
sw,-75.1063003540039,-50.2258644104003,127.04132223819263,-102.64945458418428,682541814
sw,-76.8785095214843,-48.618911743164,121.70944932022809,-88.37829320108521,682558481
sw,-78.2345657348632,-47.6140174865722,112.21475488137679,-68.79797354708641,682575148
sw,-79.3561935424804,-47.022590637207,99.80413609754675,-44.29472156319976,682591815
sw,-80.1141967773437,-46.5861930847168,86.07846384061928,-16.136058169567605,682608482
sw,-80.3005676269531,-46.3273239135742,72.62970180173613,13.57203495282657,682625149
sw,-80.1628723144531,-46.9090194702148,60.700630946593186,42.11015530606674,682641816
sw,-80.0615997314453,-48.1124763488769,50.939180104272836,66.56466550280437,682658483
sw,-80.2210693359375,-49.8094596862793,43.302018394193134,84.39240689444074,682675150
sw,-80.6223526000976,-51.9200859069824,37.12849417225287,94.00442576382022,682691817
sw,-81.2091598510742,-54.1243476867675,31.35907380003215,95.19304615986843,682708484
sw,-81.9433670043945,-55.697769165039,24.830041362593427,89.2443415493541,682725151
sw,-82.6205215454101,-56.8678283691406,16.55695608702894,78.66779651806118,682741818
sw,-82.9895553588867,-57.6243858337402,5.930364213694575,66.6059462107795,682758485
sw,-83.0053482055664,-57.8728904724121,-7.216985701492446,56.103193959671785,682775152
sw,-82.7273254394531,-58.3989448547363,-22.664903077927406,49.45895247178104,682791819
sw,-82.2959213256836,-59.8132781982421,-39.93378483102375,47.84062027262647,682808486
sw,-81.8723526000976,-61.153450012207,-58.41745755279405,51.21205890478003,682825153
sw,-81.5121994018554,-61.8905563354492,-77.46592099966405,58.51374613203147,682841820
sw,-81.0730209350586,-62.9801292419433,-96.40280723664331,67.98191844207207,682858487
sw,-80.4927062988281,-64.4329681396484,-114.50385820753833,77.52298132045091,682875154
sw,-79.6117553710937,-66.0408630371093,-130.98342861413747,85.1058700451361,682891821
sw,-78.1781539916992,-67.9441604614257,-145.0303442343314,89.14209349861866,682908488
sw,-76.0938873291015,-69.726577758789,-155.90821429336762,88.79439770608664,682925155
sw,-73.3924179077148,-71.2220001220703,-163.09709147857163,84.13465795409384,682941822
sw,-70.4644088745117,-72.5160751342773,-166.41854695344477,76.09326437743105,682958489
sw,-67.8291854858398,-73.5466003417968,-166.07825391556645,66.20272243699185,682975156
sw,-65.5440979003906,-74.3230285644531,-162.59366890997316,56.20609367575487,682991823
sw,-63.1329879760742,-74.9770965576171,-156.63402157429456,47.64265423695799,683008490
sw,-60.5256004333496,-75.6240463256836,-148.843900508122,41.52333750931555,683025157
sw,-58.0811424255371,-76.2668685913086,-139.71771897524758,38.17242662593381,683041824
sw,-55.8315238952636,-76.9264373779296,-129.54951760046666,37.257324840018384,683058491
sw,-53.8453063964843,-77.6861801147461,-118.44090467827849,37.97543923143374,683075158
sw,-52.150894165039,-78.5783920288086,-106.33811117035962,39.33052498633714,683091825
sw,-50.667495727539,-79.4425354003906,-93.08278046278792,40.415500697793284,683108492
sw,-49.3502883911132,-80.1763153076171,-78.47820212224897,40.62527197303806,683125159
sw,-48.3302841186523,-80.7553329467773,-62.37739875959913,39.75026757335648,683141826
sw,-47.6465454101562,-81.252456665039,-44.79081245230305,37.94279821983598,683158493
sw,-47.2518424987793,-81.7099914550781,-25.99727007590333,35.58993516048217,683175160
sw,-46.9875679016113,-82.1824188232421,-6.62944109619162,33.15226415196961,683191827
sw,-46.9715003967285,-82.7093048095703,12.302402121548187,31.02842661943698,683208494
sw,-47.5035095214843,-83.2815170288086,29.48124032273627,29.482974223923975,683225161
sw,-48.3874702453613,-83.8628158569336,43.45981350821506,28.641665651757233,683241828
sw,-49.4572067260742,-84.4294052124023,52.91522371824933,28.529879363687073,683258495
sw,-50.6551971435546,-84.9485168457031,56.91778129783745,29.118156765521405,683275162
sw,-51.7151527404785,-85.4259796142578,55.13884990619793,30.345881672200512,683291829
sw,-52.3420677185058,-85.9236907958984,47.94246525036299,32.11239571386958,683308496
sw,-53.2212104797363,-86.4663162231445,36.34357427667457,34.243599825981406,683325163
sw,-53.7258529663085,-87.002326965332,21.85150471745212,36.452586322821325,683341830
sw,-53.5638427734375,-87.5277328491211,6.2400162990353225,38.31197564618183,683358497
sw,-53.2606353759765,-87.9339904785156,-8.702051041540326,39.24702682253036,683375164
sw,-52.9434013366699,-88.0184097290039,-21.381800615976186,38.550844307764265,683391831
sw,-52.4326858520507,-87.9457702636718,-30.532431774348083,35.42432160958606,683408498
sw,-51.9630470275878,-87.8494186401367,-35.257165851839346,29.053245397715422,683425165
sw,-51.7801666259765,-87.6736755371093,-35.022145245343836,18.739466530785695,683441832
sw,-51.3524780273437,-87.439224243164,-29.651638901555955,4.086137140984273,683458499
sw,-50.7029266357421,-87.2744445800781,-19.361932190558875,-14.799657834495944,683475166
sw,-50.7302665710449,-87.1926498413086,-4.826190533039307,-37.15702220683685,683491833
sw,-50.9566421508789,-87.1022720336914,12.781062896991672,-61.55040073211449,683508500
sw,-51.364086151123,-86.6863708496093,31.82473505628344,-86.0252936944495,683525167
sw,-52.0703620910644,-85.3258895874023,50.37727799702218,-108.43200058189342,683541834
sw,-53.201789855957,-83.247444152832,66.51253018588864,-126.8429728974908,683558501
sw,-54.9345626831054,-80.7946548461914,78.6732964385043,-139.94207404548538,683575168
sw,-56.9676284790039,-78.2703399658203,86.01411037471037,-147.26470503565605,683591835
sw,-58.6470985412597,-75.9306030273437,88.60024404978714,-149.22221667819497,683608502
sw,-59.7838325500488,-73.5251693725586,87.37690838962796,-146.92382493826312,683625169
sw,-60.8250350952148,-70.882942199707,83.90741331446716,-141.87120011292035,683641836
sw,-62.1054573059082,-68.8847274780273,79.9701699213006,-135.619989837849,683658503
sw,-63.4734458923339,-67.1364288330078,77.14487904618068,-129.48742707521376,683675170
sw,-64.7688598632812,-65.2530899047851,76.49253957583635,-124.35956483021934,683691837
sw,-66.035903930664,-63.2477378845214,78.37805435253851,-120.6238750901587,683708504
sw,-67.2752685546875,-61.1526374816894,82.44272697846927,-118.21669520159746,683725171
sw,-68.4954376220703,-58.9970512390136,87.71879285828281,-116.73644887607759,683741838
sw,-69.9182434082031,-57.0873641967773,92.87052797617287,-115.55639806418183,683758505
sw,-72.0132598876953,-55.4462623596191,96.5247243045214,-113.89102937320641,683775172
sw,-74.0205078125,-53.8237152099609,97.61622208295597,-110.81751114373493,683791839
sw,-75.4611511230468,-52.2527503967285,95.64752034807749,-105.29731067363299,683808506
sw,-76.533332824707,-50.7120018005371,90.7784453089692,-96.25532802103523,683825173
sw,-77.4472122192382,-49.528823852539,83.72623621432382,-82.75010043688324,683841840
sw,-78.0992965698242,-48.7004013061523,75.53144092322411,-64.22567708730358,683858507
sw,-78.7439193725586,-47.8195152282714,67.28673588121968,-40.79228001717814,683875174
sw,-79.5247650146484,-47.1640968322753,59.91765110948681,-13.447741640956254,683891841
sw,-80.2311019897461,-47.3586387634277,54.05863847879246,15.8651391549245,683908508
sw,-80.7685012817382,-47.8421440124511,50.01334606684683,44.44918727956132,683925175
sw,-81.205696105957,-49.3288917541503,47.755956724871275,69.30528860618975,683941842
sw,-81.6503601074218,-51.2559585571289,46.936783313245314,87.76197246151858,683958509
sw,-82.1902847290039,-53.0539016723632,46.88713376793477,98.11550657169593,683975176
sw,-82.8271484375,-54.9282455444335,46.64707780612224,100.0889146191087,683991843
sw,-83.4990463256836,-57.0425109863281,45.04568143914203,94.96027366073703,684008510
sw,-84.0701751708984,-58.8610191345214,40.84700813191471,85.29849923408102,684025177
sw,-84.3926239013671,-59.7550659179687,32.94947374168176,74.3518561474289,684041844
sw,-84.4539108276367,-59.9492263793945,20.603611498379895,65.24353522828694,684058511
sw,-84.3565292358398,-60.5746383666992,3.6007241974184168,60.21101465245558,684075178
sw,-84.2675552368164,-61.5955009460449,-17.61536722450791,60.12963684956905,684091845
sw,-84.2939453125,-62.829231262207,-41.94914723207241,64.45747536770055,684108512
sw,-84.4740219116211,-64.3538055419921,-67.78030526389182,71.57366669092471,684125179
sw,-84.5864105224609,-66.2283554077148,-93.20213198645176,79.34775255922126,684141846
sw,-84.0410232543945,-67.9213027954101,-116.32719676330944,85.73420767523615,684158513
sw,-82.6002883911132,-69.3632125854492,-135.59193018498226,89.22962111716423,684175180
sw,-80.7565231323242,-70.7464752197265,-149.9859036674642,89.11487154506662,684191847
sw,-78.5539245605468,-72.236083984375,-159.15430011001519,85.48232770217697,684208514
sw,-75.8851776123046,-73.7110366821289,-163.36448731328042,79.09075338824019,684225181
sw,-72.9869766235351,-74.9460906982421,-163.36391769107598,71.10276883023357,684241848
sw,-70.4854431152343,-75.7527084350586,-160.17091716453697,62.76626374300944,684258515
sw,-68.1990585327148,-76.3368072509765,-154.84195850464772,55.11556749505805,684275182
sw,-65.7944564819336,-77.0799484252929,-148.26265029060914,48.77470372427167,684291849
sw,-63.3579063415527,-78.0960159301757,-141.0084802373543,43.91721331663338,684308516
sw,-61.1290321350097,-79.1122894287109,-133.30124856152057,40.37386065343056,684325183
sw,-59.0193786621093,-79.8379592895507,-125.0537963662598,37.81734891090298,684341850
sw,-57.0977439880371,-80.4286499023437,-115.97080146344034,35.93431182913663,684358517
sw,-55.3642349243164,-81.0548400878906,-105.66887624326074,34.52604460425501,684375184
sw,-53.7754478454589,-81.6769714355468,-93.78871777441394,33.52836593629849,684391851
sw,-52.4517135620117,-82.2302169799804,-80.08493329237615,32.97312162122758,684408518
sw,-51.5585746765136,-82.7556228637695,-64.49101234618276,32.92210823158244,684425185
sw,-51.0349693298339,-83.3206253051757,-47.16730236449571,33.401153284074375,684441852
sw,-50.6536445617675,-83.9138870239257,-28.544669489822954,34.356629432019915,684458519
sw,-50.3328590393066,-84.4723892211914,-9.367585450465562,35.64803839719497,684475186
sw,-50.3445777893066,-85.0558547973632,9.28307906605511,37.07722848703041,684491853
sw,-50.6801948547363,-85.639778137207,26.028963641622937,38.44062019060712,684508520
sw,-51.3587455749511,-86.16748046875,39.33329025733622,39.58073404166089,684525187
sw,-52.3668785095214,-86.6111755371093,47.743730857732324,40.411821930140896,684541854
sw,-53.5840225219726,-86.9684906005859,50.192212520692756,40.90356355564542,684558521
sw,-54.6976242065429,-87.2024993896484,46.26591484059135,41.02387633209628,684575188
sw,-55.5062599182128,-87.3475341796875,36.35834116178567,40.65981043925469,684591855
sw,-56.1620216369628,-87.4285430908203,21.643915746808986,39.54705143971373,684608522
sw,-55.9832649230957,-87.3707275390625,3.882083772175082,37.23935088134193,684625189
sw,-55.199909210205,-87.1249237060546,-14.878333502796083,33.138111763088055,684641856
sw,-54.5963439941406,-86.7945404052734,-32.58799297355202,26.58276230375584,684658523
sw,-53.969181060791,-86.5320816040039,-47.390955243943054,16.982819411762367,684675190
sw,-53.3668556213378,-86.3983688354492,-57.705985371724715,3.961282038729489,684691857
sw,-52.9546470642089,-86.4655380249023,-62.257653255139694,-12.521241119064099,684708524
sw,-52.0082130432128,-86.725715637207,-60.15151254195625,-32.08537341242447,684725191
sw,-50.6794319152832,-87.0223083496093,-51.043654400298266,-53.909837343324575,684741858
sw,-49.896369934082,-86.9860458374023,-35.36142504795203,-76.774238305335,684758525
sw,-49.6639709472656,-86.3646087646484,-14.453321001226906,-99.17056102305234,684775192
sw,-49.5026473999023,-84.9990005493164,9.462205025785613,-119.48019046001389,684791859
sw,-49.9433097839355,-82.8286514282226,33.61166233395391,-136.20050073857934,684808526
sw,-51.4229774475097,-80.3802337646484,55.201975007335676,-148.18446311404978,684825193
sw,-53.5115432739257,-77.8724594116211,72.0320355966459,-154.8400766392855,684841860
sw,-55.5714378356933,-75.3687133789062,82.9769586698908,-156.2393740406276,684858527
sw,-56.8188209533691,-72.3566970825195,88.16455134902095,-153.10876347440356,684875194
sw,-57.639175415039,-69.7621078491211,88.78147620730317,-146.6975298035559,684891861
sw,-58.6079330444335,-67.9794921875,86.60674462136322,-138.54297947170357,684908528
sw,-59.9721221923828,-66.2923431396484,83.47528601120617,-130.17753924650293,684925195
sw,-61.501235961914,-64.2961883544921,80.86261422912168,-122.84980246844624,684941862
sw,-63.0455894470214,-62.2313003540039,79.679382482242,-117.32997846081082,684958529
sw,-64.4658737182617,-60.2000503540039,80.25471360244849,-113.82867940518294,684975196
sw,-65.7844085693359,-58.3378143310546,82.43359643473728,-112.00725360612262,684991863
sw,-67.1440505981445,-56.6004295349121,85.72105369111831,-111.03880738096774,685008530
sw,-68.583755493164,-55.0274581909179,89.43816549701201,-109.69877328755001,685025197
sw,-70.2177505493164,-53.4074020385742,92.87660238336473,-106.49548858761447,685041864
sw,-72.0474243164062,-51.6802024841308,95.43784616106993,-99.86422480458793,685058531
sw,-73.7739944458007,-50.2535057067871,96.73262182904736,-88.43216626266455,685075198
sw,-75.2498321533203,-49.2669868469238,96.6145453641196,-71.32961207017117,685091865
sw,-76.5452194213867,-48.482494354248,95.13951970108816,-48.49358685192187,685108532
sw,-77.7048950195312,-47.8802261352539,92.47115364734566,-20.89135534644758,685125199
sw,-78.8173446655273,-47.5415458679199,88.77369602135408,9.419643829193689,685141866
sw,-79.7542724609375,-47.845100402832,84.1345303252282,39.47434035821595,685158533
sw,-80.3936309814453,-49.0429153442382,78.53996626468337,65.8611679561836,685175200
sw,-80.8803176879882,-51.0146751403808,71.90234572239602,85.4067123446536,685191867
sw,-81.2503967285156,-53.2590675354003,64.11473625950566,95.91899646963851,685208534
sw,-81.707534790039,-55.4871101379394,55.09941906701216,96.75748672550691,685225201
sw,-82.3782348632812,-57.2030525207519,44.82230466192122,89.02423738518786,685241868
sw,-83.1067276000976,-58.3552665710449,33.26620006073878,75.29229230550101,685258535
sw,-83.7183380126953,-58.6935501098632,20.382276823047413,58.95512219499513,685275202
sw,-84.0409545898437,-58.7352828979492,6.056584525279842,43.42028088611454,685291869
sw,-84.0292663574218,-58.889347076416,-9.87426732190216,31.415881774548623,685308536
sw,-83.7932891845703,-59.790657043457,-27.54676553219344,24.603437038660648,685325203
sw,-83.5400772094726,-61.1297760009765,-46.951942760197376,23.531443150001746,685341870
sw,-83.3128204345703,-61.5244789123535,-67.81450286623779,27.813970895303797,685358537
sw,-82.9014053344726,-61.7447280883789,-89.51421217580884,36.370023397640345,685375204
sw,-81.9603195190429,-62.6307106018066,-111.08314410640227,47.626888297428565,685391871
sw,-80.5683517456054,-63.7517585754394,-131.29048091816637,59.695421305883514,685408538
sw,-78.776741027832,-64.9493179321289,-148.80150367487147,70.57625925990261,685425205
sw,-76.4978637695312,-66.2280044555664,-162.37905884384983,78.43378776624311,685441872
sw,-73.8519287109375,-67.6945419311523,-171.08795698349883,81.91967141160931,685458539
sw,-70.9218826293945,-69.4272003173828,-174.46048692158146,80.47719559643556,685475206
sw,-67.8706817626953,-71.1607131958007,-172.58239861195744,74.52640665928949,685491873
sw,-65.2793197631836,-72.5527648925781,-166.07074689607254,65.43215495677588,685508540
sw,-62.9372634887695,-73.3141708374023,-155.9440552199926,55.20920133479939,685525207
sw,-60.5876312255859,-73.6298828125,-143.42187794140258,46.014815328429314,685541874
sw,-58.4208831787109,-73.8719635009765,-129.7123527688217,39.57738252082629,685558541
sw,-56.5415725708007,-74.2882385253906,-115.83840724934036,36.75238023433228,685575208
sw,-54.7335319519043,-74.8984832763671,-102.5255493161423,37.35531210603583,685591875
sw,-53.1585006713867,-75.7481002807617,-90.14863460033325,40.315665937186324,685608542
sw,-51.8656845092773,-76.7852706909179,-78.72492178832438,44.07993945147041,685625209
sw,-50.8255233764648,-77.9242935180664,-67.94594396047293,47.11409334397802,685641876
sw,-49.9827651977539,-78.9512786865234,-57.253394257187985,48.338899712779046,685658543
sw,-49.3250541687011,-79.7779388427734,-45.97221813589476,47.372401717864975,685675210
sw,-48.8456878662109,-80.3740234375,-33.5063671480049,44.531767767635806,685691877
sw,-48.4570693969726,-80.7899627685546,-19.577233883770507,40.631704661333224,685708544
sw,-48.1761322021484,-81.2922668457031,-4.4510897354391865,36.6765187941688,685725211
sw,-48.1456069946289,-81.8881912231445,10.923395504281007,33.55762391815131,685741878
sw,-48.4337272644043,-82.5193481445312,24.94555513408393,31.83951003633649,685758545
sw,-49.1458663940429,-83.1270217895507,35.60195998959388,31.667550831779316,685775212
sw,-50.1757049560546,-83.7119140625,40.8890906015663,32.78845923707682,685791879
sw,-51.145896911621,-84.318115234375,39.32409964955275,34.65303543753346,685808546
sw,-51.7455596923828,-84.9378280639648,30.407033593782025,36.566994913660174,685825213
sw,-52.0872726440429,-85.6161727905273,14.90357735512594,37.85773340035359,685841880
sw,-52.4188003540039,-86.3003311157226,-5.1387942021339015,38.0265271352246,685858547
sw,-52.4589195251464,-86.8944854736328,-26.670691105355118,36.85806556598829,685875214
sw,-51.6958808898925,-87.4254150390625,-46.185929287907335,34.4660874824866,685891881
sw,-49.895206451416,-87.9465255737304,-60.430333258514175,31.266131306160254,685908548
sw,-48.185676574707,-88.4103317260742,-67.09724519114998,27.88119632953032,685925215
sw,-47.0638122558593,-88.7303619384765,-65.29956260012463,25.000278974360082,685941882
sw,-46.4687156677246,-88.9622192382812,-55.668700399041725,23.22138650908754,685958549
sw,-46.1844902038574,-89.1126556396484,-40.07294013811711,22.91597737577588,685975216
sw,-46.0469932556152,-88.9673233032226,-21.088266493356265,24.145174173470437,685991883
sw,-46.0923919677734,-88.6282730102539,-1.414394754854304,26.63984597837033,686008550
sw,-46.4383163452148,-88.0982360839843,16.603549982641454,29.83703021755442,686025217
sw,-47.1352195739746,-87.3511505126953,31.264181451028136,32.954602549267356,686041884
sw,-47.9722518920898,-86.5089035034179,41.59800176815787,35.08474406280531,686058551
sw,-48.7409133911132,-85.6554412841796,47.29116323438483,35.28912100769164,686075218
sw,-49.3092346191406,-84.873062133789,48.51329116793416,32.68393758634703,686091885
sw,-49.746971130371,-84.2433013916015,45.73761546067511,26.513448657940607,686108552
sw,-50.2727012634277,-83.8292770385742,39.63783722417926,16.2228791305078,686125219
sw,-51.0726737976074,-83.6433181762695,31.102830469550014,1.5461679121923715,686141886
sw,-52.2283744812011,-83.6659393310546,21.33186856469868,-17.387516373986116,686158553
sw,-53.0358047485351,-83.9848403930664,11.897172817726705,-39.94948674740612,686175220
sw,-53.1077766418457,-84.6331176757812,4.641815341604881,-64.95475767416114,686191887
sw,-53.4756851196289,-85.3121566772461,1.349425420532634,-90.70457457348239,686208554
sw,-52.9157524108886,-85.5196990966796,3.2510480415272314,-115.16075177861414,686225221
sw,-51.8352546691894,-84.636116027832,10.554881577066439,-136.24418423728912,686241888
sw,-51.6893234252929,-82.4042892456054,22.228580071004703,-152.201855377686,686258555
sw,-52.7614288330078,-79.727294921875,36.19243515636408,-161.94819246184235,686275222
sw,-54.7431182861328,-77.001220703125,49.905476076784296,-165.27847899000628,686291889
sw,-56.6013145446777,-74.1638031005859,61.12815453241302,-162.88596453607494,686308556
sw,-57.7331390380859,-71.9079513549804,68.5497663257919,-156.1778329699087,686325223
sw,-58.5582580566406,-69.9120712280273,72.04433778121562,-146.94880582197612,686341890
sw,-59.420425415039,-67.9463958740234,72.51040648215132,-137.01013251655579,686358557
sw,-60.4320602416992,-66.0641708374023,71.42867870942219,-127.87425568876294,686375224
sw,-61.5002403259277,-64.0052719116211,70.34389371846136,-120.56134180897475,686391891
sw,-62.6399383544921,-61.9080085754394,70.44338581580678,-115.53779986565304,686408558
sw,-63.8111534118652,-59.9138259887695,72.32323271725882,-112.74619750396558,686425225
sw,-65.1184158325195,-58.0479011535644,75.95592837032429,-111.66614582712175,686441892
sw,-66.6321334838867,-56.3123130798339,80.82029754550817,-111.36489998360017,686458559
sw,-68.1674575805664,-54.5400009155273,86.12373978031935,-110.5401929836028,686475226
sw,-69.8753051757812,-53.139720916748,91.03672126675346,-107.59900046678898,686491893
sw,-71.7021331787109,-51.8635711669921,94.87056842544409,-100.8312004559189,686508560
sw,-73.3129959106445,-50.3448829650878,97.15993975868656,-88.71474875761277,686525227
sw,-74.5700073242187,-48.8526535034179,97.65260989960942,-70.32960270097796,686541894
sw,-75.722412109375,-47.7806053161621,96.2471479709929,-45.780767444405804,686558561
sw,-76.9516067504882,-47.2254447937011,92.93498710240908,-16.476984710190987,686575228
sw,-78.1284103393554,-47.1648864746093,87.78479149160445,14.881292515689974,686591895
sw,-78.8837509155273,-47.8428268432617,80.96457630148872,44.677114584316065,686608562
sw,-78.9061813354492,-49.2756805419921,72.76360089731931,69.07426600319596,686625229
sw,-78.5286712646484,-51.219985961914,63.57890772103962,84.88085941132543,686641896
sw,-78.7160186767578,-53.2519187927246,53.86414325329579,90.34672825730833,686658563
sw,-79.3951644897461,-55.0471115112304,44.065894545083765,85.6546679915219,686675230
sw,-80.1797561645507,-56.6276397705078,34.569225602447425,72.93896122267083,686691897
sw,-80.8661041259765,-57.7588005065918,25.651298025849535,55.798628558725355,686708564
sw,-81.2500839233398,-57.8032302856445,17.431159495831526,38.426419111821374,686725231
sw,-81.3293228149414,-57.3559265136718,9.814985431535888,24.603187499988522,686741898
sw,-81.1518096923828,-57.1203384399414,2.4527856608650707,16.865955928115277,686758565
sw,-80.8709716796875,-57.161563873291,-5.269295464296651,16.106730389260925,686775232
sw,-80.6060180664062,-58.1083183288574,-14.176499926332786,21.695597294768056,686791899
sw,-80.4704895019531,-59.8114471435546,-25.17407293449522,32.00882913441836,686808566
sw,-80.5702514648437,-61.1479873657226,-39.03750585715061,45.08691271434393,686825233
sw,-80.7865295410156,-61.8432922363281,-56.160589928469726,59.13479318087789,686841900
sw,-80.8891983032226,-62.7986640930175,-76.33425509368153,72.71271627536895,686858567
sw,-80.6006851196289,-64.1314849853515,-98.6402140783954,84.66127073015286,686875234
sw,-79.786392211914,-65.5130462646484,-121.5149313216318,93.9355840027699,686891901
sw,-78.3907775878906,-67.1096878051757,-142.9851930038987,99.52940395455144,686908568
sw,-76.4960250854492,-68.9040908813476,-161.023909927842,100.57909557212948,686925235
sw,-74.185546875,-70.9053115844726,-173.9414989478529,96.61811149321628,686941902
sw,-71.3196716308593,-72.949234008789,-180.7174935008512,87.85879378534851,686958569
sw,-68.2033157348632,-74.5650634765625,-181.18751327143306,75.34427466738988,686975236
sw,-65.5431518554687,-75.4623794555664,-176.03352698209986,60.85500015701672,686991903
sw,-63.1378746032714,-75.8842239379882,-166.5805086951688,46.558720067492,687008570
sw,-60.7473068237304,-76.1633682250976,-154.465813385459,34.51019677950744,687025237
sw,-58.3221054077148,-76.4542541503906,-141.286526073872,26.17509698663948,687041904
sw,-56.1353874206543,-76.7871551513671,-128.31936921091352,22.138195712224768,687058571
sw,-54.1529922485351,-77.3077392578125,-116.35824126435041,22.075131757651047,687075238
sw,-52.2510833740234,-78.0569229125976,-105.66353808321928,24.965761710954165,687091905
sw,-50.634838104248,-78.8926925659179,-95.99308357428158,29.449400847908983,687108572
sw,-49.352783203125,-79.5781707763671,-86.68859131462987,34.192750125176204,687125239
sw,-48.2123947143554,-80.0563812255859,-76.80979823562463,38.164373130422,687141906
sw,-47.1178970336914,-80.5561065673828,-65.32240210408567,40.76826041946564,687158573
sw,-46.3266410827636,-81.2179946899414,-51.34121885788572,41.8496005790773,687175240
sw,-45.7301521301269,-82.0232162475586,-34.40530912198698,41.61727202644077,687191907
sw,-45.3339805603027,-82.8750915527343,-14.730504499512758,40.52369738989749,687208574
sw,-45.247760772705,-83.5914916992187,6.636444146946338,39.12409405185232,687225241
sw,-45.4912719726562,-84.1613845825195,27.837325875615807,37.92885744426661,687241908
sw,-46.1686706542968,-84.7104263305664,46.44183622589359,37.27151112263609,687258575
sw,-47.3031158447265,-85.3082275390625,59.89581269965252,37.22610383903985,687275242
sw,-48.8475952148437,-85.9689636230468,66.09384758954937,37.60374079951178,687291909
sw,-50.5125389099121,-86.7385940551757,63.928339306600414,38.03356203759475,687308576
sw,-51.7491607666015,-87.5386047363281,53.645901218945674,38.101230804886974,687325243
sw,-52.2862892150878,-88.228889465332,36.88494947127093,37.49586982351936,687341910
sw,-52.5727653503418,-88.8527755737304,16.36723849503113,36.11524232974188,687358577
sw,-52.1744651794433,-89.5118179321289,-4.669983851796507,34.09668886789026,687375244
sw,-51.4115180969238,-90.0,-23.13599936735566,31.76616419534609,687391911
sw,-50.8002853393554,-89.4148330688476,-36.663173858569635,29.518736133018876,687408578
sw,-50.1267280578613,-88.9646682739257,-43.96493047363543,27.658648997314465,687425245
sw,-49.3900337219238,-88.5223693847656,-44.92232453201181,26.238042850512198,687441912
sw,-48.6495780944824,-88.1770553588867,-40.423113896980404,24.94025224363285,687458579
sw,-48.1505279541015,-88.0049285888671,-32.024619684293555,23.05201616378357,687475246
sw,-48.103157043457,-87.7599029541015,-21.53085467271751,19.554628945811928,687491913
sw,-48.1544494628906,-87.3607711791992,-10.579892038833497,13.33461147937271,687508580
sw,-48.1964492797851,-86.9664306640625,-0.3321236894930176,3.4727103292193857,687525247
sw,-48.4180145263671,-86.767593383789,8.675346181488232,-10.46974859904456,687541914
sw,-48.8465576171875,-86.9217834472656,16.488651188643555,-28.26300906158568,687558581
sw,-49.3645553588867,-87.5140762329101,23.542012429143412,-48.99018422860597,687575248
sw,-49.7936859130859,-88.3482666015625,30.376416179249055,-71.20932933674429,687591915
sw,-50.1590538024902,-87.9734878540039,37.362559749942626,-93.24083154008346,687608582
sw,-50.6733360290527,-86.3573989868164,44.51988808915842,-113.48147954869913,687625249
sw,-51.6390304565429,-84.3274993896484,51.49582585192514,-130.64877741522648,687641916
sw,-53.0072059631347,-82.0891723632812,57.70985705548712,-143.90389511708707,687658583
sw,-54.3799133300781,-79.7821350097656,62.59671995597224,-152.86200861301253,687675250
sw,-55.4595947265625,-77.2568817138671,65.8409983293021,-157.5403634435441,687691917
sw,-56.4272956848144,-74.2571182250976,67.50878694810018,-158.2963642192099,687708584
sw,-57.5279235839843,-71.2744903564453,68.03865583422896,-155.77478076895395,687725251
sw,-58.6862030029296,-69.0274429321289,68.11281872530685,-150.8444961157165,687741918
sw,-59.7462882995605,-66.9170150756836,68.45973740170584,-144.4967001387401,687758585
sw,-60.7757873535156,-64.808349609375,69.64382503589465,-137.70476755388248,687775252
sw,-61.7688217163085,-62.5397186279296,71.89465173781036,-131.27870809011102,687791919
sw,-62.8243331909179,-60.3659858703613,75.02354619133536,-125.74979329770213,687808586
sw,-64.0592193603515,-58.3374862670898,78.46114861205251,-121.29696599577792,687825253
sw,-65.4997177124023,-56.3637924194335,81.41798501562052,-117.70605767248735,687841920
sw,-67.1882781982421,-54.5063591003418,83.12722000454589,-114.35463859632041,687858587
sw,-68.9150466918945,-52.723045349121,83.09173191711034,-110.23311580833257,687875254
sw,-70.322395324707,-51.2070159912109,81.24662403840412,-104.02973131797323,687891921
sw,-71.3746185302734,-50.0086326599121,77.97487891339522,-94.31088069390526,687908588
sw,-72.1681518554687,-48.6217460632324,73.97111894847247,-79.81086196776356,687925255
sw,-72.8940353393554,-47.3311538696289,70.00973891378344,-59.80324481663113,687941922
sw,-73.6659851074218,-46.6029624938964,66.70744609624842,-34.47017364345606,687958589
sw,-74.3915405273437,-46.3381767272949,64.36157092392459,-5.145904916958553,687975256
sw,-74.980484008789,-46.5160522460937,62.9053599322807,25.68378297283594,687991923
sw,-75.4467239379882,-47.2619857788085,61.975415014935585,54.69021034554559,688008590
sw,-75.8969268798828,-48.6654739379882,61.05462357736297,78.29832887547725,688025257
sw,-76.4229736328125,-50.5588798522949,59.64048635285289,93.46047133665712,688041924
sw,-77.0652618408203,-52.757453918457,57.387805869955194,98.421261848549,688058591
sw,-77.794448852539,-54.7805099487304,54.18247185764795,93.2539784027932,688075258
sw,-78.5167922973632,-56.6021499633789,50.12167565329471,79.98043809279552,688091925
sw,-79.0901184082031,-57.9467391967773,45.40580833384218,62.187584117124466,688108592
sw,-79.4463882446289,-58.1471366882324,40.179678272095366,44.20239577019786,688125259
sw,-79.6071166992187,-57.7316207885742,34.380971028643664,30.040318963359603,688141926
sw,-79.6540603637695,-57.4617271423339,27.653640995924064,22.444246878346622,688158593
sw,-79.6703338623046,-57.2908935546875,19.365592879308757,22.323873601285666,688175260
sw,-79.6825256347656,-58.2438087463378,8.740338333201843,28.76792426238147,688191927
sw,-79.704475402832,-60.1112251281738,-4.922901538178834,39.581461681240384,688208594
sw,-79.7773818969726,-61.5289802551269,-21.99943587771681,52.10002401053804,688225261
sw,-80.0064239501953,-62.5117416381835,-42.33796098672165,63.95442161860723,688241928
sw,-80.3889465332031,-63.8562126159668,-65.179908898833,73.53925975663935,688258595
sw,-80.7131652832031,-64.9449768066406,-89.23499631140655,80.11181186527938,688275262
sw,-80.6761169433593,-66.1517715454101,-112.8942665402698,83.60653814212179,688291929
sw,-80.1092987060546,-67.5109558105468,-134.51375939655165,84.32550406661782,688308596
sw,-78.8477783203125,-68.8147583007812,-152.68287053119235,82.65639311648923,688325263
sw,-76.9544906616211,-70.2031936645507,-166.40747926814217,78.91226311779413,688341930
sw,-74.6854095458984,-71.6099319458007,-175.1769578283927,73.31581910231849,688358597
sw,-72.1249694824218,-72.8557662963867,-178.92701496267205,66.0915264926428,688375264
sw,-69.4193954467773,-73.9044647216796,-177.94094878129135,57.59632927166787,688391931
sw,-66.7353134155273,-74.8128433227539,-172.7414562014982,48.41775062419391,688408598
sw,-64.0979690551757,-75.5545349121093,-164.01289118519824,39.389626817388404,688425265
sw,-61.3871803283691,-76.1595764160156,-152.56611740394334,31.507451468178164,688441932
sw,-58.8825569152832,-76.6469268798828,-139.32608254791677,25.75662147628382,688458599
sw,-56.6937026977539,-76.9537963867187,-125.30062461670988,22.893522849560696,688475266
sw,-54.7865753173828,-77.1363525390625,-111.49159674015047,23.23912804284132,688491933
sw,-53.1462135314941,-77.4674224853515,-98.73898980799652,26.551774878876426,688508600
sw,-51.874397277832,-78.0413970947265,-87.5320862685627,32.031564943424094,688525267
sw,-50.9616355895996,-78.8095245361328,-77.85741186082686,38.47115214659813,688541934
sw,-49.9095077514648,-79.6710357666015,-69.1624509107623,44.51910205462534,688558601
sw,-48.8064575195312,-80.6187286376953,-60.48592175863486,48.984567668775114,688575268
sw,-47.8315200805664,-81.6113815307617,-50.744789534888675,51.1009139475651,688591935
sw,-46.9818725585937,-82.6429138183593,-39.101366464037284,50.68030501263227,688608602
sw,-46.5189170837402,-83.5475769042968,-25.295174458030715,48.1213916410163,688625269
sw,-46.3266677856445,-84.1958999633789,-9.831104283608397,44.269996721751596,688641936
sw,-46.2897109985351,-84.7206192016601,6.041082162920593,40.17202387857294,688658603
sw,-46.6789398193359,-85.2484512329101,20.56211277782117,36.788652837515514,688675270
sw,-47.4593200683593,-85.757209777832,31.86225405294102,34.75343449593791,688691937
sw,-48.2463874816894,-86.217529296875,38.42561959227106,34.23421862100825,688708604
sw,-49.4606056213378,-86.7005767822265,39.49376086389109,34.92846891923342,688725271
sw,-50.3015632629394,-87.2803421020507,35.288285283967184,36.182511850074356,688741938
sw,-50.5560226440429,-87.9359741210937,26.979790474574802,37.193177877178194,688758605
sw,-50.6429786682128,-88.6331253051757,16.41102526107177,37.2290798346713,688775272
sw,-50.5359916687011,-89.1201782226562,5.664737575701011,35.803403091082934,688791939
sw,-50.4452095031738,-89.0601730346679,-3.3889413920286553,32.744993197790045,688808606
sw,-50.4162406921386,-88.802864074707,-9.44355944727185,28.14874749132592,688825273
sw,-50.2537307739257,-88.5821075439453,-11.936181595537215,22.230163134695136,688841940
sw,-49.8983001708984,-88.4342727661132,-11.04214954632217,15.145569495099254,688858607
sw,-49.570629119873,-88.4357757568359,-7.507359112669382,6.852954954397407,688875274
sw,-49.7407073974609,-88.5886154174804,-2.3621907055324685,-2.927241655948104,688891941
sw,-50.2689781188964,-88.7885665893554,3.415029697114854,-14.629248590774713,688908608
sw,-50.7320404052734,-89.0432586669921,9.19086311401625,-28.660239727877997,688925275
sw,-50.8710403442382,-89.4356002807617,14.828399146955446,-45.181982871357455,688941942
sw,-51.2837409973144,-89.1399765014648,20.642135037762028,-63.93606262346363,688958609
sw,-51.8841438293457,-87.970588684082,27.174245742293138,-84.18017315148543,688975276
sw,-52.2397880554199,-86.2161788940429,34.877583794088665,-104.76290673962068,688991943
sw,-52.4288635253906,-83.9381866455078,43.825383758377555,-124.3138936081988,689008610
sw,-52.9770317077636,-81.4202041625976,53.56473564459249,-141.48652592467494,689025277
sw,-54.2821655273437,-78.8336639404296,63.18630104955088,-155.17867054046872,689041944
sw,-56.2691040039062,-76.3224411010742,71.59577959340582,-164.67726501292614,689058611
sw,-57.9343147277832,-73.4431076049804,77.87516489309424,-169.71158797267665,689075278
sw,-59.095775604248,-70.5051193237304,81.57575312215445,-170.43169117037405,689091945
sw,-60.2552680969238,-67.9925460815429,82.82691206038562,-167.33774389530078,689108612
sw,-61.604133605957,-65.3714523315429,82.24226920473083,-161.18042036718526,689125279
sw,-62.9554061889648,-62.7922248840332,80.68716393564199,-152.8463970760063,689141946
sw,-64.0619812011718,-60.3460044860839,78.99975371040178,-143.2388163563579,689158613
sw,-65.0186309814453,-58.156150817871,77.74996905281242,-133.1571648912682,689175280
sw,-66.0248794555664,-56.1915245056152,77.10347373753052,-123.17923015071511,689191947
sw,-67.3177642822265,-54.3081474304199,76.83245928040292,-113.55513082384998,689208614
sw,-68.7694778442382,-52.5901565551757,76.46943047706948,-104.13487625377498,689225281
sw,-70.3087005615234,-51.1268348693847,75.54291067369124,-94.35703232060793,689241948
sw,-71.6765899658203,-49.7920188903808,73.79664388886641,-83.32334718130008,689258615
sw,-72.7535171508789,-48.7146873474121,71.30174270701693,-69.97377400178163,689275282
sw,-73.625747680664,-48.0626945495605,68.42127332131703,-53.35834855874482,689291949
sw,-74.2946395874023,-47.6913871765136,65.65196278977231,-32.975776551889986,689308616
sw,-74.8453140258789,-47.3000679016113,63.416876636608144,-9.113075617409404,689325283
sw,-75.3948287963867,-46.8010749816894,61.89665267013482,16.919247202965053,689341950
sw,-76.0218276977539,-46.9323081970214,60.962802333517644,42.786050255453034,689358617
sw,-76.6290206909179,-48.0622367858886,60.227897990882994,65.46095748104288,689375284
sw,-77.161376953125,-49.9431190490722,59.17780169110793,81.88896969284016,689391951
sw,-77.6599502563476,-52.1148147583007,57.32361383440498,89.82143834359421,689408618
sw,-78.1884613037109,-54.1838150024414,54.31480067226242,88.55095010290569,689425285
sw,-78.6948471069336,-56.0116577148437,49.9806544930803,79.26707021498581,689441952
sw,-79.0881576538086,-57.4556617736816,44.29724269986398,64.86826003263536,689458619
sw,-79.3049087524414,-57.6668014526367,37.299390879099555,49.253930375179344,689475286
sw,-79.3326263427734,-57.2369728088378,28.97045179320786,36.31265364094884,689491953
sw,-79.2516784667968,-56.9791412353515,19.14995341140653,28.944636268614538,689508620
sw,-79.1348876953125,-57.0570487976074,7.501172352749305,28.44713424194397,689525287
sw,-79.0846405029296,-58.5487365722656,-6.428317186816764,34.436613882880856,689541954
sw,-79.1703491210937,-60.5715599060058,-23.047197773337004,45.24834773588444,689558621
sw,-79.4096069335937,-61.5146255493164,-42.49961816142248,58.56961346529514,689575288
sw,-79.7545852661132,-62.3381614685058,-64.46170510065227,72.03089575778489,689591955
sw,-79.9127044677734,-63.6461486816406,-88.04431770826874,83.59769293286348,689608622
sw,-79.6178970336914,-65.1133270263671,-111.85588826531998,91.76328592411407,689625289
sw,-78.804443359375,-66.8347473144531,-134.21580759273175,95.62538572434624,689641956
sw,-77.4119186401367,-68.6393508911132,-153.453650306732,94.91492709061828,689658623
sw,-75.4472503662109,-70.3561859130859,-168.20716752997305,89.98962903632196,689675290
sw,-72.9057846069336,-71.859878540039,-177.64135358981696,81.76625277599909,689691957
sw,-70.154067993164,-73.0941619873046,-181.53936618947384,71.56497128775145,689708624
sw,-67.5491485595703,-74.0592422485351,-180.25508058520933,60.86916610853874,689725291
sw,-64.9289474487304,-74.7340621948242,-174.55995382733744,51.043846902880375,689741958
sw,-62.2930870056152,-75.1834259033203,-165.4489673064538,43.08435213675295,689758625
sw,-59.6298141479492,-75.6915588378906,-153.97249748872588,37.4690165682908,689775292
sw,-57.0581970214843,-76.4128494262695,-141.12860815205815,34.159876228578504,689791959
sw,-54.8169822692871,-77.2083740234375,-127.80460990062053,32.74240160431934,689808626
sw,-52.775535583496,-77.9376373291015,-114.72913451260973,32.64195724296679,689825293
sw,-51.0280151367187,-78.6257019042968,-102.40243438360541,33.329229402071455,689841960
sw,-49.6298637390136,-79.3501434326171,-91.00516042147316,34.4421589455502,689858627
sw,-48.5733757019043,-79.8813934326171,-80.32350285820219,35.79689464868353,689875294
sw,-47.607120513916,-80.2300186157226,-69.75014482363459,37.31154125097302,689891961
sw,-46.6454200744628,-80.6644134521484,-58.41086742730505,38.90282795643135,689908628
sw,-45.8696517944335,-81.386604309082,-45.42350530679576,40.42202046753548,689925295
sw,-45.2338256835937,-82.3287277221679,-30.235835155033037,41.66699479476968,689941962
sw,-44.7645111083984,-83.2715377807617,-12.940307929127341,42.4567075248297,689958629
sw,-44.6087188720703,-84.1059875488281,5.550833893348656,42.71440408030995,689975296
sw,-44.8606643676757,-84.7892074584961,23.558792660557305,42.50328739425713,689991963
sw,-45.6947441101074,-85.3722991943359,38.94404229411615,41.99176867483944,690008630
sw,-46.8229942321777,-86.0188217163086,49.60472957546077,41.36882971636751,690025297
sw,-48.1046257019043,-86.6831817626953,54.03255138695877,40.7553374816978,690041964
sw,-49.3382225036621,-87.3196334838867,51.75696474356225,40.153521459597435,690058631
sw,-50.2878761291503,-88.0372695922851,43.53324274331329,39.452609675809455,690075298
sw,-50.8936576843261,-88.7655181884765,31.2063506310746,38.47985904055152,690091965
sw,-50.9601020812988,-89.4052124023437,17.284157667173805,37.065708836356336,690108632
sw,-50.5960388183593,-89.5670471191406,4.345730015166075,35.08631694866711,690125299
sw,-50.3621177673339,-89.0308609008789,-5.538403412025026,32.457613740703785,690141966
sw,-50.1348800659179,-88.6232833862304,-11.206373573847687,29.0781040528852,690158633
sw,-49.7534141540527,-88.3823928833007,-12.522995553671423,24.744980531554365,690175300
sw,-49.51900100708,-88.2116241455078,-10.20561403263996,19.08941000637674,690191967
sw,-49.898624420166,-88.0704498291015,-5.434639142169625,11.580426474763351,690208634
sw,-50.5475463867187,-88.006103515625,0.6121401441541998,1.6253469331943622,690225301
sw,-50.8061218261718,-88.0503692626953,7.139233931901538,-11.246409077903037,690241968
sw,-50.83003616333,-88.2507934570312,13.898373871929927,-27.171494428482426,690258635
sw,-51.2432479858398,-88.7188491821289,21.097891893356817,-45.7913263598272,690275302
sw,-51.8081283569335,-89.4699249267578,29.1176085773731,-66.21132499238358,690291969
sw,-52.1253776550293,-88.5215759277343,38.15692271797423,-87.11054071024641,690308636
sw,-52.3276977539062,-86.5415878295898,47.958985164681614,-106.97399665638166,690325303
sw,-53.1500053405761,-84.3698425292968,57.72661476536124,-124.371895926013,690341970
sw,-54.6984519958496,-82.0761566162109,66.27948055072982,-138.19703383301098,690358637
sw,-56.5502395629882,-79.6900253295898,72.4038722457761,-147.80057222989677,690375304
sw,-58.0715942382812,-77.2134323120117,75.25668969725729,-153.0164715687713,690391971
sw,-59.1132659912109,-74.5668792724609,74.66228412867501,-154.10496459691296,690408638
