Label,Left_Hip_q,Right_Hip_q,Left_Hip_qd,Right_Hip_qd,SampleTimeFine
sw,-84.9141235351562,-74.5314712524414,-93.3750305175781,85.4739074707031,116380491
sw,-86.6387405395507,-75.9750671386718,-117.37020926831954,84.33321588448408,116397158
sw,-87.9230270385742,-77.3484268188476,-131.22504515149612,74.17147790645254,116413825
sw,-87.2542648315429,-78.4405364990234,-144.19033393784574,64.37411739687411,116430492
sw,-85.0464706420898,-79.4005126953125,-155.50896168143254,55.34220239002476,116447159
sw,-82.4723587036132,-80.2726211547851,-164.48064263139347,47.51914634900363,116463826
sw,-79.360969543457,-80.9837188720703,-170.5413519332795,41.34121892619023,116480493
sw,-76.358039855957,-81.5965270996093,-173.36064146281632,37.14505675525458,116497160
sw,-73.5566864013671,-82.1678009033203,-172.91491043997374,35.062369668110534,116513827
sw,-70.7595138549804,-82.7655944824218,-169.49884930609213,34.94395737932569,116530494
sw,-67.9374771118164,-83.4687194824218,-163.66184359904807,36.34985542511053,116547161
sw,-65.2327499389648,-84.1764144897461,-156.08207994339892,38.620386172473964,116563828
sw,-62.8187751770019,-84.8915100097656,-147.40513446010445,41.013587704762244,116580495
sw,-60.6600799560546,-85.6823959350586,-138.08031945846975,42.870729333311736,116597162
sw,-58.68843460083,-86.5523529052734,-128.23475806823072,43.761398396619484,116613829
sw,-56.8159599304199,-87.4534759521484,-117.62745657032343,43.56423860139924,116630496
sw,-55.0964393615722,-88.2010421752929,-105.71275645305238,42.4575895417904,116647163
sw,-53.5979690551757,-88.7652053833007,-91.81309821203715,40.82359540397758,116663830
sw,-52.3329162597656,-89.3062057495117,-75.36624331097791,39.10148262396382,116680497
sw,-51.3076972961425,-90.0,-56.18569135534581,37.6450532517455,116697164
sw,-50.6195945739746,-89.3778762817382,-34.66245704131752,36.633225070411605,116713831
sw,-50.2799987792968,-88.6742630004882,-11.843546407882684,36.05389320223418,116730498
sw,-50.442584991455,-87.9931869506836,10.652183395889503,35.74908092368066,116747165
sw,-51.2257995605468,-87.3323669433593,30.878646498640762,35.49104832929093,116763832
sw,-52.1444816589355,-86.7203979492187,46.917834557196194,35.05825271911135,116780499
sw,-53.2205734252929,-86.0984649658203,57.26038079223697,34.28868091641825,116797166
sw,-54.3836212158203,-85.4060745239257,61.11779434509844,33.097119211172924,116813833
sw,-55.6771163940429,-84.7143936157226,58.591642896574186,31.44937220656709,116830500
sw,-56.6819381713867,-84.2224349975586,50.658605258383304,29.294195700581916,116847167
sw,-57.2037963867187,-83.9537658691406,38.9709517033385,26.469010409245357,116863834
sw,-57.5379028320312,-83.77587890625,25.51803426243674,22.616949485739017,116880501
sw,-57.6507453918457,-83.5685806274414,12.235988574390685,17.166054522252082,116897168
sw,-57.6339035034179,-83.3589096069336,0.670400460482549,9.409338017979284,116913835
sw,-57.4241523742675,-83.2509307861328,-8.22114806880407,-1.3147105706905486,116930502
sw,-57.1696090698242,-83.33447265625,-14.085210453009328,-15.389154015166389,116947169
sw,-57.1515769958496,-83.6419601440429,-17.022614821626558,-32.71232703508637,116963836
sw,-57.4326362609863,-84.2653045654296,-17.342355452389913,-52.597810422714794,116980503
sw,-57.5224876403808,-85.4081192016601,-15.325516592377436,-73.82980680307003,116997170
sw,-57.4300689697265,-87.1521530151367,-11.10240728466745,-94.87128316254538,117013837
sw,-57.4969444274902,-88.7679061889648,-4.692083223231999,-114.16606871725864,117030504
sw,-57.4053077697753,-87.7396392822265,3.8303593708237007,-130.43944669191956,117047171
sw,-57.2630805969238,-85.3575134277343,14.141432740428948,-142.90510559355812,117063838
sw,-57.6039581298828,-82.8706283569336,25.569924186611058,-151.3294572596921,117080505
sw,-58.5710792541503,-80.1795196533203,37.163037172062666,-155.96274063618847,117097172
sw,-59.834903717041,-77.4424972534179,47.904805963111684,-157.38849997854737,117113839
sw,-61.1661491394043,-74.9886093139648,56.99183098914315,-156.3527635788585,117130506
sw,-62.370304107666,-72.5642776489257,64.04053695020251,-153.61809020974272,117147173
sw,-63.4571113586425,-70.2551574707031,69.13730265280873,-149.86326140592578,117163840
sw,-64.5186233520507,-68.0365753173828,72.72161107719818,-145.62922768502852,117180507
sw,-65.7192001342773,-65.6626892089843,75.36535375532901,-141.29857027447315,117197174
sw,-67.0327377319336,-63.3809585571289,77.54389002609638,-137.08809255757546,117213841
sw,-68.3150024414062,-61.2778205871582,79.48167485487419,-133.0332233331718,117230508
sw,-69.5852508544921,-59.0980758666992,81.11603549448496,-128.9518404735331,117247175
sw,-70.9696502685546,-57.0228385925293,82.17926631946135,-124.39417649408739,117263842
sw,-72.5189666748046,-55.5127334594726,82.36252614158514,-118.60933674008595,117280509
sw,-74.1980590820312,-54.2500114440918,81.49775834218647,-110.57859702063632,117297176
sw,-75.7647933959961,-52.7581634521484,79.68262232037326,-99.16653381879092,117313843
sw,-77.0171890258789,-51.1477546691894,77.28985444367294,-83.4058023072133,117330510
sw,-78.0043792724609,-49.9079627990722,74.8492100783411,-62.862023778075006,117347177
sw,-78.9065856933593,-49.2680473327636,72.84892720979808,-37.95946705524427,117363844
sw,-79.8503799438476,-48.8089561462402,71.54272975974312,-10.132617279774818,117380511
sw,-80.8670806884765,-49.1688690185546,70.84539420575734,18.28454354758607,117397178
sw,-81.8908767700195,-49.9522476196289,70.35855865035819,44.43697519478642,117413845
sw,-82.8166275024414,-51.28804397583,69.51341595226938,65.51598033802736,117430512
sw,-83.531005859375,-52.9848594665527,67.77435551308918,79.37590058485007,117447179
sw,-83.8736953735351,-54.5152854919433,64.83068866024277,85.03927531418847,117463846
sw,-83.8642272949218,-56.1190719604492,60.71193797167975,82.9548225164286,117480513
sw,-83.6651916503906,-57.7267456054687,55.788700478849435,74.93451094965758,117497180
sw,-83.458511352539,-58.8494415283203,50.65698531615552,63.7738277886411,117513847
sw,-83.2711868286132,-59.4848098754882,45.939683420381705,52.63652564047503,117530514
sw,-83.0465850830078,-59.7940330505371,42.06442733256515,44.352024849404025,117547181
sw,-82.8089523315429,-60.0159835815429,39.08404096023969,40.8126503928144,117563848
sw,-82.5767745971679,-60.4060363769531,36.59157990290112,42.64124109404059,117580515
sw,-82.3552703857421,-61.5919151306152,33.75335145261066,49.21450108114456,117597182
sw,-82.1384735107421,-63.5139503479003,29.452756004325938,58.99924736521683,117613849
sw,-81.9123306274414,-65.0194931030273,22.514975098511172,70.04737340371888,117630516
sw,-81.6877136230468,-66.0632705688476,11.968982020178961,80.46322022790797,117647183
sw,-81.541259765625,-67.5743331909179,-2.704762820550984,88.7204158212914,117663850
sw,-81.578628540039,-69.3147735595703,-21.396951166931746,93.81060889022683,117680517
sw,-82.0457916259765,-71.0413208007812,-43.31377631688451,95.27537947238552,117697184
sw,-83.0038986206054,-72.7587585449218,-67.07196977377755,93.17526408459531,117713851
sw,-84.2051925659179,-74.2929306030273,-90.93220416875711,88.01833547947061,117730518
sw,-85.340576171875,-75.6933898925781,-113.11268325513092,80.64785168132624,117747185
sw,-85.8155899047851,-76.9444961547851,-132.09751032039654,72.0890282919088,117763852
sw,-84.9561691284179,-77.8718109130859,-146.86041852821702,63.37088243460235,117780519
sw,-82.914321899414,-78.6446456909179,-156.95877152192415,55.35657225662072,117797186
sw,-80.3754959106445,-79.4447326660156,-162.49669246347256,48.62284723117161,117813853
sw,-77.7524185180664,-80.2723922729492,-163.9915906272547,43.41867483241739,117830520
sw,-75.209114074707,-81.0890884399414,-162.19645147239135,39.70654850523267,117847187
sw,-72.6280136108398,-81.8546676635742,-157.93014080961842,37.260675682468715,117863854
sw,-70.0975646972656,-82.5817794799804,-151.9520041013268,35.7806277281247,117880521
sw,-67.4808731079101,-83.2738418579101,-144.89068032404145,34.98346270600376,117897188
sw,-65.0969543457031,-83.9093780517578,-137.2112273108084,34.65475643130313,117913855
sw,-63.0031127929687,-84.4670715332031,-129.19335984247857,34.65790193897001,117930522
sw,-61.0784950256347,-84.9796447753906,-120.90433789012798,34.91469368413153,117947189
sw,-59.3605041503906,-85.5322647094726,-112.17515061504679,35.376771501725024,117963856
sw,-57.7811393737793,-86.2341766357421,-102.60913730838377,36.00562178852872,117980523
sw,-56.3490409851074,-87.028823852539,-91.65275405143491,36.76803293363612,117997190
sw,-55.0274772644043,-87.7509231567382,-78.7376643989293,37.63964933884743,118013857
sw,-53.9319915771484,-88.3099670410156,-63.47240304724909,38.602660284416125,118030524
sw,-53.1189880371093,-88.9211654663086,-45.83510939214902,39.63103147214259,118047191
sw,-52.6044006347656,-89.5239944458007,-26.30789122119435,40.67076460873716,118063858
sw,-52.4122009277343,-89.4290466308593,-5.902672610201659,41.6292921731983,118080525
sw,-52.6204757690429,-88.7726821899414,13.944932455580188,42.381821138182374,118097192
sw,-53.3873786926269,-87.9703979492187,31.599901834025438,42.79037341796738,118113859
sw,-54.4401245117187,-87.1722259521484,45.51850491275974,42.72274813141334,118130526
sw,-55.4343910217285,-86.4456558227539,54.52985469230292,42.0574775233478,118147193
sw,-56.3720092773437,-85.7351608276367,58.03676737583327,40.666874483627915,118163860
sw,-57.5153083801269,-85.0414123535156,56.09495029689509,38.381059978151846,118180527
sw,-58.4241905212402,-84.4819717407226,49.367437684009325,34.946877525164496,118197194
sw,-59.1827354431152,-84.0591430664062,38.97820681945476,30.00272147144625,118213861
sw,-59.5404815673828,-83.7123489379882,26.304219069671635,23.091457245151467,118230528
sw,-59.6613883972168,-83.4977264404296,12.756303688958136,13.726888760715319,118247195
sw,-59.5877304077148,-83.411880493164,-0.3952891347375801,1.5132219931992417,118263862
sw,-59.3287124633789,-83.5514068603515,-12.105879967457959,-13.705152480774654,118280529
sw,-59.1410293579101,-83.9289855957031,-21.540545740821692,-31.706022537982857,118297196
sw,-59.2649383544921,-84.5158157348632,-27.994041261774033,-51.814657198804746,118313863
sw,-59.1902694702148,-85.5628356933593,-30.82322192732413,-72.93377430674056,118330530
sw,-58.5330009460449,-87.1513290405273,-29.471556334176633,-93.69154720812813,118347197
sw,-57.9451484680175,-88.7518081665039,-23.613804522218526,-112.67864916962117,118363864
sw,-57.5281562805175,-87.7334213256836,-13.365234754334299,-128.7061414889044,118380531
sw,-57.3377876281738,-85.4116592407226,0.5602079272416847,-141.00379265882933,118397198
sw,-57.5329513549804,-82.9001312255859,16.85121075877704,-149.30434961861891,118413865
sw,-58.4905662536621,-80.1616592407226,33.79880099677275,-153.808125194654,118430532
sw,-59.6907501220703,-77.4078140258789,49.64265164611365,-155.0634130073613,118447199
sw,-61.0257415771484,-74.9735946655273,62.946270476543255,-153.8122963679008,118463866
sw,-62.3929328918457,-72.6585693359375,72.87217182964142,-150.8429020232326,118480533
sw,-63.683494567871,-70.3230285644531,79.27352726565435,-146.8731889235732,118497200
sw,-64.9312591552734,-68.1371612548828,82.59417372190728,-142.4758859613761,118513867
sw,-66.167984008789,-65.8378295898437,83.63669875448923,-138.04000041498193,118530534
sw,-67.5510635375976,-63.6776695251464,83.2916204998225,-133.75387106761906,118547201
sw,-69.0089416503906,-61.5781593322753,82.31284821778524,-129.59244674267845,118563868
sw,-70.3984222412109,-59.5148887634277,81.18852465092527,-125.29890649123567,118580535
sw,-71.6936950683593,-57.5806198120117,80.11535446249809,-120.36550358583632,118597202
sw,-73.0395050048828,-55.9878540039062,79.05693843191052,-114.0359354581032,118613869
sw,-74.401626586914,-54.688060760498,77.85500163991256,-105.36520617269665,118630536
sw,-75.7215576171875,-53.3587379455566,76.35856408985039,-93.37255354942509,118647203
sw,-77.0641021728515,-52.0016174316406,74.53453859538034,-77.29647104503394,118663870
sw,-78.4199676513671,-50.8533668518066,72.5259734621994,-56.908480518192,118680537
sw,-79.5976409912109,-50.2529106140136,70.6356707144162,-32.788864855652946,118697204
sw,-80.5392456054687,-50.0144081115722,69.23499049731507,-6.4485422098691725,118713871
sw,-81.3759536743164,-50.2305488586425,68.62615690489977,19.787290167124148,118730538
sw,-82.2405319213867,-50.9854507446289,68.90907987796905,43.15018639095555,118747205
sw,-83.1254272460937,-52.0513496398925,69.9057542611575,60.99228027467026,118763872
sw,-83.9059753417968,-53.8313751220703,71.17235058190536,71.41279779583655,118780539
sw,-84.456558227539,-55.6595077514648,72.0933659350228,73.77557685825018,118797206
sw,-84.630859375,-57.0331878662109,72.02273866712156,68.95077478206056,118813873
sw,-84.3706436157226,-58.1827697753906,70.425543710891,59.17940015105827,118830540
sw,-83.9057464599609,-58.9618415832519,66.9805100937332,47.57327409135399,118847207
sw,-83.4807662963867,-59.2248039245605,61.61987375141012,37.383301008807706,118863874
sw,-83.2514572143554,-59.1994018554687,54.500338704081784,31.247716659293285,118880541
sw,-83.0386581420898,-59.4169158935546,45.91417444592636,30.640146299650702,118897208
sw,-82.7540817260742,-60.0777854919433,36.16394741400259,35.66906695329134,118913875
sw,-82.4765548706054,-61.2370986938476,25.436591200202525,45.2550251298984,118930542
sw,-82.312141418457,-63.0386734008789,13.717136499907145,57.57736909151737,118947209
sw,-82.3151779174804,-64.5744476318359,0.7757846101674047,70.59923821054869,118963876
sw,-82.4725952148437,-65.5584411621093,-13.755708639253706,82.48903640527006,118980543
sw,-82.7848510742187,-66.9613647460937,-30.22891837011549,91.84916710054937,118997210
sw,-83.311653137207,-68.7774887084961,-48.78537384002882,97.77582110534136,119013877
sw,-84.2019424438476,-70.6502532958984,-69.18733368856132,99.83435238742098,119030544
sw,-85.3996810913086,-72.4158401489257,-90.73559646219282,98.0211884687569,119047211
sw,-86.3507385253906,-73.9175720214843,-112.31102709901721,92.73367219692153,119063878
sw,-86.3305130004882,-75.4995651245117,-132.53437786844827,84.73122542961075,119080545
sw,-84.8349533081054,-76.9492416381836,-150.0011873538922,75.0601532034444,119097212
sw,-82.3644180297851,-77.9301376342773,-163.52905874877365,64.92343727751637,119113879
sw,-79.417610168457,-78.6234817504882,-172.3548460312135,55.500278810595766,119130546
sw,-76.4280090332031,-79.2615356445312,-176.23532530427184,47.751278796822064,119147213
sw,-73.7124328613281,-80.0146255493164,-175.4336407428953,42.26564349551242,119163880
sw,-71.036148071289,-80.8147277832031,-170.60877897440244,39.19804173451491,119180547
sw,-68.3510055541992,-81.4903106689453,-162.65226680022062,38.30781786001973,119197214
sw,-65.6092147827148,-82.2169723510742,-152.520117736687,39.075776551809085,119213881
sw,-63.2122077941894,-83.142593383789,-141.08864951880167,40.85389964195009,119230548
sw,-61.1197967529296,-83.9652481079101,-129.03945526807473,43.00378943491531,119247215
sw,-59.2378540039062,-84.5384063720703,-116.77203127507408,44.99397548590354,119263882
sw,-57.5821418762207,-85.2288208007812,-104.35321605556774,46.44829103572765,119280549
sw,-56.1913795471191,-86.1557006835937,-91.52459914971223,47.157381930320966,119297216
sw,-55.0483283996582,-87.089599609375,-77.78859475634047,47.070405472321674,119313883
sw,-54.1586227416992,-87.8768081665039,-62.5787778960262,46.27381189112686,119330550
sw,-53.4104919433593,-88.6255569458007,-45.49441400192402,44.954466117106364,119347217
sw,-52.7734565734863,-89.336181640625,-26.548586490693435,43.34740956386873,119363884
sw,-52.4717140197753,-90.0,-6.354061280140915,41.678731439921485,119380551
sw,-52.5397262573242,-89.3056411743164,13.833280171017758,40.11832817030313,119397218
sw,-53.1214141845703,-88.5087890625,32.26394459324677,38.75124291388839,119413885
sw,-54.301170349121,-87.852424621582,47.02664836936615,37.56610080060021,119430552
sw,-55.5660400390625,-87.3179626464843,56.48214881604133,36.45426545226768,119447219
sw,-56.7594375610351,-86.7405166625976,59.67370131454175,35.216972966616716,119463886
sw,-57.8432121276855,-86.1299057006836,56.590971652556505,33.583085476578724,119480553
sw,-59.0059967041015,-85.4845581054687,48.20996816746735,31.237926914069515,119497220
sw,-59.5462303161621,-84.8671417236328,36.296939434480294,27.854225296671025,119513887
sw,-59.8274917602539,-84.4458541870117,23.027102658223384,23.110611528154152,119530554
sw,-59.8661460876464,-84.2775573730468,10.517629330252303,16.69139647661812,119547221
sw,-59.760684967041,-84.2689590454101,0.3978301238902162,8.280834799636711,119563888
sw,-59.5863609313964,-84.3661575317382,-6.471727446318212,-2.4192875739029844,119580555
sw,-59.3573570251464,-84.5967330932617,-10.062320200130348,-15.62384833767585,119597222
sw,-59.1182708740234,-84.9529037475586,-11.012334530732266,-31.35162791604845,119613889
sw,-59.0709533691406,-85.4810485839843,-10.284343209470004,-49.30155633291593,119630556
sw,-59.4420852661132,-86.3083801269531,-8.746091043470967,-68.77640069340562,119647223
sw,-59.9339065551757,-87.5266189575195,-6.81281217955052,-88.70690123574914,119663890
sw,-60.0530471801757,-88.3589706420898,-4.286430472246725,-107.79402455239523,119680557
sw,-59.9774475097656,-87.0300827026367,-0.4685825898139904,-124.73696222395826,119697224
sw,-59.9113731384277,-84.7273864746093,5.482746933172136,-138.4765835789031,119713891
sw,-59.6735343933105,-82.2787170410156,14.092729347435856,-148.37962979257196,119730558
sw,-59.6468811035156,-79.5346374511718,25.200616399693445,-154.3172571478865,119747225
sw,-60.1670494079589,-76.7229537963867,37.8491047063908,-156.63131278964443,119763892
sw,-61.4127044677734,-74.3643112182617,50.49576009029897,-156.01188584848538,119780559
sw,-63.115982055664,-72.0465927124023,61.472461833926126,-153.3254259826748,119797226
sw,-64.7361679077148,-69.7199783325195,69.50884067845872,-149.437871039172,119813893
sw,-66.0063858032226,-67.44482421875,74.11004739346559,-145.07057300169973,119830560
sw,-67.131103515625,-65.1651077270507,75.65132957433363,-140.70765089092018,119847227
sw,-68.2790374755859,-62.946662902832,75.17778220239485,-136.55194063980386,119863894
sw,-69.4130630493164,-60.9334449768066,74.00781063782559,-132.51622931080502,119880561
sw,-70.4850769042968,-58.8942413330078,73.28913736167114,-128.23931433392295,119897228
sw,-71.4579162597656,-56.7845077514648,73.64796790748059,-123.12394772169527,119913895
sw,-72.4644393920898,-54.8231544494628,75.0298701621819,-116.39760876771541,119930562
sw,-73.6729660034179,-53.4359550476074,76.77295638525689,-107.19898814905136,119947229
sw,-75.2276763916015,-52.3300552368164,77.88612231431787,-94.69963080488762,119963896
sw,-76.9974365234375,-51.2177925109863,77.4370103649952,-78.27557296063337,119980563
sw,-78.5671997070312,-50.0813446044921,74.90998407468817,-57.72837827113256,119997230
sw,-79.6661605834961,-49.4578590393066,70.40161717643373,-33.51261804760247,120013897
sw,-80.4810943603515,-49.3519630432128,64.58685002464345,-6.884593793084032,120030564
sw,-81.1806030273437,-49.4873962402343,58.48421622593108,20.118144363346364,120047231
sw,-81.7301559448242,-50.2528076171875,53.12456336823354,44.916154030023726,120063898
sw,-82.1765213012695,-51.3398971557617,49.25021313657427,64.83010982951238,120080565
sw,-82.6184997558593,-52.8875350952148,47.140360905914434,77.64258474119691,120097232
sw,-83.0427780151367,-54.857322692871,46.59792545013232,82.14490375878934,120113899
sw,-83.3568420410156,-56.5588684082031,47.071742014305805,78.51287802305626,120130566
sw,-83.5065612792968,-57.7299461364746,47.847938548075284,68.3816623559212,120147233
sw,-83.5244369506836,-58.8229141235351,48.23636887192213,54.56787104746088,120163900
sw,-83.5469131469726,-59.5415267944335,47.69872398173701,40.49132230315907,120180567
sw,-83.5948944091796,-59.7664375305175,45.898655761115705,29.438510120019057,120197234
sw,-83.5394439697265,-59.7791748046875,42.68245615168551,23.85714807482835,120213901
sw,-83.357666015625,-59.8682975769043,38.01251079458524,24.867652033446348,120230568
sw,-83.1260833740234,-60.335147857666,31.87926895577432,32.121821600961326,120247235
sw,-82.9496841430664,-61.2243194580078,24.219545910043994,44.03745017926054,120263902
sw,-82.8671646118164,-62.9145927429199,14.870834921958526,58.31687399010182,120280569
sw,-82.8622741699218,-64.8886566162109,3.5863026410196674,72.5635406549682,120297236
sw,-82.8997497558593,-66.2140197753906,-9.882017001261865,84.789891012975,120313903
sw,-83.0259628295898,-67.352294921875,-25.650908606489676,93.68106605933177,120330570
sw,-83.2876510620117,-68.9458389282226,-43.569160734142876,98.60763616634249,120347237
sw,-83.7501983642578,-70.5815811157226,-63.13142469856581,99.48853237747375,120363904
sw,-84.4123001098632,-72.2441253662109,-83.48388937086023,96.63103955211412,120380571
sw,-84.860122680664,-73.9658813476562,-103.52782196166478,90.62371149783411,120397238
sw,-84.5627517700195,-75.5986557006836,-122.08864873668858,82.28435311807446,120413905
sw,-83.3906326293945,-77.0050430297851,-138.09716285752285,72.61723619098923,120430572
sw,-81.4547042846679,-78.0011444091796,-150.73355572118405,62.72948661620148,120447239
sw,-78.8864364624023,-78.7424545288086,-159.5055414697429,53.688666166278324,120463906
sw,-76.2340087890625,-79.4064178466796,-164.25516977830134,46.34827244737182,120480573
sw,-73.7923126220703,-79.9825897216796,-165.1088114793255,41.197503461993975,120497240
sw,-71.1430206298828,-80.5775070190429,-162.4000908167997,38.290798997807805,120513907
sw,-68.5295028686523,-81.3578643798828,-156.59987981804466,37.28495215545435,120530574
sw,-65.9013214111328,-82.1837081909179,-148.27286699402427,37.57200667166931,120547241
sw,-63.4520874023437,-82.96923828125,-138.05241376736086,38.461907637137536,120563908
sw,-61.3207778930664,-83.7461166381836,-126.60500417219167,39.35433163120089,120580575
sw,-59.4140625,-84.4386978149414,-114.5590832295506,39.850171640115704,120597242
sw,-57.7836532592773,-84.9785919189453,-102.39827729342856,39.7829728340274,120613909
sw,-56.4739227294921,-85.5433731079101,-90.34968106204042,39.18357962625557,120630576
sw,-55.4042625427246,-86.2249374389648,-78.31730756147033,38.21157157733011,120647243
sw,-54.5163421630859,-86.9736022949218,-65.90906439917107,37.08649434058231,120663910
sw,-53.6666526794433,-87.653564453125,-52.58004177509468,36.0350746931207,120680577
sw,-52.9262733459472,-88.2465438842773,-37.87079331365943,35.25267840428681,120697244
sw,-52.398567199707,-88.8417434692382,-21.67245377985078,34.87118342557813,120713911
sw,-52.1496429443359,-89.3851547241211,-4.423573006144261,34.931199705184966,120730578
sw,-52.3499336242675,-89.742073059082,12.846152619180081,35.36442109912219,120747245
sw,-53.0465469360351,-89.2325592041015,28.662058596512832,35.99346267146961,120763912
sw,-53.9057579040527,-88.5566711425781,41.4105143452521,36.55088422305562,120780579
sw,-54.9291839599609,-87.9233093261718,49.71782652006895,36.71134127158511,120797246
sw,-56.026123046875,-87.2966537475586,52.79112489297953,36.127057814738016,120813913
sw,-57.1300468444824,-86.6891479492187,50.62373526028596,34.45863171900049,120830580
sw,-57.9867706298828,-86.1146545410156,44.007846883974466,31.396701167118884,120847247
sw,-58.5712356567382,-85.5713729858398,34.350847013258814,26.671894517766372,120863914
sw,-58.8409996032714,-85.2306747436523,23.34677420400817,20.05276797915192,120880581
sw,-58.8024253845214,-85.1545104980468,12.597920651597944,11.33812100910468,120897248
sw,-58.7125244140625,-85.2648010253906,3.2992638826239253,0.3598888810474635,120913915
sw,-58.607681274414,-85.4989395141601,-3.9198088183359663,-12.983209388021805,120930582
sw,-58.5046691894531,-85.8641662597656,-8.954618638378172,-28.652593610950436,120947249
sw,-58.5491943359375,-86.429443359375,-12.014661794401027,-46.37464672755,120963916
sw,-58.8873786926269,-87.3053588867187,-13.338158980746629,-65.56613167163323,120980583
sw,-59.1587677001953,-88.6947860717773,-12.95985457277637,-85.32820680715994,120997250
sw,-59.0457916259765,-89.4644165039062,-10.642322366800304,-104.53380726164329,121013917
sw,-58.8347587585449,-87.2298507690429,-6.008744352937898,-121.9919598209115,121030584
sw,-58.6584320068359,-84.853759765625,1.1844437076577732,-136.63790847081344,121047251
sw,-58.5190544128418,-82.3906555175781,10.771827800942383,-147.69101133433682,121063918
sw,-58.7453727722168,-79.7956390380859,22.044869490677996,-154.74456144440714,121080585
sw,-59.5952453613281,-76.9870147705078,33.8398060738026,-157.78402249334408,121097252
sw,-60.7737617492675,-74.2224884033203,44.82465493073041,-157.15107860925397,121113919
sw,-62.0383071899414,-71.7695693969726,53.87073106507836,-153.47416836852466,121130586
sw,-63.2221527099609,-69.4486236572265,60.35920288072236,-147.58069896471622,121147253
sw,-64.2539901733398,-67.1439361572265,64.30949387955766,-140.40034266490125,121163920
sw,-65.2268447875976,-64.8771362304687,66.2984359176678,-132.86226277355706,121180587
sw,-66.2856292724609,-62.7562637329101,67.22071366931846,-125.78162001730517,121197254
sw,-67.4664154052734,-60.877155303955,67.98620223391991,-119.73067346181983,121213921
sw,-68.5909576416015,-59.2354583740234,69.25060549471816,-114.90508907627051,121230588
sw,-69.6428070068359,-57.5836601257324,71.24887527564229,-111.02004637387743,121247255
sw,-70.7590866088867,-55.8716850280761,73.76718041919854,-107.28430311006379,121263922
sw,-72.0150375366211,-54.2436180114746,76.25672147508304,-102.48973117990855,121280589
sw,-73.4883575439453,-52.8892364501953,78.05784202368969,-95.22357943441267,121297256
sw,-75.1546859741211,-51.5709228515625,78.6660822849855,-84.1769097349244,121313923
sw,-76.7560195922851,-50.4268035888671,77.94712450134892,-68.49526467787585,121330590
sw,-78.0438156127929,-49.4749603271484,76.21501178312178,-48.09643837290966,121347257
sw,-79.0638580322265,-48.9180526733398,74.13549274305667,-23.867386738191737,121363924
sw,-79.9707412719726,-48.7500801086425,72.48701270022727,2.340674158294797,121380591
sw,-80.8794555664062,-49.2558975219726,71.870584226262,27.962145200974625,121397258
sw,-81.7601699829101,-50.2543716430664,72.47693469907409,50.18928402620003,121413925
sw,-82.6427841186523,-51.7081146240234,73.99096126992511,66.56999698477459,121430592
sw,-83.4758071899414,-53.3069915771484,75.65906089478815,75.58061749082354,121447259
sw,-84.0182418823242,-54.9137268066406,76.4896872577268,77.01382558693409,121463926
sw,-84.1424789428711,-56.4811973571777,75.51929344185879,72.06322140171434,121480593
sw,-84.0532760620117,-57.6984214782714,72.06186298173849,63.0652414937856,121497260
sw,-83.9084777832031,-58.3029136657714,65.86919689717631,52.954796701680344,121513927
sw,-83.7966995239257,-58.6170616149902,57.15547682925938,44.57999195879176,121530594
sw,-83.6690292358398,-58.9090995788574,46.47806449863637,40.07449524228016,121547261
sw,-83.485366821289,-59.2276992797851,34.51081229882382,40.47257679508039,121563928
sw,-83.2847900390625,-60.2513999938964,21.784516815321556,45.662041673014166,121580595
sw,-83.1506042480468,-62.1781921386718,8.486150576847926,54.63598561668806,121597262
sw,-83.1234588623046,-63.7146568298339,-5.605581955829699,65.89064073150921,121613929
sw,-83.2106018066406,-64.6765594482421,-21.014097833339434,77.78864156191794,121630596
sw,-83.4560012817382,-66.012092590332,-38.313774082802006,88.78253849331007,121647263
sw,-83.9209747314453,-67.6781997680664,-57.81571871667082,97.51465178541042,121663930
sw,-84.6999206542968,-69.3792877197265,-79.30268015614585,102.88379270879145,121680597
sw,-85.5048141479492,-71.2635498046875,-101.91329599838556,104.15290261126181,121697264
sw,-85.489761352539,-73.2627563476562,-124.2233374548223,101.09765306589301,121713931
sw,-84.2956619262695,-75.2791976928711,-144.50152537035586,94.12675403296053,121730598
sw,-82.1224365234375,-76.9177322387695,-161.0609131711627,84.28173985899802,121747265
sw,-79.3579711914062,-77.9082412719726,-172.60265593992904,73.05933308940149,121763932
sw,-76.2396621704101,-78.5026321411132,-178.45820571257613,62.07854581959544,121780599
sw,-73.3920059204101,-79.0308990478515,-178.67162777950762,52.69677677181902,121797266
sw,-70.7783660888671,-79.7157363891601,-173.9165011338785,45.71446581939582,121813933
sw,-68.2297592163086,-80.5370864868164,-165.29461722004777,41.272006720462414,121830600
sw,-65.6072082519531,-81.3948135375976,-154.09186950819864,38.95701643562128,121847267
sw,-63.0295333862304,-82.2677688598632,-141.5557772956815,38.05482982915724,121863934
sw,-60.8422813415527,-83.1482849121093,-128.72212032861762,37.83175819543225,121880601
sw,-58.975112915039,-83.7870712280273,-116.28784267195118,37.74991337751653,121897268
sw,-57.3670310974121,-84.2130432128906,-104.52548230184182,37.55892894133411,121913935
sw,-55.9695205688476,-84.7020263671875,-93.2528917029911,37.26759764923828,121930602
sw,-54.7593917846679,-85.3680725097656,-81.88579191221565,37.04108328648078,121947269
sw,-53.7228126525878,-86.0986709594726,-69.59263273081297,37.080476893209536,121963936
sw,-52.8028259277343,-86.768081665039,-55.54230966707812,37.52467176386031,121980603
sw,-52.037784576416,-87.3661956787109,-39.198063271009495,38.390438329035014,121997270
sw,-51.5237731933593,-87.9419555664062,-20.581145788064283,39.553068623861,122013937
sw,-51.4496955871582,-88.5209121704101,-0.41998465748399993,40.76729523082574,122030604
sw,-51.6609573364257,-89.0073165893554,19.877508831327315,41.72496601303321,122047271
sw,-52.4323196411132,-88.9496536254882,38.4429002858893,42.13508477853098,122063938
sw,-53.6487922668457,-88.3711776733398,53.31311148521294,41.79805302312245,122080605
sw,-54.8336868286132,-87.6593322753906,62.85053589774471,40.64072117680396,122097272
sw,-56.0275840759277,-87.0618896484375,66.10641131436536,38.690401708699554,122113939
sw,-57.2635955810546,-86.6208953857421,63.03496359541241,35.99248760366006,122130606
sw,-58.4985160827636,-86.1755676269531,54.508642277619956,32.505312254915005,122147273
sw,-59.1213951110839,-85.6771392822265,42.132856396657886,28.020544552309456,122163940
sw,-59.4742774963378,-85.2556686401367,27.90444054267069,22.148153763846857,122180607
sw,-59.4865036010742,-84.9993133544921,13.800306402991236,14.378146654179206,122197274
sw,-59.3535575866699,-84.9229888916015,1.4088831975350677,4.203854951810609,122213941
sw,-59.089744567871,-85.0537109375,-8.291811700438208,-8.724410551293586,122230608
sw,-58.7978553771972,-85.3822555541992,-14.953538210407087,-24.451847667656914,122247275
sw,-58.8231620788574,-85.8799209594726,-18.690014435391152,-42.615458017481906,122263942
sw,-59.1389541625976,-86.670166015625,-19.807121531046207,-62.419798580590246,122280609
sw,-59.0920181274414,-87.9884185791015,-18.55707142186148,-82.71569156985234,122297276
sw,-58.8172340393066,-89.1740951538086,-15.028705260607278,-102.17662998889232,122313943
sw,-58.6122512817382,-87.4953994750976,-9.21405653045535,-119.52882725625678,122330610
sw,-58.4089584350585,-85.227554321289,-1.1960988587737775,-133.76438486420577,122347277
sw,-58.3138885498046,-82.8320770263671,8.660768968684048,-144.27420450257466,122363944
sw,-58.5837898254394,-80.3083419799804,19.634309531462577,-150.8761308251127,122380611
sw,-59.3988647460937,-77.5667190551757,30.738665934648314,-153.75820885962338,122397278
sw,-60.5070838928222,-74.9412460327148,40.95953904327153,-153.38011122980285,122413945
sw,-61.6634407043457,-72.6006393432617,49.530084047065344,-150.37215753410007,122430612
sw,-62.7142639160156,-70.2478332519531,56.12756952782246,-145.45374600687217,122447279
sw,-63.6438941955566,-68.0302047729492,60.91123435792833,-139.37433747397898,122463946
sw,-64.5505142211914,-65.8123550415039,64.39733260105261,-132.8649572448583,122480613
sw,-65.5531845092773,-63.6342239379882,67.23544470219683,-126.5796044767273,122497280
sw,-66.7467803955078,-61.7863578796386,69.97864770533533,-121.01002186875134,122513947
sw,-68.0399398803711,-60.1188278198242,72.92444699636674,-116.37661588405052,122530614
sw,-69.2997055053711,-58.3691177368164,76.06297409019213,-112.5245212650691,122547281
sw,-70.5420227050781,-56.6375579833984,79.12974042173902,-108.8697955648846,122563948
sw,-71.8791122436523,-54.9828453063964,81.73586507395451,-104.43504341220404,122580615
sw,-73.4323501586914,-53.7135581970214,83.53548530796455,-97.99185209298535,122597282
sw,-75.1462326049804,-52.435203552246,84.37939612938219,-88.30248160739096,122613949
sw,-76.7458877563476,-51.0832023620605,84.39840053448692,-74.428419509239,122630616
sw,-78.0609359741211,-49.9447212219238,83.97344088499271,-56.04406543010424,122647283
sw,-79.2137832641601,-49.3248863220214,83.58997686789606,-33.66737853118225,122663950
sw,-80.2839202880859,-49.0568351745605,83.62669239355118,-8.718072017272457,122680617
sw,-81.3871688842773,-49.3529624938964,84.16355204730233,16.648503716867406,122697284
sw,-82.5219421386718,-50.1336441040039,84.89034293134699,39.91883228023443,122713951
sw,-83.5890121459961,-51.3046760559082,85.15719038909648,58.73078830780604,122730618
sw,-84.3806076049804,-52.8144607543945,84.15416904728283,71.39034471593197,122747285
sw,-84.659912109375,-54.366600036621,81.16081972623243,77.25851852369662,122763952
sw,-84.4876174926757,-56.0205192565918,75.78221385373445,76.89766540602807,122780619
sw,-84.1011657714843,-57.387638092041,68.09071599804606,71.92530907834518,122797286
sw,-83.7793426513671,-58.2133674621582,58.620475829838135,64.60355412169666,122813953
sw,-83.5938491821289,-58.7781105041503,48.209252184728996,57.274876594407566,122830620
sw,-83.4041213989257,-59.1886978149414,37.73589442451601,51.81420259244456,122847287
sw,-83.156623840332,-59.6394348144531,27.83976880648741,49.27088058811483,122863954
sw,-82.8725051879882,-60.7107124328613,18.712406355588822,49.805347225579155,122880621
sw,-82.6907882690429,-62.5579071044921,10.022685443737462,52.90329780547792,122897288
sw,-82.6519088745117,-63.9876708984375,0.9937653564701723,57.73214343990807,122913955
sw,-82.6933059692382,-64.880859375,-9.388901786685585,63.45878478525508,122930622
sw,-82.8312759399414,-66.0219116210937,-22.088396319914416,69.40443968496538,122947289
sw,-83.1199722290039,-67.3244476318359,-37.716973769055194,75.0292467326535,122963956
sw,-83.6948165893554,-68.5614318847656,-56.30679463792301,79.8337868926686,122980623
sw,-84.6039199829101,-69.9775085449218,-77.21900503784936,83.28620529966587,122997290
sw,-85.4396743774414,-71.4602279663086,-99.22166507717398,84.84294212247167,123013957
sw,-85.5820770263671,-73.0476531982421,-120.71418155707131,84.06653692593848,123030624
sw,-84.6370697021484,-74.7003097534179,-140.0310518047513,80.78778841338169,123047291
sw,-82.7121810913086,-76.1017532348632,-155.74059384257566,75.23206701825399,123063958
sw,-80.2606201171875,-77.203872680664,-166.86764040464942,68.04023262005225,123080625
sw,-77.4565963745117,-78.1075134277343,-173.00079739405857,60.15808421818952,123097292
sw,-74.5577392578125,-78.9110031127929,-174.27994475148148,52.62368463590843,123113959
sw,-71.8971710205078,-79.6481628417968,-171.28830077876506,46.32252026900265,123130626
sw,-69.2680740356445,-80.3098983764648,-164.89073061502967,41.78981075276213,123147293
sw,-66.6484832763671,-80.9634323120117,-156.06293450300925,39.11904917661189,123163960
sw,-63.9847908020019,-81.7306747436523,-145.74302648706262,37.99870030040678,123180627
sw,-61.6691360473632,-82.5655822753906,-134.71405103403112,37.85807778983687,123197294
sw,-59.7089080810546,-83.2795257568359,-123.50990406968046,38.07022341863966,123213961
sw,-57.9158248901367,-83.905517578125,-112.3415190827557,38.145154382061506,123230628
sw,-56.3235626220703,-84.5767822265625,-101.05935375354171,37.85659594251432,123247295
sw,-55.0119514465332,-85.2698135375976,-89.18224492147066,37.272570484785625,123263962
sw,-53.9253616333007,-85.955093383789,-76.01754723685535,36.6907809565473,123280629
sw,-52.9184226989746,-86.5511093139648,-60.87343866694872,36.50412676232473,123297296
sw,-52.0744552612304,-87.064956665039,-43.3293043914718,37.03848877235482,123313963
sw,-51.544017791748,-87.6489028930664,-23.495729170196043,38.413155156537854,123330630
sw,-51.3723068237304,-88.3693771362304,-2.1776756891269518,40.46889750306644,123347297
sw,-51.4800033569335,-89.1449966430664,19.133245404239766,42.78646446080721,123363964
sw,-52.2840423583984,-89.8165512084961,38.467174846344264,44.785408119515495,123380631
sw,-53.4835395812988,-89.0124588012695,53.75122824679611,45.86401113000455,123397298
sw,-54.7809982299804,-88.1181030273437,63.257965851224135,45.52841636916529,123413965
sw,-55.8835411071777,-87.4080734252929,66.00374003106458,43.46728644428039,123430632
sw,-57.2850723266601,-86.780403137207,61.98727800425425,39.553080137052994,123447299
sw,-58.3929214477539,-86.1647796630859,52.20590932927873,33.780984582862374,123463966
sw,-58.8903160095214,-85.7373580932617,38.44607200636464,26.178267397865167,123480633
sw,-59.1004066467285,-85.5453033447265,22.90356366782068,16.72362885615875,123497300
sw,-59.0579833984375,-85.5082168579101,7.738300605599133,5.310902139272337,123513967
sw,-58.7970962524414,-85.6762771606445,-5.310406820949581,-8.221248815165703,123530634
sw,-58.4396743774414,-86.079833984375,-15.14461356653151,-23.991650421262275,123547301
sw,-58.1706581115722,-86.6277999877929,-21.32153975599333,-41.934773086254154,123563968
sw,-58.2463035583496,-87.3195648193359,-23.892388485759984,-61.66366226286182,123580635
sw,-58.2769432067871,-88.4853439331054,-23.16051292602701,-82.39873640947742,123597302
sw,-58.0369911193847,-89.6713562011718,-19.47677579156585,-103.00993944293796,123613969
sw,-57.9188842773437,-87.3787078857421,-13.158184843818317,-122.17762541236031,123630636
sw,-57.7158012390136,-84.8769989013671,-4.540855348143336,-138.62485058810856,123647303
sw,-57.6252975463867,-82.2782363891601,5.898261475950526,-151.34260682180368,123663970
sw,-57.7270469665527,-79.5938568115234,17.451836452984146,-159.73980237871348,123680637
sw,-58.4287300109863,-76.5470123291015,29.204411446087967,-163.6899256609668,123697304
sw,-59.4178848266601,-73.6262741088867,40.18293844554959,-163.48626889985056,123713971
sw,-60.6076011657714,-71.1541366577148,49.58076418224697,-159.73885711235076,123730638
sw,-61.8236274719238,-68.8112564086914,56.95749149656781,-153.25183399074038,123747305
sw,-62.8762435913085,-66.5731201171875,62.32499585768327,-144.91641767624733,123763972
sw,-63.8598098754882,-64.2194213867187,66.08253325503087,-135.63832222944305,123780639
sw,-64.8363723754882,-61.9116477966308,68.8318897090411,-126.2894156570566,123797306
sw,-65.9893112182617,-59.9626007080078,71.15163966707476,-117.64842434003637,123813973
sw,-67.2709884643554,-58.3257026672363,73.41675909021086,-110.29802454104333,123830640
sw,-68.5403747558593,-56.8346939086914,75.71993767605413,-104.48003979392799,123847307
sw,-69.8013076782226,-55.297752380371,77.90630707364176,-99.95372296172872,123863974
sw,-71.1850662231445,-53.7910423278808,79.69580638554105,-95.92401275033352,123880641
sw,-72.6951828002929,-52.5804481506347,80.84470465212506,-91.09650462565152,123897308
sw,-74.2476959228515,-51.5287284851074,81.28760502922194,-83.88527457194817,123913975
sw,-75.7165069580078,-50.4039421081543,81.20416128460897,-72.76151234593324,123930642
sw,-77.0149917602539,-49.3108329772949,80.97644473301163,-56.68646445170948,123947309
sw,-78.1503601074218,-48.4946212768554,81.04336624825949,-35.52439445158139,123963976
sw,-79.2219619750976,-47.8760337829589,81.70375360750268,-10.300460072637568,123980643
sw,-80.2774505615234,-48.111026763916,82.94731939807815,16.817123416791087,123997310
sw,-81.3436508178711,-49.0547218322753,84.38699934668632,42.86036630949751,124013977
sw,-82.4696731567382,-50.4086990356445,85.32811848978847,64.6728926838676,124030644
sw,-83.5294036865234,-52.1500930786132,84.9562933531442,79.63336002784264,124047311
sw,-84.2209014892578,-53.932518005371,82.57994377417093,86.28841136767966,124063978
sw,-84.5343475341796,-55.6014137268066,77.84395926217336,84.71555876708918,124080645
sw,-84.4908905029296,-57.1666946411132,70.84513039192373,76.51342669473578,124097312
sw,-84.2739181518554,-58.3190574645996,62.117865792257675,64.41811773061202,124113979
sw,-84.0201416015625,-58.8982467651367,52.5013089721473,51.644375963399504,124130646
sw,-83.733154296875,-59.0601806640625,42.92989851465488,41.12984612732319,124147313
sw,-83.4243698120117,-59.1946258544921,34.20217732916283,34.89845893122005,124163980
sw,-83.1134796142578,-59.4297485351562,26.77983133323414,33.72966643505309,124180647
sw,-82.8338546752929,-60.5080375671386,20.65773035872898,37.21558240201178,124197314
sw,-82.5927124023437,-62.2448806762695,15.33231731718034,44.13943453030532,124213981
sw,-82.3990402221679,-63.4820518493652,9.88131175732529,52.98513944678428,124230648
sw,-82.2837295532226,-64.3877944946289,3.1495221951419614,62.3600366592357,124247315
sw,-82.2687911987304,-65.5070877075195,-5.9887017207157065,71.19841424436022,124263982
sw,-82.4186935424804,-66.7985305786132,-18.346447536182403,78.75167201016309,124280649
sw,-82.8528823852539,-68.1174774169921,-34.19393291383127,84.4708222851056,124297316
sw,-83.6404113769531,-69.6254653930664,-53.148219122283386,87.90383219483257,124313983
sw,-84.6982192993164,-71.2553558349609,-74.21660671770262,88.683059868458,124330650
sw,-85.7601623535156,-72.9948425292968,-95.97801465279382,86.60858484878877,124347317
sw,-86.3182601928711,-74.6362991333007,-116.84462069323456,81.77480765379639,124363984
sw,-85.7503814697265,-76.0275192260742,-135.33039703670372,74.66148936458742,124380651
sw,-83.9749450683593,-77.1174087524414,-150.26612599009056,66.12425987131489,124397318
sw,-81.5403060913086,-77.9484634399414,-160.92832058394927,57.2638305670013,124413985
sw,-78.8572463989257,-78.6270904541015,-167.07602995371184,49.20519465106518,124430652
sw,-76.03125,-79.27001953125,-168.9075640449006,42.85511658430906,124447319
sw,-73.3329849243164,-79.9308471679687,-166.9596253048266,38.714961309482455,124463986
sw,-70.7255172729492,-80.6185989379882,-161.97638001614467,36.80574746381334,124480653
sw,-68.1787338256836,-81.3995590209961,-154.77563207746394,36.722851116269645,124497320
sw,-65.5398788452148,-82.2955932617187,-146.13201143457863,37.794206250903564,124513987
sw,-63.2115859985351,-83.0709762573242,-136.68428692220107,39.28409690596739,124530654
sw,-61.1679039001464,-83.6228942871093,-126.86374269077969,40.57701867290195,124547321
sw,-59.2944564819335,-84.20654296875,-116.8424171486924,41.294892812950906,124563988
sw,-57.6150970458984,-84.9375534057617,-106.51213690639544,41.33337883272812,124580655
sw,-56.1170578002929,-85.7800750732421,-95.51425435759958,40.82863656747963,124597322
sw,-54.8028564453125,-86.5392074584961,-83.3348827442043,40.074721737532485,124613989
sw,-53.6448745727539,-87.1569747924804,-69.46210023737969,39.41219890600001,124630656
sw,-52.7613525390625,-87.729621887207,-53.5785477058205,39.112659202597335,124647323
sw,-52.1002388000488,-88.2907409667968,-35.744177571726844,39.29051363226941,124663990
sw,-51.760398864746,-88.8932342529296,-16.516509508350165,39.87073487500666,124680657
sw,-51.7344093322753,-89.3611221313476,3.0366874997656383,40.62233064277124,124697324
sw,-52.0266799926757,-88.9910888671875,21.45457741598503,41.23956125056001,124713991
sw,-52.9584274291992,-88.3539657592773,37.11781347620796,41.43232251552407,124730658
sw,-53.9970436096191,-87.6890335083007,48.550022665694556,40.9861630350394,124747325
sw,-54.915054321289,-87.0078125,54.7105140840099,39.77045295355818,124763992
sw,-55.8640403747558,-86.371353149414,55.20456825683861,37.69772858950397,124780659
sw,-56.9961814880371,-85.7783584594726,50.36491605409237,34.65523924979996,124797326
sw,-57.807861328125,-85.281379699707,41.19199627248271,30.437166493453987,124813993
sw,-58.2230796813964,-84.9202499389648,29.16855084679604,24.705790290526558,124830660
sw,-58.3354377746582,-84.7232589721679,15.989432548723654,17.004743461179796,124847327
sw,-58.2578887939453,-84.6296615600586,3.2718021955123255,6.836777121198154,124863994
sw,-58.1135444641113,-84.6479721069336,-7.6790023667758405,-6.1996098524224905,124880661
sw,-57.9055099487304,-84.8814392089843,-15.990460883706536,-22.24398720333945,124897328
sw,-57.6301536560058,-85.3506317138671,-21.215307035106857,-41.02860771285134,124913995
sw,-57.5647468566894,-86.1334075927734,-23.227498647260106,-61.81071745746564,124930662
sw,-57.4805908203125,-87.4440383911132,-22.0868433161847,-83.4230757083968,124947329
sw,-57.3107376098632,-89.098648071289,-17.942638353268126,-104.44494218170266,124963996
sw,-57.286636352539,-88.0522766113281,-11.019816395141616,-123.44910048453808,124980663
sw,-57.1919746398925,-85.6941146850586,-1.6814659790284887,-139.2485769079222,124997330
sw,-57.0877685546875,-83.1225662231445,9.487006832829515,-151.06937807382283,125013997
sw,-57.3175430297851,-80.5048828125,21.647676849586897,-158.6119065364946,125030664
sw,-58.1597442626953,-77.5503234863281,33.788242203783625,-162.01010338747383,125047331
sw,-59.2355690002441,-74.6088943481445,44.90689934487409,-161.72677637045592,125063998
sw,-60.4368743896484,-72.1152877807617,54.24103289312162,-158.4274264833675,125080665
sw,-61.651741027832,-69.7828903198242,61.44670479919895,-152.86481081790825,125097332
sw,-62.7861671447753,-67.5337295532226,66.65442056930209,-145.7949782372471,125113999
sw,-63.8851242065429,-65.1862106323242,70.38020953177605,-137.9314125550403,125130666
sw,-65.0156707763671,-62.8727302551269,73.329013768481,-129.92276153312048,125147333
sw,-66.2946243286132,-60.8220901489257,76.16302318029015,-122.3210188154257,125164000
sw,-67.6525497436523,-59.1045989990234,79.31009153386576,-115.50968574184586,125180667
sw,-69.0057983398437,-57.4479026794433,82.86341043637663,-109.59093818739233,125197334
sw,-70.3839950561523,-55.802879333496,86.58992029619326,-104.26954151853025,125214001
sw,-71.9124755859375,-54.4323692321777,90.0350652603536,-98.79404560624732,125230668
sw,-73.6061935424804,-53.1919746398925,92.6885695703022,-92.0117614594898,125247335
sw,-75.350715637207,-52.0129165649414,94.15872125527218,-82.56794689096512,125264002
sw,-77.087417602539,-50.8914604187011,94.29574797984367,-69.2380900908706,125280669
sw,-78.6743087768554,-49.8495330810546,93.2176321095352,-51.33072683400233,125297336
sw,-80.01513671875,-49.1733131408691,91.22697002201689,-29.051225422007477,125314003
sw,-81.0865936279296,-48.8922462463378,88.65374900645209,-3.697817774765946,125330670
sw,-82.0575485229492,-49.0814781188964,85.6943999684543,22.41278410900843,125347337
sw,-82.9939498901367,-49.9107360839843,82.32222893809491,46.32306081794249,125364004
sw,-83.8503723144531,-51.3634033203125,78.31271684026785,65.05439389360386,125380671
sw,-84.3872375488281,-53.182331085205,73.37325549215322,76.31871896403297,125397338
sw,-84.4642028808593,-54.8955841064453,67.31776369830709,79.1218591347785,125414005
sw,-84.2152786254882,-56.3163261413574,60.20698325941247,74.07262210703948,125430672
sw,-83.9015350341796,-57.5843887329101,52.393374775170074,63.29147497054734,125447339
sw,-83.6716995239257,-58.4352188110351,44.453855060229074,49.92886660868835,125464006
sw,-83.4796524047851,-58.6473579406738,37.04044130725254,37.41672673047023,125480673
sw,-83.2599487304687,-58.6600227355957,30.705400392948523,28.65744858064278,125497340
sw,-82.9691314697265,-58.7683944702148,25.75404893601444,25.380946440691435,125514007
sw,-82.6287689208984,-59.0387496948242,22.153808893754068,27.855159197208778,125530674
sw,-82.3314437866211,-59.7470932006835,19.50342631593547,35.022085103767864,125547341
sw,-82.1132278442382,-61.3409118652343,17.057887165927337,44.98625663871108,125564008
sw,-81.92333984375,-63.1323738098144,13.811033426481362,55.66169729655824,125580675
sw,-81.7640762329101,-64.2589950561523,8.642253509219621,65.33993657871149,125597342
sw,-81.6713562011718,-65.3407821655273,0.5207547850426568,73.00058473032905,125614009
sw,-81.7320022583007,-66.734634399414,-11.267002181256622,78.31781209698269,125630676
sw,-82.0429763793945,-67.9884490966796,-26.92582213473732,81.44484408491101,125647343
sw,-82.7555465698242,-69.2510452270507,-46.05752459315562,82.72066838424831,125664010
sw,-83.8708801269531,-70.5896987915039,-67.6986934718735,82.43216562971672,125680677
sw,-85.1655197143554,-72.0533905029296,-90.48071851121095,80.71113473382754,125697344
sw,-86.2399597167968,-73.6045532226562,-112.86153137674813,77.5774141010943,125714011
sw,-86.3056259155273,-75.037971496582,-133.36158028977061,73.07720340512684,125730678
sw,-84.7634048461914,-76.3192443847656,-150.75001536156978,67.43034686669398,125747345
sw,-82.3854522705078,-77.4069061279296,-164.15822745784362,61.10465378186336,125764012
sw,-79.6251144409179,-78.2671203613281,-173.1257366379885,54.774410921918154,125780679
sw,-76.5508270263671,-79.0201644897461,-177.5946120311551,49.17435705862791,125797346
sw,-73.5548782348632,-79.7198486328125,-177.86458955982536,44.905984121297564,125814013
sw,-70.6524505615234,-80.3635864257812,-174.51336790005922,42.272437768803655,125830680
sw,-67.9037551879882,-81.0764541625976,-168.28618354856945,41.205655097300095,125847347
sw,-65.1872863769531,-81.92724609375,-159.9664258428396,41.311849566811425,125864014
sw,-62.6130065917968,-82.783821105957,-150.24604044124678,42.01546494110125,125880681
sw,-60.3343391418457,-83.5331573486328,-139.6146850924184,42.7466209635491,125897348
sw,-58.2332572937011,-84.2952194213867,-128.28360212075705,43.10677293209703,125914015
sw,-56.4052467346191,-85.1466751098632,-116.15950324295945,42.962183117064775,125930682
sw,-54.8022384643554,-85.9513626098632,-102.88367172092535,42.44297406886963,125947349
sw,-53.3992576599121,-86.5974044799804,-87.94535019111318,41.85490335343676,125964016
sw,-52.3181114196777,-87.1845016479492,-70.86304298013867,41.536580598677766,125980683
sw,-51.4513244628906,-87.7953109741211,-51.40569562999645,41.712792998393915,125997350
sw,-50.84619140625,-88.4425430297851,-29.804555221010443,42.396881821861776,126014017
sw,-50.5709724426269,-89.1733856201171,-6.8934997257136255,43.376347864062666,126030684
sw,-50.6857604980468,-89.6872177124023,15.881461227230227,44.28193191825061,126047351
sw,-51.3727416992187,-88.9306411743164,36.61803419927901,44.70641732252069,126064018
sw,-52.4241523742675,-88.1192398071289,53.268464032524804,44.32075013730241,126080685
sw,-53.7148361206054,-87.348274230957,64.04395452537229,42.93968588647733,126097352
sw,-54.823371887207,-86.645149230957,67.81524222673414,40.51336792735988,126114019
sw,-56.3840255737304,-86.0225601196289,64.40469253602114,37.05211845953977,126130686
sw,-57.6592216491699,-85.4985046386718,54.686047321000125,32.51632719488495,126147353
sw,-58.3578262329101,-85.1585540771484,40.45006034328421,26.71612987755922,126164020
sw,-58.5905303955078,-85.0120239257812,24.054875773541305,19.266735283223706,126180687
sw,-58.4890632629394,-84.9216003417968,7.949061894780635,9.6341262226624,126197354
sw,-58.2671012878418,-84.8712310791015,-5.796314505509839,-2.7202795667081743,126214021
sw,-57.9152526855468,-84.9947738647461,-15.812429519555367,-18.12652463993685,126230688
sw,-57.6512908935546,-85.2709732055664,-21.535857289235263,-36.49384188224916,126247355
sw,-57.7793769836425,-85.8498001098632,-23.094882805094397,-57.186039837655414,126264022
sw,-57.7431182861328,-87.1615142822265,-21.058905551048667,-79.05133721900287,126280689
sw,-57.6788711547851,-89.1060638427734,-16.167817047677843,-100.61564720301904,126297356
sw,-57.7884979248046,-88.2222671508789,-9.141501994225385,-120.3756817719239,126314023
sw,-57.8022918701171,-85.958381652832,-0.6103995595844737,-137.08191445001427,126330690
sw,-57.7628021240234,-83.4740295410156,8.858841462746224,-149.91387875437294,126347357
sw,-57.9595260620117,-80.9642562866211,18.708789901420968,-158.51386468304912,126364024
sw,-58.5799102783203,-78.0620651245117,28.373105500011718,-162.9147688277749,126380691
sw,-59.4289436340332,-75.1734542846679,37.32532549710322,-163.430502063486,126397358
sw,-60.4539909362793,-72.6625823974609,45.177627664894224,-160.56480336701452,126414025
sw,-61.466697692871,-70.1150207519531,51.77866613176243,-154.95925426087754,126430692
sw,-62.5349731445312,-67.54638671875,57.255199297891124,-147.36905839620576,126447359
sw,-63.5925712585449,-65.2877197265625,61.96598784512536,-138.636411315579,126464026
sw,-64.6766891479492,-63.1244735717773,66.37382509814,-129.62883978381203,126480693
sw,-65.8690643310546,-61.2006340026855,70.8749946129491,-121.12636898383923,126497360
sw,-67.1141510009765,-59.6381187438964,75.64235363306315,-113.67240489326046,126514027
sw,-68.3668441772461,-58.1536521911621,80.53508941066015,-107.43289570171102,126530694
sw,-69.7045745849609,-56.3370132446289,85.1093349062382,-102.11797657910637,126547361
sw,-71.2133483886718,-54.6425094604492,88.73572820078557,-97.00204503757459,126564028
sw,-72.8508758544921,-53.483959197998,90.79729885500909,-91.04451619552319,126580695
sw,-74.6399841308593,-52.41109085083,90.90952565382703,-83.08876883793788,126597362
sw,-76.4675598144531,-51.1964683532714,89.08523903658309,-72.109975011438,126614029
sw,-77.9919738769531,-50.2271423339843,85.77413493564708,-57.47771930577709,126630696
sw,-79.1390533447265,-49.6465721130371,81.7467942022654,-39.18426609310403,126647363
sw,-80.0228729248046,-49.341739654541,77.85556188648495,-17.97679959797428,126664030
sw,-80.9201354980468,-49.2839546203613,74.76012319716796,4.6596916301443985,126680697
sw,-81.9370040893554,-49.7823295593261,72.72226862625365,26.692399831122707,126697364
sw,-82.855239868164,-50.6298866271972,71.54239755856499,45.88608882393159,126714031
sw,-83.5701370239257,-51.9019355773925,70.65063824762724,60.24254369495226,126730698
sw,-84.0887222290039,-53.4116096496582,69.3110227591497,68.43611218135743,126747365
sw,-84.366958618164,-54.7090110778808,66.86746671213112,70.13407116442635,126764032
sw,-84.3991622924804,-55.8706474304199,62.955537483664955,66.1119628852174,126780699
sw,-84.2071533203125,-57.1578865051269,57.61780516107896,58.12429442669496,126797366
sw,-83.9485473632812,-58.1006851196289,51.289468754948075,48.5504262985472,126814033
sw,-83.6673278808593,-58.5158500671386,44.66033573985793,39.88884615511088,126830700
sw,-83.3428649902343,-58.7613258361816,38.45733539465728,34.21674116436783,126847367
sw,-83.0121154785156,-59.0448265075683,33.21346656803659,32.75754913831247,126864034
sw,-82.6559448242187,-59.4285202026367,29.08702667450191,35.68486650799807,126880701
sw,-82.3418884277343,-60.2333068847656,25.774826456885616,42.22254176854466,126897368
sw,-82.1021118164062,-61.889347076416,22.537158520636375,50.99542345571441,126914035
sw,-81.8899154663086,-63.5365295410156,18.329245116714077,60.488544064565886,126930702
sw,-81.6667175292968,-64.6278991699218,12.014983453823556,69.43619364411273,126947369
sw,-81.4869613647461,-65.7664260864257,2.621667798425156,77.0131384687139,126964036
sw,-81.4270095825195,-67.1735229492187,-10.420290642645057,82.81049276150772,126980703
sw,-81.6428604125976,-68.4628219604492,-27.113869478474488,86.67853448223288,126997370
sw,-82.2962799072265,-69.8461532592773,-46.856253335483935,88.5549807449502,127014037
sw,-83.3337936401367,-71.4033508300781,-68.538101730661,88.37051445639953,127030704
sw,-84.6084213256836,-73.0536117553711,-90.7505412479254,86.06513770234245,127047371
sw,-85.7818374633789,-74.6522369384765,-112.03324218977016,81.68875656766492,127064038
sw,-86.2245712280273,-76.0422744750976,-131.08895685076354,75.51941247457846,127080705
sw,-85.2406692504882,-77.2404174804687,-146.91460883767616,68.12704087065663,127097372
sw,-83.126594543457,-78.2754821777343,-158.8415890289217,60.337784838604385,127114039
sw,-80.5669326782226,-79.1025772094726,-166.5134085247019,53.09692943604121,127130706
sw,-77.6380462646484,-79.7850799560546,-169.84014482585556,47.268546918987916,127147373
sw,-74.8642120361328,-80.4295120239257,-168.95722180903385,43.43471514379876,127164040
sw,-72.1244583129882,-81.0762405395507,-164.19567237765614,41.760371397484114,127180707
sw,-69.6007461547851,-81.8690185546875,-156.05722863835965,41.96965189404285,127197374
sw,-67.1090774536132,-82.8054122924804,-145.18475570095333,43.44124583720777,127214041
sw,-64.8648681640625,-83.7736434936523,-132.3209053220728,45.38814006525574,127230708
sw,-62.9232215881347,-84.6011962890625,-118.25012428440344,47.06004095935051,127247375
sw,-61.1707916259765,-85.2920608520507,-103.7227394086234,47.907561042916974,127264042
sw,-59.6999931335449,-86.0851821899414,-89.36762486609511,47.67228127333813,127280709
sw,-58.5539093017578,-86.9598541259765,-75.61033267062737,46.39743802169221,127297376
sw,-57.6841163635253,-87.7347106933593,-62.62191295734729,44.3730950644585,127314043
sw,-57.0118370056152,-88.4068908691406,-50.324904163435015,42.03594476398642,127330710
sw,-56.3955688476562,-89.0549850463867,-38.47194116747916,39.846755209759195,127347377
sw,-55.845890045166,-89.5293655395507,-26.787595467889954,38.17248984663241,127364044
sw,-55.4894752502441,-89.5106124877929,-15.13387070785432,37.20104364748426,127380711
sw,-55.4439735412597,-89.0206146240234,-3.641245198373325,36.90975945368463,127397378
sw,-55.5902404785156,-88.3384628295898,7.246180519194497,37.09444859889121,127414045
sw,-55.9782257080078,-87.6429977416992,16.83261512270306,37.44712246107566,127430712
sw,-56.5998497009277,-86.951301574707,24.32255731718966,37.654554580570235,127447379
sw,-57.0661544799804,-86.2612152099609,29.017376287051036,37.483490643804686,127464046
sw,-57.6476173400878,-85.5769882202148,30.501631466111725,36.82443732508983,127480713
sw,-58.4146270751953,-84.938720703125,28.77142559765652,35.680458203664585,127497380
sw,-58.9707946777343,-84.3516006469726,24.272066147241514,34.104207551462366,127514047
sw,-59.2506637573242,-83.8004684448242,17.83108974573416,32.10154229071351,127530714
sw,-59.3294334411621,-83.3307037353515,10.498102018011807,29.53116033820247,127547381
sw,-59.4090118408203,-82.9446792602539,3.3318582140203072,26.03482677734563,127564048
sw,-59.3983306884765,-82.6415023803711,-2.8066736869214703,21.030186315434868,127580715
sw,-59.2738494873046,-82.450439453125,-7.399320100786017,13.786749268272485,127597382
sw,-59.0856056213378,-82.3426284790039,-10.31687287877766,3.585064536632274,127614049
sw,-58.8798866271972,-82.3025512695312,-11.75424564158505,-10.068571161790844,127630716
sw,-58.7709083557128,-82.4189987182617,-12.06966999297344,-27.227590190886023,127647383
sw,-58.9775161743164,-82.8451690673828,-11.57407495384521,-47.36295804661933,127664050
sw,-59.1916275024414,-83.7467727661132,-10.34526403029327,-69.35671656484698,127680717
sw,-59.1463432312011,-85.0833892822265,-8.148742557116694,-91.65552508899368,127697384
sw,-59.1450538635253,-86.3509521484375,-4.515346027484496,-112.55086174459218,127714051
sw,-59.138427734375,-86.5569610595703,1.0401880378374517,-130.50352779421235,127730718
sw,-58.9402503967285,-85.1528549194336,8.74439130144737,-144.41532793783537,127747385
sw,-58.9200325012207,-82.9053268432617,18.353692272522057,-153.77649361370433,127764052
sw,-59.4707298278808,-80.4835128784179,29.108614711668295,-158.66747882537362,127780719
sw,-60.4509468078613,-77.8688049316406,39.88993758077471,-159.64294094645845,127797386
sw,-61.6900444030761,-75.4493637084961,49.5257189671406,-157.55434739615558,127814053
sw,-62.9594955444335,-73.126968383789,57.13079702152038,-153.36910002967534,127830720
sw,-64.0701293945312,-70.8997497558593,62.34876968636175,-148.025094664642,127847387
sw,-65.1043243408203,-68.7778701782226,65.41434398658326,-142.33381880447547,127864054
sw,-66.0893096923828,-66.5409088134765,67.03147443568221,-136.923838516847,127880721
sw,-67.1886825561523,-64.3594894409179,68.1286797953174,-132.20535706675335,127897388
sw,-68.3996505737304,-62.4569358825683,69.58081293878159,-128.33727477467878,127914055
sw,-69.572998046875,-60.5409317016601,71.97641266074204,-125.19014198636987,127930722
sw,-70.7074890136718,-58.5164375305175,75.4807752737736,-122.31536623692877,127947389
sw,-71.950439453125,-56.5906562805175,79.81614071546635,-118.9426852320727,127964056
sw,-73.3491287231445,-55.0975799560546,84.35683810601827,-114.03009765541012,127980723
sw,-74.8769302368164,-53.7635154724121,88.31344105888175,-106.38769447986704,127997390
sw,-76.5841369628906,-52.276439666748,90.95481614097504,-94.88823861400151,128014057
sw,-78.3225479125976,-50.9483642578125,91.80052761424281,-78.75170393672292,128030724
sw,-79.7205810546875,-49.9754829406738,90.7223213788072,-57.847449016184385,128047391
sw,-80.8470687866211,-49.252944946289,87.92699709657913,-32.91979662855861,128064058
sw,-81.7604141235351,-49.0037879943847,83.84085220135448,-5.639303074452496,128080725
sw,-82.5541305541992,-49.4761695861816,78.9522997893766,21.578412445964666,128097392
sw,-83.1420211791992,-50.4815330505371,73.67500311699186,45.97477904224431,128114059
sw,-83.3969345092773,-51.9040603637695,68.27215657799664,64.98508317582245,128130726
sw,-83.3993377685546,-53.4069023132324,62.85278210509729,76.77404187400197,128147393
sw,-83.2844009399414,-54.7985191345214,57.428050503714296,80.63179349639212,128164060
sw,-83.1138839721679,-56.2572364807128,52.000526489480265,77.13412781112953,128180727
sw,-82.9517974853515,-57.7443656921386,46.64858070246591,68.03190551386747,128197394
sw,-82.7982482910156,-58.8179092407226,41.56613408575065,55.890914526981994,128214061
sw,-82.6417617797851,-59.3074073791503,37.03180760739835,43.55216166874448,128230728
sw,-82.4497146606445,-59.5375709533691,33.30988887199214,33.53018477446094,128247395
sw,-82.205078125,-59.6962585449218,30.515283435025676,27.501810220352592,128264062
sw,-81.9051208496093,-59.9193305969238,28.49103061587684,26.030239820339283,128280729
sw,-81.5638351440429,-60.5172309875488,26.74394778513903,28.602996811456,128297396
sw,-81.2151336669921,-61.805923461914,24.465970277852808,33.955448710833274,128314063
sw,-80.9180603027343,-63.1650428771972,20.644673441952023,40.54917034926024,128330730
sw,-80.6644744873046,-63.9280776977539,14.243357171029349,47.02631710102427,128347397
sw,-80.4743041992187,-64.7655334472656,4.412967663262094,52.49532159299484,128364064
sw,-80.4250106811523,-65.9336242675781,-9.312177892430055,56.59793601483904,128380731
sw,-80.6846847534179,-66.9297103881836,-26.882658951122963,59.401372850793486,128397398
sw,-81.4090194702148,-67.9916458129882,-47.70081849404261,61.20461575599711,128414065
sw,-82.5823822021484,-69.0948715209961,-70.69512371181843,62.3452036046245,128430732
sw,-84.1161041259765,-70.1640396118164,-94.4796814738934,63.06628797530155,128447399
sw,-85.7269439697265,-71.3330535888671,-117.5530763954537,63.46984387029148,128464066
sw,-86.6802291870117,-72.5347900390625,-138.48668396135741,63.54807399310358,128480733
sw,-85.6787185668945,-73.7019882202148,-156.06886732416692,63.259085138927965,128497400
sw,-83.3075485229492,-74.8618774414062,-169.39644002550565,62.6020371752328,128514067
sw,-80.4073257446289,-75.9715576171875,-177.92311930077855,61.6539774010213,128530734
sw,-77.2457504272461,-76.8766860961914,-181.47810355963347,60.552675353106935,128547401
sw,-74.3740615844726,-77.7260131835937,-180.2599652133676,59.43836328534267,128564068
sw,-71.4463195800781,-78.7423248291015,-174.80273236273038,58.388914790206194,128580735
sw,-68.5582046508789,-79.8404769897461,-165.90953619559843,57.384885807422314,128597402
sw,-65.8195877075195,-80.8543701171875,-154.5521831756404,56.32155245059175,128614069
sw,-63.5008926391601,-81.828872680664,-141.73905909332572,55.058782166794245,128630736
sw,-61.4850578308105,-82.8062286376953,-128.3623869447573,53.483879971496215,128647403
sw,-59.6096382141113,-83.6750106811523,-115.0509587399185,51.562963397146,128664070
sw,-57.9589309692382,-84.4795150756836,-102.06686219788581,49.36628480480899,128680737
sw,-56.5812187194824,-85.3240814208984,-89.28292678848321,47.06371088046071,128697404
sw,-55.4684600830078,-86.1568222045898,-76.2609437048178,44.893436267879224,128714071
sw,-54.4554023742675,-86.9386749267578,-62.42640548434779,43.10942418912665,128730738
sw,-53.6794548034668,-87.6634292602539,-47.30862054338351,41.91475137767182,128747405
sw,-53.019920349121,-88.3182144165039,-30.789003013787273,41.3932263895476,128764072
sw,-52.663215637207,-88.9080047607421,-13.283572194907578,41.459293422392584,128780739
sw,-52.6344528198242,-89.4725112915039,4.209623590598329,41.84954896443128,128797406
sw,-53.1868324279785,-89.5186767578125,20.234910188815356,42.17131789879526,128814073
sw,-53.8762283325195,-88.7918014526367,33.159208724809346,42.00376628530751,128830740
sw,-54.6504592895507,-88.0063934326171,41.54027961986268,41.02247402107429,128847407
sw,-55.5926322937011,-87.2158279418945,44.486534079236705,39.10189607154442,128864074
sw,-56.4971084594726,-86.5259933471679,41.91382279242364,36.351690740125896,128880741
sw,-57.3512535095214,-85.9774703979492,34.62927835273959,33.06366844818355,128897408
sw,-57.71724319458,-85.5375366210937,24.211257948128328,29.578508175355232,128914075
sw,-57.7801170349121,-85.1632919311523,12.704242149507461,26.11295721174586,128930742
sw,-57.7874183654785,-84.8677902221679,2.199326652879627,22.6066881141699,128947409
sw,-57.6647262573242,-84.6648025512695,-5.594576645735565,18.646443472053342,128964076
sw,-57.401065826416,-84.469482421875,-9.681865168703242,13.504440321341777,128980743
sw,-57.1650924682617,-84.2911987304687,-9.934576501430536,6.294463736748593,128997410
sw,-57.028205871582,-84.1953887939453,-7.034251357784779,-3.788693060377007,129014077
sw,-57.0718612670898,-84.3027114868164,-2.2152418166513725,-17.21194396387929,129030744
sw,-57.4333343505859,-84.6432113647461,3.1249051459999864,-33.907267150809865,129047411
sw,-58.1899833679199,-85.3567962646484,7.837561421020055,-53.20183434678641,129064078
sw,-58.75337600708,-86.5709228515625,11.328159658817414,-73.90472627604849,129080745
sw,-58.9274978637695,-88.1303100585937,13.652293062631388,-94.52992548366987,129097412
sw,-59.1919174194335,-88.6176071166992,15.377372447548838,-113.5887693539736,129114079
sw,-59.3694343566894,-86.7413024902343,17.279364382978116,-129.86239372550202,129130746
sw,-59.5119018554687,-84.2918167114257,20.007084976775243,-142.57814295186756,129147413
sw,-59.7453269958496,-81.7789916992187,23.846893067866333,-151.45704055004,129164080
sw,-60.3327674865722,-79.0097885131836,28.666119331947424,-156.64895522614677,129180747
sw,-61.2606315612793,-76.3559265136718,34.03411348033902,-158.6033615450502,129197414
sw,-62.2686004638671,-73.931167602539,39.44790388133955,-157.9268728274979,129214081
sw,-63.1922225952148,-71.4867477416992,44.55313238076436,-155.26253357111085,129230748
sw,-64.0237197875976,-69.0806732177734,49.26517113699163,-151.20476535802035,129247415
sw,-64.8375854492187,-66.7088775634765,53.7508451293139,-146.24652423961422,129264082
sw,-65.7120895385742,-64.4162902832031,58.29689862603909,-140.7454342032648,129280749
sw,-66.7590179443359,-62.3090515136718,63.1344009216411,-134.89674632503207,129297416
sw,-67.8841857910156,-60.5119934082031,68.29413816897427,-128.71237871047956,129314083
sw,-69.0515975952148,-58.5161705017089,73.54452756529685,-122.01784872224808,129330750
sw,-70.3052825927734,-56.3476524353027,78.42913909975165,-114.4796730309593,129347417
sw,-71.7484588623046,-54.6943588256835,82.38916723180581,-105.6625862387598,129364084
sw,-73.3939895629882,-53.5701866149902,84.93094283042626,-95.10465150979407,129380751
sw,-74.9978637695312,-52.3633422851562,85.78164810576274,-82.40421283910979,129397418
sw,-76.3908004760742,-51.2950477600097,84.97552241156546,-67.32497286003793,129414085
sw,-77.6016006469726,-50.5629806518554,82.83590208013156,-49.91952711941859,129430752
sw,-78.6730194091796,-50.044132232666,79.8599607574404,-30.644781864497915,129447419
sw,-79.6724624633789,-49.6635551452636,76.55227488333821,-10.418463665798486,129464086
sw,-80.4809341430664,-49.8418884277343,73.26980215640955,9.434076204972548,129480753
sw,-81.1637573242187,-50.5266723632812,70.13006841482029,27.364945482522607,129497420
sw,-81.7458801269531,-51.5149803161621,67.00725755779594,41.89457221438717,129514087
sw,-82.1857604980468,-52.5590438842773,63.611383929212735,51.935353161412785,129530754
sw,-82.4798126220703,-53.5161247253418,59.62227454613052,57.05561640335482,129547421
sw,-82.6617202758789,-54.6917839050293,54.83608208698103,57.60872578316788,129564088
sw,-82.7280044555664,-55.8883972167968,49.278421090922244,54.6903338076486,129580755
sw,-82.7507858276367,-56.7971496582031,43.24509576987342,49.92560112458024,129597422
sw,-82.7343444824218,-57.4103164672851,37.248839905764974,45.124448189803296,129614089
sw,-82.6420364379882,-57.907600402832,31.877062959624396,41.88121194300825,129630756
sw,-82.4561309814453,-58.4142456054687,27.595384990076553,41.22547181086977,129647423
sw,-82.228271484375,-58.9539184570312,24.554095834518332,43.43053334339294,129664090
sw,-82.0093536376953,-59.7233657836914,22.459132672160962,48.04288046374281,129680757
sw,-81.8056106567382,-61.1873016357421,20.55282587013667,54.12032729781899,129697424
sw,-81.6224136352539,-62.9403038024902,17.71949740215021,60.58630256662394,129714091
sw,-81.4620590209961,-64.2317428588867,12.69801520704667,66.55996583685875,129730758
sw,-81.3241119384765,-65.3043518066406,4.35577135479749,71.53874601752163,129747425
sw,-81.2598266601562,-66.6559982299804,-8.039052629326955,75.38861378725426,129764092
sw,-81.4292984008789,-67.8904266357421,-24.613812857581294,78.19023668758817,129780759
sw,-82.0098419189453,-69.1306686401367,-44.81009242720379,80.04205489107267,129797426
sw,-82.9713897705078,-70.4955902099609,-67.44900419577618,80.91797027916513,129814093
sw,-84.1181716918945,-71.9516143798828,-90.92792150545898,80.63618319416723,129830760
sw,-85.0997543334961,-73.4528198242187,-113.49692267960965,78.9414135445638,129847427
sw,-85.2321472167968,-74.8331832885742,-133.54381296852767,75.65533817042243,129864094
sw,-83.8492965698242,-76.1495361328125,-149.82104289602907,70.82556478224188,129880761
sw,-81.4727630615234,-77.3372116088867,-161.57140535630887,64.80824312895966,129897428
sw,-78.744155883789,-78.3265609741211,-168.54127639801723,58.24708988679562,129914095
sw,-76.1014328002929,-79.2127990722656,-170.9012084117104,51.949387993302004,129930762
sw,-73.4421005249023,-79.9844512939453,-169.1169090012649,46.69513132517044,129947429
sw,-70.7174987792968,-80.5595626831054,-163.8211176127943,43.0391197264942,129964096
sw,-68.0790328979492,-81.1399993896484,-155.72287680348143,41.170806510742665,129980763
sw,-65.4296340942382,-81.8903732299804,-145.56006670621832,40.88027740608042,129997430
sw,-63.0755004882812,-82.7383651733398,-134.07094813452602,41.64339583106493,130014097
sw,-61.0545272827148,-83.5805511474609,-121.94957476244042,42.79615084837123,130030764
sw,-59.2271041870117,-84.421142578125,-109.76503300313537,43.73648124552356,130047431
sw,-57.6882553100585,-85.2864913940429,-97.85573630992847,44.086064099028256,130064098
sw,-56.4670372009277,-86.0717544555664,-86.23891983429881,43.76442862958178,130080765
sw,-55.4397964477539,-86.7726287841796,-74.58710693659032,42.96122351823535,130097432
sw,-54.4873161315918,-87.3945083618164,-62.311455140015326,42.026323512614454,130114099
sw,-53.6435623168945,-87.9584732055664,-48.75794358104996,41.321925277140764,130130766
sw,-52.9798278808593,-88.5267486572265,-33.47651677108735,41.088999680978986,130147433
sw,-52.6014328002929,-88.9612731933593,-16.48474614553241,41.37007563094289,130164100
sw,-52.5721282958984,-88.9912872314453,1.5644130555513935,42.00627864435994,130180767
sw,-52.896556854248,-88.6057739257812,19.37957090290991,42.69977893262137,130197434
sw,-53.5306243896484,-87.9806442260742,35.214869384987,43.113783002856316,130214101
sw,-54.4253311157226,-87.2639770507812,47.20952691991168,42.97500648125059,130230768
sw,-55.3859825134277,-86.5693206787109,53.807110413211625,42.14642078532624,130247435
sw,-56.5870361328125,-85.8785934448242,54.15314306405177,40.647782232818926,130264102
sw,-57.7760467529296,-85.1266555786132,48.36589665832586,38.615198096237734,130280769
sw,-58.6819534301757,-84.4637451171875,37.59511418836091,36.206101711154524,130297436
sw,-58.8915252685546,-83.9778366088867,23.830506047980492,33.471528837730105,130314103
sw,-58.9822845458984,-83.6431350708007,9.492355642430057,30.23360382693791,130330770
sw,-58.831371307373,-83.3642578125,-3.092152271366135,26.01803149814457,130347437
sw,-58.5124473571777,-83.1054000854492,-12.183727524019556,20.087844562140734,130364104
sw,-58.1281051635742,-82.8540573120117,-16.96267105733389,11.597044505795507,130380771
sw,-57.794376373291,-82.6502532958984,-17.611715427781306,-0.16356787272770462,130397438
sw,-57.5465507507324,-82.5843887329101,-15.132795599304654,-15.50187270118227,130414105
sw,-57.6525421142578,-82.8336563110351,-10.953411355212811,-34.13720078220451,130430772
sw,-58.2183151245117,-83.5854034423828,-6.441792677708832,-55.170619380352655,130447439
sw,-58.6207771301269,-84.9915618896484,-2.4854377058827013,-77.23943762560764,130464106
sw,-58.6568794250488,-86.7694778442382,0.7276811888422335,-98.81034700616414,130480773
sw,-58.7975730895996,-88.0527801513671,3.659534192093478,-118.50781505294292,130497440
sw,-58.8735809326171,-87.3092880249023,7.142998429103979,-135.36248849044648,130514107
sw,-58.8602905273437,-85.2111587524414,11.99663632368544,-148.90610211814402,130530774
sw,-58.903881072998,-82.8377685546875,18.683945785109106,-159.11026109992798,130547441
sw,-59.3163909912109,-80.2410583496093,27.136286034995084,-166.22694144698445,130564108
sw,-60.1991424560546,-77.5169448852539,36.78762985074189,-170.61126120400564,130580775
sw,-61.3505783081054,-74.7692794799804,46.78497633193293,-172.59027399592625,130597442
sw,-62.5462341308593,-71.9793243408203,56.27284096394075,-172.40351613673556,130614109
sw,-63.690013885498,-69.2444992065429,64.63266807590232,-170.20486592861397,130630776
sw,-64.8497848510742,-66.4704284667968,71.59416317580303,-166.09530913341956,130647443
sw,-66.0743942260742,-63.8256874084472,77.20114750050753,-160.15475688625534,130664110
sw,-67.4582595825195,-61.4619789123535,81.67277528166152,-152.4537851428832,130680777
sw,-68.8748703002929,-59.3481140136718,85.22841576207882,-143.0461917163702,130697444
sw,-70.2289199829101,-57.2776374816894,87.9420224883418,-131.95987285862753,130714111
sw,-71.5503616333007,-55.0434188842773,89.67395971417109,-119.20395865224482,130730778
sw,-72.9604949951171,-53.055004119873,90.10534263688885,-104.79211612085008,130747445
sw,-74.5281600952148,-51.7902488708496,88.87142561245317,-88.76386310637966,130764112
sw,-76.1596221923828,-51.0585594177246,85.7548841748611,-71.19235055402704,130780779
sw,-77.7786331176757,-50.4331130981445,80.86672798639643,-52.19730416936792,130797446
sw,-79.1370010375976,-50.0590667724609,74.73176723279141,-32.001602662346286,130814113
sw,-80.047248840332,-49.7555809020996,68.2222471383553,-11.048210213994805,130830780
sw,-80.6289367675781,-49.6413497924804,62.34350341437791,9.860893115694328,130847447
sw,-81.1206436157226,-49.915771484375,57.94270621509398,29.490241454869953,130864114
sw,-81.546272277832,-50.5162506103515,55.450129647306866,46.25138496991871,130880781
sw,-81.9078674316406,-51.632942199707,54.75110770771324,58.478934129627355,130897448
sw,-82.2536163330078,-53.1166305541992,55.234449704471615,64.8580498984168,130914115
sw,-82.5298156738281,-54.613525390625,55.997498154187916,64.87768262913202,130930782
sw,-82.6727676391601,-56.0128059387207,56.13566174356432,59.14442359486687,130947449
sw,-82.6856536865234,-57.2077560424804,55.019677139036816,49.41639126634013,130964116
sw,-82.6059112548828,-57.8859825134277,52.471048656471964,38.29962513671286,130980783
sw,-82.4393768310546,-58.1321372985839,48.78127213855385,28.66284719855906,130997450
sw,-82.1755676269531,-58.0956344604492,44.57219051877598,22.931234130037975,131014117
sw,-81.8520889282226,-58.0370941162109,40.54561232604608,22.476673412763667,131030784
sw,-81.5033874511718,-58.2821464538574,37.20282250151333,27.30390353620777,131047451
sw,-81.1404037475586,-58.8717575073242,34.62025291297534,36.1391505545637,131064118
sw,-80.7708587646484,-60.050853729248,32.34878772387031,46.890917814419765,131080785
sw,-80.4258346557617,-62.0978546142578,29.468983002214316,57.32032993818819,131097452
sw,-80.0992889404296,-63.6632804870605,24.791763715292156,65.68298969734587,131114119
sw,-79.7838821411132,-64.4830627441406,17.15348003665785,71.12496696875468,131130786
sw,-79.5696105957031,-65.6535110473632,5.7257886772935915,73.73067520717014,131147453
sw,-79.5357818603515,-66.9694061279296,-9.746705259702711,74.26867355984808,131164120
sw,-79.8608856201171,-68.0984191894531,-28.850429717155016,73.77996696328286,131180787
sw,-80.6197128295898,-69.2692642211914,-50.57698571122548,73.16860512894462,131197454
sw,-81.7658920288086,-70.3998870849609,-73.54208053328955,72.91502560923057,131214121
sw,-83.2476806640625,-71.6747436523437,-96.274989964398,72.97688443117413,131230788
sw,-84.7850341796875,-72.9977188110351,-117.48144271195056,72.88427912207453,131247455
sw,-85.8289031982421,-74.3310852050781,-136.1996542128026,71.98100763593511,131264122
sw,-85.332763671875,-75.745491027832,-151.8209285484188,69.72204323634668,131280789
sw,-83.4199600219726,-77.0842132568359,-164.00762495555972,65.92254565786457,131297456
sw,-80.8123779296875,-78.2023620605468,-172.58004297228254,60.87145114422185,131314123
sw,-77.739875793457,-79.1414337158203,-177.44107328680792,55.269736850747826,131330790
sw,-74.7572784423828,-79.8939208984375,-178.5696755071868,50.01623801230998,131347457
sw,-71.6509857177734,-80.4560623168945,-176.0674534754308,45.91997491454638,131364124
sw,-68.796401977539,-81.0299911499023,-170.21392970664863,43.444943958329986,131380791
sw,-66.004150390625,-81.765869140625,-161.48596819804226,42.57986185161285,131397458
sw,-63.4470825195312,-82.593635559082,-150.51696756021042,42.876310388393655,131414125
sw,-61.230125427246,-83.4189987182617,-137.99789412764477,43.634241893669454,131430792
sw,-59.2193527221679,-84.3462600708007,-124.54550893527814,44.160905098702244,131447459
sw,-57.4305801391601,-85.3406219482421,-110.57816340203397,44.00749557989336,131464126
sw,-55.9443664550781,-86.2090454101562,-96.24243473813863,43.10107786597163,131480793
sw,-54.7505836486816,-86.8133468627929,-81.42332322914658,41.730198524044724,131497460
sw,-53.7236709594726,-87.3399353027343,-65.84921210353306,40.39790495154857,131514127
sw,-52.7958221435546,-87.8659515380859,-49.27415673618796,39.60577088067871,131530794
sw,-52.1437873840332,-88.4204635620117,-31.68985393211656,39.65507523532663,131547461
sw,-51.8321876525878,-89.0124588012695,-13.498836051988532,40.53659666471132,131564128
sw,-51.8275260925293,-89.4229125976562,4.417773996502083,41.93852991150836,131580795
sw,-52.2618522644043,-88.9477996826171,20.776100307492037,43.35448018894342,131597462
sw,-53.0392341613769,-88.2087783813476,34.1023437212325,44.24038886507649,131614129
sw,-53.7974662780761,-87.4649505615234,43.03377430804988,44.16094727861659,131630796
sw,-54.5301971435546,-86.7034912109375,46.63527534694765,42.88037806218097,131647463
sw,-55.416576385498,-85.9867858886718,44.6570055490751,40.377444561626184,131664130
sw,-56.6287803649902,-85.3322143554687,37.66941149762103,36.78783331406221,131680797
sw,-57.165184020996,-84.7831268310546,27.027519440253567,32.294084881480885,131697464
sw,-57.3611183166503,-84.3910217285156,14.645553775728466,26.995833701530508,131714131
sw,-57.1976737976074,-84.1757354736328,2.6158087184813232,20.80208848902151,131730798
sw,-56.8405532836914,-84.0553588867187,-7.232247599917388,13.388604382256279,131747465
sw,-56.5434913635253,-84.0263061523437,-13.701770895212006,4.25078583449698,131764132
sw,-56.2353324890136,-84.0691833496093,-16.41359467256192,-7.146314514194971,131780799
sw,-55.9915122985839,-84.1871261596679,-15.755310240231376,-21.157841847171152,131797466
sw,-56.0526847839355,-84.4891510009765,-12.622685292086778,-37.758695879064135,131814133
sw,-56.434398651123,-85.1755828857421,-8.049807399717448,-56.432282576409555,131830800
sw,-56.6831474304199,-86.4652633666992,-2.860098386039096,-76.20303172422715,131847467
sw,-56.9229507446289,-88.1562347412109,2.5405179623224114,-95.81233992739767,131864134
sw,-57.2383956909179,-88.7986221313476,8.166092622855107,-113.97676005317007,131880801
sw,-57.222427368164,-86.9102249145507,14.272333337942703,-129.63360687367265,131897468
sw,-57.2050285339355,-84.478775024414,21.095286017951334,-142.092186957935,131914135
sw,-57.636619567871,-82.0798263549804,28.633772739072995,-151.05930121645773,131930802
sw,-58.4950981140136,-79.380500793457,36.5724712796171,-156.56491391956706,131947469
sw,-59.5105934143066,-76.5796279907226,44.367878992156584,-158.84746949283772,131964136
sw,-60.6307907104492,-74.0680160522461,51.43988163255898,-158.25600579559497,131980803
sw,-61.6867866516113,-71.6047744750976,57.3704351950592,-155.19872809287352,131997470
sw,-62.7499389648437,-69.2042694091796,62.023964807818636,-150.13643240601584,132014137
sw,-63.773639678955,-66.8085021972656,65.55339913846426,-143.5973084485104,132030804
sw,-64.8661727905273,-64.462158203125,68.30867123379532,-136.17891368624808,132047471
sw,-66.1090774536132,-62.3482627868652,70.6960318174401,-128.50457140830144,132064138
sw,-67.4104766845703,-60.5253448486328,73.03960045691726,-121.11889097895508,132080805
sw,-68.6510391235351,-58.8283500671386,75.48106120685813,-114.33820811066829,132097472
sw,-69.8512496948242,-57.1920585632324,77.93580504298717,-108.10277044647026,132114139
sw,-71.1432342529296,-55.6047706604003,80.1131852161174,-101.89153529858106,132130806
sw,-72.5287857055664,-54.2980003356933,81.60056981728685,-94.7511316216334,132147473
sw,-73.9537353515625,-53.2093200683593,81.99699065800706,-85.46460835496472,132164140
sw,-75.3812103271484,-52.0598335266113,81.06262384169533,-72.85114168945015,132180807
sw,-76.820068359375,-51.0388488769531,78.8354786475376,-56.14657184407005,132197474
sw,-78.1140823364257,-50.3040542602539,75.66788394636562,-35.37119726962319,132214141
sw,-79.172492980957,-49.9370498657226,72.15707769013449,-11.564058914295687,132230808
sw,-80.020393371582,-49.924144744873,68.98126392082659,13.225513744165726,132247475
sw,-80.7659225463867,-50.5686378479003,66.69065811909914,36.24102675936409,132264142
sw,-81.4318237304687,-51.772850036621,65.52466104080317,54.57968131739366,132280809
sw,-81.9665756225586,-53.3353996276855,65.3210300741842,65.88192187871894,132297476
sw,-82.3598937988281,-54.9391479492187,65.55375567211593,68.96008708913698,132314143
sw,-82.7153625488281,-56.1416473388671,65.49464407887727,64.17681340564604,132330810
sw,-82.989273071289,-57.324420928955,64.45109387991718,53.44952029561731,132347477
sw,-83.1080169677734,-58.3071594238281,62.00076345375112,39.86198713022736,132364144
sw,-83.0713729858398,-58.5375289916992,58.136296997748914,26.970279670475236,132380811
sw,-82.9195556640625,-58.3666725158691,53.25960686320901,17.974219888274174,132397478
sw,-82.7223052978515,-58.1623039245605,48.01994376957004,14.973705921385584,132414145
sw,-82.4671478271484,-58.2621574401855,43.05048793622899,18.52170373630736,132430812
sw,-82.1513214111328,-58.7329597473144,38.69680554065198,27.606897026563473,132447479
sw,-81.8379745483398,-59.6283226013183,34.8314777208267,40.06482886820147,132464146
sw,-81.5587844848632,-61.2830924987793,30.816521017018893,53.275228601843644,132480813
sw,-81.3165130615234,-63.4186477661132,25.62608398598372,64.90862300190781,132497480
sw,-81.1284790039062,-64.6615524291992,18.094317451772014,73.47604348610176,132514147
sw,-81.0267486572265,-65.6051712036132,7.219560350274469,78.52410839862036,132530814
sw,-81.0552597045898,-66.9471893310546,-7.5573062356056795,80.47013249762252,132547481
sw,-81.3573226928711,-68.1825332641601,-26.173731369159523,80.20938837745027,132564148
sw,-82.1218185424804,-69.4047775268554,-47.911309474184925,78.68084168780048,132580815
sw,-83.3321990966796,-70.7066650390625,-71.5121658876779,76.54510758133486,132597482
sw,-84.866455078125,-72.0243225097656,-95.40896522132681,74.05342082746958,132614149
sw,-86.3558349609375,-73.4176254272461,-118.00021142723197,71.1090242136443,132630816
sw,-86.8885726928711,-74.7078170776367,-137.8952531718008,67.46168874609461,132647483
sw,-85.4456405639648,-75.8945922851562,-154.07385464209847,62.94269979953278,132664150
sw,-82.9968566894531,-76.9694671630859,-165.94292769115876,57.6470064762932,132680817
sw,-80.1913146972656,-77.9257278442382,-173.30896558623613,51.997130068039326,132697484
sw,-77.2697525024414,-78.7665481567382,-176.30320757957244,46.667964433341915,132714151
sw,-74.3821716308593,-79.4301834106445,-175.2944794894771,42.3993189299061,132730818
sw,-71.5116119384765,-79.9280319213867,-170.8104813649047,39.76195944106612,132747485
sw,-68.8355178833007,-80.4637451171875,-163.4731632243965,38.961924301323535,132764152
sw,-66.1003341674804,-81.1878662109375,-153.94357833638063,39.75775049267634,132780819
sw,-63.6820068359375,-82.0387344360351,-142.86688325567943,41.52481909749191,132797486
sw,-61.5558052062988,-82.9235458374023,-130.8097547991735,43.44469038228114,132814153
sw,-59.6268882751464,-83.7589492797851,-118.19207798708759,44.75113018337347,132830820
sw,-57.9556121826171,-84.5976791381836,-105.22916144509762,44.94914893836935,132847487
sw,-56.5651893615722,-85.4566268920898,-91.91061521074539,43.94003600296901,132864154
sw,-55.3223724365234,-86.2611541748046,-78.0393912401876,42.02017863945478,132880821
sw,-54.3103942871093,-86.872314453125,-63.33867008273916,39.760091122078904,132897488
sw,-53.5104942321777,-87.3524780273437,-47.61062594074249,37.804658463997946,132914155
sw,-52.9527969360351,-87.8765258789062,-30.908007659295166,36.6595099420626,132930822
sw,-52.645263671875,-88.4479598999023,-13.665824292561961,36.532583374551066,132947489
sw,-52.5778884887695,-88.977798461914,3.257596871883472,37.2796892961632,132964156
sw,-52.939712524414,-89.38134765625,18.661338541933556,38.4658713960277,132980823
sw,-53.7210655212402,-89.1297988891601,31.201032533395402,39.51615052987108,132997490
sw,-54.5248870849609,-88.4307708740234,39.66334913317201,39.90252563134233,133014157
sw,-55.3418540954589,-87.736099243164,43.24494697917713,39.304986819218634,133030824
sw,-56.1709632873535,-87.0352935791015,41.762777992948386,37.69435335526129,133047491
sw,-56.8896255493164,-86.4095916748046,35.7439982339299,35.31060616857279,133064158
sw,-57.4746780395507,-85.9120788574218,26.374216151812607,32.54333355143464,133080825
sw,-57.7653427124023,-85.477668762207,15.311265712571133,29.750979902659775,133097492
sw,-57.865306854248,-85.0923233032226,4.396522828157043,27.075144970209905,133114159
sw,-57.765811920166,-84.777114868164,-4.68243804660826,24.310155913342165,133130826
sw,-57.5239143371582,-84.5047073364257,-10.70850313428848,20.87487472922195,133147493
sw,-57.2385215759277,-84.2320098876953,-13.157509499592717,15.906330558298484,133164160
sw,-56.9353256225585,-83.9836959838867,-12.264648395081066,8.45998573218517,133180827
sw,-56.727237701416,-83.843879699707,-8.902775553815486,-2.2321581390617564,133197494
sw,-56.8038597106933,-83.9177551269531,-4.288320567199253,-16.516854461648066,133214161
sw,-57.3374862670898,-84.2860870361328,0.41152260051105555,-34.161734064108394,133230828
sw,-58.0163650512695,-85.071533203125,4.44733582943092,-54.33595161331844,133247495
sw,-58.3079452514648,-86.3744812011718,7.697557767177446,-75.7401090610443,133264162
sw,-58.4347419738769,-87.9316177368164,10.63552421825787,-96.84875408656002,133280829
sw,-58.5697898864746,-88.5619583129882,14.0679929669967,-116.19259389636123,133297496
sw,-58.6148338317871,-86.7812576293945,18.758381805475093,-132.59878200012525,133314163
sw,-58.7672958374023,-84.3691101074218,25.092700733130354,-145.3307994513123,133330830
sw,-59.2685012817382,-81.9166488647461,32.91848287570363,-154.11310740823737,133347497
sw,-60.2754974365234,-79.1495895385742,41.60682778849718,-159.06810043410354,133364164
sw,-61.4764289855957,-76.3385391235351,50.293145244521526,-160.61346544997852,133380831
sw,-62.7178726196289,-73.7717666625976,58.183371816705986,-159.36009689686892,133397498
sw,-63.9699478149414,-71.2735137939453,64.7973864411871,-156.02647984885712,133414165
sw,-65.1496429443359,-68.9364929199218,70.06166642382682,-151.36493594691945,133430832
sw,-66.3117065429687,-66.5541000366211,74.23365649584547,-146.0881297921915,133447499
sw,-67.5054931640625,-64.2872619628906,77.7066507579122,-140.78755328066177,133464166
sw,-68.7789764404296,-62.1695442199707,80.78201513350427,-135.84415711343055,133480833
sw,-70.040412902832,-60.2388343811035,83.49828505380009,-131.3428175684459,133497500
sw,-71.2936325073242,-58.1532287597656,85.58090123466049,-127.01299492554709,133514167
sw,-72.6748352050781,-56.0964660644531,86.53410272353611,-122.22048475032683,133530834
sw,-74.3151092529296,-54.3924255371093,85.84752879009011,-116.02739799558731,133547501
sw,-76.1409454345703,-53.0284538269043,83.24357932143727,-107.3269979157684,133564168
sw,-77.7133407592773,-51.5771369934082,78.86396774697374,-95.0521255844359,133580835
sw,-78.747932434082,-50.2994346618652,73.30647911433485,-78.44247122385595,133597502
sw,-79.4652404785156,-49.3499946594238,67.48220948058778,-57.32839855120349,133614169
sw,-80.1048889160156,-48.9369392395019,62.344078817034664,-32.35860799086889,133630836
sw,-80.7364273071289,-48.6860160827636,58.59405860704463,-5.088381017686635,133647503
sw,-81.2959976196289,-48.8206024169921,56.47968253851007,22.135902654599622,133664170
sw,-81.7591934204101,-49.5204963684082,55.74637892002406,46.518045505334875,133680837
sw,-82.1209259033203,-50.8248596191406,55.75028570036351,65.34190721585442,133697504
sw,-82.4526748657226,-52.6585693359375,55.683361410282885,76.58281208383414,133714171
sw,-82.7444534301757,-54.6098670959472,54.83197790642289,79.43561609768842,133730838
sw,-82.9218826293945,-56.0110549926757,52.785351163619,74.58606582859926,133747505
sw,-82.8960723876953,-57.0039176940918,49.53074311779945,64.1155429358917,133764172
sw,-82.7044067382812,-57.9775199890136,45.412773811391475,51.04541271711366,133780839
sw,-82.4305572509765,-58.4561614990234,40.98008938144186,38.643323445889145,133797506
sw,-82.142349243164,-58.56245803833,36.775464668218355,29.68372748531031,133814173
sw,-81.8623886108398,-58.6885108947753,33.134402927712834,25.864523234831733,133830840
sw,-81.6057205200195,-58.9599227905273,30.04537844072901,27.536472786069684,133847507
sw,-81.3865509033203,-59.5765037536621,27.102506577718813,33.81003989251637,133864174
sw,-81.183967590332,-60.9290771484375,23.55787017483843,42.98395268959773,133880841
sw,-80.9929656982421,-62.6997985839843,18.460908113258775,53.13039151061197,133897508
sw,-80.8365936279296,-63.8151550292968,10.857222465851837,62.62306323361101,133914175
sw,-80.7690811157226,-64.7749404907226,0.007689931386371529,70.43828601009429,133930842
sw,-80.8127746582031,-66.0387420654296,-14.41916954430368,76.17717678709904,133947509
sw,-81.0946884155273,-67.2665939331054,-32.22924282920639,79.8805818842362,133964176
sw,-81.7939834594726,-68.5640487670898,-52.69456434515487,81.7710699099916,133980843
sw,-82.8632888793945,-69.9687347412109,-74.66256212924469,82.04504106465359,133997510
sw,-84.0748443603515,-71.4124526977539,-96.75488232523604,80.78397593025053,134014177
sw,-85.1188201904296,-72.8583831787109,-117.59890748517786,77.99150008905737,134030844
sw,-85.3742446899414,-74.2580490112304,-136.02788922200412,73.71295066186464,134047511
sw,-84.0946197509765,-75.5822448730468,-151.20385299229955,68.16773201088637,134064178
sw,-81.8487091064453,-76.7489471435546,-162.6500655672429,61.82572002414742,134080845
sw,-79.1318817138671,-77.6976852416992,-170.20989182779877,55.38369404084008,134097512
sw,-76.3238296508789,-78.4783248901367,-173.96520796785296,49.63759516794757,134114179
sw,-73.4513778686523,-79.115119934082,-174.14875793922576,45.28877613994508,134130846
sw,-70.5764007568359,-79.7057189941406,-171.07536692854077,42.751965411415846,134147513
sw,-67.8550643920898,-80.3828125,-165.1026947982363,42.03643701956211,134164180
sw,-65.1458587646484,-81.2243957519531,-156.61837428863805,42.746423396970584,134180847
sw,-62.6755447387695,-82.1167831420898,-146.04030006153485,44.20202182386433,134197514
sw,-60.4042053222656,-82.9846267700195,-133.81249908103246,45.637789907940004,134214181
sw,-58.3343772888183,-83.8344573974609,-120.38182805025191,46.412501289187794,134230848
sw,-56.5778503417968,-84.6883239746093,-106.15079173327237,46.16722001557276,134247515
sw,-55.162742614746,-85.5055160522461,-91.41658021002492,44.89203215769902,134264182
sw,-54.0475959777832,-86.2802658081054,-76.32100571026012,42.8910003882441,134280849
sw,-53.2289199829101,-86.9562530517578,-60.84337572886924,40.66145033299341,134297516
sw,-52.5394325256347,-87.4531707763671,-44.86124322236746,38.72474300671944,134314183
sw,-52.0254135131835,-87.8942947387695,-28.2801991803973,37.45905787181747,134330850
sw,-51.8098526000976,-88.4092254638671,-11.201172606258607,36.98537328805683,134347517
sw,-51.8510856628418,-88.8486938476562,5.932181174438586,37.14122624525814,134364184
sw,-52.1841468811035,-88.9605255126953,22.26831112613173,37.54637786648276,134380851
sw,-52.9125328063964,-88.6374282836914,36.60737547220431,37.73311943470325,134397518
sw,-53.7282638549804,-88.0919723510742,47.591472237916456,37.29492759777501,134414185
sw,-54.65376663208,-87.5257568359375,53.99096462403392,36.00511385575152,134430852
sw,-55.7748260498046,-86.9395141601562,55.02014235245278,33.86875331792848,134447519
sw,-57.106216430664,-86.3918533325195,50.59763881495781,31.09097581309676,134464186
sw,-57.9983673095703,-85.9261932373046,41.46771242827537,27.96775439001671,134480853
sw,-58.5131797790527,-85.6027450561523,29.124938948701466,24.72803248824133,134497520
sw,-58.7489433288574,-85.3754730224609,15.539757331268582,21.374856135064885,134514187
sw,-58.6948089599609,-85.208625793457,2.7496607951405565,17.582017022406248,134530854
sw,-58.5130615234375,-85.0538330078125,-7.569577432627986,12.69406041808429,134547521
sw,-58.1982955932617,-84.9293975830078,-14.4284537306543,5.848962445765846,134564188
sw,-57.8113899230957,-84.8720321655273,-17.651059901359567,-3.7981369459373617,134580855
sw,-57.572654724121,-84.9597396850586,-17.771545305672106,-16.810128932618525,134597522
sw,-57.7287101745605,-85.266128540039,-15.73766303847642,-33.24288336289462,134614189
sw,-58.1560440063476,-85.9313430786132,-12.525385791934054,-52.5351554035906,134630856
sw,-58.2780380249023,-87.0859680175781,-8.804580425417628,-73.55618257743161,134647523
sw,-58.2162170410156,-88.4310302734375,-4.776910539140965,-94.80319147521074,134664190
sw,-58.3860359191894,-88.1906280517578,-0.23220858803578517,-114.69025430042888,134680857
sw,-58.2873306274414,-86.1131515502929,5.225906213280582,-131.84063468827873,134697524
sw,-58.1814384460449,-83.6499862670898,11.901377567607858,-145.30106231293155,134714191
sw,-58.3222885131835,-81.0961380004882,19.80127608091039,-154.63417515411953,134730858
sw,-59.0802154541015,-78.2200317382812,28.58939009453183,-159.89321246813907,134747525
sw,-60.0841102600097,-75.4274368286132,37.7039148143224,-161.51614004776474,134764192
sw,-61.1968688964843,-72.9823226928711,46.567912170489976,-160.18424439334743,134780859
sw,-62.3094062805175,-70.5591430664062,54.78304158590977,-156.68131577320327,134797526
sw,-63.3701210021972,-68.2638397216796,62.21628808382442,-151.77690621598774,134814193
sw,-64.4005126953125,-65.9401245117187,68.94996317784928,-146.1444273703384,134830860
sw,-65.5650558471679,-63.62158203125,75.13114739720736,-140.31065153091942,134847527
sw,-66.9139862060546,-61.3804397583007,80.79665437921102,-134.62137762366447,134864194
sw,-68.3129577636718,-59.4351387023925,85.75178051531827,-129.20641595721622,134880861
sw,-69.660659790039,-57.4406127929687,89.55440447313696,-123.93827263626058,134897528
sw,-71.0261459350586,-55.3562698364257,91.6181713250152,-118.39597352994826,134914195
sw,-72.6656417846679,-53.677978515625,91.41037036455957,-111.8584492247443,134930862
sw,-74.65234375,-52.5692672729492,88.68319761589791,-103.35848697222448,134947529
sw,-76.3902969360351,-51.3751487731933,83.64876890303488,-91.82885516955228,134964196
sw,-77.5911102294921,-49.9996147155761,77.01067806629447,-76.35551952169862,134980863
sw,-78.3921661376953,-48.9047241210937,69.81514323362994,-56.5062577459864,134997530
sw,-78.8860931396484,-48.4237518310546,63.165862926934906,-32.642939065805436,135014197
sw,-79.3387908935546,-48.1287651062011,57.91172034141563,-6.0949572402381476,135030864
sw,-79.8828659057617,-48.395580291748,54.42692851235579,20.90441313956333,135047531
sw,-80.4004898071289,-49.1087455749511,52.55784921325156,45.55048326136161,135064198
sw,-80.8832473754882,-50.3446617126464,51.739531421345646,65.01929672173414,135080865
sw,-81.3465194702148,-52.1707611083984,51.2241560420408,77.11514298520433,135097532
sw,-81.7033157348632,-54.1171188354492,50.33505263912506,80.83837459316312,135114199
sw,-81.9656906127929,-55.4637832641601,48.66603380686576,76.69730969152315,135130866
sw,-82.0682830810546,-56.5535316467285,46.175266834657855,66.65224270988232,135147533
sw,-82.0232467651367,-57.6060752868652,43.16039718580883,53.69115033151284,135164200
sw,-81.8642654418945,-58.2393989562988,40.13421471442055,41.14732081564781,135180867
sw,-81.6335067749023,-58.431037902832,37.64056621504071,31.93793285205767,135197534
sw,-81.3755264282226,-58.5233840942382,36.05747568928671,27.92069115591272,135214201
sw,-81.1066284179687,-58.7842025756835,35.43225353402713,29.538932205404706,135230868
sw,-80.8217697143554,-59.4054832458496,35.38637985701479,35.85425895249243,135247535
sw,-80.5316619873046,-60.3464012145996,35.117197743114914,44.95514444337765,135264202
sw,-80.239631652832,-62.106834411621,33.5065331528479,54.60827178959675,135280869
sw,-79.9560394287109,-64.0516891479492,29.32284294420828,62.93230793484259,135297536
sw,-79.6856155395507,-65.1785354614257,21.47840967917245,68.86504794717824,135314203
sw,-79.4833221435546,-66.0772476196289,9.284243642897035,72.28205993722105,135330870
sw,-79.4204711914062,-67.2644653320312,-7.360679165757801,73.77426834096882,135347537
sw,-79.654556274414,-68.3025817871093,-27.898446995191293,74.2248536594264,135364204
sw,-80.3874893188476,-69.4059753417968,-51.18423035283833,74.3769763813678,135380871
sw,-81.5811462402343,-70.6722030639648,-75.686293223944,74.54899036431519,135397538
sw,-83.0179824829101,-72.0466613769531,-99.759416472865,74.57249558029909,135414205
sw,-84.3891983032226,-73.4697647094726,-121.91394625704493,73.94052600441456,135430872
sw,-85.1225891113281,-74.8722991943359,-141.00864582061882,72.08444169448295,135447539
sw,-84.3102188110351,-76.2557678222656,-156.32982021618346,68.66487400235248,135464206
sw,-82.184455871582,-77.4821548461914,-167.56439275002998,63.76895182280254,135480873
sw,-79.4599380493164,-78.4953536987304,-174.70769364153293,57.94575579988104,135497540
sw,-76.619155883789,-79.3478164672851,-177.95536937618309,52.07038106767941,135514207
sw,-73.6786956787109,-80.027603149414,-177.61687684212865,47.08637559776965,135530874
sw,-70.717414855957,-80.5652618408203,-174.06680359734423,43.7178919059715,135547541
sw,-67.8943481445312,-81.1507415771484,-167.72903314616062,42.25257899898959,135564208
sw,-65.0794448852539,-81.9288024902343,-159.07337341316077,42.47000749105055,135580875
sw,-62.5386047363281,-82.8425903320312,-148.5989691836387,43.73660332750161,135597542
sw,-60.2541465759277,-83.729995727539,-136.7860029297258,45.22717630945527,135614209
sw,-58.1840057373046,-84.6030120849609,-124.01543932120339,46.19084021034148,135630876
sw,-56.4617919921875,-85.5490417480468,-110.4796083357486,46.17145137008786,135647543
sw,-55.1163902282714,-86.4082794189453,-96.12467809752879,45.1167170964018,135664210
sw,-54.0061416625976,-87.106330871582,-80.67012619717903,43.3510477816239,135680877
sw,-52.9627571105957,-87.751968383789,-63.733324786598665,41.43081653993074,135697544
sw,-52.108787536621,-88.3040771484375,-45.04866806123929,39.936068879058574,135714211
sw,-51.544075012207,-88.7950439453125,-24.72230057104916,39.27009713510134,135730878
sw,-51.2442169189453,-89.3170013427734,-3.4293609830309078,39.53167170630332,135747545
sw,-51.4976119995117,-89.4239349365234,17.53742324564019,40.49623390574134,135764212
sw,-52.3104133605957,-88.787109375,36.41621447809063,41.70232862605891,135780879
sw,-53.2840309143066,-87.9877319335937,51.30251597748833,42.60324253469921,135797546
sw,-54.4459495544433,-87.1992111206054,60.57118452455318,42.72514613147357,135814213
sw,-55.6742706298828,-86.4869842529296,63.278052690458175,41.777160516883114,135830880
sw,-57.1316833496093,-85.7824935913086,59.42874905079289,39.68012067185403,135847547
sw,-58.0627136230468,-85.0776977539062,50.03503471448328,36.50882137355558,135864214
sw,-58.6578140258789,-84.5352478027343,36.93246506469395,32.36899635406866,135880881
sw,-58.9283790588378,-84.2685546875,22.39964170256555,27.252029207721694,135897548
sw,-58.86128616333,-84.1448593139648,8.680581704912042,20.925033125995,135914215
sw,-58.7174224853515,-84.0220108032226,-2.4575496858630017,12.913710610015475,135930882
sw,-58.5012054443359,-83.913215637207,-10.012638276081045,2.610282859468616,135947549
sw,-58.1992034912109,-83.877212524414,-13.81354393762475,-10.510267594786256,135964216
sw,-58.1438179016113,-83.9575958251953,-14.363542171420763,-26.635961312669416,135980883
sw,-58.4144706726074,-84.3768463134765,-12.527310422042008,-45.42578723298443,135997550
sw,-58.5431213378906,-85.4134979248046,-9.17497211785616,-65.9666080635962,136014217
sw,-58.6758689880371,-87.0619583129882,-4.90746577751378,-86.90967911814704,136030884
sw,-58.8917694091796,-88.7115402221679,0.049432843551404364,-106.74281995878634,136047551
sw,-59.0228271484375,-88.2055053710937,5.767445862235067,-124.09939466826451,136064218
sw,-59.0386734008789,-85.9358596801757,12.41379452095623,-137.9992642757891,136080885
sw,-59.1396713256835,-83.4042434692382,20.028551722297752,-147.9583582753117,136097552
sw,-59.6403656005859,-80.8515701293945,28.38456036823813,-153.96410356640763,136114219
sw,-60.4583358764648,-78.059455871582,36.990031687554705,-156.36158492861142,136130886
sw,-61.4916534423828,-75.4624328613281,45.22662092786093,-155.7122652947731,136147553
sw,-62.6257247924804,-73.0429534912109,52.55521244625635,-152.67419072450843,136164220
sw,-63.7623291015625,-70.6492614746093,58.69596932659327,-147.9244250656309,136180887
sw,-64.8978195190429,-68.3920745849609,63.70681470766098,-142.1179095407192,136197554
sw,-66.0143203735351,-66.1724853515625,67.9317200070851,-135.86129261278887,136214221
sw,-67.1755905151367,-63.9561386108398,71.84263382460031,-129.67737538433647,136230888
sw,-68.4323043823242,-62.0680618286132,75.83539784730263,-123.94491219821616,136247555
sw,-69.7330169677734,-60.3419151306152,80.05104912090584,-118.8169151846796,136264222
sw,-70.9783325195312,-58.4722175598144,84.28254313813093,-114.14082674966924,136280889
sw,-72.2563552856445,-56.602481842041,88.00196391128685,-109.41454977251817,136297556
sw,-73.8218154907226,-55.1562805175781,90.51002002910013,-103.80817849611155,136314223
sw,-75.7431716918945,-53.9966430664062,91.16905819505254,-96.26983568001928,136330890
sw,-77.5899276733398,-52.6901550292968,89.64114625082236,-85.72202949456207,136347557
sw,-79.0270690917968,-51.4015502929687,86.03672630237706,-71.3346058749902,136364224
sw,-80.0829544067382,-50.4913291931152,80.90814146665036,-52.82467747569477,136380891
sw,-81.0245208740234,-50.0431900024414,75.08849103574961,-30.69905155585464,136397558
sw,-81.8522567749023,-49.7462501525878,69.44176542098353,-6.347985754789575,136414225
sw,-82.5521545410156,-49.9631843566894,64.61853730803614,18.07134127845442,136430892
sw,-83.0556182861328,-50.682933807373,60.89648534701414,39.97109695967501,136447559
sw,-83.3425369262695,-51.8069686889648,58.146257585458486,56.83842217582092,136464226
sw,-83.5101928710937,-53.3236503601074,55.92192614241577,66.80310596651115,136480893
sw,-83.6248931884765,-54.9383506774902,53.641170783332726,69.12182967418956,136497560
sw,-83.6191177368164,-56.1682662963867,50.795982910904364,64.43433293274063,136514227
sw,-83.4767684936523,-57.3152656555175,47.12508815638571,54.696425315415034,136530894
sw,-83.2723541259765,-58.1704216003418,42.69148954867605,42.781497083799614,136547561
sw,-83.0663604736328,-58.3702659606933,37.84159111034185,31.838642776855274,136564228
sw,-82.8275604248046,-58.4062614440918,33.06265359745647,24.57291101367108,136580895
sw,-82.4890060424804,-58.5374794006347,28.785797313392273,22.64722753653765,136597562
sw,-82.104621887207,-58.8086051940918,25.19359412216124,26.37756109799704,136614229
sw,-81.792236328125,-59.3774032592773,22.08602478983398,34.80295994984243,136630896
sw,-81.5774383544921,-60.5216178894043,18.842995522136455,46.089442910296725,136647563
sw,-81.420051574707,-62.4360237121582,14.501415706835731,58.11673935860835,136664230
sw,-81.2885513305664,-63.9017486572265,7.940927007960465,69.0413108440496,136680897
sw,-81.208137512207,-64.94677734375,-1.8560183546393128,77.65525379924594,136697564
sw,-81.242431640625,-66.2583923339843,-15.53167081657193,83.46303648835584,136714231
sw,-81.5168228149414,-67.6780776977539,-33.14416381073874,86.52349985316286,136730898
sw,-82.2474899291992,-69.0167160034179,-54.08706920743282,87.18382634668058,136747565
sw,-83.3644638061523,-70.4245147705078,-77.16403557259848,85.83681716651272,136764232
sw,-84.5248184204101,-71.8395919799804,-100.79432350529626,82.78589624565052,136780899
sw,-85.2726287841796,-73.3341674804687,-123.28452487292529,78.23952784441907,136797566
sw,-85.0779266357421,-74.8052215576171,-143.09045215408335,72.40095577345727,136814233
sw,-83.5564270019531,-76.01123046875,-159.01224226825556,65.58499642742949,136830900
sw,-81.1161346435546,-76.9427490234375,-170.29883155538812,58.29131325596003,136847567
sw,-78.2362060546875,-77.76025390625,-176.66597055098697,51.191326902900975,136864234
sw,-75.3868713378906,-78.5197601318359,-178.24685069973924,45.02718333066608,136880901
sw,-72.4818954467773,-79.1697998046875,-175.4996985915477,40.45598152551789,136897568
sw,-69.7210388183593,-79.7331466674804,-169.09755983657385,37.890469292991206,136914235
sw,-67.1237716674804,-80.3252487182617,-159.8225109682762,37.388648985377486,136930902
sw,-64.5263595581054,-81.0966644287109,-148.4782393884644,38.630690778137755,136947569
sw,-62.2227630615234,-82.0249481201171,-135.82286026652568,40.993396725827054,136964236
sw,-60.1944732666015,-82.8366165161132,-122.51376916354444,43.698583001223426,136980903
sw,-58.344009399414,-83.5332794189453,-109.05474896020381,45.988926784768196,136997570
sw,-56.7363662719726,-84.2610321044921,-95.74382707575951,47.28465932996659,137014237
sw,-55.483829498291,-85.0967941284179,-82.63342705284377,47.29068449369825,137030904
sw,-54.5377616882324,-86.0087509155273,-69.52556928361703,46.03937953620211,137047571
sw,-53.7731475830078,-86.8920974731445,-56.028470901899325,43.861766063251686,137064238
sw,-53.123176574707,-87.582893371582,-41.69039744396199,41.28693456823056,137080905
sw,-52.6433906555175,-88.1463928222656,-26.199095266026983,38.88660749548859,137097572
sw,-52.3842277526855,-88.7071456909179,-9.599125119530784,37.105236124902504,137114239
sw,-52.3299560546875,-89.2848205566406,7.546618453518978,36.130159489027015,137130906
sw,-52.648380279541,-90.0,24.124271138638154,35.847417827183705,137147573
sw,-53.4827804565429,-89.4408264160156,38.60586631967351,35.89769370903427,137164240
sw,-54.5448722839355,-88.6208724975586,49.34149391660867,35.80776196642266,137180907
sw,-55.4976730346679,-87.8964385986328,54.937153542042914,35.14353437111225,137197574
sw,-56.537784576416,-87.2318267822265,54.61643268737205,33.62392001994981,137214241
sw,-57.9511222839355,-86.6168441772461,48.46441099696218,31.15246281681153,137230908
sw,-58.693359375,-86.1615142822265,37.47850133587379,27.75737882239119,137247575
sw,-59.0557289123535,-85.9110794067382,23.397065940388156,23.466872771908772,137264242
sw,-58.9749755859375,-85.7199325561523,8.340453294092072,18.173832835915388,137280909
sw,-58.6269302368164,-85.5855941772461,-5.635059256082534,11.553030084396623,137297576
sw,-58.2184562683105,-85.5886917114257,-16.934075098514075,3.0793044827016898,137314243
sw,-57.8111724853515,-85.7396621704101,-24.650414059006827,-7.839977840728137,137330910
sw,-57.4169425964355,-85.9374084472656,-28.57204414936058,-21.648683611370885,137347577
sw,-57.3363189697265,-86.194351196289,-28.991147071747417,-38.41032036316068,137364244
sw,-57.3576889038085,-86.8175277709961,-26.41756773051916,-57.64810836582088,137380911
sw,-57.14155960083,-88.0386581420898,-21.32310962888252,-78.33008824854431,137397578
sw,-57.0720138549804,-89.0410079956054,-14.019313335851097,-99.02264558081444,137414245
sw,-57.0549392700195,-87.4593963623046,-4.701596186797892,-118.16755883046254,137430912
sw,-56.9158630371093,-85.1654815673828,6.389043115162265,-134.38791807556086,137447579
sw,-56.9603691101074,-82.6356353759765,18.79030482232185,-146.72556406088114,137464246
sw,-57.4566497802734,-80.116584777832,31.73691186338185,-154.75370912112857,137480913
sw,-58.4722442626953,-77.2300415039062,44.234291883934894,-158.56318740121992,137497580
sw,-59.7321510314941,-74.3980407714843,55.27169766695121,-158.65864970775547,137514247
sw,-61.1283569335937,-71.9992599487304,64.08883498359843,-155.8113886012707,137530914
sw,-62.4703254699707,-69.6685256958007,70.38323721039116,-150.90826390946626,137547581
sw,-63.7047653198242,-67.3761367797851,74.37309394221089,-144.82415846977264,137564248
sw,-64.8829345703125,-65.1407165527343,76.69327165031135,-138.33063264961987,137580915
sw,-66.1167602539062,-62.8960037231445,78.16744652610284,-132.03517450995227,137597582
sw,-67.4373703002929,-60.808723449707,79.53858359249887,-126.33196154282845,137614249
sw,-68.7132720947265,-59.0332450866699,81.2438975014848,-121.3478400760413,137630916
sw,-69.9266815185546,-57.3043327331543,83.298063167732,-116.88637746550518,137647583
sw,-71.2306365966796,-55.3128128051757,85.31494381696548,-112.39385416398933,137664250
sw,-72.7619400024414,-53.6330947875976,86.66105440684764,-106.97812651302287,137680917
sw,-74.4620971679687,-52.4885711669921,86.69449541250279,-99.50396346908028,137697584
sw,-76.1606063842773,-51.342041015625,85.00896402198191,-88.7777013186663,137714251
sw,-77.5654220581054,-50.1197204589843,81.592675780684,-73.81939255232392,137730918
sw,-78.6949157714843,-49.0795097351074,76.84166748060015,-54.188708016728825,137747585
sw,-79.4861068725586,-48.6478729248046,71.42777190628127,-30.28531448169004,137764252
sw,-80.1252670288086,-48.5205841064453,66.08211014717823,-3.516103426801537,137780919
sw,-80.8282318115234,-48.6365280151367,61.38261131567056,23.76378510750623,137797586
sw,-81.4198684692382,-49.4638557434082,57.61851449325993,48.57608932133401,137814253
sw,-81.7488174438476,-50.656883239746,54.76285088129027,67.87845519909406,137830920
sw,-82.045295715332,-52.3321952819824,52.542914602141984,79.24903849255807,137847587
sw,-82.3303909301757,-54.3650016784668,50.57410046390822,81.52521512150341,137864254
sw,-82.5322113037109,-56.1463584899902,48.51201087081494,75.20194399817015,137880921
sw,-82.6497421264648,-57.1005249023437,46.175979164465545,62.43823976260458,137897588
sw,-82.6112213134765,-57.9961204528808,43.60577042646638,46.6294626912179,137914255
sw,-82.4467239379882,-58.3738365173339,41.033892757966235,31.641250769878553,137930922
sw,-82.1869125366211,-58.2773208618164,38.782442114992065,20.91129756737374,137947589
sw,-81.8779144287109,-58.1867980957031,37.11553513232356,16.668524313672602,137964256
sw,-81.5413742065429,-58.2871665954589,36.089489606896834,19.487029353424024,137980923
sw,-81.2051162719726,-58.7408981323242,35.44201783948808,28.29511976286548,137997590
sw,-80.8979568481445,-59.6344451904296,34.552070613753436,40.82244042506945,138014257
sw,-80.6309127807617,-61.3947830200195,32.488255059003755,54.331154194472965,138030924
sw,-80.3489761352539,-63.352668762207,28.1481678695977,66.38708254585175,138047591
sw,-80.042007446289,-64.5586471557617,20.471983732258277,75.42209452007945,138064258
sw,-79.7826538085937,-65.6658401489257,8.690336575968834,80.93175972882274,138080925
sw,-79.6927871704101,-66.9743194580078,-7.454838675190804,83.30547350254349,138097592
sw,-79.9353256225586,-68.1799011230468,-27.584107923606883,83.42208338696015,138114259
sw,-80.6665573120117,-69.3946151733398,-50.69687419853409,82.19980926408722,138130926
sw,-81.8199081420898,-70.6866683959961,-75.33421961039862,80.26173839400712,138147593
sw,-83.2046585083007,-72.0833892822265,-99.84087029933727,77.8045806674145,138164260
sw,-84.5104827880859,-73.5035934448242,-122.64424396069873,74.67504015527042,138180927
sw,-85.2312850952148,-74.8404464721679,-142.46883398573655,70.58912945670752,138197594
sw,-84.4083709716796,-76.1045608520507,-158.43961418509178,65.39164472458192,138214261
sw,-82.3101730346679,-77.2968063354492,-170.07826762372895,59.25225841151853,138230928
sw,-79.5247573852539,-78.2862319946289,-177.2328298163079,52.725234416476944,138247595
sw,-76.5928268432617,-79.0524368286132,-179.98954246653034,46.6494378784305,138264262
sw,-73.7082443237304,-79.6139373779296,-178.60124736040768,41.92109715649665,138280929
sw,-70.8018112182617,-80.0835952758789,-173.44576720053013,39.21852063491631,138297596
sw,-68.0581283569336,-80.5978469848632,-165.0110883826412,38.7784733087956,138314263
sw,-65.3535614013671,-81.2700881958007,-153.89276806275484,40.30691794220822,138330930
sw,-62.9333763122558,-82.1421966552734,-140.78196745876764,43.056680405421154,138347597
sw,-60.8181037902832,-83.1104354858398,-126.42313782812886,46.04243582442635,138364264
sw,-58.9790992736816,-84.0101547241211,-111.53235380566663,48.31674720772491,138380931
sw,-57.4189147949218,-84.9433288574218,-96.68791990074092,49.217701108449425,138397598
sw,-56.1532020568847,-85.9485092163086,-82.22502552932822,48.51769964901363,138414265
sw,-55.2799072265625,-86.7428588867187,-68.17672309871561,46.439279544014646,138430932
sw,-54.586929321289,-87.312629699707,-54.299154312085015,43.54358729503026,138447599
sw,-53.8581237792968,-87.8036727905273,-40.19710046513795,40.53306188342423,138464266
sw,-53.2763671875,-88.2109680175781,-25.528180729862175,38.03416763838465,138480933
sw,-52.9871406555175,-88.5093154907226,-10.223525374289276,36.428456860376436,138497600
sw,-53.064697265625,-88.6534652709961,5.356937337764582,35.77796913660462,138514267
sw,-53.5605392456054,-88.5040664672851,20.398868994404612,35.85415805663882,138530934
sw,-54.3469810485839,-88.1107330322265,33.75420412909181,36.2446252174806,138547601
sw,-55.0858192443847,-87.653564453125,44.173389442691715,36.492022801460166,138564268
sw,-55.936408996582,-87.1213836669921,50.58388368035119,36.2186747022436,138580935
sw,-57.0751762390136,-86.5207595825195,52.344819580996436,35.20304592794269,138597602
sw,-58.3077392578125,-85.9378890991211,49.4167181863179,33.39061843782887,138614269
sw,-59.1321601867675,-85.390625,42.399593341957846,30.837651432340895,138630936
sw,-59.6358451843261,-84.9812088012695,32.41960081887672,27.6036970638977,138647603
sw,-59.8365287780761,-84.7390670776367,20.889467354630657,23.628034757590157,138664270
sw,-59.8811149597168,-84.5714416503906,9.215687380121805,18.639479730774774,138680937
sw,-59.9172401428222,-84.4294052124023,-1.4529060175151596,12.147380237912339,138697604
sw,-59.827033996582,-84.3373947143554,-10.359988432976252,3.537852269844479,138714271
sw,-59.6254615783691,-84.3068084716796,-17.134121567308576,-7.741108821066081,138730938
sw,-59.5333518981933,-84.4082641601562,-21.667381075410944,-21.962672016061617,138747605
sw,-59.6426887512207,-84.7755813598632,-23.948876531212353,-38.95125635992094,138764272
sw,-59.5230712890625,-85.6404571533203,-23.93620410897432,-58.02895628266438,138780939
sw,-59.1112251281738,-87.0420989990234,-21.529264013824612,-78.10648094648097,138797606
sw,-58.8898658752441,-88.5416946411132,-16.659484569510862,-97.88975735635181,138814273
sw,-58.7286643981933,-88.4546508789062,-9.44438695845449,-116.1279643950714,138830940
sw,-58.6028251647949,-86.3823699951171,-0.3180492335766877,-131.81898575156652,138847607
sw,-58.6400642395019,-83.9994888305664,9.94552197558242,-144.31729053104974,138864274
sw,-59.2245216369628,-81.6020965576171,20.352144205809864,-153.33818044230335,138880941
sw,-60.1877632141113,-78.7875366210937,29.921112199845872,-158.89411426469294,138897608
sw,-61.1046676635742,-75.9410324096679,37.94791312313178,-161.21313223542873,138914275
sw,-61.9969177246093,-73.4364700317382,44.1923545363898,-160.67382738158696,138930942
sw,-62.8595924377441,-70.9298324584961,48.917728828731036,-157.76336343227842,138947609
sw,-63.6900062561035,-68.4755554199218,52.76732754394411,-153.04584842788478,138964276
sw,-64.5643310546875,-66.0938949584961,56.52416810043342,-147.12365722521798,138980943
sw,-65.5709152221679,-63.7847061157226,60.83405785256713,-140.5777968150496,138997610
sw,-66.6464538574218,-61.6072692871093,65.97565131834862,-133.8815815540026,139014277
sw,-67.7726974487304,-59.6364669799804,71.74164827120143,-127.29542705530295,139030944
sw,-68.9060592651367,-57.7541885375976,77.46456524856083,-120.76722666443219,139047611
sw,-70.1567001342773,-56.0689888000488,82.18687730766031,-113.87567016739422,139064278
sw,-71.7604217529296,-54.4750442504882,84.93998776190556,-105.85539234018584,139080945
sw,-73.6522674560546,-53.0275268554687,85.05958141666062,-95.72893194114694,139097612
sw,-75.3325729370117,-51.7248725891113,82.43724355308188,-82.54272082839181,139114279
sw,-76.5759735107421,-50.6817054748535,77.61206754090053,-65.66949841850486,139130946
sw,-77.4841384887695,-49.9099807739257,71.65512594123342,-45.10764561061121,139147613
sw,-78.2275085449218,-49.39693069458,65.87767772431962,-21.68914372076004,139164280
sw,-78.7855682373046,-49.1634178161621,61.46091738470375,2.8897763604551745,139180947
sw,-79.2754516601562,-49.6030197143554,59.12911636356809,26.271881087802388,139197614
sw,-79.8063278198242,-50.4447708129882,58.965466045918234,45.87427134653733,139214281
sw,-80.2516326904296,-51.8454093933105,60.41797979506429,59.47580436445592,139230948
sw,-80.6228561401367,-53.4669303894043,62.48354713339719,65.80483592364098,139247615
sw,-81.0041351318359,-54.9198722839355,64.0092575042457,64.94478815560208,139264282
sw,-81.2763442993164,-56.2356529235839,64.02080888871528,58.40798925806254,139280949
sw,-81.4560394287109,-57.1768188476562,61.98131132359293,48.82051905707356,139297616
sw,-81.5749435424804,-57.5213012695312,57.90210365304695,39.28312094338804,139314283
