Label,Left_Hip_q,Right_Hip_q,Left_Hip_qd,Right_Hip_qd,SampleTimeFine
iw,-35.908275604248,-81.4189987182617,23.0136356353759,41.6707878112793,1797030770
iw,-36.5288467407226,-80.6795578002929,42.20682519366696,40.66501498566564,1797047437
iw,-37.0494117736816,-79.9921112060546,42.58439652242765,23.12995344119818,1797064104
iw,-37.2296524047851,-79.5061874389648,43.23492914192687,4.552917523585795,1797080771
iw,-37.4864540100097,-79.4493560791015,44.404808691846284,-15.698348895254016,1797097438
iw,-38.4014701843261,-79.8489456176757,46.23900818884109,-37.54978745037834,1797114105
iw,-39.7382621765136,-80.7317199707031,48.81207882245407,-60.19894052242482,1797130772
iw,-40.6838951110839,-82.2112731933593,52.174099056116724,-82.34297993781172,1797147439
iw,-41.3031272888183,-84.211181640625,56.346502481945265,-102.56679446047345,1797164106
iw,-42.0589866638183,-86.0614013671875,61.250571172734055,-119.74490974664135,1797180773
iw,-43.0935440063476,-86.9357376098632,66.61991084261737,-133.31193034065836,1797197440
iw,-44.3717765808105,-86.3505783081054,71.97293898890806,-143.3177317798445,1797214107
iw,-45.5766868591308,-84.9339599609375,76.68414668649537,-150.27926515723377,1797230774
iw,-46.6546745300293,-82.9214401245117,80.13332034920717,-154.92127550536168,1797247441
iw,-47.7743301391601,-80.5790481567382,81.87664316648245,-157.92327299160956,1797264108
iw,-48.917194366455,-78.2598648071289,81.78267132129295,-159.75820532038787,1797280775
iw,-50.0706329345703,-75.7874145507812,80.09199411319442,-160.6519063552807,1797297442
iw,-51.176097869873,-72.9661788940429,77.37951183397794,-160.64361052376702,1797314109
iw,-52.2314987182617,-70.034797668457,74.42395647845488,-159.69622750705435,1797330776
iw,-53.3169708251953,-67.3521194458007,72.01903807085478,-157.79109027826655,1797347443
iw,-54.4448852539062,-64.9076614379882,70.78217035593606,-154.95364479366324,1797364110
iw,-55.6257705688476,-62.6017723083496,71.01776051689005,-151.19762169405857,1797380777
iw,-56.9775695800781,-60.3593521118164,72.67078702470431,-146.426190100162,1797397444
iw,-58.3072624206543,-58.1033897399902,75.37199414136941,-140.35787243281095,1797414111
iw,-59.4865837097168,-55.9401931762695,78.54438228388013,-132.53679139032988,1797430778
iw,-60.5475158691406,-54.1607131958007,81.52760127390317,-122.45058469252605,1797447445
iw,-61.5353736877441,-52.2360038757324,83.68696112316992,-109.73453391539647,1797464112
iw,-62.3968658447265,-50.2121772766113,84.4953111210433,-94.39994363149553,1797480779
iw,-63.0896949768066,-48.6108131408691,83.59202360890018,-76.99726543897751,1797497446
iw,-63.6916122436523,-47.5988159179687,80.82637275089633,-58.62659418005713,1797514113
iw,-64.2530670166015,-47.1778564453125,76.285983426935,-40.75655141398857,1797530780
iw,-64.7044296264648,-47.2797660827636,70.30138087756524,-24.895926072150075,1797547447
iw,-65.0076293945312,-47.3273315429687,63.4126299970637,-12.235318703313858,1797564114
iw,-65.3185195922851,-47.3165130615234,56.290804709395296,-3.391548987136259,1797580781
iw,-65.6836929321289,-47.1707611083984,49.62476483895871,1.66425542040544,1797597448
iw,-66.1040573120117,-47.0329780578613,44.00013916489073,3.4989818433651663,1797614115
iw,-66.6205062866211,-47.1065483093261,39.799491966780586,3.0012113838629473,1797630782
iw,-67.1965255737304,-47.3917617797851,37.13990219122469,1.1447084648249222,1797647449
iw,-67.7789688110351,-47.3464698791503,35.84795631059173,-1.204204117071653,1797664116
iw,-68.3528594970703,-47.086124420166,35.464063761984455,-3.4048548456006804,1797680783
iw,-68.886962890625,-46.878131866455,35.271176904775174,-5.073800893763234,1797697450
iw,-69.3434677124023,-46.8677825927734,34.351901685507436,-6.026473174372928,1797714117
iw,-69.6962203979492,-47.0175857543945,31.683745239077897,-6.1461702295971605,1797730784
iw,-69.907485961914,-47.254035949707,26.278198672639864,-5.232836976565751,1797747451
iw,-70.0060653686523,-47.60693359375,17.354227586537863,-2.9101370918384433,1797764118
iw,-70.1324768066406,-47.8538284301757,4.515763098902291,1.340599161994958,1797780785
iw,-70.3420181274414,-47.8113212585449,-12.113756472161938,8.00371497834595,1797797452
iw,-70.6421737670898,-47.6326065063476,-31.847835277711663,17.270524216999586,1797814119
iw,-71.0492858886718,-47.889720916748,-53.51171807763905,28.820096554394215,1797830786
iw,-71.5389099121093,-48.7061386108398,-75.6242539025928,41.76371027816698,1797847453
iw,-72.0307464599609,-49.9962577819824,-96.63659395593828,54.80706375122295,1797864120
iw,-72.5248641967773,-51.6283836364746,-115.16268634340595,66.5763429010111,1797880787
iw,-72.8025817871093,-53.1693077087402,-130.15556509511168,75.9737570560485,1797897454
iw,-72.2453536987304,-54.4639854431152,-141.01646196135596,82.42300203042794,1797914121
iw,-70.8333587646484,-55.7714309692382,-147.63961175813287,85.93150690950759,1797930788
iw,-69.1628036499023,-57.1769104003906,-150.38803463764856,86.98607776228455,1797947455
iw,-67.5714874267578,-58.5868072509765,-149.9903717922908,86.35805381584655,1797964122
iw,-65.8721923828125,-60.0000381469726,-147.36886894277353,84.90175756577283,1797980789
iw,-63.9293632507324,-61.4454154968261,-143.44202644888585,83.40120457150076,1797997456
iw,-61.8621368408203,-62.9167251586914,-138.9593643632139,82.48245300056271,1798014123
iw,-59.6686134338378,-64.3694076538086,-134.4053944517693,82.58067672786483,1798030790
iw,-57.5299263000488,-65.8065414428711,-129.97347518260705,83.93791006464983,1798047457
iw,-55.5858840942382,-67.3019866943359,-125.58746743436735,86.6085128717504,1798064124
iw,-53.7593002319335,-68.8690490722656,-120.95306684715696,90.45966035282198,1798080791
iw,-51.9319534301757,-70.4879608154296,-115.6390707947047,95.166932120931,1798097458
iw,-49.988182067871,-72.1009979248046,-109.19726767175287,100.21595492146119,1798114125
iw,-47.9561576843261,-73.8024520874023,-101.31413165672193,104.92804030223994,1798130792
iw,-45.9849510192871,-75.6051712036132,-91.9569209512765,108.52797159159606,1798147459
iw,-44.2763862609863,-77.4564666748046,-81.45513220420546,110.26178099956016,1798164126
iw,-43.0337333679199,-79.3865737915039,-70.46658133053336,109.55168723880071,1798180793
iw,-42.1828002929687,-81.4422988891601,-59.819661528931206,106.15135047569838,1798197460
iw,-41.7337455749511,-83.3305587768554,-50.28229293956268,100.24890165513146,1798214127
iw,-41.493667602539,-84.8321762084961,-42.35193491455982,92.46954768056926,1798230794
iw,-40.9588928222656,-86.1667175292968,-36.159920112429354,83.7584574553213,1798247461
iw,-39.9622459411621,-87.4334182739257,-31.528384343842557,75.16757758459214,1798264128
iw,-38.943130493164,-88.4065170288086,-28.133917533434914,67.60574677230439,1798280795
iw,-38.3407669067382,-88.9162826538086,-25.67160943938255,61.62549743525134,1798297462
iw,-38.1972999572753,-88.8758697509765,-23.92324447089776,57.312513992488974,1798314129
iw,-38.0244522094726,-88.391845703125,-22.71038567205736,54.318492295359285,1798330796
iw,-37.9186782836914,-87.5803070068359,-21.797427199943332,52.034836868228275,1798347463
iw,-37.5043411254882,-86.5064392089843,-20.837097228400694,49.85006951139892,1798364130
iw,-36.9294929504394,-85.4167022705078,-19.40832447596651,47.390985181251736,1798380797
iw,-36.486759185791,-84.5941619873046,-17.125246402176487,44.64408116487323,1798397464
iw,-36.2041931152343,-84.0222702026367,-13.750218546342191,41.8998135481016,1798414131
iw,-36.0537185668945,-83.5445709228515,-9.248623238392703,39.53915688262737,1798430798
iw,-35.9821128845214,-83.1145629882812,-3.765794439296442,37.75173432255151,1798447465
iw,-36.062084197998,-82.6639328002929,2.4474756255594006,36.30408192283404,1798464132
iw,-36.2881469726562,-82.1382064819336,9.111789842277037,34.45593277842163,1798480799
iw,-36.431827545166,-81.549087524414,15.957843665469234,31.06613742633471,1798497466
iw,-36.452392578125,-80.9753799438476,22.71832124837583,24.86284133467661,1798514133
iw,-36.4621353149414,-80.5680770874023,29.101858423124664,14.797995530287663,1798530800
iw,-36.7553825378418,-80.3601303100586,34.79694595281269,0.3793572528729067,1798547467
iw,-37.5966796875,-80.4013442993164,39.536028169498756,-18.1216796291726,1798564134
iw,-38.5585174560546,-80.8330993652343,43.20259949695791,-39.65534316350692,1798580801
iw,-39.2767829895019,-81.911262512207,45.9214598289616,-62.58842254303241,1798597468
iw,-39.8642616271972,-83.6476974487304,48.07078126995132,-85.06275505642125,1798614135
iw,-40.6070518493652,-85.7147216796875,50.19701449565604,-105.41376669495223,1798630802
iw,-41.5273132324218,-87.7781600952148,52.86451330894428,-122.51837089656534,1798647469
iw,-42.3218803405761,-88.5776977539062,56.49417099727563,-135.96488762644077,1798664136
iw,-43.0921363830566,-86.9924163818359,61.236454091320205,-146.00672370489193,1798680803
iw,-43.9646034240722,-84.7617950439453,66.9067019146733,-153.34264938594453,1798697470
iw,-44.9480819702148,-82.2533187866211,72.99844872266466,-158.81912306102666,1798714137
iw,-45.9626502990722,-79.7405395507812,78.77825261102679,-163.15555919273834,1798730804
iw,-47.0806465148925,-77.1910400390625,83.44666338934327,-166.7636506001474,1798747471
iw,-48.3226661682128,-74.4260787963867,86.32999457327311,-169.69119827160358,1798764138
iw,-49.6893196105957,-71.3832931518554,87.05584256746992,-171.6828955220275,1798780805
iw,-51.0308189392089,-68.3291244506836,85.66588693057317,-172.31736005124782,1798797472
iw,-52.2931594848632,-65.4015121459961,82.63269044300371,-171.15830797102907,1798814139
iw,-53.4676856994628,-62.6361961364746,78.77177231715426,-167.8614552488396,1798830806
iw,-54.5581321716308,-60.0066680908203,75.07008633868521,-162.21012977458156,1798847473
iw,-55.5987167358398,-57.5466995239257,72.4753883238775,-154.09480956175383,1798864140
iw,-56.7134742736816,-55.3094863891601,71.69751022015727,-143.48130022266795,1798880807
iw,-57.9040641784668,-53.2935371398925,73.06170186443455,-130.41529022230816,1798897474
iw,-59.0255851745605,-51.309585571289,76.43542352552807,-115.08706560053442,1798914141
iw,-60.072395324707,-49.3180389404296,81.2350249033353,-97.93798268782761,1798930808
iw,-61.1284942626953,-47.7138137817382,86.5120513745763,-79.74799088274837,1798947475
iw,-62.219123840332,-46.6415252685546,91.11407343746812,-61.62732429228531,1798964142
iw,-63.3594665527343,-45.9432182312011,93.90222950096445,-44.864708296913726,1798980809
iw,-64.4764022827148,-45.7180213928222,93.98641298605355,-30.651062315597045,1798997476
iw,-65.4043045043945,-45.8073768615722,90.92124528920073,-19.76682396901154,1799014143
iw,-65.9993438720703,-45.8074226379394,84.80691777846525,-12.354516358949137,1799030810
iw,-66.3721618652343,-45.8465843200683,76.26376581901279,-7.87694345710189,1799047477
iw,-66.6553344726562,-45.5145149230957,66.28792914327245,-5.292511980198004,1799064144
iw,-66.8771896362304,-45.0478248596191,56.02980342419273,-3.392391493290128,1799080811
iw,-67.1143722534179,-45.0318336486816,46.55408938306533,-1.1802259071860974,1799097478
iw,-67.4979934692382,-45.2011756896972,38.63697580296042,1.8352401429724376,1799114145
iw,-68.0153350830078,-45.2235565185546,32.63638062581073,5.521388189186952,1799130812
iw,-68.578254699707,-45.2908821105957,28.444749452355307,9.199985728491797,1799147479
iw,-69.1688613891601,-45.4136886596679,25.514376254249406,11.89546913959311,1799164146
iw,-69.8095779418945,-45.6633148193359,22.94137242648157,12.695010710207102,1799180813
iw,-70.4141159057617,-46.2125625610351,19.601066007535294,11.135015853680802,1799197480
iw,-70.8475265502929,-46.8493537902832,14.330732785547184,7.501571373943137,1799214147
iw,-71.1201934814453,-47.3945541381835,6.146122311063175,2.924242609762153,1799230814
iw,-71.3403396606445,-47.6378669738769,-5.541346660937614,-0.819752605563345,1799247481
iw,-71.4875335693359,-47.3670272827148,-20.758708407750913,-1.7810970547258844,1799264148
iw,-71.5210037231445,-46.5527954101562,-38.912632986355675,1.5394414569098542,1799280815
iw,-71.5020675659179,-46.1015586853027,-58.870782366313804,9.650996271493089,1799297482
iw,-71.507095336914,-46.564884185791,-79.17029086262924,21.84630933531974,1799314149
iw,-71.650764465332,-47.8650512695312,-98.29389094531452,36.40275753429385,1799330816
iw,-71.8853988647461,-49.4957580566406,-114.93687019965424,51.13334452468906,1799347483
iw,-71.8039474487304,-50.9840049743652,-128.2072958602113,64.0536269747265,1799364150
iw,-71.0442504882812,-52.2162284851074,-137.7350366156333,73.89960718757334,1799380817
iw,-69.8210906982421,-53.3705596923828,-143.6847022215995,80.33244879039876,1799397484
iw,-68.3536376953125,-54.6651992797851,-146.67112940782616,83.82238238046101,1799414151
iw,-66.8018798828125,-55.9469604492187,-147.58336992592288,85.32518113003776,1799430818
iw,-65.1139907836914,-57.240177154541,-147.34778158902677,85.90615938794149,1799447485
iw,-63.2345733642578,-58.6635818481445,-146.69049897698446,86.44047123393273,1799464152
iw,-61.1660118103027,-60.2337036132812,-145.96838545016186,87.45916689193267,1799480819
iw,-58.9887924194335,-61.858154296875,-145.11378987837222,89.1469611565756,1799497486
iw,-56.8192901611328,-63.4614524841308,-143.69609963267175,91.448509367568,1799514153
iw,-54.6642913818359,-65.149917602539,-141.06763597092566,94.21601384048238,1799530820
iw,-52.4928321838378,-66.927131652832,-136.54760891943252,97.33312784820988,1799547487
iw,-50.2863388061523,-68.6965103149414,-129.60210077035435,100.77035703462391,1799564154
iw,-48.1065864562988,-70.4124755859375,-119.98830250839106,104.55637440348661,1799580821
iw,-46.0449028015136,-72.1537857055664,-107.83944568448238,108.68159868694697,1799597488
iw,-44.2343444824218,-73.9778213500976,-93.67331111217909,112.9776202776309,1799614155
iw,-42.8559188842773,-75.8406829833984,-78.31756720432742,117.02885719594371,1799630822
iw,-41.7902679443359,-77.6879730224609,-62.76449959298489,120.16548139803605,1799647489
iw,-41.0866737365722,-79.6758499145507,-47.99293003666283,121.5616041835673,1799664156
iw,-40.7285003662109,-81.852668762207,-34.813283755624354,120.42712780091074,1799680823
iw,-40.3720016479492,-83.8827819824218,-23.787639764680257,116.24480727762084,1799697490
iw,-39.8306427001953,-85.7546691894531,-15.244059524248932,108.97851117304496,1799714157
iw,-39.1655197143554,-87.5336761474609,-9.354124722793703,99.17647264988243,1799730824
iw,-38.5964698791503,-88.7905044555664,-6.202737231061026,87.91739976528602,1799747491
iw,-38.7282981872558,-88.7306671142578,-5.782844160627674,76.59172758299975,1799764158
iw,-38.94921875,-88.3218154907226,-7.903712284147362,66.56660421423834,1799780825
iw,-38.9853591918945,-87.853515625,-12.074126598304886,58.83608708223977,1799797492
iw,-38.4746475219726,-87.0931701660156,-17.452961779530874,53.778716795038704,1799814159
iw,-37.9339752197265,-86.001106262207,-22.922113983676024,51.10769477751046,1799830826
iw,-37.41650390625,-84.7285690307617,-27.263776867163596,50.01328248916712,1799847493
iw,-36.8933868408203,-83.5483093261718,-29.373816495188883,49.41129570254851,1799864160
iw,-36.4922256469726,-82.7224731445312,-28.443431938767112,48.179590960072574,1799880827
iw,-36.3495330810546,-82.1934967041015,-24.075148602071003,45.30363945001164,1799897494
iw,-36.04292678833,-81.766487121582,-16.331985516366952,39.930940395500116,1799914161
iw,-35.6586799621582,-81.3154754638671,-5.727959393933813,31.395720655354193,1799930828
iw,-35.3304557800293,-80.8784255981445,6.844205204793013,19.27989516671003,1799947495
iw,-35.3757858276367,-80.5412979125976,20.261761624209807,3.5263088019526867,1799964162
iw,-36.4321708679199,-80.4711761474609,33.39028717480864,-15.444568192147562,1799980829
iw,-37.4772644042968,-80.892951965332,45.31724307800454,-36.696739135998136,1799997496
iw,-38.3624954223632,-81.9897232055664,55.51207855424051,-58.88034583458363,1800014163
iw,-39.1826858520507,-83.6353607177734,63.845866809384745,-80.4685669177124,1800030830
iw,-40.1233253479003,-85.4542541503906,70.47545491666965,-100.05500092465431,1800047497
iw,-41.4064788818359,-87.0279693603515,75.66498738305914,-116.60400331687387,1800064164
iw,-42.9060325622558,-87.5230636596679,79.63240557969385,-129.57137232187355,1800080831
iw,-44.2143096923828,-86.3783721923828,82.47220695001388,-138.87829443732838,1800097498
iw,-45.4306144714355,-84.5565185546875,84.15881103512238,-144.78634832841544,1800114165
iw,-46.5483627319335,-82.4770202636718,84.60895714459792,-147.75062963461937,1800130832
iw,-47.629051208496,-80.2345352172851,83.77502078763168,-148.31382388177346,1800147499
iw,-48.7995109558105,-77.8954772949218,81.73754037167706,-147.06352710608206,1800164166
iw,-50.0034103393554,-75.5143127441406,78.76118476154122,-144.63398896448513,1800180833
iw,-51.0981712341308,-73.0905303955078,75.28472020681443,-141.70992543466033,1800197500
iw,-52.1296501159668,-70.6898651123046,71.83895484768044,-138.989209573287,1800214167
iw,-53.1241455078125,-68.3782730102539,68.9191279725722,-137.07982502331683,1800230834
iw,-54.1256828308105,-66.2898712158203,66.86266759661187,-136.33885807346346,1800247501
iw,-55.3073577880859,-64.3668746948242,65.78505377309993,-136.69908346393265,1800264168
iw,-56.6805114746093,-62.3449096679687,65.60151594192115,-137.55673598245806,1800280835
iw,-58.0512046813964,-60.090030670166,66.12013621507354,-137.7937018965434,1800297502
iw,-59.2997512817382,-57.7853355407714,67.15485212322542,-135.97018926123943,1800314169
iw,-60.4265747070312,-55.6365089416503,68.59802391464649,-130.66329979731825,1800330836
iw,-61.4223136901855,-53.5895233154296,70.41752141384003,-120.87049275521841,1800347503
iw,-62.2540245056152,-51.4443092346191,72.585699369449,-106.3653913849932,1800364170
iw,-62.9594497680664,-49.592716217041,74.9823060531459,-87.89158480825938,1800380837
iw,-63.6657371520996,-48.3736839294433,77.3249711011569,-67.1091411082546,1800397504
iw,-64.4352569580078,-47.8218269348144,79.16761009859857,-46.27286656101084,1800414171
iw,-65.2551345825195,-47.7730827331543,79.97673340103785,-27.712696512444392,1800430838
iw,-66.0425643920898,-48.1337585449218,79.2622835040579,-13.270089883147616,1800447505
iw,-66.7381515502929,-48.3079223632812,76.71786978399058,-3.874486814663024,1800464172
iw,-67.2872848510742,-48.3142051696777,72.32279671588805,0.6022737641892755,1800480839
iw,-67.697639465332,-48.1172981262207,66.37299666523086,1.180999278548828,1800497506
iw,-68.0166854858398,-47.682273864746,59.43183534257918,-0.6171838054437567,1800514173
iw,-68.38671875,-47.4296569824218,52.215785097314686,-3.234569786660505,1800530840
iw,-68.8858566284179,-47.5506362915039,45.44642606508232,-5.455525346933976,1800547507
iw,-69.4762496948242,-47.5813522338867,39.70385969347277,-6.605658126690949,1800564174
iw,-70.0302276611328,-47.5353698730468,35.307749942622664,-6.560015060214246,1800580841
iw,-70.4918670654296,-47.4073486328125,32.23888624184762,-5.606692230901966,1800597508
iw,-70.8581085205078,-47.2735710144043,30.107088619915093,-4.228184895164356,1800614175
iw,-71.1704177856445,-47.2557792663574,28.173752598574506,-2.855135943112808,1800630842
iw,-71.4786987304687,-47.4954147338867,25.441160920719046,-1.6429711424043367,1800647509
iw,-71.7484283447265,-47.8775482177734,20.81396480660197,-0.3294652774334541,1800664176
iw,-71.9781951904296,-48.3866920471191,13.317160672700343,1.7647990420695767,1800680843
iw,-72.1429138183593,-48.6332130432128,2.327487789739595,5.555318558669306,1800697510
iw,-72.2314834594726,-48.4244384765625,-12.244445417443629,11.858356562038924,1800714177
iw,-72.2676544189453,-48.1751060485839,-29.882651325123973,21.012820982851782,1800730844
iw,-72.2466201782226,-48.5166320800781,-49.53697711627716,32.62536945502917,1800747511
iw,-72.142463684082,-49.5348320007324,-69.81898314274872,45.577200896524374,1800764178
iw,-72.0937805175781,-51.1480026245117,-89.25840692837359,58.3164529139364,1800780845
iw,-72.2201614379882,-52.837833404541,-106.54359752572395,69.3198511457357,1800797512
iw,-72.3333740234375,-54.2825164794921,-120.69664046026995,77.52820678649579,1800814179
iw,-71.7986602783203,-55.5051689147949,-131.17481500588354,82.58814352064825,1800830846
iw,-70.4855346679687,-56.8212852478027,-137.9100661797773,84.83920687306458,1800847513
iw,-68.8106613159179,-58.2029609680175,-141.28878740760575,85.09858346506613,1800864180
iw,-67.1273117065429,-59.5164527893066,-142.05947897637768,84.35638450068151,1800880847
iw,-65.4063949584961,-60.8632011413574,-141.1646251422264,83.49311276926845,1800897514
iw,-63.5583610534668,-62.2919883728027,-139.52639978436784,83.09333613513405,1800914181
iw,-61.633129119873,-63.751106262207,-137.8453971831251,83.38352946282785,1800930848
iw,-59.5808944702148,-65.2083969116211,-136.47089262251728,84.28239023192616,1800947515
iw,-57.5036239624023,-66.7012481689453,-135.3709170091036,85.52534299197812,1800964182
iw,-55.4294395446777,-68.250259399414,-134.19319612267597,86.81391886304719,1800980849
iw,-53.2999038696289,-69.8135833740234,-132.38460325299422,87.94317241550795,1800997516
iw,-51.1870574951171,-71.3639678955078,-129.33235683411394,88.87214897399524,1801014183
iw,-49.1023254394531,-72.8860473632812,-124.49798155110125,89.72068658114827,1801030850
iw,-47.0070648193359,-74.3952407836914,-117.52642051652833,90.69774382545027,1801047517
iw,-44.913589477539,-75.8658065795898,-108.32140073916264,91.98716052910764,1801064184
iw,-43.0706405639648,-77.3210144042968,-97.08056353128755,93.6303778444307,1801080851
iw,-41.4853553771972,-78.8790588378906,-84.28208560729473,95.4477982522981,1801097518
iw,-40.3022689819335,-80.4870071411132,-70.61755141316932,97.0299943032783,1801114185
iw,-39.5804252624511,-82.067642211914,-56.8811077813419,97.80988035931004,1801130852
iw,-39.1889953613281,-83.6666183471679,-43.84734651683144,97.20363718558441,1801147519
iw,-38.6886367797851,-85.2913970947265,-32.18200584144583,94.78749726054497,1801164186
iw,-38.0628356933593,-86.8788299560546,-22.413224137467257,90.46212055967787,1801180853
iw,-37.3371467590332,-88.3401107788086,-14.949229176157111,84.54874799496886,1801197520
iw,-37.0186958312988,-88.9141159057617,-10.089986635026127,77.76787938802815,1801214187
iw,-37.0779495239257,-88.2488937377929,-7.980909659203512,71.07912739252244,1801230854
iw,-37.2297325134277,-87.5838623046875,-8.503905700423726,65.40965453858217,1801247521
iw,-37.253604888916,-86.9466171264648,-11.161704430916677,61.351950517006614,1801264188
iw,-37.1129455566406,-86.1469497680664,-15.038515695417367,58.939909938009166,1801280855
iw,-36.7736129760742,-85.044807434082,-18.893352224970073,57.590696470366474,1801297522
iw,-36.2930679321289,-83.7538375854492,-21.381126803873872,56.23268063528305,1801314189
iw,-35.7311134338378,-82.6059646606445,-21.33802767987111,53.56306378208483,1801330856
iw,-35.4325447082519,-81.8048019409179,-18.039990243761082,48.33737036984586,1801347523
iw,-35.3943710327148,-81.2999496459961,-11.35460412348663,39.60679983725857,1801364190
iw,-35.267837524414,-80.9204330444336,-1.7459512848980137,26.868959425235566,1801380857
iw,-35.0429534912109,-80.6648788452148,9.864182387402748,10.141312482260933,1801397524
iw,-35.4140930175781,-80.6591262817382,22.341505700793757,-10.023277839141635,1801414191
iw,-36.5719337463378,-80.9783859252929,34.62585965932769,-32.57756595358067,1801430858
iw,-37.6650352478027,-81.780403137207,45.9695436943627,-56.09395547615972,1801447525
iw,-38.351505279541,-83.1636199951171,56.03914433562091,-78.9615343391967,1801464192
iw,-38.9070739746093,-85.0121002197265,64.84756074886211,-99.64369772110764,1801480859
iw,-39.9789772033691,-86.94091796875,72.57020449708696,-116.93605464584599,1801497526
iw,-41.4921684265136,-88.1956100463867,79.35323747897431,-130.14876202096823,1801514193
iw,-43.0785179138183,-87.2321853637695,85.20110274746945,-139.1591095998379,1801530860
iw,-44.4159812927246,-85.32861328125,89.96477918938918,-144.3294437253108,1801547527
iw,-45.578872680664,-83.137825012207,93.40291928399779,-146.3350870054966,1801564194
iw,-46.844970703125,-80.8554000854492,95.28128969938162,-145.97147690041297,1801580861
iw,-48.34375,-78.660285949707,95.48683241264473,-144.00241727269164,1801597528
iw,-49.89595413208,-76.5436477661132,94.12970889712899,-141.08383033051177,1801614195
iw,-51.3294868469238,-74.1562271118164,91.5921265236976,-137.7646871926182,1801630862
iw,-52.6259574890136,-71.6249465942382,88.48398666335669,-134.53539531164898,1801647529
iw,-53.785888671875,-69.2436599731445,85.49825030168537,-131.86922828890675,1801664196
iw,-54.8519973754882,-67.0638351440429,83.20939464747362,-130.1991430623103,1801680863
iw,-56.0303039550781,-65.0406646728515,81.89592580686029,-129.8036616513114,1801697530
iw,-57.4578208923339,-63.1268234252929,81.46799849337154,-130.6320255065197,1801714197
iw,-59.1232261657714,-61.1922988891601,81.53864092946579,-132.14944636605998,1801730864
iw,-60.8381080627441,-59.1429443359375,81.61014548376824,-133.2981373992767,1801747531
iw,-62.3925094604492,-57.024055480957,81.29071949127368,-132.63910441815966,1801764198
iw,-63.5704917907714,-54.8531341552734,80.44261103070063,-128.6750465532903,1801780865
iw,-64.425666809082,-52.5641403198242,79.19970796897952,-120.28017451897213,1801797532
iw,-65.1220397949218,-50.2463760375976,77.85819334899882,-107.10486215955376,1801814199
iw,-65.7067489624023,-48.4319190979003,76.70135804647892,-89.80564051836197,1801830866
iw,-66.1906127929687,-47.2503089904785,75.84143709127514,-69.9908843764335,1801847533
iw,-66.6676254272461,-46.7049217224121,75.1437983739189,-49.86758458793908,1801864200
iw,-67.2126312255859,-46.810073852539,74.25823054245629,-31.692290119245136,1801880867
iw,-67.8146667480468,-47.0683097839355,72.739133209826,-17.215047878258243,1801897534
iw,-68.4451370239257,-47.0702896118164,70.20593867910569,-7.311980193696884,1801914201
iw,-69.1066360473632,-46.7337989807128,66.48485811307948,-1.9201061850916963,1801930868
iw,-69.794189453125,-46.2152442932128,61.68381784103906,-0.2554067080848792,1801947535
iw,-70.4886093139648,-45.9882736206054,56.177122198874024,-1.1820674299473537,1801964202
iw,-71.2375793457031,-46.2238464355468,50.503415978081506,-3.566861057694003,1801980869
iw,-71.8384857177734,-46.2902145385742,45.20155755927818,-6.50421364968121,1801997536
iw,-72.2034912109375,-46.113655090332,40.62303556383278,-9.384547253500171,1802014203
iw,-72.4332733154296,-45.7743453979492,36.76913792362937,-11.840002651225618,1802030870
iw,-72.6439361572265,-45.5498542785644,33.20466542483303,-13.61824111366196,1802047537
iw,-72.8789138793945,-45.5821685791015,29.089674807307215,-14.432896453166753,1802064204
iw,-73.0980072021484,-45.726463317871,23.34060723175913,-13.846080932599246,1802080871
iw,-73.3679733276367,-45.8973960876464,14.888893195641218,-11.247913947443047,1802097538
iw,-73.6905136108398,-45.9840469360351,2.967339632012656,-5.980836761292655,1802114205
iw,-74.0103607177734,-45.7219886779785,-12.65952433652036,2.403883178748099,1802130872
iw,-74.2335662841796,-45.3619728088378,-31.588256326440632,13.853228956059771,1802147539
iw,-74.3021774291992,-45.57612991333,-52.817861054202695,27.633461862096343,1802164206
iw,-74.2676315307617,-46.6112365722656,-74.91606170466142,42.39118737207056,1802180873
iw,-74.3067321777343,-48.2036094665527,-96.25463075438219,56.47178124958305,1802197540
iw,-74.3640213012695,-49.8453140258789,-115.2569688039372,68.37796862443477,1802214207
iw,-74.0516357421875,-51.261302947998,-130.62135969046972,77.1776133312195,1802230874
iw,-73.0599365234375,-52.5781059265136,-141.4993962563365,82.70209437235803,1802247541
iw,-71.5408706665039,-53.8939666748046,-147.60774687295373,85.48486224525668,1802264208
iw,-69.8815460205078,-55.2522544860839,-149.24531247218934,86.50105795686525,1802280875
iw,-68.2496032714843,-56.6351623535156,-147.19924391136712,86.82794369143478,1802297542
iw,-66.5953369140625,-58.0451622009277,-142.55736103737522,87.34347539044975,1802314209
iw,-64.8717498779296,-59.5531387329101,-136.48075339880396,88.53987222774533,1802330876
iw,-63.0128479003906,-61.1605758666992,-130.00149416258915,90.47781066790184,1802347543
iw,-61.0860290527343,-62.7965087890625,-123.88818217601224,92.86282459731753,1802364210
iw,-59.2227401733398,-64.4341506958007,-118.58379685773323,95.19811303782545,1802380877
iw,-57.4641723632812,-66.0885925292968,-114.19309471971921,96.96030738873783,1802397544
iw,-55.8086204528808,-67.7829895019531,-110.49608973326659,97.75285889796083,1802414211
iw,-54.12105178833,-69.4665908813476,-106.98495399765534,97.4069964126721,1802430878
iw,-52.2651138305664,-71.0949783325195,-102.94401080434325,96.01573009473735,1802447545
iw,-50.2808151245117,-72.6755218505859,-97.59556525582376,93.90003621463248,1802464212
iw,-48.263916015625,-74.2589950561523,-90.30957247974004,91.51824275366513,1802480879
iw,-46.285789489746,-75.7587280273437,-80.83234728888624,89.3391421188494,1802497546
iw,-44.4110527038574,-77.1720581054687,-69.45305148112841,87.70606356230121,1802514213
iw,-43.1602096557617,-78.5594024658203,-57.02362620218065,86.72360860145166,1802530880
iw,-42.4977912902832,-79.8818206787109,-44.7919214288983,86.20011406102796,1802547547
iw,-42.0718002319335,-81.1911926269531,-34.08506616317743,85.67323534128234,1802564214
iw,-41.7587280273437,-82.5844497680664,-25.949800819593257,84.52900220045926,1802580881
iw,-41.4868087768554,-84.0876541137695,-20.877419952539658,82.19589620086364,1802597548
iw,-41.1988105773925,-85.6380310058593,-18.703744716961076,78.36182847891922,1802614215
iw,-40.8092384338378,-87.093032836914,-18.704336954086322,73.1381744959884,1802630882
iw,-40.253173828125,-88.1741561889648,-19.836725730502636,67.09832042518725,1802647549
iw,-39.4224777221679,-88.7811584472656,-21.038588396570514,61.15602103622248,1802664216
iw,-38.9656372070312,-88.861343383789,-21.484311435047047,56.30979753218699,1802680883
iw,-38.6100234985351,-88.5748138427734,-20.73181517610354,53.335993617817444,1802697550
iw,-38.2348289489746,-88.0937194824218,-18.7422928335209,52.536800223629236,1802714217
iw,-37.9734764099121,-87.3055038452148,-15.800674505614719,53.6285569442557,1802730884
iw,-37.6739997863769,-86.2262802124023,-12.382827349143591,55.799747283905845,1802747551
iw,-37.3793411254882,-85.0768585205078,-9.00796150629097,57.903189859588316,1802764218
iw,-37.2015151977539,-83.9366989135742,-6.0995037599303235,58.70304214602394,1802780885
iw,-37.1296463012695,-82.8956604003906,-3.8706624210605036,57.0935067166215,1802797552
iw,-37.3527221679687,-82.0799026489257,-2.2548805597454553,52.23967996452168,1802814219
iw,-37.4938163757324,-81.4780197143554,-0.9063043787486424,43.63950092502727,1802830886
iw,-37.3235626220703,-80.9656066894531,0.7150265859221686,31.14145501016641,1802847553
iw,-36.9234619140625,-80.6241378784179,3.1918805174871188,14.956965280942418,1802864220
iw,-36.6213035583496,-80.4921112060546,6.990563525592329,-4.320489353850926,1802880887
iw,-37.0196113586425,-80.6232604980468,12.362546887268849,-25.715615271008065,1802897554
iw,-37.7384567260742,-81.1645126342773,19.338107633516977,-47.938185950112626,1802914221
iw,-38.3218536376953,-82.3072891235351,27.781322809131126,-69.54913560034413,1802930888
iw,-38.7811050415039,-84.0459976196289,37.44225243508504,-89.20978079382319,1802947555
iw,-39.5836334228515,-85.7797927856445,47.96437296543087,-105.94038926084708,1802964222
iw,-40.6061782836914,-86.7214736938476,58.85703885208089,-119.28609499133958,1802980889
iw,-41.7074356079101,-86.4093704223632,69.47587141306931,-129.31742623266962,1802997556
iw,-42.900764465332,-85.2638931274414,79.04956465272195,-136.46987627859804,1803014223
iw,-44.1094932556152,-83.6385955810546,86.76700863466894,-141.3041956225731,1803030890
iw,-45.4772033691406,-81.5325546264648,91.91487622178711,-144.29641253086083,1803047557
iw,-46.8728332519531,-79.3110961914062,94.0373042178463,-145.732884428009,1803064224
iw,-48.2324905395507,-77.222412109375,93.07433947790702,-145.724292914229,1803080891
iw,-49.5736656188964,-75.0509414672851,89.43026670413842,-144.30613113512035,1803097558
iw,-50.8735580444335,-72.6510848999023,83.93542166271219,-141.57536030915722,1803114225
iw,-52.027057647705,-70.1010437011718,77.69505314235558,-137.80773692378446,1803130892
iw,-52.9790878295898,-67.5885772705078,71.85568550310364,-133.49678067607573,1803147559
iw,-53.8750953674316,-65.4099578857421,67.35053217452057,-129.26705623429524,1803164226
iw,-54.8552551269531,-63.7297897338867,64.69958766757854,-125.6597764004594,1803180893
iw,-56.0503425598144,-62.2276344299316,63.928050543468814,-122.85912844765633,1803197560
iw,-57.3840065002441,-60.4643936157226,64.62774977409462,-120.4825995803255,1803214227
iw,-58.7493324279785,-58.4607238769531,66.13407433955736,-117.55479134341745,1803230894
iw,-60.0416183471679,-56.4393348693847,67.7499665670345,-112.71453407310665,1803247561
iw,-61.1356506347656,-54.7031593322753,68.93847566383188,-104.60766482993941,1803264228
iw,-62.0066719055175,-52.9209213256835,69.427832362021,-92.34397482857635,1803280895
iw,-62.7488784790039,-51.2807960510253,69.21256417146306,-75.8722884801307,1803297562
iw,-63.3901062011718,-50.1618881225585,68.47094968979334,-56.14860876447744,1803314229
iw,-63.913516998291,-49.6157569885253,67.4409277546656,-35.02809579402664,1803330896
iw,-64.348518371582,-49.5956840515136,66.30152811500285,-14.892980632566747,1803347563
iw,-64.800422668457,-49.9627952575683,65.0979783593233,1.885219587879638,1803364230
iw,-65.3192596435546,-50.5867881774902,63.72951541925775,13.492789701481355,1803380897
iw,-65.9107589721679,-51.0876159667968,61.9954790282395,19.070187931565066,1803397564
iw,-66.5265731811523,-51.38671875,59.67681610053524,18.850639731101953,1803414231
iw,-67.1327819824218,-51.4993553161621,56.62397117959117,14.021290693715933,1803430898
iw,-67.680191040039,-51.4899864196777,52.82716107962771,6.373628815314274,1803447565
iw,-68.1569595336914,-51.083698272705,48.453537060297684,-2.1370676298226736,1803464232
iw,-68.5598602294921,-51.0686225891113,43.84145880620302,-9.798571803315951,1803480899
iw,-68.8680648803711,-51.0573272705078,39.44533675203009,-15.427194242122034,1803497566
iw,-69.1050415039062,-50.8586616516113,35.73060005205966,-18.500331993925453,1803514233
iw,-69.3311157226562,-50.4149093627929,33.03176933297223,-19.14823464845607,1803530900
iw,-69.6296081542968,-49.8255386352539,31.40501044058787,-18.028677653760294,1803547567
iw,-70.0154647827148,-49.3875122070312,30.520771592206508,-16.099156183021236,1803564234
iw,-70.4794998168945,-49.3182373046875,29.642619294684923,-14.304974069848296,1803580901
iw,-70.935562133789,-49.5630149841308,27.72114240799208,-13.237445393358739,1803597568
iw,-71.3145751953125,-49.8994483947753,23.599817836299255,-12.86568357328469,1803614235
iw,-71.6890335083007,-50.0569686889648,16.292219819145966,-12.463854708376939,1803630902
iw,-71.9439849853515,-49.8298034667968,5.2590838847826085,-10.809135551570886,1803647569
iw,-72.0487060546875,-49.4113693237304,-9.399474481710092,-6.6194600848546115,1803664236
iw,-72.0966873168945,-48.7390670776367,-26.908159893259743,0.9184546892254937,1803680903
iw,-72.1005020141601,-48.2779159545898,-45.964597440756435,11.747750524295974,1803697570
iw,-72.069580078125,-48.9526977539062,-65.03245051688154,24.853544379704974,1803714237
iw,-72.0674438476562,-50.3840789794921,-82.68190498963516,38.54605887981454,1803730904
iw,-72.1431808471679,-51.8761901855468,-97.86544937763269,51.00108588969383,1803747571
iw,-72.2388916015625,-53.1401786804199,-110.05711634891972,60.826610108769536,1803764238
iw,-71.9046020507812,-54.1321830749511,-119.2475494181906,67.43050531762721,1803780905
iw,-71.1635665893554,-55.2166404724121,-125.83202914744959,71.0796060179505,1803797572
iw,-70.1195297241211,-56.424217224121,-130.43843367014597,72.68206732694664,1803814239
iw,-68.9355545043945,-57.5034942626953,-133.73532805309296,73.41540192069297,1803830906
iw,-67.5433731079101,-58.5585174560546,-136.25879713915666,74.34180327267715,1803847573
iw,-65.8849487304687,-59.7812919616699,-138.299022427492,76.12402289514266,1803864240
iw,-63.9537200927734,-61.1416625976562,-139.87605210266577,78.90604963099187,1803880907
iw,-61.9122085571289,-62.6008911132812,-140.8014547454508,82.36724282279955,1803897574
iw,-59.8260993957519,-64.188117980957,-140.78568166014225,85.90761206195118,1803914241
iw,-57.7403297424316,-65.8731155395507,-139.53648246985978,88.88914134304589,1803930908
iw,-55.7273521423339,-67.5069274902343,-136.81253652667812,90.85210965695639,1803947575
iw,-53.7395668029785,-69.0269546508789,-132.43471198273684,91.64527947243359,1803964242
iw,-51.6264381408691,-70.5236892700195,-126.28800809719465,91.44526561212962,1803980909
iw,-49.4442062377929,-72.0687179565429,-118.34970912642356,90.67816235065293,1803997576
iw,-47.3475608825683,-73.6462020874023,-108.75307266352205,89.88061240083073,1804014243
iw,-45.4477233886718,-75.1803131103515,-97.85973428242575,89.54277843045082,1804030910
iw,-43.7571411132812,-76.647964477539,-86.29173329907243,89.96927644929615,1804047577
iw,-42.3992195129394,-78.146240234375,-74.87931388449918,91.18595930900442,1804064244
iw,-41.4335098266601,-79.7204284667968,-64.51214217978733,92.91289485564921,1804080911
iw,-40.7170257568359,-81.283462524414,-55.92630515585013,94.61298327934858,1804097578
iw,-40.1761245727539,-82.8965759277343,-49.49742313112005,95.60953985667958,1804114245
iw,-39.6961975097656,-84.5391616821289,-45.12157107996285,95.24851477352087,1804130912
iw,-39.0551605224609,-86.1244964599609,-42.24078306760034,93.06726725302892,1804147579
iw,-38.1762466430664,-87.6793975830078,-40.01546909171771,88.92601577256947,1804164246
iw,-37.1794166564941,-88.8999710083007,-37.58400833998814,83.06327231533605,1804180913
iw,-36.3004570007324,-88.8637466430664,-34.309808168678444,76.0545156907531,1804197580
iw,-35.8325614929199,-88.0224685668945,-29.92201748831958,68.68195695735825,1804214247
iw,-35.5888595581054,-87.2059326171875,-24.50865030920761,61.75358485139311,1804230914
iw,-35.4214324951171,-86.3722610473632,-18.39158139570956,55.92728370290537,1804247581
iw,-35.2378883361816,-85.3989562988281,-11.960355527645106,51.58900309234626,1804264248
iw,-34.9997749328613,-84.3720016479492,-5.541703004982401,48.804393189728884,1804280915
iw,-34.8167724609375,-83.4696426391601,0.6567059934258777,47.32869207041984,1804297582
iw,-34.7332382202148,-82.7265396118164,6.535503567256939,46.64289759015189,1804314249
iw,-34.7580375671386,-82.0691528320312,12.059244171804076,45.99540470668182,1804330916
iw,-35.0397224426269,-81.4552612304687,17.21081643871887,44.45518624785321,1804347583
iw,-35.3297576904296,-80.8114547729492,21.96015240236407,41.00112591359733,1804364250
iw,-35.3743553161621,-80.1351242065429,26.249191689751616,34.66609854534012,1804380917
iw,-35.3325080871582,-79.5954437255859,29.997055370736845,24.7264532750364,1804397584
iw,-35.4861030578613,-79.2617950439453,33.138643737822065,10.894653680153349,1804414251
iw,-36.3070068359375,-79.1793441772461,35.702703824646065,-6.5462721761120175,1804430918
iw,-37.38521194458,-79.3869094848632,37.90139461709986,-26.72300449171016,1804447585
iw,-38.1507987976074,-80.1283340454101,40.16789961624577,-48.29503531638485,1804464252
iw,-38.6096992492675,-81.5609893798828,43.0840435199018,-69.70341990951862,1804480919
iw,-39.1332702636718,-83.3519134521484,47.19777296606558,-89.47896212743774,1804497586
iw,-40.0237236022949,-85.1114807128906,52.80111448217352,-106.51330432516525,1804514253
iw,-40.9816055297851,-86.6050033569336,59.76849644751091,-120.20753724794504,1804530920
iw,-42.0761795043945,-87.2809219360351,67.52657212662031,-130.46642484545183,1804547587
iw,-43.2828559875488,-86.6341323852539,75.1684041119102,-137.57222461497912,1804564254
iw,-44.5862197875976,-85.05078125,81.67334413767922,-142.0115755409011,1804580921
iw,-45.8401336669921,-83.043228149414,86.16468356389778,-144.32565147688737,1804597588
iw,-47.0579948425293,-81.0195083618164,88.1302684510159,-145.02206867047576,1804614255
iw,-48.31343460083,-78.8701705932617,87.54512340630228,-144.55271225801906,1804630922
iw,-49.5678253173828,-76.3926086425781,84.86610363820728,-143.33784808653343,1804647589
iw,-50.7700042724609,-73.8064346313476,80.90677353880228,-141.80058251833267,1804664256
iw,-51.8660469055175,-71.3522491455078,76.6336721655653,-140.3662424504012,1804680923
iw,-52.8949279785156,-69.1219940185546,72.94432606960933,-139.39111355319747,1804697590
iw,-54.006591796875,-67.1325454711914,70.48885852385239,-139.02322626228562,1804714257
iw,-55.3371772766113,-65.1380004882812,69.57965359118728,-139.0490621105672,1804730924
iw,-56.7383689880371,-62.9397621154785,70.20092022505276,-138.81062769962836,1804747591
iw,-58.2030601501464,-60.6537590026855,72.09397838839392,-137.2637452532324,1804764258
iw,-59.568920135498,-58.531982421875,74.87091131441987,-133.19642001251492,1804780925
iw,-60.7131614685058,-56.4625244140625,78.10908507260574,-125.56342287843108,1804797592
iw,-61.7631072998046,-54.2108192443847,81.39942122396376,-113.84515122967666,1804814259
iw,-62.7689895629882,-52.1719741821289,84.35008664377642,-98.3159606692976,1804830926
iw,-63.6743850708007,-50.6807174682617,86.57048458815713,-80.11548898259501,1804847593
iw,-64.4870986938476,-49.7723045349121,87.66858398557893,-61.06517676379257,1804864260
iw,-65.2489929199218,-49.3920669555664,87.28498558824191,-43.25783599352659,1804880927
iw,-65.9672088623046,-49.3496284484863,85.16358802037797,-28.53910281904533,1804897594
iw,-66.5784072875976,-49.4499359130859,81.23213794967282,-18.05037512830311,1804914261
iw,-67.0329055786132,-49.2991333007812,75.65233001375442,-11.98525068221399,1804930928
iw,-67.3669281005859,-49.046646118164,68.80973164567826,-9.631909944047635,1804947595
iw,-67.6776504516601,-48.6189308166503,61.24316902623802,-9.668075506265916,1804964262
iw,-67.9539566040039,-48.1297416687011,53.54094223820231,-10.589849965784765,1804980929
iw,-68.2826156616211,-48.0100479125976,46.23939175382252,-11.12563185017051,1804997596
iw,-68.6692123413086,-48.0036849975585,39.74621273239148,-10.517085750027976,1805014263
iw,-69.0881652832031,-47.9060974121093,34.288813781523906,-8.615496170054858,1805030930
iw,-69.4453506469726,-47.7680587768554,29.87344606124204,-5.80417880393119,1805047597
iw,-69.7514953613281,-47.6303215026855,26.245487319638833,-2.7904262948638388,1805064264
iw,-70.062759399414,-47.6241455078125,22.863064957872584,-0.3191627010577356,1805080931
iw,-70.3888168334961,-47.9044189453125,18.917247283608972,1.132120956529338,1805097598
iw,-70.7144393920898,-48.3943710327148,13.431930396069681,1.6003352937311457,1805114265
iw,-70.9638977050781,-48.9220085144043,5.4496279653043755,1.7357796850928613,1805130932
iw,-71.191291809082,-49.2128982543945,-5.731690861168197,2.682061734119371,1805147599
iw,-71.3924331665039,-49.076732635498,-20.339282517414834,5.73318196693546,1805164266
iw,-71.498794555664,-48.6919822692871,-38.00003911486306,11.863981042481909,1805180933
iw,-71.5558090209961,-48.6470794677734,-57.75866306203578,21.312497833594925,1805197600
iw,-71.5672378540039,-49.1715354919433,-78.2383168956011,33.399719013143105,1805214267
iw,-71.6458129882812,-50.4094200134277,-97.89143868970501,46.681749078455105,1805230934
iw,-71.8234176635742,-52.0774459838867,-115.26684077458553,59.38117164610432,1805247601
iw,-71.9238357543945,-53.6482200622558,-129.2357001831753,69.91974581883701,1805264268
iw,-71.3607940673828,-54.947525024414,-139.15144811615613,77.34265393759486,1805280935
iw,-69.9789810180664,-56.1799201965332,-144.93545806475822,81.49513606945578,1805297602
iw,-68.2172012329101,-57.5204925537109,-147.07387065597197,82.93315971286327,1805314269
iw,-66.533203125,-58.834732055664,-146.50426527769355,82.64940181859663,1805330936
iw,-64.8876647949218,-60.1044845581054,-144.39202031619368,81.73526955458706,1805347603
iw,-63.1111335754394,-61.4126091003418,-141.8429534957326,81.08618812509536,1805364270
iw,-61.2184143066406,-62.8056678771972,-139.6366265829851,81.21825321613942,1805380937
iw,-59.2104339599609,-64.2471084594726,-138.06153564702802,82.22016890257765,1805397604
iw,-57.1055068969726,-65.6972579956054,-136.89120195155786,83.82569067968275,1805414271
iw,-54.985538482666,-67.1949462890625,-135.4881702949333,85.56544678360679,1805430938
iw,-52.881004333496,-68.7389907836914,-132.98897918421844,86.9463536146442,1805447605
iw,-50.7720375061035,-70.3017425537109,-128.51652132118429,87.60973998569496,1805464272
iw,-48.5293006896972,-71.8295516967773,-121.3787622381496,87.43115567084615,1805480939
iw,-46.3031616210937,-73.3197021484375,-111.22858714323463,86.5422665621461,1805497606
iw,-44.2838134765625,-74.7924346923828,-98.16690789498412,85.2754412117193,1805514273
iw,-42.6401138305664,-76.1922760009765,-82.77134062716915,84.05072688277107,1805530940
iw,-41.3532409667968,-77.5204238891601,-66.03638149065654,83.23887231978784,1805547607
iw,-40.4196891784668,-78.8583831787109,-49.22567625901566,83.04012548346785,1805564274
iw,-39.9611434936523,-80.2394409179687,-33.66046568945464,83.4148271546005,1805580941
iw,-39.8392906188964,-81.6248550415039,-20.491491440762957,84.08765122394313,1805597608
iw,-39.7945938110351,-83.0869827270507,-10.513193830906438,84.62541259628256,1805614275
iw,-39.6856346130371,-84.6187210083007,-4.068667903619502,84.56503759159597,1805630942
iw,-39.3155250549316,-86.1538696289062,-1.060081726549223,83.55104532186628,1805647609
iw,-39.212890625,-87.5591278076171,-1.0376718798360522,81.43725681703496,1805664276
iw,-39.2269020080566,-88.7999267578125,-3.3174238009421964,78.31914699767981,1805680943
iw,-39.1737670898437,-89.3706817626953,-7.087276437446813,74.48864091389264,1805697610
iw,-38.9718437194824,-88.671760559082,-11.490336530502649,70.33197660477823,1805714277
iw,-38.694034576416,-87.6890335083007,-15.69384300154977,66.21020490416747,1805730944
iw,-38.3777503967285,-86.5469665527343,-18.952654174217297,62.36147148630122,1805747611
iw,-38.0779838562011,-85.3861618041992,-20.666240127249818,58.844536139004525,1805764278
iw,-37.7149658203125,-84.331298828125,-20.422247711791208,55.51685899846363,1805780945
iw,-37.3321838378906,-83.4389724731445,-18.020208677484614,52.02769505737108,1805797612
iw,-37.1010246276855,-82.7523727416992,-13.472210060570061,47.817683236476675,1805814279
iw,-37.242202758789,-82.2644729614257,-6.982570270767345,42.14217819456854,1805830946
iw,-37.4065361022949,-81.8202438354492,1.0847620656946246,34.15318404875443,1805847613
iw,-37.1914596557617,-81.3180923461914,10.241909010515595,23.064435235155457,1805864280
iw,-37.1396522521972,-80.8825988769531,19.919560531382086,8.383518412988849,1805880947
iw,-37.4657173156738,-80.7017669677734,29.53400409152086,-9.856473325292658,1805897614
iw,-38.5081443786621,-80.9020843505859,38.58533190738704,-30.96315046082767,1805914281
iw,-39.7105751037597,-81.6122894287109,46.75435135937273,-53.630146123583266,1805930948
iw,-40.475975036621,-82.9866714477539,53.93781737497044,-76.180440826345,1805947615
iw,-40.9461021423339,-84.925537109375,60.18695195748327,-96.94309892741168,1805964282
iw,-41.7185974121093,-86.8172149658203,65.58227671669133,-114.63319437946525,1805980949
iw,-43.1184730529785,-87.6275177001953,70.1270049696099,-128.59367835594318,1805997616
iw,-44.4911270141601,-86.7546081542968,73.7235830196523,-138.81572827143253,1806014283
iw,-45.6444854736328,-85.2245559692382,76.23236343598745,-145.75604226675338,1806030950
iw,-46.6367835998535,-83.1877288818359,77.56064473492265,-150.05902186151823,1806047617
iw,-47.6465682983398,-80.7942962646484,77.73065567111834,-152.31702257955857,1806064284
iw,-48.6706161499023,-78.4293060302734,76.90639556689682,-152.95574785504138,1806080951
iw,-49.6634178161621,-76.0306930541992,75.38328607070717,-152.2545430501724,1806097618
iw,-50.6448631286621,-73.2656097412109,73.54933590177184,-150.44974922766625,1806114285
iw,-51.6527481079101,-70.4565277099609,71.82505467224463,-147.84131939181862,1806130952
iw,-52.69921875,-67.9236450195312,70.5928393184308,-144.8256953073316,1806147619
iw,-53.8039779663085,-65.761962890625,70.132484254732,-141.81176272694626,1806164286
iw,-55.0352973937988,-63.8638000488281,70.58013053524665,-139.03898497694414,1806180953
iw,-56.3601264953613,-61.8895111083984,71.92006859412426,-136.38139200700112,1806197620
iw,-57.645164489746,-59.7215843200683,74.0055670340597,-133.24705504486144,1806214287
iw,-58.8814964294433,-57.4981040954589,76.5940574385246,-128.6496406037244,1806230954
iw,-60.081241607666,-55.4784431457519,79.38060370359737,-121.45589304201273,1806247621
iw,-61.1854705810546,-53.6014518737793,82.02162550380436,-110.74121901127766,1806264288
iw,-62.1126327514648,-51.6680793762207,84.15144896365594,-96.14401756569234,1806280955
iw,-62.9640388488769,-50.012107849121,85.40064067395967,-78.10304893024465,1806297622
iw,-63.8155708312988,-48.9672737121582,85.42489564676411,-57.88724943816133,1806314289
iw,-64.5569534301757,-48.5168342590332,83.9474000781245,-37.38411119724416,1806330956
iw,-65.1326065063476,-48.591625213623,80.8090325310061,-18.693125946353735,1806347623
iw,-65.6124877929687,-48.8493614196777,76.01383224877492,-3.6447928745311677,1806364290
iw,-65.9901504516601,-49.08736038208,69.75502378427073,6.605186194219465,1806380957
iw,-66.2640304565429,-49.3386802673339,62.41025016134715,11.789218756368546,1806397624
iw,-66.5506820678711,-49.3520164489746,54.502619789393556,12.506403418604979,1806414291
iw,-66.9251708984375,-49.46040725708,46.63306918705803,10.0027161953753,1806430958
iw,-67.3077316284179,-49.7566757202148,39.393421291450615,5.837481009479877,1806447625
iw,-67.6416473388671,-49.7795448303222,33.267503751896875,1.5290949646274414,1806464292
iw,-67.9053192138671,-49.6005325317382,28.52769443502965,-1.743508448001113,1806480959
iw,-68.1350784301757,-49.362678527832,25.142612122609705,-3.326518988081337,1806497626
iw,-68.3928070068359,-49.2154464721679,22.722770177607202,-3.124365511900328,1806514293
iw,-68.7080383300781,-49.2449073791503,20.532879056365598,-1.4697444432810456,1806530960
iw,-69.0437774658203,-49.5722694396972,17.58643460876577,1.1314404281331587,1806547627
iw,-69.3463363647461,-50.0798683166503,12.815300446147543,4.289365476962696,1806564294
iw,-69.6634216308593,-50.652114868164,5.284480212737628,7.935673611311267,1806580961
iw,-69.9653625488281,-50.961986541748,-5.592719750312419,12.349752119579552,1806597628
iw,-70.1991119384765,-50.9491119384765,-19.890214022886013,17.985658463899437,1806614295
iw,-70.3683395385742,-50.9416961669921,-37.102502545901096,25.176932772933068,1806630962
iw,-70.4511413574218,-51.3204154968261,-56.2030650377832,33.8644316841155,1806647629
iw,-70.4734268188476,-52.1427764892578,-75.81792179268095,43.4865613328172,1806664296
iw,-70.6119537353515,-53.3965263366699,-94.4658240788519,53.090122174664586,1806680963
iw,-70.8956832885742,-54.8879661560058,-110.8009166708283,61.609955847222096,1806697630
iw,-70.9432601928711,-56.2411193847656,-123.81029165758049,68.19006660251127,1806714297
iw,-70.2955093383789,-57.3831672668457,-132.94863859207362,72.41561440957265,1806730964
iw,-68.8786163330078,-58.524543762207,-138.20695644574272,74.38500980993976,1806747631
iw,-67.289436340332,-59.7833709716796,-140.10529276176825,74.62963343727593,1806764298
iw,-65.784927368164,-61.0375137329101,-139.59206749784994,73.93976963094538,1806780965
iw,-64.1812744140625,-62.2936401367187,-137.84792469587373,73.1636904060654,1806797632
iw,-62.3688278198242,-63.5508956909179,-136.02681517018752,73.02860593690045,1806814299
iw,-60.4988861083984,-64.7731475830078,-134.99503214530975,74.01091938230411,1806830966
iw,-58.4788970947265,-65.9886474609375,-135.13120712081414,76.26965019692135,1806847633
iw,-56.4271507263183,-67.3079757690429,-136.2316172776752,79.64854034736665,1806864300
iw,-54.3867416381835,-68.8003463745117,-137.54153257898315,83.74267023987865,1806880967
iw,-52.33544921875,-70.3711166381836,-137.9128232940346,88.01163763536279,1806897634
iw,-50.0326385498046,-71.9827499389648,-136.06713064023774,91.90806491316002,1806914301
iw,-47.5839958190918,-73.6665420532226,-130.9175129107022,94.98583247468346,1806930968
iw,-45.1368293762207,-75.3728561401367,-121.87452277291538,96.96115474677411,1806947635
iw,-42.9686317443847,-77.0108871459961,-109.0508996398311,97.71786043947246,1806964302
iw,-41.2133636474609,-78.5686950683593,-93.29652538326778,97.26876035843205,1806980969
iw,-39.8467903137207,-80.0758590698242,-76.04128398485975,95.70069701486504,1806997636
iw,-39.0334243774414,-81.6161117553711,-58.98262618350036,93.13514448915771,1807014303
iw,-38.7522659301757,-83.1874694824218,-43.70683287799822,89.7249728636048,1807030970
iw,-38.6873435974121,-84.7534255981445,-31.36008052679727,85.68463063588648,1807047637
iw,-38.3970336914062,-86.2292404174804,-22.472586549700345,81.32744999249833,1807064304
iw,-37.8384742736816,-87.5981674194336,-16.980963066307936,77.07363343513687,1807080971
iw,-37.0217933654785,-88.8461456298828,-14.408224793751119,73.40192712785877,1807097638
iw,-36.317584991455,-89.5364837646484,-14.091581252476185,70.74271052718476,1807114305
iw,-36.3738174438476,-88.8628845214843,-15.341077671499406,69.33931793167318,1807130972
iw,-36.4862785339355,-87.8859481811523,-17.476808787588205,69.12512031895614,1807147639
iw,-36.3554916381835,-86.6846542358398,-19.784449620815558,69.664713815055,1807164306
iw,-35.9752807617187,-85.3243789672851,-21.480254203391663,70.1842275612528,1807180973
iw,-35.5422439575195,-83.9999160766601,-21.7547924022031,69.67920177513317,1807197640
iw,-35.0396080017089,-82.8256378173828,-19.89809842313006,67.0618682126046,1807214307
iw,-34.6161384582519,-81.9174575805664,-15.452201142305821,61.31034794070548,1807230974
iw,-34.5090255737304,-81.263427734375,-8.322030379465318,51.60554080237808,1807247641
iw,-34.6273040771484,-80.6810607910156,1.2008610900364662,37.46362123422176,1807264308
iw,-34.6903686523437,-80.1675720214843,12.507957182111094,18.869979844940957,1807280975
iw,-34.9370384216308,-79.9015350341796,24.810603623036524,-3.6086439280009808,1807297642
iw,-35.8252334594726,-80.0486526489257,37.30126763789925,-28.790627231458185,1807314309
iw,-36.9094505310058,-80.8034362792968,49.2910014056424,-54.98640908460745,1807330976
iw,-37.7835311889648,-82.3126525878906,60.27988440982926,-80.26670146118491,1807347643
iw,-38.6977386474609,-84.4756851196289,69.94322093653965,-102.83888344247313,1807364310
iw,-39.8413200378418,-86.7397994995117,78.06056132637242,-121.41185543039583,1807380977
iw,-41.3282051086425,-88.1975631713867,84.44639483379711,-135.4146390387638,1807397644
iw,-42.8608932495117,-87.4431991577148,88.93176293876468,-144.98981607452328,1807414311
iw,-44.293285369873,-85.7494125366211,91.4040778162486,-150.78401471485685,1807430978
iw,-45.5955238342285,-83.5812530517578,91.87465575254171,-153.64531924157785,1807447645
iw,-46.8075141906738,-81.1244506835937,90.53411801777085,-154.3609714928326,1807464312
iw,-48.1347770690918,-78.7321395874023,87.76908265035894,-153.52348781517713,1807480979
iw,-49.4793548583984,-76.3424377441406,84.13078806247624,-151.53873605846908,1807497646
iw,-50.6861991882324,-73.6837844848632,80.25846364586421,-148.72877194321012,1807514313
iw,-51.8016510009765,-70.8569793701171,76.77085729437766,-145.45079159215297,1807530980
iw,-52.9033851623535,-68.2510681152343,74.15142412387388,-142.1493831916359,1807547647
iw,-53.9922714233398,-66.0780334472656,72.66099870999142,-139.2864966905979,1807564314
iw,-55.1350021362304,-64.2521667480468,72.3084723550159,-137.15583039102307,1807580981
iw,-56.4485359191894,-62.4054718017578,72.89308486119968,-135.6632399706348,1807597648
iw,-57.9571876525878,-60.2782516479492,74.10597905716642,-134.19584643659178,1807614315
iw,-59.446174621582,-57.9383430480957,75.65258297806889,-131.6766954645327,1807630982
iw,-60.7835006713867,-55.7299499511718,77.34393246937854,-126.82100697240132,1807647649
iw,-61.8913993835449,-53.7189788818359,79.11560198843019,-118.52152068521696,1807664316
iw,-62.7404861450195,-51.6379432678222,80.96680313453118,-106.23740455270985,1807680983
iw,-63.4435577392578,-49.7984199523925,82.85302030993395,-90.25618248399293,1807697650
iw,-64.17138671875,-48.4605636596679,84.59092194286131,-71.73239428453154,1807714317
iw,-64.9527435302734,-47.7659187316894,85.83006929088127,-52.47116226032497,1807730984
iw,-65.7652053833007,-47.5367889404296,86.11412292283428,-34.50885986057803,1807747651
iw,-66.4730072021484,-47.6885986328125,85.01150708973579,-19.620113735027342,1807764318
iw,-67.0497894287109,-47.8216323852539,82.26345755452729,-8.913281744908769,1807780985
iw,-67.5871124267578,-47.8239135742187,77.8899676521197,-2.643136502181471,1807797652
iw,-68.0301284790039,-47.4132804870605,72.21134594916776,-0.2809458504554847,1807814319
iw,-68.4319152832031,-47.0973167419433,65.77448354299251,-0.7800551611517301,1807830986
iw,-68.9262619018554,-47.0824279785156,59.204597354203294,-2.9106186959530223,1807847653
iw,-69.502212524414,-47.2409133911132,53.023313978765444,-5.5403211786776785,1807864320
iw,-70.0445098876953,-47.170425415039,47.478404797727045,-7.794809194484159,1807880987
iw,-70.4775390625,-46.9244842529296,42.425206474307146,-9.095307089005141,1807897654
iw,-70.8443450927734,-46.7145957946777,37.292627120226115,-9.104773076419624,1807914321
iw,-71.1846466064453,-46.7269630432128,31.15704580391982,-7.620804048289475,1807930988
iw,-71.4687576293945,-46.9449005126953,22.928073720764747,-4.45834771755666,1807947655
iw,-71.6318588256836,-47.3855438232421,11.618320879061345,0.6229379543680559,1807964322
iw,-71.707893371582,-47.8025283813476,-3.366287450286879,7.891776749034246,1807980989
iw,-71.7026672363281,-47.9118461608886,-22.001204435213065,17.499024716301506,1807997656
iw,-71.6470718383789,-47.89306640625,-43.56072223137306,29.26145684791594,1808014323
iw,-71.5895233154296,-48.2750930786132,-66.71355903269077,42.49146912580602,1808030990
iw,-71.5506362915039,-49.2299766540527,-89.76931356575334,55.99930733596298,1808047657
iw,-71.5686798095703,-50.759292602539,-110.99674139571329,68.32342610082362,1808064324
iw,-71.6488494873046,-52.6597328186035,-128.92333026521592,78.12450184694883,1808080991
iw,-71.5089416503906,-54.4457092285156,-142.5564118985024,84.58336569847573,1808097658
iw,-70.6161727905273,-55.9354171752929,-151.50776781176953,87.63306515345371,1808114325
iw,-68.9192581176757,-57.2444152832031,-156.0214316822239,87.93436777064879,1808130992
iw,-67.0588989257812,-58.4620132446289,-156.89639578645622,86.62157285770779,1808147659
iw,-65.3665237426757,-59.7383804321289,-155.29463744162024,84.9353271069091,1808164326
iw,-63.6926612854003,-61.11958694458,-152.4569758119606,83.88281562530882,1808180993
iw,-61.8539009094238,-62.5611267089843,-149.39933728454372,84.02814540876481,1808197660
iw,-59.7864341735839,-64.05615234375,-146.68548091767454,85.4494938202366,1808214327
iw,-57.6074981689453,-65.6210327148437,-144.34414727799847,87.83873239827336,1808230994
iw,-55.4410934448242,-67.2250823974609,-141.93890148549463,90.68296580701856,1808247661
iw,-53.3035507202148,-68.8565597534179,-138.74796023332382,93.45850181318433,1808264328
iw,-50.9936141967773,-70.5219802856445,-133.99100315219104,95.77955275317643,1808280995
iw,-48.5907936096191,-72.1926879882812,-127.04439261199678,97.46756703190222,1808297662
iw,-46.306297302246,-73.7986755371093,-117.60082275243532,98.53488030473994,1808314329
iw,-44.2653999328613,-75.2979049682617,-105.74803806823707,99.10254933560162,1808330996
iw,-42.5010528564453,-76.8508682250976,-91.96260183838221,99.29119007201172,1808347663
iw,-40.996482849121,-78.5141296386718,-77.03292030247842,99.12912224513605,1808364330
iw,-39.82861328125,-80.1567764282226,-61.93422578981582,98.51117106120579,1808380997
iw,-39.0249938964843,-81.7178878784179,-47.67933042895604,97.21985521155558,1808397664
iw,-38.6553840637207,-83.2417602539062,-35.17122087165722,94.99984316082138,1808414331
iw,-38.3924331665039,-84.7919235229492,-25.08801717322571,91.66293426949746,1808430998
iw,-37.8266448974609,-86.3062591552734,-17.825919366207557,87.19205478407656,1808447665
iw,-37.2163543701171,-87.6984558105468,-13.501616342572714,81.8064034493614,1808464332
iw,-36.8344497680664,-88.4692840576171,-11.98333383156348,75.95166103163146,1808480999
iw,-36.689655303955,-88.3119430541992,-12.908264859658637,70.19887808133109,1808497666
iw,-36.6072273254394,-87.8469619750976,-15.67012292684553,65.07425588109228,1808514333
iw,-36.5379409790039,-87.2175827026367,-19.405121279907796,60.882436080792274,1808531000
iw,-36.1834869384765,-86.3461837768554,-23.02915810325813,57.599292838350785,1808547667
iw,-35.6547546386718,-85.2318649291992,-25.361607223324796,54.87909172352565,1808564334
iw,-35.1638221740722,-84.0341873168945,-25.324259735325427,52.15948439737142,1808581001
iw,-34.6730155944824,-83.0422134399414,-22.159804641243113,48.796590404261664,1808597668
iw,-34.2732391357421,-82.4224395751953,-15.598262531385132,44.15800529799919,1808614335
iw,-34.1483039855957,-82.0460433959961,-5.916459634035616,37.64750741123688,1808631002
iw,-34.4446029663085,-81.7905120849609,6.126781512498302,28.69769845359754,1808647669
iw,-34.826732635498,-81.5846405029296,19.45608208150729,16.79949673547448,1808664336
iw,-35.1703987121582,-81.3486022949218,32.89541754396305,1.6155879173700554,1808681003
iw,-35.607135772705,-81.2078628540039,45.382138468522356,-16.83836362247159,1808697670
iw,-36.5506324768066,-81.4213562011718,56.13983978326245,-38.025438361562664,1808714337
iw,-38.0598640441894,-82.2042694091796,64.77960884254428,-60.835932822590394,1808731004
iw,-39.2090759277343,-83.5929565429687,71.30153128660518,-83.71829862320509,1808747671
iw,-40.0223960876464,-85.268569946289,75.98683806032784,-104.97559421246432,1808764338
iw,-41.0723266601562,-86.5419845581054,79.21745878289053,-123.12850883675334,1808781005
iw,-42.4604988098144,-86.2675476074218,81.30364309639182,-137.21109435291456,1808797672
iw,-44.013801574707,-84.8441009521484,82.39720035019027,-146.89655801713585,1808814339
iw,-45.3162231445312,-83.0425033569336,82.5151370242968,-152.42941082026636,1808831006
iw,-46.3359069824218,-80.9735488891601,81.64054799124041,-154.4230473400559,1808847673
iw,-47.4054565429687,-78.7582778930664,79.8439657196763,-153.62607124806746,1808864340
iw,-48.6546020507812,-76.6279373168945,77.37589139860518,-150.75152180683688,1808881007
iw,-49.9231910705566,-74.3135757446289,74.69487506391194,-146.416604248434,1808897674
iw,-51.0506629943847,-71.6967010498046,72.40807091548905,-141.18215089117348,1808914341
iw,-52.0314178466796,-69.0399093627929,71.1259210393207,-135.62987889132071,1808931008
iw,-53.0443534851074,-66.646858215332,71.27262249918506,-130.3901968522695,1808947675
iw,-54.2584495544433,-64.7648162841796,72.92722622197837,-126.05462135774168,1808964342
iw,-55.75630569458,-63.2430038452148,75.76914222673228,-122.97645879290523,1808981009
iw,-57.5746040344238,-61.6612396240234,79.16015928799163,-121.04566853679182,1808997676
iw,-59.4545516967773,-59.7661705017089,82.33333155498423,-119.56411189379251,1809014343
iw,-61.0482177734375,-57.6861190795898,84.6108031955994,-117.31550610630617,1809031010
iw,-62.3955535888671,-55.804084777832,85.56438642635287,-112.84029293971601,1809047677
iw,-63.4715843200683,-54.2070617675781,85.06745354544147,-104.84082333608221,1809064344
iw,-64.2980422973632,-52.3456535339355,83.24146534744442,-92.59565831287874,1809081011
iw,-64.9626083374023,-50.6297378540039,80.34348183482808,-76.25705911625373,1809097678
iw,-65.4837188720703,-49.5812606811523,76.65399286033693,-56.93135204807241,1809114345
iw,-65.9262466430664,-49.1937294006347,72.4091997669526,-36.4968460465192,1809131012
iw,-66.4494171142578,-49.3041458129882,67.79155065524554,-17.196770852487965,1809147679
iw,-67.0429306030273,-49.516918182373,62.961826765707954,-1.1271555016201298,1809164346
iw,-67.6136932373046,-49.9369163513183,58.098610251846544,10.222255744968768,1809181013
iw,-68.1726837158203,-50.3086738586425,53.414113666459315,16.242467941833045,1809197680
iw,-68.7889175415039,-50.5016632080078,49.134744149456154,17.236035557697193,1809214347
iw,-69.4230422973632,-50.6858177185058,45.45529522843447,14.22697275481016,1809231014
iw,-69.9698181152343,-50.6015853881835,42.48468586212445,8.633744712290161,1809247681
iw,-70.4643173217773,-50.5867385864257,40.19873480137291,1.9150590856875416,1809264348
iw,-70.8814544677734,-50.5231323242187,38.40894957961542,-4.712520162256537,1809281015
iw,-71.2155609130859,-50.2660522460937,36.75072143289566,-10.422996535272528,1809297682
iw,-71.4761581420898,-49.9780006408691,34.6914854283848,-14.779928311806263,1809314349
iw,-71.6936111450195,-49.8202934265136,31.560945773688193,-17.61318414145366,1809331016
iw,-71.9184646606445,-49.7650032043457,26.61073058342509,-18.833601609326713,1809347683
iw,-72.1266479492187,-49.7206954956054,19.113482250084086,-18.26547259879811,1809364350
iw,-72.2440185546875,-49.602367401123,8.502479098332252,-15.574833746505508,1809381017
iw,-72.3213119506836,-49.6416702270507,-5.46960349030758,-10.339731317189589,1809397684
iw,-72.3664016723632,-49.4859161376953,-22.599251195657033,-2.2514346796549973,1809414351
iw,-72.4064865112304,-49.1791648864746,-42.1837029301482,8.628431984114545,1809431018
iw,-72.5237274169921,-49.0859489440918,-63.091951400204316,21.674687139807904,1809447685
iw,-72.7359390258789,-49.6090354919433,-83.9468603490835,35.6871504590694,1809464352
iw,-72.9515609741211,-50.825870513916,-103.36261170841358,49.11391341142035,1809481019
iw,-73.0271682739257,-52.4378967285156,-120.16248386258673,60.45306399079071,1809497686
iw,-72.9190902709961,-54.0035972595214,-133.52443845876013,68.68067593519127,1809514353
iw,-72.057373046875,-55.2029228210449,-143.04479289457598,73.53146639744672,1809531020
iw,-70.35498046875,-56.2555274963378,-148.73682187579595,75.52740465144998,1809547687
iw,-68.3572387695312,-57.3746337890625,-150.97751793027825,75.76454559597927,1809564354
iw,-66.4652938842773,-58.4976196289062,-150.40231226672879,75.56102850920486,1809581021
iw,-64.5721893310546,-59.6832199096679,-147.75252435969787,76.09821798292701,1809597688
iw,-62.633129119873,-60.9889335632324,-143.7060559058455,78.15793661383196,1809614355
iw,-60.5706367492675,-62.4474983215332,-138.7421134764339,82.00318832258382,1809631022
iw,-58.4008636474609,-64.0556030273437,-133.08117350938426,87.39650918710232,1809647689
iw,-56.218147277832,-65.72412109375,-126.70642896301224,93.71518718546005,1809664356
iw,-54.2588119506835,-67.4255218505859,-119.44009592671598,100.11200085852605,1809681023
iw,-52.5064430236816,-69.1512603759765,-111.04035927908568,105.68083666770414,1809697690
iw,-50.7599601745605,-70.9771347045898,-101.30073848887548,109.60684831879004,1809714357
iw,-48.9152450561523,-72.8982849121093,-90.15048190748463,111.29576104902854,1809731024
iw,-47.0421638488769,-74.8824005126953,-77.75185501731332,110.47761748407008,1809747691
iw,-45.3473052978515,-76.9265899658203,-64.57039538579897,107.26953280714307,1809764358
iw,-44.1866645812988,-78.9027709960937,-51.37989157458339,102.1719653545794,1809781025
iw,-43.3971252441406,-80.5531311035156,-39.175249530764695,95.97720068344118,1809797692
iw,-42.8497161865234,-81.9341888427734,-29.002141890590142,89.59337543585717,1809814359
iw,-42.4600563049316,-83.1570587158203,-21.750115012034495,83.82426823685344,1809831026
iw,-42.1400070190429,-84.2367324829101,-17.971603441059194,79.1733210659321,1809847693
iw,-41.8200416564941,-85.3479385375976,-17.77589888673119,75.74000165941281,1809864360
iw,-41.4034957885742,-86.5470199584961,-20.815715207822883,73.2439888937156,1809881027
iw,-40.7032279968261,-87.6083755493164,-26.352189090303575,71.16308348250946,1809897694
iw,-40.1417617797851,-88.1436462402343,-33.36569415196532,68.92907539450724,1809914361
iw,-39.4577522277832,-87.9250030517578,-40.680636773164125,66.11203043976467,1809931028
iw,-38.7404479980468,-87.3069534301757,-47.08796271119636,62.54006508202732,1809947695
iw,-37.8469886779785,-86.5279693603515,-51.465167862772084,58.33276403746155,1809964362
iw,-37.0845756530761,-85.6296005249023,-52.89650237720142,53.852201386586565,1809981029
iw,-36.134952545166,-84.8014526367187,-50.78521938045669,49.58849137801624,1809997696
iw,-35.2837409973144,-84.1495132446289,-44.936914772589695,46.003326909446535,1810014363
iw,-34.7112579345703,-83.5509262084961,-35.59052605685634,43.36335371857976,1810031030
iw,-34.3181457519531,-82.8787765502929,-23.385201617128363,41.603842079212995,1810047697
iw,-34.0708694458007,-82.2257232666015,-9.270219582070185,40.26232772747406,1810064364
iw,-33.9487037658691,-81.6204452514648,5.621320552635376,38.507083254718836,1810081031
iw,-34.0229568481445,-81.0537643432617,20.113545455243738,35.262901667203714,1810097698
iw,-34.3934364318847,-80.5352935791015,33.12878647140467,29.4155337573563,1810114365
iw,-35.0364913940429,-80.0841293334961,43.8173400731009,20.05844321280587,1810131032
iw,-35.5319480895996,-79.7425155639648,51.663226950574156,6.730197347252932,1810147699
iw,-35.991283416748,-79.6710128784179,56.55298776361921,-10.418845369169599,1810164366
iw,-36.6191673278808,-79.9739379882812,58.79838423050866,-30.58730676865925,1810181033
iw,-37.9067916870117,-80.7332077026367,59.10319145760691,-52.44183464611145,1810197700
iw,-39.3500862121582,-82.0335388183593,58.455106891500115,-74.37945680045597,1810214367
iw,-39.9129638671875,-83.9278182983398,57.925633013719384,-94.86548632538978,1810231034
iw,-40.3363876342773,-85.9536819458007,58.400163467427234,-112.74110288895649,1810247701
iw,-41.1256141662597,-87.3427352905273,60.32524651449057,-127.39492819656557,1810264368
iw,-42.329475402832,-87.3302459716796,63.59008233870521,-138.74355295551385,1810281035
iw,-43.8702201843261,-86.2094039916992,67.60834070802827,-147.05103789386786,1810297702
iw,-45.1726112365722,-84.2981414794921,71.56250640855548,-152.69120461162666,1810314369
iw,-46.1689720153808,-81.8348083496093,74.69531475932673,-155.97208208042363,1810331036
iw,-47.0204010009765,-79.3254699707031,76.53210306426047,-157.09075935957716,1810347703
iw,-47.9976921081543,-76.8106002807617,76.97593321365709,-156.20795472338156,1810364370
iw,-49.1177368164062,-74.0626144409179,76.28001213117162,-153.57439109893357,1810381037
iw,-50.2397384643554,-71.3749313354492,74.93452702087085,-149.62572318111626,1810397704
iw,-51.2992820739746,-68.8885879516601,73.51090682352955,-144.98095979171188,1810414371
iw,-52.3617820739746,-66.6472549438476,72.50482339784575,-140.31963268361227,1810431038
iw,-53.5273208618164,-64.6983566284179,72.21832946827584,-136.16702703708205,1810447705
iw,-54.9477958679199,-62.8659553527832,72.71441900339357,-132.66732808357062,1810464372
iw,-56.5933723449707,-60.8642463684082,73.8546606272754,-129.44581276229562,1810481039
iw,-58.2309341430664,-58.6486358642578,75.39547217274152,-125.63686588845184,1810497706
iw,-59.6111068725585,-56.6635704040527,77.09011557278266,-120.09332589600557,1810514373
iw,-60.6767311096191,-54.9930419921875,78.74332628245432,-111.72500648213281,1810531040
iw,-61.4917564392089,-53.0325164794921,80.19754152391589,-99.86921073700246,1810547707
iw,-62.135684967041,-51.1744003295898,81.27378182815593,-84.5811927888242,1810564374
iw,-62.6909484863281,-49.8707199096679,81.71824688841455,-66.74365856652958,1810581041
iw,-63.2700042724609,-49.1737365722656,81.20234006667084,-47.936343977314806,1810597708
iw,-63.9322319030761,-49.0801353454589,79.393171683591,-30.083629629819864,1810614375
iw,-64.6617584228515,-49.2184600830078,76.07058677626938,-14.986157914181977,1810631042
iw,-65.2811813354492,-49.5091133117675,71.23699582599832,-3.89423381347749,1810647709
iw,-65.7521514892578,-49.5379104614257,65.16543588081598,2.7363164743892905,1810664376
iw,-66.2030258178711,-49.4390525817871,58.361620833293635,5.243115389379323,1810681043
iw,-66.6972198486328,-49.264289855957,51.457824073617445,4.5455462087216665,1810697710
iw,-67.2080841064453,-49.2860870361328,45.08176277524938,1.8252372631382254,1810714377
iw,-67.6740036010742,-49.4489288330078,39.73899497749887,-1.7858474113131348,1810731044
iw,-68.0979843139648,-49.3485603332519,35.72436787580571,-5.42828577915639,1810747711
iw,-68.4741897583007,-49.0603790283203,33.05899578896676,-8.614320640955258,1810764378
iw,-68.8158569335937,-48.80464553833,31.447479041107258,-11.200558836114093,1810781045
iw,-69.1735305786132,-48.6184768676757,30.263076506865463,-13.249957315264025,1810797712
iw,-69.5757446289062,-48.5598373413085,28.582938822538654,-14.82088490899087,1810814379
iw,-69.9263458251953,-48.6984062194824,25.29705030728702,-15.751866028928337,1810831046
iw,-70.1636505126953,-48.8512687683105,19.29697160180706,-15.532980672622731,1810847713
iw,-70.3529739379882,-48.9453201293945,9.718834336000016,-13.344405333585632,1810864380
iw,-70.5126724243164,-48.7138061523437,-3.817477084287078,-8.28725965712373,1810881047
iw,-70.6332244873046,-48.2089042663574,-21.04866585016073,0.25572108399107896,1810897714
iw,-70.8154754638671,-47.9309310913085,-41.05321630584712,12.273067219538879,1810914381
iw,-71.1028060913086,-48.3774719238281,-62.403973100481196,26.95737366782447,1810931048
iw,-71.4136123657226,-49.4965896606445,-83.44808069079495,42.81967152020735,1810947715
iw,-71.7577362060546,-51.0754852294921,-102.62357602794832,58.05814216570991,1810964382
iw,-72.1925582885742,-52.7197341918945,-118.71633918325493,71.03299292882656,1810981049
iw,-72.5298156738281,-54.0882492065429,-131.00506730352362,80.65838509911958,1810997716
iw,-72.114273071289,-55.3195533752441,-139.30053892027067,86.58044998177421,1811014383
iw,-70.8999710083007,-56.7086029052734,-143.91421892613698,89.12253200040288,1811031050
iw,-69.2872695922851,-58.159080505371,-145.5784654790647,89.07368736389978,1811047717
iw,-67.6480178833007,-59.55855178833,-145.31517753517565,87.43002705864554,1811064384
iw,-65.8883056640625,-60.9765548706054,-144.24769806591465,85.17613528547015,1811081051
iw,-63.9998626708984,-62.4625587463378,-143.3779985376916,83.14836128074637,1811097718
iw,-61.9736824035644,-63.9577407836914,-143.38077898540533,81.98009307778334,1811114385
iw,-59.7043151855468,-65.3962478637695,-144.46963482074713,82.10223319051572,1811131052
iw,-57.3742790222168,-66.8132171630859,-146.36556767965942,83.76318758369743,1811147719
iw,-55.1108283996582,-68.3151321411132,-148.36599083270698,87.04025463157872,1811164386
iw,-52.6743011474609,-69.902961730957,-149.4930731104147,91.8307173426239,1811181053
iw,-50.0307998657226,-71.5451889038086,-148.69424258111974,97.82688716514063,1811197720
iw,-47.2928810119628,-73.2697296142578,-145.06166313471167,104.49058157459567,1811214387
iw,-44.7146453857421,-75.0892105102539,-138.02628852920125,111.04934535355397,1811231054
iw,-42.432933807373,-76.9189071655273,-127.47761046282879,116.53874158422805,1811247721
iw,-40.632209777832,-78.7814559936523,-113.77661904276216,119.90962600166809,1811264388
iw,-39.131233215332,-80.7474288940429,-97.66524751258616,120.20418769161964,1811281055
iw,-37.8429946899414,-82.7640838623046,-80.11273618599095,116.78017527658837,1811297722
iw,-36.9806518554687,-84.6640243530273,-62.15771263513161,109.5344743787579,1811314389
iw,-36.4216880798339,-86.381233215332,-44.796189014364074,99.0558673193638,1811331056
iw,-35.7999992370605,-87.8867874145507,-28.93569862611789,86.6344049114157,1811347723
iw,-35.0201988220214,-88.6610412597656,-15.39560020616138,74.07867846616921,1811364390
iw,-34.4143905639648,-88.5469360351562,-4.898816668460257,63.34342656114997,1811381057
iw,-34.5727462768554,-88.357177734375,2.0044735365148156,56.04105043142467,1811397724
iw,-35.0474128723144,-88.1069030761718,5.096561220590364,52.97829132481285,1811414391
iw,-35.5215721130371,-87.5386047363281,4.675293531965571,53.884091222537755,1811431058
iw,-35.7752418518066,-86.4273605346679,1.6489431914017725,57.44500142434824,1811447725
iw,-35.6169891357421,-84.8211212158203,-2.5497445340048763,61.64887924534233,1811464392
iw,-35.2569885253906,-83.1584014892578,-6.239981527465098,64.31040377285073,1811481059
iw,-34.8772888183593,-81.8324508666992,-7.875529581238764,63.58270470334901,1811497726
iw,-34.6822319030761,-80.9534606933593,-6.399659306001443,58.2872225704743,1811514393
iw,-34.8424911499023,-80.4966430664062,-1.455240027219784,47.99961398402692,1811531060
iw,-34.82421875,-80.2171096801757,6.604054309418665,32.947410609699936,1811547727
iw,-34.837158203125,-79.998306274414,16.885559166377675,13.837623247571706,1811564394
iw,-35.2373161315918,-79.908935546875,28.248242117581313,-8.286401385146984,1811581061
iw,-36.197151184082,-80.0734405517578,39.62174805570126,-32.13233342984859,1811597728
iw,-37.4837265014648,-80.7704391479492,50.25232597295289,-56.233338442792075,1811614395
iw,-38.2944183349609,-82.1332397460937,59.79019253470392,-79.07127565262712,1811631062
iw,-38.9206199645996,-83.9757232666015,68.19502765106115,-99.2700306392833,1811647729
iw,-39.8157424926757,-85.7783126831054,75.52733416336756,-115.81525608303139,1811664396
iw,-41.1497268676757,-86.9172668457031,81.75351831001056,-128.2166868244984,1811681063
iw,-42.7332687377929,-86.5460052490234,86.67270860601637,-136.54316130399945,1811697730
iw,-44.3702201843261,-85.0243301391601,89.98825119040617,-141.3169891858206,1811714397
iw,-45.7746353149414,-83.1249694824218,91.4620815779541,-143.3147925461432,1811731064
iw,-46.9374732971191,-81.1004257202148,91.06020319875005,-143.352570024812,1811747731
iw,-48.0796546936035,-79.0734786987304,89.02453022844847,-142.12530985548406,1811764398
iw,-49.3638877868652,-77.1049880981445,85.853965406558,-140.14010186333118,1811781065
iw,-50.6149444580078,-74.8855514526367,82.21163551952871,-137.74406097339383,1811797732
iw,-51.7129211425781,-72.3133392333984,78.78845325622142,-135.21255580221148,1811814399
iw,-52.7755889892578,-69.8332061767578,76.15710174127513,-132.83415430896494,1811831066
iw,-53.8323364257812,-67.6206512451171,74.65337888855203,-130.9215278003146,1811847733
iw,-55.0310516357421,-65.7009048461914,74.32004357814434,-129.71018199265248,1811864400
iw,-56.47509765625,-63.9746208190918,74.93464860080873,-129.17374154139594,1811881067
iw,-58.0294113159179,-62.1514091491699,76.11592007217979,-128.84854188742239,1811897734
iw,-59.6605224609375,-60.0797576904296,77.47105795703328,-127.77912311274878,1811914401
iw,-61.2127723693847,-57.9613151550293,78.72471960292052,-124.65540945758792,1811931068
iw,-62.4978103637695,-55.9672660827636,79.77458453781792,-118.13423718845718,1811947735
iw,-63.4391860961914,-54.1134948730468,80.65089583809028,-107.26208924841002,1811964402
iw,-64.1754913330078,-52.2267265319824,81.40370623062056,-91.87118968739323,1811981069
iw,-64.81689453125,-50.6192359924316,81.97769506917537,-72.81506455959013,1811997736
iw,-65.4137573242187,-49.6233482360839,82.14105089571906,-51.9410771947028,1812014403
iw,-66.0166549682617,-49.2938499450683,81.50849440386062,-31.766123865830963,1812031070
iw,-66.7262878417968,-49.3393096923828,79.65232103524033,-14.917229515242537,1812047737
iw,-67.3810882568359,-49.7701835632324,76.2521537333152,-3.4885730732601514,1812064404
iw,-67.8834686279296,-50.1082572937011,71.2164271918811,1.490706919310219,1812081071
iw,-68.3356781005859,-50.4405555725097,64.72707414408823,0.3098669975198606,1812097738
iw,-68.7976608276367,-50.4668350219726,57.20155958860966,-5.5301126196232415,1812114405
iw,-69.2876968383789,-49.6064300537109,49.20359072623018,-13.747157300000527,1812131072
iw,-69.8196182250976,-48.7986106872558,41.34187388847086,-21.889180284877344,1812147739
iw,-70.2382659912109,-48.3984222412109,34.17760202507272,-27.927326114052928,1812164406
iw,-70.5041885375976,-48.0937194824218,28.13877872663906,-30.65849903009339,1812181073
iw,-70.724006652832,-47.6927795410156,23.433516592584322,-29.83417651324013,1812197740
iw,-70.9639358520507,-47.1217079162597,19.967247945593737,-26.03016010245134,1812214407
iw,-71.2055358886718,-46.6715698242187,17.287343377268378,-20.329313266405894,1812231074
iw,-71.4680709838867,-46.5575828552246,14.588849747322545,-13.907462288202451,1812247741
iw,-71.8034057617187,-46.87935256958,10.809837745142246,-7.622400870008517,1812264408
iw,-72.1634521484375,-47.5107841491699,4.822727710570739,-1.7204599314643978,1812281075
iw,-72.5367355346679,-48.0720748901367,-4.307240329016145,4.228366587367594,1812297742
iw,-72.8872299194336,-48.1332778930664,-17.061156118409905,11.111073931238087,1812314409
iw,-73.1344375610351,-47.6859054565429,-33.28569595724772,19.824215585344373,1812331076
iw,-73.2155609130859,-47.5090827941894,-52.15920987134322,30.775918179956093,1812347743
iw,-73.1033630371093,-48.2295379638671,-72.32257792662921,43.566883269304775,1812364410
iw,-72.9193496704101,-49.5748672485351,-92.13311891584792,57.01049009492657,1812381077
iw,-72.8232879638671,-51.2749519348144,-109.96337293417672,69.48920759847898,1812397744
iw,-72.742317199707,-53.111759185791,-124.47255479963124,79.48485077357779,1812414411
iw,-72.0030212402343,-54.6698112487793,-134.8115330890837,86.0554645389584,1812431078
iw,-70.3541030883789,-56.0093383789062,-140.74688015602302,89.08371011617827,1812447745
iw,-68.3408203125,-57.4304046630859,-142.68791646989285,89.24143520538958,1812464412
iw,-66.5251083374023,-58.8224220275878,-141.5917351960398,87.72914680794742,1812481079
iw,-64.8478546142578,-60.1467361450195,-138.7384664780119,85.90877702802833,1812497746
iw,-63.1259117126464,-61.5021171569824,-135.41839755088944,84.94927509681258,1812514413
iw,-61.3215293884277,-62.9451446533203,-132.6197429776253,85.57110369029482,1812531080
iw,-59.3362312316894,-64.4611511230468,-130.81147409780147,87.93194340487159,1812547747
iw,-57.2270011901855,-65.9939422607421,-129.87524191627384,91.65562766945489,1812564414
iw,-55.078010559082,-67.6091156005859,-129.18426004231344,95.97666167866142,1812581081
iw,-52.9967346191406,-69.3709335327148,-127.7881416514724,99.95582084961629,1812597748
iw,-50.8839530944824,-71.2412338256836,-124.65196483611632,102.71540408767441,1812614415
iw,-48.6967697143554,-73.100830078125,-118.90380419005638,103.64264486465393,1812631082
iw,-46.5444526672363,-74.8806838989257,-110.05115286945164,102.51773652302039,1812647749
iw,-44.5325317382812,-76.6390075683593,-98.12787471562497,99.54081571780885,1812664416
iw,-42.8624877929687,-78.3224182128906,-83.73705843161306,95.25672456595916,1812681083
iw,-41.6024856567382,-79.8196258544921,-67.97087785951703,90.40034329233323,1812697750
iw,-40.647117614746,-81.1171264648437,-52.217544664326425,85.70392935253908,1812714417
iw,-40.1015167236328,-82.3625946044921,-37.898569205016685,81.71873651576634,1812731084
iw,-39.8613510131835,-83.6318817138671,-26.20312321912653,78.70155144528292,1812747751
iw,-39.7651557922363,-84.9247207641601,-17.889607616262534,76.59777615519931,1812764418
iw,-39.4562149047851,-86.2754364013671,-13.202943599105843,75.11944247716796,1812781085
iw,-38.9053916931152,-87.6184616088867,-11.912850792977531,73.88232947976167,1812797752
iw,-38.26123046875,-88.8299789428711,-13.429925659835865,72.54642894465805,1812814419
iw,-38.0793876647949,-89.1239700317382,-16.93150986856904,70.90674182182282,1812831086
iw,-37.9290161132812,-88.3305892944336,-21.44903474828763,68.9054114906322,1812847753
iw,-37.7450561523437,-87.4484100341796,-25.919888281476887,66.57131395609143,1812864420
iw,-37.2515754699707,-86.4935150146484,-29.24707652128775,63.923133118214466,1812881087
iw,-36.6830673217773,-85.3976364135742,-30.405911028941485,60.88129360612798,1812897754
iw,-36.1449699401855,-84.3087005615234,-28.596784481119336,57.219402260998876,1812914421
iw,-35.6526908874511,-83.3652572631836,-23.402840985468195,52.56057318292185,1812931088
iw,-35.249340057373,-82.6647644042968,-14.898002925341736,46.40867384612888,1812947755
iw,-35.1393356323242,-82.1642684936523,-3.665568808818194,38.20797802185284,1812964422
iw,-35.3531684875488,-81.7948150634765,9.283611602153332,27.43599334240976,1812981089
iw,-35.5659065246582,-81.4685516357421,22.677061358589025,13.733835862745298,1812997756
iw,-35.6327819824218,-81.2801437377929,35.199748561685546,-2.942426810192804,1813014423
iw,-36.0473365783691,-81.3909835815429,45.733526357441626,-22.196333342897507,1813031090
iw,-37.2194023132324,-81.9060440063476,53.58038242466419,-43.15426832811325,1813047757
iw,-38.5845031738281,-82.9036178588867,58.61576625617988,-64.56329624315406,1813064424
iw,-39.5830039978027,-84.4823226928711,61.30596756119822,-85.02063505420784,1813081091
iw,-40.1608924865722,-86.5142364501953,62.55269684599778,-103.2716652768796,1813097758
iw,-40.8235893249511,-88.3224029541015,63.40313039722918,-118.47275661086395,1813114425
iw,-41.9432640075683,-88.0750198364257,64.7346133056343,-130.3204077067452,1813131092
iw,-43.20751953125,-86.4985961914062,67.03192443027474,-139.00424857682606,1813147759
iw,-44.4197883605957,-84.5907516479492,70.3178524776569,-145.02171987370642,1813164426
iw,-45.4116096496582,-82.1967697143554,74.22590654094753,-148.94977584784965,1813181093
iw,-46.4992752075195,-79.6820907592773,78.16488542987277,-151.2703287076975,1813197760
iw,-47.7712821960449,-77.3260803222656,81.52094742282482,-152.2994710869827,1813214427
iw,-49.0894012451171,-74.8344345092773,83.84840714977611,-152.2145710967931,1813231094
iw,-50.4209060668945,-72.1085052490234,85.00346288220398,-151.13749730902845,1813247761
iw,-51.7505683898925,-69.3394622802734,85.18475606624148,-149.21767832626648,1813264428
iw,-53.0671043395996,-66.7698516845703,84.86925895998297,-146.65988654748054,1813281095
iw,-54.3757514953613,-64.5871200561523,84.66432803025747,-143.66504851976194,1813297762
iw,-55.7438735961914,-62.6042175292968,85.12297232993213,-140.3008435539652,1813314429
iw,-57.3055076599121,-60.5579109191894,86.57957425571689,-136.37040977581987,1813331096
iw,-59.0193634033203,-58.4245834350585,89.05307528744586,-131.36623675784523,1813347763
iw,-60.6264190673828,-56.3015899658203,92.23694922947847,-124.56499316001232,1813364430
iw,-62.0779647827148,-54.3938789367675,95.56391230937625,-115.25484978924732,1813381097
iw,-63.3423767089843,-52.4514770507812,98.31604290473719,-103.02475909888823,1813397764
iw,-64.4331741333007,-50.5881919860839,99.75369790014078,-88.0109598756869,1813414431
iw,-65.3619918823242,-49.2222862243652,99.24779931707272,-70.99898368603638,1813431098
iw,-66.1965560913086,-48.4550170898437,96.40377855682435,-53.3212349632026,1813447765
iw,-66.9376754760742,-48.1912727355957,91.15729605910825,-36.5640173219111,1813464432
iw,-67.473876953125,-48.230484008789,83.81216839706151,-22.177310332467716,1813481099
iw,-67.718147277832,-48.1707344055175,74.99550242347432,-11.125060421977876,1813497766
iw,-67.8132705688476,-48.2487831115722,65.53051683571547,-3.6965873263413846,1813514433
iw,-67.9606018066406,-48.0450057983398,56.26192950998802,0.470070434895595,1813531100
iw,-68.2723007202148,-47.8096656799316,47.88822408302929,2.1868663525982903,1813547767
iw,-68.679817199707,-47.9575309753418,40.84477682111618,2.4294058422930687,1813564434
iw,-69.1639556884765,-48.0801353454589,35.25047033001876,2.069391562199616,1813581101
iw,-69.6692810058593,-48.0853080749511,30.902499195509435,1.6998446635308593,1813597768
iw,-70.1050491333007,-47.9947547912597,27.298214152962068,1.584654567967091,1813614435
iw,-70.4804229736328,-47.9302330017089,23.677904653002322,1.7315987605062417,1813631102
iw,-70.8111343383789,-48.0181312561035,19.10129786090134,2.0637277607001088,1813647769
iw,-71.0960922241211,-48.4808311462402,12.574780259556297,2.6345621286694874,1813664436
iw,-71.2604675292968,-49.1111679077148,3.2288931044888276,3.7998387171369217,1813681103
iw,-71.3326110839843,-49.6441268920898,-9.484822951758447,6.247303054249484,1813697770
iw,-71.487060546875,-49.7720260620117,-25.632805521286677,10.824999677055978,1813714437
iw,-71.6465759277343,-49.4980773925781,-44.729209680037684,18.200328620104976,1813731104
iw,-71.7514572143554,-49.4906501770019,-65.78181060337891,28.485719093080448,1813747771
iw,-71.7528076171875,-50.0627708435058,-87.43564167086986,41.01468957686057,1813764438
iw,-71.743408203125,-51.2069816589355,-108.16615372991112,54.40034921469763,1813781105
iw,-71.8374328613281,-52.8755836486816,-126.47803511448038,66.87784934675182,1813797772
iw,-71.7230529785156,-54.6300239562988,-141.09449052406222,76.79840504840251,1813814439
iw,-70.7509536743164,-56.1677131652832,-151.13979158662102,83.08064604199537,1813831106
iw,-68.9155883789062,-57.5420417785644,-156.3002477341388,85.46054535216739,1813847773
iw,-66.8033142089843,-58.8822708129882,-156.9110663305748,84.48081118161548,1813864440
iw,-64.9263305664062,-60.1887283325195,-153.9047463278352,81.26331588792621,1813881107
iw,-63.1246833801269,-61.4236946105957,-148.59959068518006,77.1676694532533,1813897774
iw,-61.3112564086914,-62.5921554565429,-142.38159819911206,73.44676770914867,1813914441
iw,-59.5327072143554,-63.7461013793945,-136.38408258808863,70.98455028174536,1813931108
iw,-57.6450157165527,-64.9264144897461,-131.2631832122878,70.16376276380672,1813947775
iw,-55.7109947204589,-66.1445846557617,-127.11805872199925,70.87435246517204,1813964442
iw,-53.7462844848632,-67.3950042724609,-123.55021637819789,72.64140851213315,1813981109
iw,-51.8286094665527,-68.7167129516601,-119.82390355739344,74.82830806856036,1813997776
iw,-49.9060630798339,-70.1422729492187,-115.08156027455642,76.85775615998323,1814014443
iw,-47.9022483825683,-71.6062393188476,-108.57228797385069,78.39139234510566,1814031110
iw,-45.8891983032226,-73.0516052246093,-99.85392369506509,79.41863527168698,1814047777
iw,-44.1228675842285,-74.4121170043945,-88.92859984337889,80.22867924445134,1814064444
iw,-42.6506233215332,-75.7158432006836,-76.27692418439145,81.27360484539679,1814081111
iw,-41.5191955566406,-76.9901275634765,-62.77599665437241,82.96615233625148,1814097778
iw,-40.7532615661621,-78.3155136108398,-49.518990253408454,85.47955913930238,1814114445
iw,-40.3802375793457,-79.7062149047851,-37.58666048619827,88.61898065031356,1814131112
iw,-40.2081260681152,-81.1855697631836,-27.839962472806015,91.81302547193069,1814147779
iw,-39.9423332214355,-82.8121261596679,-20.79693486446336,94.2367772227609,1814164446
iw,-39.360424041748,-84.5531005859375,-16.62126404032238,95.03561327880384,1814181113
iw,-38.3802452087402,-86.2946701049804,-15.194438433179577,93.58434726359786,1814197780
iw,-37.9260139465332,-87.9962081909179,-16.199096557936183,89.69969954937467,1814214447
iw,-37.8665199279785,-89.6236190795898,-19.14497956359715,83.73260721594087,1814231114
iw,-37.8726158142089,-89.0406036376953,-23.32791072326014,76.49999108070458,1814247781
iw,-37.5824737548828,-88.1049423217773,-27.783802568597846,69.06554262616488,1814264448
iw,-36.9705848693847,-87.3227767944336,-31.323547831221045,62.43144310026289,1814281115
iw,-36.2563743591308,-86.4223709106445,-32.69109000634127,57.23700559123527,1814297782
iw,-35.6639747619628,-85.4509811401367,-30.81357237125718,53.55727775202335,1814314449
iw,-35.1829414367675,-84.5141296386718,-25.062432859138863,50.85443614881376,1814331116
iw,-34.7611351013183,-83.6431350708007,-15.439991596367133,48.081029964155945,1814347783
iw,-34.5783462524414,-82.9017639160156,-2.6339303449300973,43.89572361642606,1814364450
iw,-34.7055625915527,-82.3677139282226,12.081015062973067,36.94007596835234,1814381117
iw,-34.9570503234863,-81.8772811889648,27.08101750914558,26.128873166135552,1814397784
iw,-35.2863311767578,-81.4759216308593,40.72857205320095,10.90997779514095,1814414451
iw,-36.085220336914,-81.3595275878906,51.73704264751507,-8.554612374307375,1814431118
iw,-37.4858779907226,-81.621711730957,59.47260952117662,-31.338186525749986,1814447785
iw,-38.8909721374511,-82.4303741455078,64.09179127042489,-55.86643667150207,1814464452
iw,-39.6992111206054,-83.9224014282226,66.44167297829851,-80.19816457184012,1814481119
iw,-40.1144981384277,-85.91064453125,67.73397805126274,-102.40766447040843,1814497786
iw,-40.8838882446289,-87.8955078125,69.11156084910152,-120.95967105146505,1814514453
iw,-42.2286338806152,-88.1389083862304,71.28400060876324,-134.96067642662476,1814531120
iw,-43.6589202880859,-86.3715057373046,74.36880933482185,-144.21570302439906,1814547787
iw,-44.9567146301269,-84.3018188476562,77.96467232742961,-149.09935551237675,1814564454
iw,-46.1053276062011,-82.0578155517578,81.38238097771071,-150.3228770997984,1814581121
iw,-47.309341430664,-79.7257232666015,83.92180594793021,-148.7064254138054,1814597788
iw,-48.6023826599121,-77.4603500366211,85.10179990915937,-145.0384665745266,1814614455
iw,-49.8300399780273,-75.1347579956054,84.7872859279832,-140.04524129406116,1814631122
iw,-50.9303321838378,-72.7212982177734,83.19284739679644,-134.43595963277107,1814647789
iw,-51.9835929870605,-70.3239440917968,80.77542073964518,-128.9548091440567,1814664456
iw,-53.0048904418945,-68.0237274169921,78.0605391612891,-124.3670626415617,1814681123
iw,-54.0466880798339,-66.1298294067382,75.4672151109333,-121.33674352171789,1814697790
iw,-55.1947631835937,-64.5498275756836,73.19583629055646,-120.21230741329099,1814714457
iw,-56.6330299377441,-62.926040649414,71.21930467320611,-120.80127658824536,1814731124
iw,-58.3011016845703,-61.0483474731445,69.37555200690618,-122.24783029172252,1814747791
iw,-59.8976593017578,-58.9955673217773,67.5132798624129,-123.1033797102499,1814764458
iw,-61.1409378051757,-56.8881683349609,65.61522048371157,-121.60803541222438,1814781125
iw,-61.9683799743652,-54.8931121826171,63.83465368015227,-116.11897336966142,1814797792
iw,-62.5047760009765,-53.0636367797851,62.42889119940559,-105.56782923370136,1814814459
iw,-62.9187316894531,-51.2437362670898,61.628990744217546,-89.81733119978549,1814831126
iw,-63.2992362976074,-49.836254119873,61.514442207192914,-69.8110115320069,1814847793
iw,-63.6963920593261,-49.1568908691406,61.95196187968959,-47.45985931797424,1814864460
iw,-64.1425399780273,-48.9683723449707,62.62110145682275,-25.279727264122407,1814881127
iw,-64.688247680664,-49.1190338134765,63.10936220002861,-5.867636563901798,1814897794
iw,-65.3131484985351,-49.456298828125,63.03415066326741,8.644977773981468,1814914461
iw,-65.9593505859375,-49.8696212768554,62.1449118145428,17.02140619976866,1814931128
iw,-66.5390243530273,-50.3233375549316,60.37323966429272,19.13228077167314,1814947795
iw,-67.0159759521484,-50.6585884094238,57.82347846243853,15.915986739814258,1814964462
iw,-67.4835510253906,-50.8112258911132,54.720404600751884,9.113310034375102,1814981129
iw,-67.9766006469726,-50.555679321289,51.34322516384799,0.8519414366249924,1814997796
iw,-68.4350662231445,-50.2239303588867,47.97082189682288,-6.813481572494205,1815014463
iw,-68.8078002929687,-50.1034812927246,44.84609684387421,-12.296911444195278,1815031130
iw,-69.134407043457,-50.02046585083,42.14936496060919,-14.731562874107144,1815047797
iw,-69.4086227416992,-49.8046150207519,39.9638631482997,-14.04431026536702,1815064464
iw,-69.682014465332,-49.4723243713378,38.22531317566287,-10.866035771943956,1815081131
iw,-70.029182434082,-49.2813682556152,36.66701115363381,-6.310721631871225,1815097798
iw,-70.4574432373046,-49.2411575317382,34.78945648661718,-1.6620072312171075,1815114465
iw,-70.8936767578125,-49.4485855102539,31.88645980824084,1.98187962053986,1815131132
iw,-71.2564849853515,-49.9314498901367,27.144467903909412,4.029655414728386,1815147799
iw,-71.5583572387695,-50.3907012939453,19.805642188268394,4.591264447378489,1815164466
iw,-71.8863525390625,-50.581859588623,9.358919706017966,4.464613703288315,1815181133
iw,-72.2100296020507,-50.4437751770019,-4.294422649707593,4.892553620123112,1815197800
iw,-72.4887542724609,-50.2236862182617,-20.75685370662936,7.154837537078666,1815214467
iw,-72.7427597045898,-50.0791816711425,-39.170817330535854,12.134407150471201,1815231134
iw,-72.9733200073242,-50.1118354797363,-58.37490719224693,20.01737644701882,1815247801
iw,-73.1302185058593,-50.8762626647949,-77.13169843987454,30.23581488765814,1815264468
iw,-73.268440246582,-52.0670433044433,-94.3474865825903,41.66261807258121,1815281135
iw,-73.3780670166015,-53.2692832946777,-109.21396304823261,52.96605218637342,1815297802
iw,-73.1885604858398,-54.3610534667968,-121.25047625854522,62.97953496794961,1815314469
iw,-72.4689483642578,-55.4044799804687,-130.27872824690212,70.9632283705463,1815331136
iw,-71.2610168457031,-56.7173767089843,-136.3815387251069,76.7038602255059,1815347803
iw,-69.6453552246093,-58.2128028869628,-139.8739398704049,80.46669001661333,1815364470
iw,-67.9275741577148,-59.6224517822265,-141.27239881028459,82.84587296746918,1815381137
iw,-66.2276229858398,-60.9490852355957,-141.22471938518802,84.56291022776514,1815397804
iw,-64.5480346679687,-62.3106079101562,-140.38218331127484,86.26026586334076,1815414471
iw,-62.6187515258789,-63.729133605957,-139.24248827789143,88.33689608152814,1815431138
iw,-60.4100646972656,-65.2164306640625,-138.02488523617757,90.8654440188458,1815447805
iw,-58.128360748291,-66.7959442138671,-136.62850034140988,93.61002643277894,1815464472
iw,-55.874412536621,-68.4994659423828,-134.68393104055636,96.13385478990386,1815481139
iw,-53.6572761535644,-70.2869110107421,-131.67300190602836,97.95864201324987,1815497806
iw,-51.3280448913574,-72.0797653198242,-127.08114216972494,98.72257569473952,1815514473
iw,-48.9922714233398,-73.8237609863281,-120.55102977931864,98.28615962452791,1815531140
iw,-46.7854194641113,-75.4971008300781,-112.00827750683125,96.75531711294455,1815547807
iw,-44.8178825378418,-77.0411300659179,-101.72853438217254,94.42179748383117,1815564474
iw,-43.1389198303222,-78.4673919677734,-90.3208297041741,91.6505339374101,1815581141
iw,-41.7465629577636,-79.8539428710937,-78.62075155204039,88.76093343620569,1815597808
iw,-40.6642112731933,-81.2653579711914,-67.51476039494722,85.94741519599256,1815614475
iw,-39.8527717590332,-82.6685409545898,-57.74304434812636,83.26438331314684,1815631142
iw,-39.2270889282226,-84.0752716064453,-49.74211912499719,80.67104599948121,1815647809
iw,-38.6160507202148,-85.4189682006836,-43.581633779859416,78.10597856559396,1815664476
iw,-37.8190841674804,-86.577033996582,-39.01926930873672,75.55177976258433,1815681143
iw,-36.9030799865722,-87.5442581176757,-35.64963929264467,73.05973743836194,1815697810
iw,-35.8808441162109,-88.1389083862304,-33.077334888903934,70.72642006109845,1815714477
iw,-35.2560768127441,-88.096076965332,-31.02818709438705,68.63663424253525,1815731144
iw,-35.1090354919433,-87.5728759765625,-29.344509975887203,66.80043248205673,1815747811
iw,-34.9252853393554,-86.7364959716796,-27.87827695703796,65.11180322589435,1815764478
iw,-34.7013702392578,-85.6521530151367,-26.359123018096312,63.34369346634737,1815781145
iw,-34.2996215820312,-84.5142364501953,-24.32893857211441,61.17311397881075,1815797812
iw,-33.836814880371,-83.490005493164,-21.19391997193481,58.21332669409378,1815814479
iw,-33.4680633544921,-82.6520156860351,-16.379517083960433,54.031222221306464,1815831146
iw,-33.1797294616699,-81.9828872680664,-9.523803964382015,48.14901028921326,1815847813
iw,-33.0081214904785,-81.4673538208007,-0.6307320312053529,40.05536070838947,1815864480
iw,-33.1125030517578,-81.0595474243164,9.87664237483688,29.26126070979247,1815881147
iw,-33.4462356567382,-80.721321105957,21.22580842863952,15.419052130151984,1815897814
iw,-33.8953895568847,-80.4952545166015,32.46941914523147,-1.5148116978514528,1815914481
iw,-34.4507827758789,-80.5358963012695,42.71427391302237,-21.13247357419282,1815931148
iw,-35.3674659729003,-80.9890365600586,51.33641988324461,-42.519922855842466,1815947815
iw,-36.7290229797363,-81.9707717895507,58.11330293889073,-64.35192405572009,1815964482
iw,-37.7842330932617,-83.5303726196289,63.22268802745219,-85.13790111250866,1815981149
iw,-38.497459411621,-85.5719451904296,67.10269483532186,-103.5504468218792,1815997816
iw,-39.3736381530761,-87.5058975219726,70.23068231729555,-118.7189786413272,1816014483
iw,-40.5425910949707,-87.8608245849609,72.9248617021143,-130.3728849226177,1816031150
iw,-42.0543899536132,-86.5818405151367,75.2600446275494,-138.7797568951562,1816047817
iw,-43.6100234985351,-84.9266128540039,77.11856359944848,-144.5190259958705,1816064484
iw,-44.8132400512695,-82.8724517822265,78.3209423624221,-148.20692778468256,1816081151
iw,-45.683666229248,-80.5209732055664,78.75380150309935,-150.29946904318624,1816097818
iw,-46.5749702453613,-78.1451568603515,78.44317518533104,-151.0433539501369,1816114485
iw,-47.748249053955,-75.5335159301757,77.57030702055563,-150.56172656802806,1816131152
iw,-49.0036888122558,-72.7025833129882,76.45095666429027,-148.99918227780938,1816147819
iw,-50.2077445983886,-70.110969543457,75.4916549738238,-146.63074229363647,1816164486
iw,-51.3735389709472,-67.7954635620117,75.12266374535469,-143.86278074653927,1816181153
iw,-52.5787391662597,-65.7240905761718,75.7097901734571,-141.1106802689802,1816197820
iw,-53.9225044250488,-63.7507858276367,77.46302142688906,-138.60526784125753,1816214487
iw,-55.4764862060546,-61.6608505249023,80.37144069562716,-136.22322538934628,1816231154
iw,-57.1831016540527,-59.4133834838867,84.18835304266646,-133.43113617580235,1816247821
iw,-58.9079437255859,-57.1607513427734,88.4700071153478,-129.38352847886156,1816264488
iw,-60.5007858276367,-55.1585273742675,92.64953302528147,-123.15195596786224,1816281155
iw,-61.9016075134277,-53.3494453430175,96.11939574689261,-114.01611978415585,1816297822
iw,-63.1096839904785,-51.3933868408203,98.30446846963302,-101.73095640053715,1816314489
iw,-64.1643905639648,-49.5694847106933,98.72376640331336,-86.68781913077876,1816331156
iw,-65.0324478149414,-48.3035049438476,97.04794688852026,-69.90719523657654,1816347823
iw,-65.7597122192382,-47.5957908630371,93.15567795267025,-52.84207790314595,1816364490
iw,-66.4411163330078,-47.432315826416,87.17928648343623,-37.03763756749679,1816381157
iw,-67.0141525268554,-47.4860725402832,79.51856369933252,-23.75885048543914,1816397824
iw,-67.3611526489257,-47.3107414245605,70.80111234926355,-13.72031471205023,1816414491
iw,-67.5351791381836,-46.9451217651367,61.783351430490626,-7.008520472759497,1816431158
iw,-67.77734375,-46.7068061828613,53.21233427514516,-3.197833604155664,1816447825
iw,-68.2199554443359,-46.5746994018554,45.68705817293605,-1.5806152630052108,1816464492
iw,-68.7612762451171,-46.6478080749511,39.5535959460413,-1.4035468356869658,1816481159
iw,-69.3364868164062,-46.6884498596191,34.84625872885515,-2.0294708080101067,1816497826
iw,-69.8810348510742,-46.6028671264648,31.26893986261634,-2.994719061749819,1816514493
iw,-70.3467178344726,-46.4797019958496,28.21127446935721,-3.9724329567654855,1816531160
iw,-70.7377471923828,-46.4510536193847,24.806496661920377,-4.673354388108661,1816547827
iw,-71.0654830932617,-46.6879997253418,20.044175867484263,-4.727894981936944,1816564494
iw,-71.3106536865234,-46.9821128845214,12.940086787418776,-3.6055148380868722,1816581161
iw,-71.4373016357421,-47.2565765380859,2.740167013664199,-0.6303563455874691,1816597828
iw,-71.4911193847656,-47.4298782348632,-10.889986138453354,4.872827905012925,1816614495
iw,-71.4996566772461,-47.4534072875976,-27.747807313308908,13.32615690910604,1816631162
iw,-71.4182510375976,-47.4119644165039,-47.09016770840618,24.631956541312245,1816647829
iw,-71.2509384155273,-47.7650451660156,-67.74748405366218,38.023667975939546,1816664496
iw,-71.0948944091796,-48.7810287475585,-88.31824526804719,52.14083864986553,1816681163
iw,-71.1101608276367,-50.3274955749511,-107.38553716163656,65.34267727960838,1816697830
iw,-71.2058715820312,-52.1336784362793,-123.7086069732368,76.15857586321479,1816714497
iw,-70.8038940429687,-53.8086853027343,-136.37259550923142,83.70085912933591,1816731164
iw,-69.5087432861328,-55.2609748840332,-144.897940394588,87.87952169994809,1816747831
iw,-67.7459564208984,-56.5848884582519,-149.30183688962413,89.35041644725683,1816764498
iw,-65.9888763427734,-57.869026184082,-150.08460944127708,89.24202050916467,1816781165
iw,-64.2827911376953,-59.2488174438476,-148.11646577576613,88.78259096309871,1816797832
iw,-62.4869689941406,-60.7143936157226,-144.4360018114719,88.96209326679973,1816814499
iw,-60.610984802246,-62.2525291442871,-140.0157391142564,90.32290690365816,1816831166
iw,-58.6170196533203,-63.8623313903808,-135.56625440928826,92.91143016390114,1816847833
iw,-56.5412254333496,-65.5608825683593,-131.42870676076157,96.36826375688219,1816864500
iw,-54.4626808166503,-67.3508605957031,-127.56576568103866,100.10204084054693,1816881167
iw,-52.4402847290039,-69.2075653076171,-123.6303399967329,103.48235837101885,1816897834
iw,-50.5789985656738,-71.0427551269531,-119.08283772214003,105.99603906045944,1816914501
iw,-48.6369094848632,-72.8477783203125,-113.3345629536871,107.33249796214398,1816931168
iw,-46.6122169494628,-74.6534652709961,-105.90137192154448,107.39148228081847,1816947835
iw,-44.6075096130371,-76.4025955200195,-96.54731745811051,106.23126494226884,1816964502
iw,-42.8423194885253,-78.0849609375,-85.38683876714518,103.98992868562988,1816981169
iw,-41.4289321899414,-79.7919235229492,-72.91087859846606,100.81388635533985,1816997836
iw,-40.2974586486816,-81.4225616455078,-59.91831807053049,96.81854488651952,1817014503
iw,-39.4994964599609,-82.9121398925781,-47.36562683943829,92.09114916102195,1817031170
iw,-39.0166358947753,-84.3591995239257,-36.17844577866489,86.73048982754136,1817047837
iw,-38.6451301574707,-85.8604278564453,-27.08240293156883,80.90470713961753,1817064504
iw,-38.135929107666,-87.3831939697265,-20.49922552753921,74.89730420106262,1817081171
iw,-37.577350616455,-88.6711654663086,-16.52236233914194,69.10713331040232,1817097838
iw,-37.1323623657226,-89.7569198608398,-14.950224749572394,63.980065054619466,1817114505
iw,-36.7332077026367,-89.5693130493164,-15.337300476453397,59.881394568783605,1817131172
iw,-36.6258697509765,-88.7255859375,-17.036183538477328,56.954216871520245,1817147839
iw,-36.5564193725585,-87.8594512939453,-19.235898244009245,55.02521594495845,1817164506
iw,-36.1578865051269,-86.8507919311523,-21.025569569014255,53.601712459083224,1817181173
iw,-35.6906013488769,-85.7307968139648,-21.50559213059231,51.961627403298394,1817197840
iw,-35.2769966125488,-84.7397003173828,-19.93536996214755,49.29642303550416,1817214507
iw,-34.8773117065429,-83.9492263793945,-15.87469937264758,44.850265420584925,1817231174
iw,-34.6532821655273,-83.3947296142578,-9.269667883760821,38.01491164057434,1817247841
iw,-34.7828254699707,-83.0660247802734,-0.45553443029051033,28.376245178110217,1817264508
iw,-34.991153717041,-82.8963470458984,9.918745226256643,15.739423049306334,1817281175
iw,-35.0927276611328,-82.8397445678711,21.01756765281742,0.16450844066512849,1817297842
iw,-35.213882446289,-82.9386978149414,31.968548394513274,-17.979496901852354,1817314509
iw,-35.8473968505859,-83.2806930541992,42.01501807294722,-37.9707104845264,1817331176
iw,-37.102310180664,-84.0485000610351,50.64931295123528,-58.75186068609781,1817347843
iw,-38.2347183227539,-85.3828125,57.689597301236596,-79.0496283024757,1817364510
iw,-39.0847854614257,-87.1897888183593,63.260316253086685,-97.59104085244287,1817381177
iw,-39.908447265625,-88.7359161376953,67.6716652315136,-113.35572506231797,1817397844
iw,-41.0495681762695,-87.5770721435546,71.24979326638557,-125.7703994591926,1817414511
iw,-42.3801536560058,-85.5906066894531,74.1983886560014,-134.7681714875668,1817431178
iw,-43.8023948669433,-83.553840637207,76.54797276926205,-140.69519851948615,1817447845
iw,-44.946231842041,-81.3713073730468,78.19622913999761,-144.11693860633326,1817464512
iw,-45.9494285583496,-79.0817031860351,79.00464774112675,-145.6146067011095,1817481179
iw,-47.0252151489257,-76.841438293457,78.91034472828969,-145.6517158475982,1817497846
iw,-48.27437210083,-74.5801467895507,78.02047240809213,-144.54592236360253,1817514513
iw,-49.5855865478515,-72.0734786987304,76.66118342678297,-142.5308914128732,1817531180
iw,-50.7564430236816,-69.3750610351562,75.3562325019453,-139.85414816091082,1817547847
iw,-51.8210754394531,-66.880744934082,74.72615567722113,-136.83852391821998,1817564514
iw,-52.8908157348632,-64.7890014648437,75.32939978148922,-133.84821911199154,1817581181
iw,-54.0976943969726,-62.9463462829589,77.49578894421623,-131.15108608964354,1817597848
iw,-55.596378326416,-61.1661682128906,81.21133475550191,-128.73597007193626,1817614515
iw,-57.3657493591308,-59.2885284423828,86.09455330163499,-126.18614527052428,1817631182
iw,-59.0940132141113,-57.2296028137207,91.46725121966716,-122.69695655696985,1817647849
iw,-60.7022628784179,-55.1844139099121,96.48777506337088,-117.2641431247717,1817664516
iw,-62.0467796325683,-53.3851432800293,100.30137799993996,-108.99432501630183,1817681183
iw,-63.2307090759277,-51.6124877929687,102.1737728343673,-97.43695230798438,1817697850
iw,-64.367935180664,-49.8241958618164,101.59452218175315,-82.82332922192764,1817714517
iw,-65.3740005493164,-48.5391044616699,98.34798563126486,-66.12036467446514,1817731184
iw,-66.1379089355468,-47.9056854248046,92.54674338246025,-48.85895040215745,1817747851
iw,-66.7126541137695,-47.730411529541,84.61657212537098,-32.7728020876949,1817764518
iw,-67.0722503662109,-47.8529968261718,75.2257980231395,-19.360327830672446,1817781185
iw,-67.2133712768554,-47.8369598388671,65.16814126643372,-9.52037175999896,1817797852
iw,-67.4330978393554,-47.9094467163085,55.22833567849741,-3.3856997455432025,1817814519
iw,-67.7613525390625,-47.6569633483886,46.068864007870694,-0.39672003519810584,1817831186
iw,-68.1499786376953,-47.3682861328125,38.16414309995109,0.43611148308047465,1817847853
iw,-68.545425415039,-47.3939170837402,31.781656181581454,0.19467554602591813,1817864520
iw,-68.9831390380859,-47.5162696838378,26.986900374493786,-0.23976583208312433,1817881187
iw,-69.4350433349609,-47.4803390502929,23.645441922095653,-0.35520276451286037,1817897854
iw,-69.8376159667968,-47.3256187438964,21.41079064795343,-0.027548471998298928,1817914521
iw,-70.2284545898437,-47.200096130371,19.7102264918565,0.5965806613205328,1817931188
iw,-70.5949096679687,-47.3076400756835,17.75826746868001,1.3139895966693251,1817947855
iw,-70.8865280151367,-47.7551689147949,14.628115714506063,2.110838574911997,1817964522
iw,-71.0512619018554,-48.3888053894043,9.392200835991483,3.346470636799653,1817981189
iw,-71.1149597167968,-48.8783912658691,1.3114816948733503,5.77429114640365,1817997856
iw,-71.1519546508789,-48.8762474060058,-9.976184335994722,10.34370120921087,1818014523
iw,-71.1228713989257,-48.5365715026855,-24.33118267717725,17.825101294193534,1818031190
iw,-70.9584579467773,-48.377269744873,-41.10042073215132,28.4069741967229,1818047857
iw,-70.7240905761718,-48.9640960693359,-59.230112502715805,41.46015985822879,1818064524
iw,-70.5615005493164,-50.2800903320312,-77.46664749305822,55.60490057953314,1818081191
iw,-70.6053237915039,-51.9962005615234,-94.57897115190855,69.07416674865786,1818097858
iw,-70.7226867675781,-53.7663803100585,-109.54207551791177,80.22486132723553,1818114525
iw,-70.3699340820312,-55.3189849853515,-121.6547947829821,87.98978112851113,1818131192
iw,-69.2751159667968,-56.7719841003418,-130.59643044732644,92.11160268694971,1818147859
iw,-67.7782516479492,-58.2549705505371,-136.43390907371,93.1117186073484,1818164526
iw,-66.0925140380859,-59.6664695739746,-139.57935213193764,92.05212353154161,1818181193
iw,-64.3407745361328,-61.0299415588378,-140.6902932673299,90.20281544383842,1818197860
iw,-62.4586944580078,-62.4811286926269,-140.51716283035228,88.72652652285585,1818214527
iw,-60.53804397583,-64.0237197875976,-139.72804806499943,88.45716408435173,1818231194
iw,-58.5255165100097,-65.5980224609375,-138.75775492817783,89.80082968037216,1818247861
iw,-56.2832412719726,-67.2001342773437,-137.72239012822035,92.74658262467015,1818264528
iw,-54.040542602539,-68.875732421875,-136.4163286479989,96.94979219497894,1818281195
iw,-51.9164886474609,-70.657844543457,-134.38282681112105,101.8459847878057,1818297862
iw,-49.8620986938476,-72.548110961914,-131.03726271512915,106.76114616999186,1818314529
iw,-47.7108421325683,-74.4557189941406,-125.82170873158759,110.99820603362335,1818331196
iw,-45.4664611816406,-76.3127365112304,-118.367097381859,113.89557046026968,1818347863
iw,-43.3453903198242,-78.1319122314453,-108.627369269253,114.86966189318865,1818364530
iw,-41.6017417907714,-79.9672241210937,-96.94124791140624,113.46329951732685,1818381197
iw,-40.2502250671386,-81.8303604125976,-83.99077021704197,109.4174408595224,1818397864
iw,-39.1067733764648,-83.6269226074218,-70.66290049618172,102.76357864939622,1818414531
iw,-38.3219528198242,-85.366584777832,-57.8607108012191,93.90715268531491,1818431198
iw,-37.8024063110351,-86.994758605957,-46.329788589137934,83.65403561899402,1818447865
iw,-37.1148452758789,-88.3749008178711,-36.55459699285726,73.13488926270904,1818464532
iw,-36.4811134338378,-89.4081802368164,-28.744593385852035,63.61020991924308,1818481199
iw,-35.7207908630371,-89.8133773803711,-22.88646111112199,56.186467888955065,1818497866
iw,-35.2017135620117,-89.3583679199218,-18.809321669869586,51.523409091850034,1818514533
iw,-35.0942993164062,-88.7179336547851,-16.21520378819338,49.63757107815203,1818531200
iw,-35.2195968627929,-87.7279815673828,-14.667950407146478,49.88469101473222,1818547867
iw,-35.1436386108398,-86.5386428833007,-13.580993599126282,51.13479946105842,1818564534
iw,-34.8160743713378,-85.3583068847656,-12.258118441258741,52.07085353998909,1818581201
iw,-34.4723663330078,-84.2381973266601,-10.007163482710572,51.491400404976595,1818597868
iw,-34.2227592468261,-83.3644638061523,-6.291819907140584,48.508181134755525,1818614535
iw,-34.1006965637207,-82.8496932983398,-0.8549498301067407,42.592174416145134,1818631202
iw,-34.3108787536621,-82.5864105224609,6.240689365525384,33.50041729324112,1818647869
iw,-34.710578918457,-82.4650650024414,14.665507361555669,21.170185226084044,1818664536
iw,-35.0767974853515,-82.3302917480468,23.93901336896674,5.669822166125173,1818681203
iw,-35.3436965942382,-82.2652587890625,33.56065625182383,-12.753932562396582,1818697870
iw,-36.0249252319335,-82.4618835449218,43.11660742788652,-33.5654966837899,1818714537
iw,-37.2442970275878,-83.1251144409179,52.33872045947921,-55.85360857802879,1818731204
iw,-38.4712371826171,-84.4229354858398,61.09865690636634,-78.35516704133408,1818747871
iw,-39.2491455078125,-86.2460556030273,69.33118843547508,-99.62263266190108,1818764538
iw,-40.0185012817382,-88.1793060302734,76.91559964412663,-118.29087795991339,1818781205
iw,-41.3371849060058,-88.1253890991211,83.58669074892029,-133.34459975770054,1818797872
iw,-43.1650047302246,-86.0244750976562,88.94859357616245,-144.28530603847125,1818814539
iw,-45.0232467651367,-83.7831573486328,92.60430251807719,-151.14595252216347,1818831206
iw,-46.5507164001464,-81.4511413574218,94.33439334755138,-154.3711477612207,1818847873
iw,-47.7551383972168,-79.0140228271484,94.22612852409502,-154.63220311872138,1818864540
iw,-48.8366622924804,-76.6206665039062,92.69038351996372,-152.65611577616258,1818881207
iw,-50.058364868164,-74.3685989379882,90.37019668525447,-149.12146657902127,1818897874
iw,-51.32954788208,-71.9972610473632,87.98937105404565,-144.6341161097571,1818914541
iw,-52.5291748046875,-69.3176193237304,86.19449872129042,-139.75727442947738,1818931208
iw,-53.693790435791,-66.6501846313476,85.42725489665489,-135.04081271008948,1818947875
iw,-54.98828125,-64.4270782470703,85.84870737544524,-130.98685824768575,1818964542
iw,-56.5362205505371,-62.6644401550293,87.3279590042713,-127.92142663050106,1818981209
iw,-58.3240089416503,-61.1070938110351,89.49493550476727,-125.81113422370235,1818997876
iw,-60.1460037231445,-59.3087882995605,91.83830278855238,-124.1274783920722,1819014543
iw,-61.8878517150878,-57.1280670166015,93.81357647830649,-121.86677736725994,1819031210
iw,-63.3750457763671,-54.8886833190918,94.92618171949428,-117.76834147973042,1819047877
iw,-64.5457534790039,-52.9498672485351,94.77309348785988,-110.6770340072794,1819064544
iw,-65.4734268188476,-51.1896133422851,93.05422319612316,-99.92783112823672,1819081211
iw,-66.2444229125976,-49.3916320800781,89.58219626821202,-85.61921324949395,1819097878
iw,-67.0109939575195,-48.041877746582,84.31281596943629,-68.67921724938014,1819114545
iw,-67.7701263427734,-47.3062133789062,77.39128443331236,-50.69067886108241,1819131212
iw,-68.3083572387695,-47.0887184143066,69.18146757761278,-33.5175034024484,1819147879
iw,-68.5905227661132,-47.3664627075195,60.24104559980945,-18.846114025613584,1819164546
iw,-68.6704940795898,-47.4041061401367,51.23165420635913,-7.7945050534445555,1819181213
iw,-68.7627563476562,-47.3724708557128,42.79187705975961,-0.7168602298147648,1819197880
iw,-68.9826431274414,-47.1343040466308,35.4224376722518,2.75120850461552,1819214547
iw,-69.3205642700195,-46.9333305358886,29.42200803449541,3.459932270232405,1819231214
iw,-69.7225341796875,-47.0955047607421,24.880166231585058,2.4386128008533574,1819247881
iw,-70.1559753417968,-47.2589988708496,21.705788821378505,0.626138628851167,1819264548
iw,-70.5609893798828,-47.1911506652832,19.66007347514797,-1.2954833252042188,1819281215
iw,-70.8880157470703,-46.9667129516601,18.372547627222517,-2.9471522959003797,1819297882
iw,-71.097915649414,-46.7474365234375,17.337616383476078,-4.187768865413069,1819314549
iw,-71.2149429321289,-46.7954025268554,15.910482789684227,-4.963135062156117,1819331216
iw,-71.3135757446289,-47.1484336853027,13.334792645880174,-5.117665846285271,1819347883
iw,-71.42822265625,-47.5561904907226,8.828598651472085,-4.24945668702356,1819364550
iw,-71.6049728393554,-47.8659477233886,1.7274222038919702,-1.698677820949247,1819381217
iw,-71.7884368896484,-47.7659111022949,-8.352916026289442,3.2824764017769343,1819397884
iw,-71.8682022094726,-47.3945198059082,-21.392666473089047,11.219185187004454,1819414551
iw,-71.792121887207,-47.3273429870605,-36.93406008711481,22.095026952391777,1819431218
iw,-71.5544738769531,-47.9226913452148,-54.15034255285622,35.188992973516825,1819447885
iw,-71.302978515625,-49.0475387573242,-71.98761547302975,49.17288783587503,1819464552
iw,-71.2401809692382,-50.5345382690429,-89.32609531405689,62.44913977048546,1819481219
iw,-71.2911758422851,-52.1885833740234,-105.1186296899104,73.59341288973903,1819497886
iw,-70.9397354125976,-53.662841796875,-118.49550675985972,81.72509847847894,1819514553
iw,-69.8414154052734,-55.0296401977539,-128.84597849359287,86.67617916128584,1819531220
iw,-68.3199081420898,-56.408576965332,-135.881744025938,88.9277024522908,1819547887
iw,-66.6743927001953,-57.7540855407714,-139.66736634340117,89.37632493156663,1819564554
iw,-64.97216796875,-59.105369567871,-140.59346721525057,89.04088651920267,1819581221
iw,-63.1401405334472,-60.5652160644531,-139.2843184119346,88.81346931236227,1819597888
iw,-61.2838592529296,-62.1328506469726,-136.46050160745577,89.31797744233099,1819614555
iw,-59.4249877929687,-63.7603569030761,-132.79624320017464,90.88594754128559,1819631222
iw,-57.4277000427246,-65.4437103271484,-128.80749177320567,93.61476021146748,1819647889
iw,-55.4143486022949,-67.2241134643554,-124.78734526831485,97.45101594728713,1819664556
