Label,Left_Hip_q,Right_Hip_q,Left_Hip_qd,Right_Hip_qd,SampleTimeFine
iw,-65.3121032714843,-64.561767578125,-143.597824096679,78.5520629882812,1524191980
iw,-63.1644477844238,-65.8480758666992,-143.99427807630713,76.45653447696156,1524208647
iw,-61.0417098999023,-67.0943984985351,-135.89034892223813,80.30008652704971,1524225314
iw,-59.0962371826171,-68.3757705688476,-128.24689627346618,83.99341271284607,1524241981
iw,-57.3159713745117,-69.7258148193359,-121.29902696436037,87.35911655792607,1524258648
iw,-55.5112991333007,-71.1958312988281,-114.99164815474002,90.14473076695032,1524275315
iw,-53.5336532592773,-72.7972183227539,-108.9596596287715,92.06735691606009,1524291982
iw,-51.5679512023925,-74.4533081054687,-102.61904090310168,92.90425154806854,1524308649
iw,-49.6543197631835,-76.081672668457,-95.35210929404278,92.58918604568551,1524325316
iw,-47.7967414855957,-77.6354141235351,-86.73338267595135,91.26821375377111,1524341983
iw,-46.1394157409668,-79.1044769287109,-76.72033431851797,89.28439246231132,1524358650
iw,-44.9559936523437,-80.4914321899414,-65.73688123890797,87.09043075458273,1524375317
iw,-44.1765632629394,-81.8479919433593,-54.61019984377921,85.11697193281307,1524391984
iw,-43.6033935546875,-83.1913375854492,-44.37444021969456,83.64068526415875,1524408651
iw,-43.0807037353515,-84.5087738037109,-36.0042724718448,82.69625869958713,1524425318
iw,-42.6245727539062,-85.8304977416992,-30.16211703217833,82.06227750903945,1524441985
iw,-42.3084754943847,-87.1598587036132,-27.029861641328846,81.32833401233293,1524458652
iw,-41.9639739990234,-88.3577728271484,-26.263863442636808,80.02528684163698,1524475319
iw,-41.4974822998046,-88.7200775146484,-27.078187128164064,77.7785573030479,1524491986
iw,-40.9539031982421,-87.7522354125976,-28.43181198775785,74.43336538166582,1524508653
iw,-40.3535919189453,-86.7111587524414,-29.272050973898057,70.10828091289683,1524525320
iw,-39.7233543395996,-85.8297882080078,-28.77299981974115,65.16090504167518,1524541987
iw,-39.093578338623,-84.9731369018554,-26.510251066025152,60.08620238305729,1524558654
iw,-38.7067909240722,-84.0630416870117,-22.5321739092392,55.39303362899495,1524575321
iw,-38.4950256347656,-83.1239700317382,-17.31794292000641,51.5017393553957,1524591988
iw,-38.3088455200195,-82.2063598632812,-11.64274357358997,48.67958762336836,1524608655
iw,-38.1613998413085,-81.3718338012695,-6.389873591712404,47.00349536186177,1524625322
iw,-38.0882568359375,-80.5918045043945,-2.352563966411784,46.330652235768895,1524641989
iw,-38.0901222229003,-79.8061065673828,-0.060728127793328174,46.26994477345887,1524658656
iw,-38.1295928955078,-79.0275802612304,0.3402564998716852,46.16720049583357,1524675323
iw,-38.1666183471679,-78.2816543579101,-0.8638412002767029,45.12986723583079,1524691990
iw,-38.1980667114257,-77.6039352416992,-3.0009691685861553,42.11468498236576,1524708657
iw,-38.2214164733886,-77.0072479248046,-5.1520885607648985,36.086501419392384,1524725324
iw,-37.8877067565918,-76.4186553955078,-6.36279356049637,26.232176824328274,1524741991
iw,-37.351448059082,-75.9518203735351,-5.873218387290632,12.18613045435172,1524758658
iw,-36.8726959228515,-75.7603988647461,-3.2886215083852703,-5.797688187450042,1524775325
iw,-36.9674987792968,-75.916389465332,1.3782629387787784,-26.79654105122217,1524791992
iw,-37.7988967895507,-76.5250091552734,7.807834862263262,-49.3381396896265,1524808659
iw,-38.4253273010253,-77.6750564575195,15.555178886536114,-71.68478625686345,1524825326
iw,-38.63720703125,-79.3997344970703,24.206075372981157,-92.21738467844474,1524841993
iw,-39.0413551330566,-81.3462600708007,33.428280465663875,-109.8038323604023,1524858660
iw,-39.7375106811523,-83.053108215332,42.917299543019396,-124.02289538363954,1524875327
iw,-40.4897842407226,-84.193977355957,52.302543583474225,-135.15596819288595,1524891994
iw,-41.3904495239257,-84.7366790771484,61.093146993283675,-143.94773648044378,1524908661
iw,-42.4647674560546,-84.530158996582,68.71170879521576,-151.23379770020193,1524925328
iw,-43.742015838623,-83.4325180053711,74.61839425967473,-157.58765061073268,1524941995
iw,-44.9835624694824,-81.7185287475586,78.48614151495643,-163.123023579696,1524958662
iw,-46.3264541625976,-79.5917358398437,80.3600809047463,-167.5142490999303,1524975329
iw,-47.6302032470703,-76.8923034667968,80.7305394238894,-170.20748505657917,1524991996
iw,-48.8813133239746,-73.8074111938476,80.4737744679341,-170.72425337830003,1525008663
iw,-50.1392745971679,-70.829475402832,80.65963397926673,-168.925051819574,1525025330
iw,-51.4947242736816,-68.1331710815429,82.27231566457841,-165.11609384478,1525041997
iw,-52.8156585693359,-65.7663116455078,85.92135372240224,-159.94791336464115,1525058664
iw,-54.1293563842773,-63.6568908691406,91.62667387070871,-154.1470027501194,1525075331
iw,-55.6484413146972,-61.5048027038574,98.74532692178413,-148.1961142522461,1525091998
iw,-57.3755989074707,-59.2153625488281,106.07224402557739,-142.09871509484606,1525108665
iw,-59.162670135498,-57.2191162109375,112.09898539246642,-135.3246586288138,1525125332
iw,-60.9447402954101,-55.3108863830566,115.36672252755358,-126.96387901098,1525141999
iw,-62.552749633789,-53.1571617126464,114.82083490114826,-116.04434683598595,1525158666
iw,-63.9112014770507,-51.1303558349609,110.07439675502934,-101.91647802557281,1525175333
iw,-65.0729141235351,-49.502685546875,101.51296249743741,-84.57713071703323,1525192000
iw,-66.0035705566406,-48.3483123779296,90.21361817385191,-64.81540026261435,1525208667
iw,-66.5960693359375,-47.6264457702636,77.6984339668914,-44.11727696874697,1525225334
iw,-66.8762969970703,-47.5103111267089,65.58831135430488,-24.35042575509483,1525242001
iw,-67.01953125,-47.7946586608886,55.25550631756618,-7.328725023734364,1525258668
iw,-67.2177581787109,-48.1135482788085,47.57438731310855,5.603378894385897,1525275335
iw,-67.5404510498046,-48.4215393066406,42.83049127797275,13.839670382531335,1525292002
iw,-67.9127197265625,-48.5613212585449,40.78244933929362,17.567270632578314,1525308669
iw,-68.3034210205078,-48.7086715698242,40.815646110320806,17.620088025675898,1525325336
iw,-68.7842407226562,-49.2806358337402,42.109677490957154,15.20291499621082,1525342003
iw,-69.3816528320312,-49.3629531860351,43.76334346054561,11.579168902463763,1525358670
iw,-69.9938812255859,-49.1613540649414,44.858151102725834,7.805289775772533,1525375337
iw,-70.511116027832,-49.1195449829101,44.47377342162623,4.575240944252882,1525392004
iw,-70.8987808227539,-49.287914276123,41.69036701394643,2.2129979463461265,1525408671
iw,-71.1924896240234,-49.5062026977539,35.62144715455519,0.8072038901547021,1525425338
iw,-71.3416366577148,-49.9180641174316,25.511323287385412,0.42424922185657116,1525442005
iw,-71.3148956298828,-50.3197059631347,10.89975706141518,1.294042047037139,1525458672
iw,-71.2954788208007,-50.6872940063476,-8.186314748829608,3.8666800509105816,1525475339
iw,-71.3835830688476,-50.6922149658203,-31.08718786481833,8.693899739181317,1525492006
iw,-71.5921859741211,-50.7256622314453,-56.48770064540265,16.175407732264382,1525508673
iw,-71.9233856201171,-50.9510879516601,-82.56115459427662,26.28637682867066,1525525340
iw,-72.3530883789062,-51.3341178894043,-107.26436402697601,38.425551389234464,1525542007
iw,-72.7332000732421,-52.4935493469238,-128.70962105291505,51.47483227745114,1525558674
iw,-72.6410675048828,-54.1983108520507,-145.50994102238883,64.0622197754546,1525575341
iw,-71.8995208740234,-55.7594528198242,-157.0049917375781,74.92276515877843,1525592008
iw,-70.5156555175781,-57.0937919616699,-163.31487796380358,83.21158601351769,1525608675
iw,-68.7119750976562,-58.5035972595214,-165.21795533373708,88.66025238285737,1525625342
iw,-66.8881530761718,-60.0977821350097,-163.89408442179632,91.55100734042028,1525642009
iw,-64.9677200317382,-61.7076530456543,-160.60856518915915,92.5543986885603,1525658676
iw,-62.8216094970703,-63.1942481994628,-156.4252441970864,92.50312671773274,1525675343
iw,-60.6580238342285,-64.6156616210937,-152.02124789980383,92.16881619565801,1525692010
iw,-58.4386291503906,-66.1348648071289,-147.63364591844007,92.09174923042099,1525708677
iw,-56.1356887817382,-67.7642059326171,-143.1202916682494,92.49418757625824,1525725344
iw,-53.8731079101562,-69.3588790893554,-138.0874292028574,93.2842026845868,1525742011
iw,-51.8081130981445,-70.9136734008789,-132.03581251193492,94.13343341982488,1525758678
iw,-49.9100456237793,-72.5482788085937,-124.49688361000553,94.59810885541101,1525775345
iw,-47.8299560546875,-74.1905822753906,-115.1517655840018,94.25056971441316,1525792012
iw,-45.6818466186523,-75.7539901733398,-103.93060716012414,92.7933412692703,1525808679
iw,-43.7416267395019,-77.2161483764648,-91.07610364904023,90.13540707341026,1525825346
iw,-42.280517578125,-78.6555252075195,-77.14161499882196,86.41995809211731,1525842013
iw,-41.3175468444824,-80.0751419067382,-62.904618705966,82.00254826314908,1525858680
iw,-40.7530326843261,-81.4391326904296,-49.212988612743885,77.38500005397559,1525875347
iw,-40.3884201049804,-82.7091674804687,-36.82061171869332,73.1141802467192,1525892014
iw,-40.0848007202148,-83.8810882568359,-26.279352921575367,69.66048530590588,1525908681
iw,-39.5924072265625,-84.9623489379882,-17.924037546924442,67.3006290584457,1525925348
iw,-38.8479843139648,-85.8985977172851,-11.931283369734272,66.0385622760849,1525942015
iw,-38.4690055847168,-86.8827896118164,-8.38685989057219,65.59836052602526,1525958682
iw,-38.7083778381347,-88.0072784423828,-7.295216402330345,65.50643083584421,1525975349
iw,-39.0460128784179,-88.9903182983398,-8.516340070123118,65.24775127522582,1525992016
iw,-38.9201545715332,-88.917007446289,-11.681539641690321,64.44463343156079,1526008683
iw,-38.4778327941894,-87.9811325073242,-16.163860279669624,62.98730142142642,1526025350
iw,-37.9056892395019,-86.9312667846679,-21.14000496590098,61.05723512183904,1526042017
iw,-37.4422988891601,-85.9474487304687,-25.717221665479258,59.02250122789663,1526058684
iw,-37.0453910827636,-85.0542678833007,-29.065629849461402,57.23185876501929,1526075351
iw,-36.6037483215332,-84.2413253784179,-30.511409910797223,55.773744174080164,1526092018
iw,-36.148193359375,-83.5038146972656,-29.583833063024535,54.28602477810129,1526108685
iw,-35.8419532775878,-82.8060684204101,-26.03642280868691,51.896901283095985,1526125352
iw,-35.7322425842285,-82.0559921264648,-19.86655511695073,47.345277126268364,1526142019
iw,-35.3967933654785,-81.2102127075195,-11.342269125556978,39.27475351357247,1526158686
iw,-34.8278656005859,-80.4006881713867,-1.0175825910104865,26.631873108056435,1526175353
iw,-34.4092025756835,-79.836555480957,10.307876764630805,9.048041838735848,1526192020
iw,-35.1890792846679,-79.7183761596679,21.72515610211036,-12.929665975556007,1526208687
iw,-36.5768661499023,-80.1994018554687,32.43484196330056,-37.85647721155614,1526225354
iw,-37.6257286071777,-81.383544921875,41.958962792515344,-63.67308505261202,1526242021
iw,-38.1240043640136,-83.1455154418945,50.22795077692501,-88.17429693820549,1526258688
iw,-38.65767288208,-85.0427932739257,57.48679365103111,-109.5122143343086,1526275355
iw,-39.5816383361816,-86.4100799560546,64.07431239256591,-126.56974767432708,1526292022
iw,-40.924087524414,-86.4890441894531,70.1975126913543,-139.0939834955822,1526308689
iw,-42.1880187988281,-85.323745727539,75.8055502155732,-147.57518943328813,1526325356
iw,-43.3881912231445,-83.4679641723632,80.59953792552564,-152.94860773276648,1526342023
iw,-44.5956573486328,-81.3204040527343,84.1541418260388,-156.24173471554596,1526358690
iw,-45.8745613098144,-79.1631698608398,86.09849979936526,-158.2814720267031,1526375357
iw,-47.3682174682617,-76.9406661987304,86.29549509516565,-159.5353595891669,1526392024
iw,-48.8680191040039,-74.4482192993164,84.95793346416255,-160.11279659243965,1526408691
iw,-50.1695976257324,-71.5892105102539,82.65326122041155,-159.90214681600324,1526425358
iw,-51.3566818237304,-68.5724258422851,80.1833859095661,-158.76942847788368,1526442025
iw,-52.5036811828613,-65.7195053100586,78.37462318774432,-156.71179961210302,1526458692
iw,-53.6773223876953,-63.1122817993164,77.85079328586949,-153.87293608446961,1526475359
iw,-55.0066146850585,-61.1027908325195,78.8688165249069,-150.39725112819536,1526492026
iw,-56.5276565551757,-59.3387184143066,81.26796395219661,-146.1967538233516,1526508693
iw,-58.101203918457,-57.2018737792968,84.53685798688778,-140.77251655927543,1526525360
iw,-59.6580162048339,-55.0257759094238,87.96018107848411,-133.22540656756118,1526542027
iw,-60.9874687194824,-52.9790496826171,90.78878409854654,-122.50545487855226,1526558694
iw,-62.1519012451171,-50.8518753051757,92.38590765531322,-107.83224854217505,1526575361
iw,-63.3301925659179,-48.8757743835449,92.32546906858173,-89.12987809327294,1526592028
iw,-64.4643783569336,-47.4254188537597,90.43803757816737,-67.29560778553333,1526608695
iw,-65.3336486816406,-46.5676002502441,86.80838915760569,-44.168828744458445,1526625362
iw,-65.9392547607421,-46.4800796508789,81.73085148004155,-22.172212797240782,1526642029
iw,-66.3177337646484,-47.0252227783203,75.63332423682327,-3.725154677523922,1526658696
iw,-66.5617370605468,-47.8647880554199,68.98850154324703,9.37160683131677,1526675363
iw,-66.7704849243164,-48.4622344970703,62.235677388861575,16.3604641555219,1526692030
iw,-67.077033996582,-48.3518600463867,55.73371420048708,17.61639109542816,1526708697
iw,-67.5293655395507,-47.9984512329101,49.753727021270535,14.399221795947449,1526725364
iw,-68.0639114379882,-48.1519584655761,44.50067241427093,8.402055686027548,1526742031
iw,-68.6139755249023,-48.2720527648925,40.1346401123215,1.285239048496271,1526758698
iw,-69.1779327392578,-48.0625,36.758524428232214,-5.654197169507355,1526775365
iw,-69.7235870361328,-47.838752746582,34.356266942227826,-11.61445326292112,1526792032
iw,-70.2231750488281,-47.6887550354003,32.69755852203453,-16.234305855115455,1526808699
iw,-70.7140579223632,-47.491397857666,31.253178654608828,-19.40917107751074,1526825366
iw,-71.1911315917968,-47.3613777160644,29.1746090234771,-21.060533527611096,1526842033
iw,-71.5324935913086,-47.3825607299804,25.37688001396255,-20.951287816369394,1526858700
iw,-71.7066116333007,-47.316608428955,18.730087827303585,-18.626612836219277,1526875367
iw,-71.7919311523437,-47.1928939819335,8.32435529605695,-13.518762122175568,1526892034
iw,-71.8401794433593,-46.8990249633789,-6.261564371289548,-5.189688368466359,1526908701
iw,-71.8649597167968,-46.6051750183105,-24.773405296747647,6.382601042883132,1526925368
iw,-71.8982162475586,-46.8101844787597,-46.24690458164311,20.606654279808343,1526942035
iw,-71.9444274902343,-47.6072883605957,-69.14943829586558,36.28071362250977,1526958702
iw,-71.9664001464843,-48.8254280090332,-91.65931872570911,51.82518999307094,1526975369
iw,-72.0024795532226,-50.3940277099609,-111.99895483922437,65.6672504653542,1526992036
iw,-71.8922882080078,-52.0088157653808,-128.73332525632122,76.62930235974373,1527008703
iw,-71.2548217773437,-53.4126777648925,-140.9750528511136,84.1760015171443,1527025370
iw,-69.8675003051757,-54.7561836242675,-148.47303154423093,88.44540174595568,1527042037
iw,-68.1223526000976,-56.1213607788085,-151.58198882150703,90.08591849455945,1527058704
iw,-66.4077987670898,-57.495807647705,-151.1214909067069,89.99110753306556,1527075371
iw,-64.698127746582,-58.9603195190429,-148.1526999488225,89.04092266115322,1527092038
iw,-62.7846984863281,-60.5365829467773,-143.7295227188987,87.92684981824034,1527108705
iw,-60.7190704345703,-62.130500793457,-138.69380644640123,87.08578318049933,1527125372
iw,-58.6236038208007,-63.6606369018554,-133.56307179141047,86.72171771295206,1527142039
iw,-56.5688743591308,-65.1301040649414,-128.51579548001595,86.8724102383008,1527158706
iw,-54.6281394958496,-66.5751266479492,-123.44509473861292,87.48177240430749,1527175373
iw,-52.7498626708984,-68.0554428100586,-118.04614764185851,88.45637107430575,1527192040
iw,-50.9804649353027,-69.5878295898437,-111.91833981765623,89.7009490667787,1527208707
iw,-49.147663116455,-71.1543731689453,-104.67859009170382,91.13528455104876,1527225374
iw,-47.2393150329589,-72.7342681884765,-96.0821665148741,92.69482612417816,1527242041
iw,-45.4634132385253,-74.3039245605468,-86.13189604731318,94.3167994691721,1527258708
iw,-43.9680557250976,-75.8852310180664,-75.14035760240453,95.9158868281009,1527275375
iw,-42.830223083496,-77.4976196289062,-63.710381373725106,97.35801321050137,1527292042
iw,-41.9860954284668,-79.1452941894531,-52.6240663197045,98.4434592081166,1527308709
iw,-41.4148178100585,-80.789794921875,-42.66868924311129,98.90917560227824,1527325376
iw,-41.02193069458,-82.392333984375,-34.45794757474569,98.4557163298332,1527342043
iw,-40.6853599548339,-83.9339523315429,-28.311524158574425,96.79880000489264,1527358710
iw,-40.1315155029296,-85.4784851074218,-24.230727160531583,93.73944201784158,1527375377
iw,-39.5305595397949,-87.0703659057617,-21.963962509871656,89.23803560761615,1527392044
iw,-39.1358642578125,-88.4676208496093,-21.116386550451068,83.46722444222824,1527408711
iw,-38.824836730957,-88.8577346801757,-21.247043813598424,76.81372630918919,1527425378
iw,-38.48579788208,-88.3033828735351,-21.91974199545261,69.81196169853995,1527442045
iw,-38.2691192626953,-87.6083755493164,-22.71196355966763,63.02363090934679,1527458712
iw,-38.0122299194335,-86.7975921630859,-23.212382091838563,56.90893037863371,1527475379
iw,-37.5726814270019,-85.8787384033203,-23.037787371352252,51.74120119912271,1527492046
iw,-37.0485725402832,-84.9604415893554,-21.878023837474874,47.58941955882937,1527508713
iw,-36.6283378601074,-84.041748046875,-19.549173419905458,44.35142565604256,1527525380
iw,-36.3302154541015,-83.2103118896484,-16.02122671840451,41.79500775739303,1527542047
iw,-36.2354621887207,-82.5341796875,-11.398370145711327,39.57008301688202,1527558714
iw,-36.2930335998535,-82.02001953125,-5.859990565567267,37.18696963695871,1527575381
iw,-36.4430618286132,-81.5990295410156,0.402913787746668,33.992119495989634,1527592048
iw,-36.5965766906738,-81.1782913208007,7.217078073874115,29.19065321117977,1527608715
iw,-36.645408630371,-80.7049407958984,14.40621527191717,21.95127786795502,1527625382
iw,-36.6870231628418,-80.2825622558593,21.74232340604981,11.588284373756323,1527642049
iw,-36.6267700195312,-80.1114501953125,28.920306196284685,-2.2309026587524636,1527658716
iw,-37.3421745300293,-80.2390823364257,35.60256491841436,-19.329345938314873,1527675383
iw,-38.7874107360839,-80.662368774414,41.533693528814496,-38.982120091862456,1527692050
iw,-39.8530082702636,-81.5267868041992,46.66231014179045,-60.02272396481314,1527708717
iw,-40.4108276367187,-82.9332885742187,51.18052156070278,-81.06965371196249,1527725384
iw,-40.8821716308593,-84.5745849609375,55.43634495646335,-100.80386304512587,1527742051
iw,-41.7976760864257,-85.9095001220703,59.76035476772155,-118.20733653834137,1527758718
iw,-42.9943122863769,-86.2367248535156,64.3014290065879,-132.68894901114868,1527775385
iw,-44.2573852539062,-85.3838272094726,68.94845818882742,-144.0736419981642,1527792052
iw,-45.2284317016601,-83.691650390625,73.35624168857974,-152.48967572455444,1527808719
iw,-46.2840118408203,-81.5203857421875,77.04934692585437,-158.22250447628085,1527825386
iw,-47.5103607177734,-79.1780776977539,79.56571024918289,-161.59757887988468,1527842053
iw,-48.7781105041503,-76.8620147705078,80.60239223649546,-162.92277471510377,1527858720
iw,-50.0222778320312,-74.4193649291992,80.12336549976476,-162.48982757694682,1527875387
iw,-51.1910362243652,-71.7501983642578,78.39248283208322,-160.61402792183858,1527892054
iw,-52.3496971130371,-68.9099731445312,75.91641901326707,-157.67692523387004,1527908721
iw,-53.5225028991699,-66.1837844848632,73.31573677839019,-154.12622929920676,1527925388
iw,-54.7065887451171,-63.6677932739257,71.16802514884037,-150.39368785851562,1527942055
iw,-55.8995170593261,-61.4696044921875,69.87295523223992,-146.72819784434031,1527958722
iw,-57.1752395629882,-59.5632400512695,69.57609883277101,-142.99841458208215,1527975389
iw,-58.4602470397949,-57.5089149475097,70.16464308771728,-138.56438075106686,1527992056
iw,-59.7037506103515,-55.3822860717773,71.323910067106,-132.31768431418183,1528008723
iw,-60.7441596984863,-53.4738006591796,72.62890456637248,-122.93494079996168,1528025390
iw,-61.6673545837402,-51.4522819519043,73.64449753014564,-109.3024031028069,1528042057
iw,-62.6219329833984,-49.4030532836914,74.0153030207452,-90.9881883348369,1528058724
iw,-63.4509201049804,-47.8622360229492,73.53116827054939,-68.59558985653811,1528075391
iw,-64.0394210815429,-47.0763969421386,72.15440268879199,-43.84700730914803,1528092058
iw,-64.5226135253906,-46.8805847167968,69.99931461178858,-19.327527070423493,1528108725
iw,-64.9289016723632,-47.0896072387695,67.26955814382816,2.0643192141452253,1528125392
iw,-65.3192138671875,-47.8656539916992,64.1773879059133,17.802561994052237,1528142059
iw,-65.7261657714843,-48.9610862731933,60.87828357947542,26.34613140430196,1528158726
iw,-66.1922454833984,-49.7464523315429,57.44824223800229,27.485703637986678,1528175393
iw,-66.7730102539062,-49.5948257446289,53.91204182870259,22.321376041760573,1528192060
iw,-67.4081649780273,-49.3868370056152,50.30598666765948,12.898757446085495,1528208727
iw,-68.0175247192382,-49.5110855102539,46.737522831660826,1.6492054901124507,1528225394
iw,-68.4974594116211,-49.3938102722168,43.39789077011759,-9.175240682951005,1528242061
iw,-68.8223342895507,-48.971622467041,40.50021324183225,-17.92121052730649,1528258728
iw,-69.0796203613281,-48.4931411743164,38.150509467622385,-23.733650528048997,1528275395
iw,-69.3888168334961,-48.1132507324218,36.19711640136946,-26.52747490462208,1528292062
iw,-69.7339096069336,-47.7153053283691,34.12472733891462,-26.76868912395414,1528308729
iw,-70.084602355957,-47.527473449707,31.05116132610804,-25.140482032031922,1528325396
iw,-70.4207687377929,-47.593765258789,25.8523153848776,-22.19990819367227,1528342063
iw,-70.7204971313476,-47.6638069152832,17.398461503159957,-18.139019849659437,1528358730
iw,-71.0343322753906,-47.6555976867675,4.847556341588808,-12.736940484722936,1528375397
iw,-71.3593673706054,-47.4080619812011,-12.082421603631532,-5.5234054656361415,1528392064
iw,-71.6330032348632,-47.1199722290039,-32.94355599729025,3.913023763772122,1528408731
iw,-71.8478851318359,-47.1516647338867,-56.550263114259295,15.608449447471125,1528425398
iw,-72.0048217773437,-47.6752281188964,-81.14809454523653,29.045482801087065,1528442065
iw,-72.1285629272461,-48.7220878601074,-104.71865176399128,43.19792971902555,1528458732
iw,-72.2537765502929,-50.1000061035156,-125.34082537645482,56.77868913429204,1528475399
iw,-72.0406951904296,-51.5117454528808,-141.52239841331496,68.58222165420253,1528492066
iw,-71.1520385742187,-52.8595466613769,-152.4371743085034,77.78482291373724,1528508733
iw,-69.5462799072265,-54.2605094909668,-158.02912767913517,84.10432926168406,1528525400
iw,-67.7185821533203,-55.6855125427246,-158.96506939735943,87.79295351531631,1528542067
iw,-65.9796829223632,-57.1470184326171,-156.4408804727869,89.49972063118102,1528558734
iw,-64.1256561279296,-58.6572265625,-151.8836338773089,90.06834778004635,1528575401
iw,-62.0734710693359,-60.1848220825195,-146.628859731019,90.33398735935869,1528592068
iw,-59.9522857666015,-61.7368240356445,-141.65984567356705,90.96266193021708,1528608735
iw,-57.8053665161132,-63.295597076416,-137.4642641530392,92.35449629982547,1528625402
iw,-55.6861038208007,-64.8703689575195,-134.01544888975164,94.61401473268421,1528642069
iw,-53.6902847290039,-66.5019836425781,-130.85318952477607,97.57969125181799,1528658736
iw,-51.7290649414062,-68.2420501708984,-127.23313478848374,100.89827131564812,1528675403
iw,-49.7063179016113,-70.0281600952148,-122.3210653397036,104.12413406142174,1528692070
iw,-47.5137748718261,-71.8841247558593,-115.40814687096764,106.81993124065053,1528708737
iw,-45.344482421875,-73.7778091430664,-106.10937081000345,108.63468465870731,1528725404
iw,-43.5603904724121,-75.6251144409179,-94.4934077728178,109.34216538841581,1528742071
iw,-42.1237754821777,-77.382209777832,-81.09882698104028,108.83572123611945,1528758738
iw,-41.0468025207519,-79.0662231445312,-66.82572382973368,107.09231064828882,1528775405
iw,-40.2941055297851,-80.7216339111328,-52.73750735210917,104.13168413586276,1528792072
iw,-39.8477745056152,-82.3584365844726,-39.840010407326254,99.99882020954287,1528808739
iw,-39.5519485473632,-83.9415206909179,-28.90859316673152,94.78521402517268,1528825406
iw,-39.0595512390136,-85.4879455566406,-20.407750766478763,88.68138217239441,1528842073
iw,-38.4823036193847,-87.0299453735351,-14.502699197945486,82.02917806975378,1528858740
iw,-38.1309623718261,-88.3296508789062,-11.120007160364004,75.33034724458916,1528875407
iw,-38.0516700744628,-88.937255859375,-10.001174075543254,69.1775078793882,1528892074
iw,-38.1982307434082,-88.8002548217773,-10.720585673656696,64.10867757925548,1528908741
iw,-38.05757522583,-88.3746643066406,-12.686573647188808,60.43467260733487,1528925408
iw,-37.7787208557128,-87.6967544555664,-15.171408125959331,58.12160830349494,1528942075
iw,-37.4482192993164,-86.6485290527343,-17.4007892870554,56.79902358939771,1528958742
iw,-37.0394134521484,-85.2831649780273,-18.691087607850076,55.903375376042085,1528975409
iw,-36.6268043518066,-83.9858474731445,-18.587120993386694,54.88880991377448,1528992076
iw,-36.2714309692382,-82.9134063720703,-16.945801048758618,53.392979006932826,1529008743
iw,-36.019302368164,-82.0780639648437,-13.930623240201259,51.26773871475227,1529025410
iw,-35.9351196289062,-81.4723968505859,-9.916589533560172,48.46141614519379,1529042077
iw,-36.0138969421386,-81.0131912231445,-5.340762634336597,44.82440811765125,1529058744
iw,-36.2408866882324,-80.5367279052734,-0.5565198692099098,39.954903835291724,1529075411
iw,-36.3243522644043,-79.9710083007812,4.252028771265423,33.18445622391961,1529092078
iw,-36.2134399414062,-79.3279418945312,9.06926388792159,23.735178182138778,1529108745
iw,-35.8994369506835,-78.8662643432617,13.982389183667854,10.996657509035101,1529125412
iw,-35.9461860656738,-78.6890640258789,19.108508774708675,-5.188073061269437,1529142079
iw,-36.9302749633789,-78.8170471191406,24.565798357231596,-24.346529725691944,1529158746
iw,-37.9514007568359,-79.3796081542968,30.489366014211807,-45.38853158079601,1529175413
iw,-38.4502487182617,-80.5211410522461,37.04003608413245,-66.8136361653945,1529192080
iw,-38.7515602111816,-82.1703491210937,44.35464213642727,-87.05005740635616,1529208747
iw,-39.4896049499511,-83.966194152832,52.44368069625551,-104.81064904363328,1529225414
iw,-40.7130508422851,-85.4905929565429,61.09818288954286,-119.343543617159,1529242081
iw,-42.0750465393066,-86.27001953125,69.86721614486486,-130.4975949382193,1529258748
iw,-43.1675033569335,-85.9198989868164,78.12015781272743,-138.59988543327353,1529275415
iw,-44.3485832214355,-84.6237106323242,85.16632884824541,-144.21679656405004,1529292082
iw,-45.7055702209472,-82.7973709106445,90.39611658863221,-147.9060482379696,1529308749
iw,-47.1301803588867,-80.7641220092773,93.41402836955913,-150.0541271758769,1529325416
iw,-48.5683479309082,-78.6421813964843,94.1327023210227,-150.84711839402283,1529342083
iw,-49.9953079223632,-76.2674179077148,92.79456308851736,-150.36684659274079,1529358750
iw,-51.277042388916,-73.4992980957031,89.90412243241867,-148.7546066772455,1529375417
iw,-52.4251708984375,-70.7949142456054,86.08992743685158,-146.35197022493418,1529392084
iw,-53.5274810791015,-68.3088073730468,81.94994238199676,-143.72679795802227,1529408751
iw,-54.6921463012695,-66.1779174804687,77.94410744392805,-141.53627300121744,1529425418
iw,-56.0397796630859,-64.3406600952148,74.37364272117398,-140.25878406991413,1529442085
iw,-57.6035079956054,-62.432559967041,71.4385542477409,-139.90402396870513,1529458752
iw,-59.0662956237793,-60.1920661926269,69.31824797085646,-139.83968226317882,1529475419
iw,-60.2294425964355,-57.9321708679199,68.20443335260205,-138.83416364923232,1529492086
iw,-61.0372428894043,-55.7781600952148,68.24564327899608,-135.32899789352672,1529508753
iw,-61.6577835083007,-53.3423881530761,69.42396295366316,-127.86579227340285,1529525420
iw,-62.2627944946289,-51.1573257446289,71.43730710073213,-115.53585926315417,1529542087
iw,-62.9158248901367,-49.332893371582,73.66930704215498,-98.30997107349624,1529558754
iw,-63.6011505126953,-48.0915718078613,75.28928055874131,-77.1417836636241,1529575421
iw,-64.3411102294921,-47.3667068481445,75.46246084340014,-53.81118758749809,1529592088
iw,-65.0439987182617,-46.973388671875,73.59836912216821,-30.556881318786896,1529608755
iw,-65.6616592407226,-47.026798248291,69.54458463055808,-9.607638493312672,1529625422
iw,-66.1442794799804,-47.2764511108398,63.650893984270596,7.25984896288509,1529642089
iw,-66.54248046875,-47.8218345642089,56.67770425757033,19.028423777791104,1529658756
iw,-66.8347778320312,-48.3422355651855,49.58273253672451,25.547921399778456,1529675423
iw,-67.0723724365234,-48.9022560119628,43.26498995074132,27.430145126606885,1529692090
iw,-67.3677215576171,-49.1512260437011,38.35447370347669,25.77315374232225,1529708757
iw,-67.7202987670898,-49.26265335083,35.105999962926425,21.803305613745362,1529725424
iw,-68.0953140258789,-49.4160118103027,33.40274056347629,16.549119901997756,1529742091
iw,-68.4922103881836,-49.4168014526367,32.828809702151375,10.652347498497873,1529758758
iw,-68.9114685058593,-49.4120178222656,32.75538212808041,4.376137403264599,1529775425
iw,-69.3506851196289,-49.473518371582,32.404716181888965,-2.199127005844447,1529792092
iw,-69.7416229248046,-49.7111473083496,30.893618799887204,-8.873473737166558,1529808759
iw,-70.0060882568359,-50.036563873291,27.28813325600876,-15.052042794957494,1529825426
iw,-70.112190246582,-50.2889976501464,20.706331928376137,-19.64153064382244,1529842093
iw,-70.0851058959961,-49.9697875976562,10.480727060933496,-21.213705197005694,1529858760
iw,-69.946060180664,-48.9612274169921,-3.6519505500586487,-18.421657659299925,1529875427
iw,-69.7643203735351,-48.1248397827148,-21.401526125308582,-10.522836505346229,1529892094
iw,-69.6589889526367,-47.8004264831543,-41.88602023971357,2.2192171660764957,1529908761
iw,-69.6445541381836,-48.2337341308593,-63.73791842583648,18.45368797254779,1529925428
iw,-69.6423416137695,-49.42915725708,-85.33220119504546,36.04286447916741,1529942095
iw,-69.7043914794921,-50.9580116271972,-105.06814562898609,52.63089769748127,1529958762
iw,-69.7800521850586,-52.4415283203125,-121.62704057075082,66.25429219665627,1529975429
iw,-69.5865631103515,-53.6204490661621,-134.15232929252247,75.77115122987861,1529992096
iw,-68.8333740234375,-54.7504653930664,-142.33372493914692,80.99180381145631,1530008763
iw,-67.52734375,-56.0435180664062,-146.39933707227038,82.53042001093402,1530025430
iw,-66.017593383789,-57.3705444335937,-147.02704946597544,81.49071667874844,1530042097
iw,-64.4074249267578,-58.6095962524414,-145.19101668854597,79.11817608146555,1530058764
iw,-62.55615234375,-59.8897018432617,-141.96896909880593,76.51647176267309,1530075431
iw,-60.5419654846191,-61.2601165771484,-138.34471478911024,74.47460490334937,1530092098
iw,-58.6035346984863,-62.5979347229003,-135.0388565624554,73.4075970064077,1530108765
iw,-56.725170135498,-63.8377304077148,-132.39172263711444,73.3858070365134,1530125432
iw,-54.8386192321777,-65.0528793334961,-130.31537514297133,74.2183302711348,1530142099
iw,-52.8611145019531,-66.3440475463867,-128.32772367470108,75.56102853501645,1530158766
iw,-50.786506652832,-67.6923904418945,-125.67260521337012,77.0291136644106,1530175433
iw,-48.7252578735351,-69.0471801757812,-121.510137691204,78.2987533426987,1530192100
iw,-46.7047386169433,-70.4139328002929,-115.13858301642695,79.18212596372041,1530208767
iw,-44.70751953125,-71.8194961547851,-106.19440192933203,79.66180030745797,1530225434
iw,-42.9686470031738,-73.1837997436523,-94.7779525882558,79.8768598755974,1530242101
iw,-41.4883956909179,-74.5018692016601,-81.4681813211434,80.06386191712035,1530258768
iw,-40.3290367126464,-75.8191680908203,-67.21753208838958,80.4676891296262,1530275435
iw,-39.6377258300781,-77.1361846923828,-53.15297212484204,81.24712890642957,1530292102
iw,-39.24853515625,-78.45361328125,-40.340922665209746,82.40380599606792,1530308769
iw,-38.9707984924316,-79.7863388061523,-29.589210572860566,83.7586513300466,1530325436
iw,-38.6129264831543,-81.2171630859375,-21.345704329500172,84.98772294651,1530342103
iw,-38.1110572814941,-82.7507858276367,-15.71100167370924,85.7110612049106,1530358770
iw,-37.6505432128906,-84.2669143676757,-12.530765278414682,85.60886804674763,1530375437
iw,-37.4569129943847,-85.7385559082031,-11.503030104757281,84.52628193773025,1530392104
iw,-37.5260925292968,-87.2164611816406,-12.247128819659368,82.52856672176878,1530408771
iw,-37.4789123535156,-88.5915298461914,-14.323849240647355,79.88366070121607,1530425438
iw,-37.1545372009277,-89.3121566772461,-17.235894593697882,76.97344294733256,1530442105
iw,-36.7048263549804,-88.7255859375,-20.443489566126544,74.16150774650528,1530458772
iw,-36.2525253295898,-87.7417221069336,-23.40459966822448,71.66457447258894,1530475439
iw,-35.8461227416992,-86.4755783081054,-25.622273057136805,69.47435784542526,1530492106
iw,-35.4942550659179,-85.046630859375,-26.677380273697803,67.34987882006247,1530508773
iw,-35.1684455871582,-83.7530746459961,-26.241595989462077,64.86043488137953,1530525440
iw,-34.8114318847656,-82.8055725097656,-24.083625448173844,61.437862251781205,1530542107
iw,-34.5352630615234,-82.1470031738281,-20.08575418357361,56.41411801956443,1530558774
iw,-34.3266983032226,-81.5769271850586,-14.275799598151336,49.062592642199284,1530575441
iw,-33.9768753051757,-80.9204177856445,-6.8594920725124355,38.68869171721441,1530592108
iw,-33.5967483520507,-80.2315902709961,1.7784567924933814,24.796370080601328,1530608775
iw,-33.6695365905761,-79.701171875,11.13645144107089,7.299559374536023,1530625442
iw,-34.6863670349121,-79.5135269165039,20.724292269767385,-13.308810218793225,1530642109
iw,-35.746841430664,-79.9240951538086,30.20900136644105,-35.92929709954015,1530658776
iw,-36.2651290893554,-81.0186920166015,39.4937636742483,-59.02112162101522,1530675443
iw,-36.6581916809082,-82.6484375,48.669833726620695,-80.92537669923375,1530692110
iw,-37.3782348632812,-84.420654296875,57.860243039221274,-100.23386484090398,1530708777
iw,-38.6339073181152,-85.9121856689453,67.04429639399353,-116.0654611357222,1530725444
iw,-40.0707359313964,-86.6024703979492,75.9559506945456,-128.15412743058164,1530742111
iw,-41.3627243041992,-86.1569747924804,84.09540256112803,-136.73952336920732,1530758778
iw,-42.6415672302246,-84.8232040405273,90.83562757778829,-142.33421057632887,1530775445
iw,-44.0081558227539,-82.8491973876953,95.58047637108885,-145.47888372821157,1530792112
iw,-45.600528717041,-80.7091903686523,97.93042813783593,-146.57945238320374,1530808779
iw,-47.2247085571289,-78.6563873291015,97.81372335615028,-145.87017310647738,1530825446
iw,-48.7365226745605,-76.4653396606445,95.54126022496845,-143.49587427629237,1530842113
iw,-50.1103858947753,-73.9638977050781,91.75714538885207,-139.66667485113754,1530858780
iw,-51.3592109680175,-71.2960891723632,87.28890466154644,-134.80882390602005,1530875447
iw,-52.5361824035644,-68.9732666015625,82.93914613169243,-129.62239372068086,1530892114
iw,-53.6417160034179,-67.0809783935546,79.28459938794707,-124.98142500555083,1530908781
iw,-54.7778930664062,-65.5343933105468,76.54826745364207,-121.6818236670712,1530925448
iw,-56.1277618408203,-63.9418830871582,74.58651285169775,-120.12602594371884,1530942115
iw,-57.5526962280273,-62.0555877685546,72.99301683926736,-120.07922197766223,1530958782
iw,-58.9879035949707,-60.0704231262207,71.27947988134088,-120.61001756859909,1530975449
iw,-60.2869796752929,-58.1559181213378,69.06645179376214,-120.25500709480872,1530992116
iw,-61.2983474731445,-56.2126884460449,66.21920145305465,-117.36539644337746,1531008783
iw,-62.0891609191894,-54.153263092041,62.89068261517228,-110.53822622887154,1531025450
iw,-62.8080177307128,-52.2599296569824,59.4707613712244,-99.01295884487668,1531042117
iw,-63.461139678955,-50.7828140258789,56.469812949550246,-82.9230792028248,1531058784
iw,-63.9916343688964,-49.8502197265625,54.376101859868385,-63.331456506534806,1531075451
iw,-64.4542999267578,-49.321231842041,53.52307182604729,-42.041709868919725,1531092118
iw,-64.8831100463867,-49.1314239501953,53.9940311058092,-21.24374371567249,1531108785
iw,-65.2906112670898,-49.1770629882812,55.58345693497457,-3.09204292506168,1531125452
iw,-65.7651824951171,-49.4062042236328,57.82554091040093,10.682378852394613,1531142119
iw,-66.3861999511718,-49.7642211914062,60.088479718449726,19.051560641878766,1531158786
iw,-67.1629104614257,-50.2841186523437,61.71645258917216,21.821362150306722,1531175453
iw,-68.0025482177734,-50.7740859985351,62.18433099156545,19.602077783818764,1531192120
iw,-68.7458038330078,-51.1365356445312,61.22157723250922,13.630564869169504,1531208787
iw,-69.2721862792968,-51.0170249938964,58.86891054214204,5.480054229381241,1531225454
iw,-69.6744842529296,-50.8303756713867,55.45282150044162,-3.2781267844663815,1531242121
iw,-70.0272216796875,-50.6741752624511,51.4877965968121,-11.377162552575484,1531258788
iw,-70.3528518676757,-50.3758888244628,47.53198070592309,-18.044114098157163,1531275455
iw,-70.6357803344726,-49.9615783691406,44.02619915613328,-23.03267674101838,1531292122
iw,-70.9183807373046,-49.4901390075683,41.145863034953074,-26.501439507674622,1531308789
iw,-71.2404251098632,-49.1364440917968,38.696893767699684,-28.779231375680347,1531325456
iw,-71.640869140625,-48.937156677246,36.08809608191194,-30.08877561579879,1531342123
iw,-72.0821838378906,-48.969482421875,32.4045929356335,-30.32004943727421,1531358790
iw,-72.4769515991211,-48.7841911315918,26.584379947754048,-28.945763366426338,1531375457
iw,-72.8030166625976,-48.4064407348632,17.66740919734391,-25.136979342798185,1531392124
iw,-72.9907455444336,-47.8652915954589,5.05692309512776,-18.06394113608727,1531408791
iw,-73.0407562255859,-47.4070396423339,-11.280853888636374,-7.280907014049076,1531425458
iw,-73.0812454223632,-47.2699966430664,-30.742557415439077,6.960569627095307,1531442125
iw,-73.1679000854492,-47.7449569702148,-52.16816093423927,23.61179271011009,1531458792
iw,-73.1820526123046,-48.6818046569824,-74.05376417290474,41.00019504696795,1531475459
iw,-73.0495834350586,-50.0484390258789,-94.82789071187592,57.2225570546933,1531492126
iw,-72.8493728637695,-51.6866645812988,-113.10780860990283,70.616099574758,1531508793
iw,-72.5608367919921,-53.2215499877929,-127.87896665367045,80.14121001834636,1531525460
iw,-72.0406112670898,-54.5883445739746,-138.58668511780175,85.55675198800682,1531542127
iw,-70.973518371582,-55.9628181457519,-145.15873322465742,87.35928592580173,1531558794
iw,-69.4410552978515,-57.3789939880371,-147.97425443603993,86.5447800472189,1531575461
iw,-67.7863616943359,-58.717845916748,-147.77628901682797,84.29763106128435,1531592128
iw,-66.0855102539062,-60.0526618957519,-145.52225824810972,81.70812240694859,1531608795
iw,-64.332649230957,-61.4750213623046,-142.1898826131286,79.58303956092864,1531625462
iw,-62.5176429748535,-62.9231338500976,-138.585455323299,78.36867215459363,1531642129
iw,-60.5694274902343,-64.2922744750976,-135.20837302332745,78.16807266835723,1531658796
iw,-58.522045135498,-65.6140365600586,-132.20181031816975,78.81532390078691,1531675463
iw,-56.5056915283203,-66.9651641845703,-129.38304269013645,79.97070111459985,1531692130
iw,-54.5621376037597,-68.3492584228515,-126.32473583565682,81.21398099773563,1531708797
iw,-52.5645065307617,-69.7130889892578,-122.46148561053494,82.12673459744269,1531725464
iw,-50.4270439147949,-71.0597839355468,-117.21210802886799,82.36179274000071,1531742131
iw,-48.2591323852539,-72.4360809326171,-110.11614263058058,81.69967239898527,1531758798
iw,-46.1300888061523,-73.8017959594726,-100.97217886805214,80.08966854021526,1531775465
iw,-44.2458724975585,-75.1534576416015,-89.9448976656038,77.66909200218666,1531792132
iw,-42.7493362426757,-76.4581832885742,-77.59673385152458,74.7508992621863,1531808799
iw,-41.6487426757812,-77.6982955932617,-64.81345335522451,71.7722733318543,1531825466
iw,-40.8797454833984,-78.819107055664,-52.62945071025157,69.20687908998639,1531842133
iw,-40.3244934082031,-79.8599395751953,-42.000404689236206,67.45861269180713,1531858800
iw,-39.8930130004882,-80.9340438842773,-33.59482445911033,66.76690886085414,1531875467
iw,-39.4464149475097,-82.0764770507812,-27.668929865839694,67.15437302844444,1531892134
iw,-39.0202751159668,-83.2908020019531,-24.056092321525423,68.43346471643002,1531908801
iw,-38.5889663696289,-84.5680465698242,-22.26056382441159,70.26644107071795,1531925468
iw,-38.1908378601074,-85.8304061889648,-21.614538547301454,72.25400758988307,1531942135
iw,-37.8155517578125,-87.0729675292968,-21.447648073067555,74.022489041198,1531958802
iw,-37.3759956359863,-88.3639831542968,-21.226298791077667,75.28709002047489,1531975469
iw,-37.0366706848144,-89.4717712402343,-20.63708150665944,75.88252924592864,1531992136
iw,-36.6513671875,-88.9797134399414,-19.605172603282757,75.76381785011846,1532008803
iw,-36.2967262268066,-87.7852096557617,-18.251883770503323,74.98521114903222,1532025470
iw,-36.1293411254882,-86.4007110595703,-16.805872483643885,73.66349422322143,1532042137
iw,-35.9163284301757,-84.9802703857421,-15.491017910470877,71.92418482422953,1532058804
iw,-35.6688385009765,-83.7546463012695,-14.419414090753849,69.82349625194196,1532075471
iw,-35.4889411926269,-82.7005310058593,-13.517414297406699,67.24691005824083,1532092138
iw,-35.3803405761718,-81.7926635742187,-12.505602307691468,63.810062374010585,1532108805
iw,-35.2834548950195,-81.0566864013671,-10.942782036688284,58.81454738970429,1532125472
iw,-35.2419815063476,-80.3264694213867,-8.33058313707496,51.31658296866098,1532142139
iw,-34.942268371582,-79.487075805664,-4.256452169130947,40.33572956435999,1532158806
iw,-34.5905303955078,-78.6718444824218,1.470086305235969,25.169758368713197,1532175473
iw,-34.3290100097656,-78.1628723144531,8.746676636608118,5.717073952977013,1532192140
iw,-34.9432830810546,-78.0942153930664,17.21514035713895,-17.323480589761456,1532208807
iw,-36.0754661560058,-78.634033203125,26.3945259639142,-42.47912520289482,1532225474
iw,-36.9070320129394,-79.8613128662109,35.83591169137583,-67.77981056164592,1532242141
iw,-37.2814598083496,-81.68994140625,45.20712043501213,-91.20876828658825,1532258808
iw,-37.8284378051757,-83.6848449707031,54.26834771377599,-111.17475101461972,1532275475
iw,-38.8045539855957,-85.2464294433593,62.78199436127617,-126.83888278219216,1532292142
iw,-40.2287712097168,-85.8651657104492,70.4402924387981,-138.18705025517536,1532308809
iw,-41.5670700073242,-85.4953689575195,76.86583841514108,-145.84525865788174,1532325476
iw,-42.7011909484863,-84.2569351196289,81.68247546920122,-150.736953739846,1532342143
iw,-43.8672866821289,-82.3257064819336,84.6197354149635,-153.72745282468586,1532358810
iw,-45.1128959655761,-80.2535552978515,85.6143052649416,-155.37866304645945,1532375477
iw,-46.5223007202148,-78.1523132324218,84.88191737272795,-155.87608356744676,1532392144
iw,-47.9432411193847,-75.7888717651367,82.93487520588214,-155.12702068797984,1532408811
iw,-49.2486114501953,-73.1160888671875,80.52268739956567,-152.97801498996336,1532425478
iw,-50.4657821655273,-70.2143402099609,78.49139301459185,-149.45797122272631,1532442145
iw,-51.6589279174804,-67.5034103393554,77.58958105232585,-144.93057554913148,1532458812
iw,-52.8536033630371,-65.2151870727539,78.27749641641498,-140.06057531577534,1532475479
iw,-54.134780883789,-63.421775817871,80.6020679804055,-135.57526601167066,1532492146
iw,-55.5824928283691,-61.8390235900878,84.18068308140622,-131.90757878545062,1532508813
iw,-57.1734504699707,-60.043285369873,88.29897661392404,-128.883414412603,1532525480
iw,-58.829288482666,-58.0998992919921,92.08875819260722,-125.61578575228367,1532542147
iw,-60.3209533691406,-56.2738571166992,94.72784450559433,-120.68840689190215,1532558814
iw,-61.6441535949707,-54.0643424987793,95.60353177312338,-112.59195540707861,1532575481
iw,-62.7632026672363,-51.8980293273925,94.40279863781205,-100.27064449786441,1532592148
iw,-63.6490097045898,-50.1915740966796,91.1220300356342,-83.58434634398802,1532608815
iw,-64.2517852783203,-49.0930404663085,86.01371234582484,-63.51181027370437,1532625482
iw,-64.6525192260742,-48.47021484375,79.50052410233,-42.009316211557504,1532642149
iw,-65.0639419555664,-48.3671531677246,72.08727155332956,-21.5620794734432,1532658816
iw,-65.478042602539,-48.7676734924316,64.28961259729634,-4.571869403642255,1532675483
iw,-65.8030014038086,-49.3102493286132,56.58215064356859,7.22512992894323,1532692150
iw,-66.045051574707,-49.8447265625,49.35932822638134,13.134111127693682,1532708817
iw,-66.3540802001953,-49.7692031860351,42.90708277234294,13.573070314850824,1532725484
iw,-66.7974243164062,-49.5325813293457,37.392224554788065,9.852370613965988,1532742151
iw,-67.1866149902343,-49.6755256652832,32.87485903489074,3.7711084860482407,1532758818
iw,-67.48876953125,-49.8818931579589,29.336188124089002,-2.8245316664079207,1532775485
iw,-67.8138580322265,-49.779369354248,26.70428736738178,-8.40621490621292,1532792152
iw,-68.2260208129882,-49.475730895996,24.8637078221517,-11.995043756802632,1532808819
iw,-68.7758407592773,-49.2408180236816,23.645033441485303,-13.244322693278502,1532825486
iw,-69.3778686523437,-49.1383628845214,22.797749745226884,-12.37594703640286,1532842153
iw,-69.9290618896484,-49.1140098571777,21.95322986278095,-9.9898411772123,1532858820
iw,-70.3609848022461,-49.1713600158691,20.590684984626666,-6.793582116432339,1532875487
iw,-70.6556701660156,-49.4603042602539,18.029113675172585,-3.3265582222653434,1532892154
iw,-70.8436508178711,-49.8663902282714,13.473615980019675,0.236694187759992,1532908821
iw,-70.985855102539,-50.1646003723144,6.133150361595434,4.134857770075439,1532925488
iw,-71.149673461914,-50.339988708496,-4.602170306581959,8.894343511171133,1532942155
iw,-71.3684616088867,-50.4453582763671,-18.969115610858513,15.068704828665464,1532958822
iw,-71.6452255249023,-50.5877151489257,-36.687604138021925,22.943180149085713,1532975489
iw,-71.9654998779296,-51.0841064453125,-56.919969853241426,32.3297625277058,1532992156
iw,-72.2745971679687,-52.0227699279785,-78.35638429351205,42.545824272412,1533008823
iw,-72.565559387207,-53.3197860717773,-99.40944504924478,52.589121253429816,1533025490
iw,-72.767219543457,-54.7328796386718,-118.47155734099452,61.433909314449785,1533042157
iw,-72.4716415405273,-56.0531349182128,-134.1803573171081,68.32450702241539,1533058824
iw,-71.4453201293945,-57.2462730407714,-145.64302523626208,72.95792798662404,1533075491
iw,-69.7432250976562,-58.431468963623,-152.57623013094883,75.51047833007163,1533092158
iw,-67.8018646240234,-59.7304496765136,-155.32425779522245,76.53241560867613,1533108825
iw,-65.9479675292968,-61.062744140625,-154.73804082837106,76.77313131016167,1533125492
iw,-64.0007553100586,-62.4053230285644,-151.93917395767497,76.99846207982587,1533142159
iw,-61.8795547485351,-63.7696800231933,-148.03717227696447,77.83880516016384,1533158826
iw,-59.7157173156738,-65.151985168457,-143.8844930421118,79.68365318791804,1533175493
iw,-57.5048179626464,-66.5113372802734,-139.93028408477622,82.62566891779532,1533192160
iw,-55.3121643066406,-67.9170150756836,-136.18973936113102,86.4543152789175,1533208827
iw,-53.253807067871,-69.4470520019531,-132.3116065410286,90.6990272820758,1533225494
iw,-51.2446098327636,-71.0701522827148,-127.71556483390418,94.71897174424447,1533242161
iw,-49.174949645996,-72.716796875,-121.77413835578471,97.82870486752311,1533258828
iw,-46.9803657531738,-74.4076309204101,-114.01208134691409,99.43975945590996,1533275495
iw,-44.7517471313476,-76.1280670166015,-104.28263135269789,99.19188535083335,1533292162
iw,-42.8139495849609,-77.835952758789,-92.86668209255981,97.04588662993802,1533308829
iw,-41.3410949707031,-79.5453948974609,-80.4481977890511,93.31253471778871,1533325496
iw,-40.2909431457519,-81.1475830078125,-67.9564788088562,88.60047537439833,1533342163
iw,-39.6484718322753,-82.5079727172851,-56.32055089838354,83.6833546664252,1533358830
iw,-39.2230796813964,-83.6923675537109,-46.22478557132034,79.31195692519586,1533375497
iw,-38.816909790039,-84.8457336425781,-37.96163946094449,76.02220385137527,1533392164
iw,-38.099609375,-86.0475006103515,-31.437788881689965,73.99979063655134,1533408831
iw,-37.1492500305175,-87.2619018554687,-26.3183296537954,73.04740221559061,1533425498
iw,-36.6655578613281,-88.4976730346679,-22.22685105350611,72.66571844482881,1533442165
iw,-36.5475883483886,-89.4803619384765,-18.898940432602448,72.22098802467625,1533458832
iw,-36.4043884277343,-88.7343673706054,-16.22690897066528,71.1453694990648,1533475499
iw,-36.141975402832,-87.5446548461914,-14.202367886112889,69.10837555131472,1533492166
iw,-36.0218849182128,-86.2737426757812,-12.811043312615773,66.10713934996762,1533508833
iw,-35.8953323364257,-85.1061096191406,-11.939447945641872,62.44474017840371,1533525500
iw,-35.6622047424316,-84.1772232055664,-11.330725964852608,58.595589545039914,1533542167
iw,-35.4336814880371,-83.4111709594726,-10.599603308674258,54.99183848986393,1533558834
iw,-35.2271537780761,-82.6687240600586,-9.29490707767877,51.79641461070744,1533575501
iw,-35.1066055297851,-81.9261016845703,-6.986755214620754,48.74166108390846,1533592168
iw,-35.0928153991699,-81.2090911865234,-3.3557703163356063,45.097298100761485,1533608835
iw,-35.0949478149414,-80.5139465332031,1.7310807544547804,39.79225343248807,1533625502
iw,-35.2449569702148,-79.8746948242187,8.16839060626974,31.6675911817723,1533642169
iw,-35.2757148742675,-79.3705673217773,15.597236082505384,19.79748947170266,1533658836
iw,-35.2844886779785,-79.0631790161132,23.447606465666443,3.791100909324762,1533675503
iw,-35.4598808288574,-79.0828323364257,31.057237438943687,-16.01479290215141,1533692170
iw,-36.5510940551757,-79.4715423583984,37.859697592627505,-38.54124689892018,1533708837
iw,-38.102180480957,-80.3941421508789,43.583592070813864,-62.15488818671095,1533725504
iw,-39.0818405151367,-81.9728317260742,48.36226621043027,-85.02055555428767,1533742171
iw,-39.214744567871,-83.9812240600586,52.67168058595353,-105.5194263660951,1533758838
iw,-39.6596908569335,-85.7947158813476,57.105880576788,-122.59656064669137,1533775505
iw,-40.8181686401367,-86.6597671508789,62.10112090572755,-135.91686874050026,1533792172
iw,-42.0710220336914,-86.3037719726562,67.74521756398906,-145.78126602587147,1533808839
iw,-43.2546920776367,-85.0318603515625,73.743218350455,-152.85504707792774,1533825506
iw,-44.3928985595703,-82.9877090454101,79.52128063761006,-157.83480301976215,1533842173
iw,-45.6298637390136,-80.765754699707,84.40440585630779,-161.19026629689247,1533858840
iw,-46.9883613586425,-78.3651428222656,87.80555182568092,-163.06784215818777,1533875507
iw,-48.3984146118164,-75.6193695068359,89.38137126290245,-163.36780555971802,1533892174
iw,-49.79052734375,-72.5860366821289,89.12364182939444,-161.93850107777405,1533908841
iw,-51.2059135437011,-69.705322265625,87.36837411218194,-158.78567998629308,1533925508
iw,-52.6132888793945,-67.0755157470703,84.72233880074259,-154.1882772610922,1533942175
iw,-54.030460357666,-64.7656555175781,81.92563459407256,-148.65370364954842,1533958842
iw,-55.3881034851074,-62.6865615844726,79.6817323536374,-142.72278035900933,1533975509
iw,-56.6859664916992,-60.6811714172363,78.49123936197866,-136.7089134040797,1533992176
iw,-57.8953971862793,-58.6560668945312,78.52530038899627,-130.49096515769537,1534008843
iw,-59.0816688537597,-56.9448776245117,79.57044379287419,-123.46195388151267,1534025510
iw,-60.2200584411621,-55.1137809753418,81.06587028898642,-114.6787350032046,1534042177
iw,-61.2816123962402,-53.050048828125,82.23384703935466,-103.18336026067078,1534058844
iw,-62.2652740478515,-51.208885192871,82.27722751436306,-88.39676909950254,1534075511
iw,-63.2358512878418,-49.8433952331543,80.59437307065173,-70.44484905426032,1534092178
iw,-64.1214981079101,-49.0137939453125,76.95037413841165,-50.290041249697694,1534108845
iw,-64.8332443237304,-48.6384048461914,71.54990457521475,-29.610337512240736,1534125512
iw,-65.335823059082,-48.7093772888183,64.98245608337965,-10.45978618283607,1534142179
iw,-65.5898056030273,-48.9888114929199,58.05117250659439,5.183522902595329,1534158846
iw,-65.7096099853515,-49.3804016113281,51.54021171708565,15.85052328598154,1534175513
iw,-65.906379699707,-49.9054794311523,46.00341819121032,20.88373332741415,1534192180
iw,-66.2450866699218,-50.2267990112304,41.65157118664272,20.545665317228597,1534208847
iw,-66.6399002075195,-50.4736213684082,38.37428329177015,15.924709306490525,1534225514
iw,-67.0470733642578,-50.7284851074218,35.874806748239834,8.676647547581142,1534242181
iw,-67.4514694213867,-50.717414855957,33.85064639108848,0.6687203492011558,1534258848
iw,-67.8415756225586,-50.5428276062011,32.13941349344759,-6.396364180252045,1534275515
iw,-68.2201232910156,-50.2707939147949,30.768898352882747,-11.301020918081592,1534292182
iw,-68.5794982910156,-49.9804878234863,29.891451706803423,-13.512622070365277,1534308849
iw,-68.9142913818359,-49.6938400268554,29.629369211763024,-13.217320267184387,1534325516
iw,-69.2248916625976,-49.4698371887207,29.893660766109498,-11.174989286572403,1534342183
iw,-69.4987869262695,-49.3956680297851,30.250878855991473,-8.424003335111413,1534358850
iw,-69.747573852539,-49.5811157226562,29.89758362269101,-5.908013167525973,1534375517
iw,-69.9376220703125,-50.037483215332,27.76552960801978,-4.1317225962796655,1534392184
iw,-70.1153335571289,-50.4469375610351,22.736233452490765,-2.9631724320217874,1534408851
iw,-70.307014465332,-50.4274253845214,13.906777155737748,-1.668068046036538,1534425518
iw,-70.4986419677734,-50.230411529541,0.8312204616107507,0.8173395851945885,1534442185
iw,-70.661506652832,-50.0590171813964,-16.331568648567643,5.468016088199663,1534458852
iw,-70.7683029174804,-49.9537620544433,-36.804704886186755,12.769743546160193,1534475519
iw,-70.7916183471679,-50.0845298767089,-59.313822231354195,22.499539510413186,1534492186
iw,-70.7954559326171,-50.983283996582,-82.2989096245233,33.77600840526277,1534508853
iw,-70.888916015625,-52.4235610961914,-104.15213471219626,45.35293663880117,1534525520
iw,-70.9924240112304,-53.8642578125,-123.42454946349213,56.02354271268953,1534542187
iw,-70.8234405517578,-55.0250244140625,-138.97686574085043,64.96108138813027,1534558854
iw,-70.0617370605468,-55.9617004394531,-150.08051982773713,71.86982211123998,1534575521
iw,-68.5562286376953,-57.0167083740234,-156.4818623511155,76.92845577480661,1534592188
iw,-66.5916748046875,-58.3253479003906,-158.42443033578348,80.60536196847511,1534608855
iw,-64.6401901245117,-59.7656707763671,-156.60534054830163,83.45727020977274,1534625522
iw,-62.7793502807617,-61.263874053955,-152.04803479996377,85.9895923504457,1534642189
iw,-60.953758239746,-62.8232345581054,-145.90790299481654,88.59840966754143,1534658856
iw,-59.1259574890136,-64.4813766479492,-139.2632281032089,91.5695892771986,1534675523
iw,-57.2056503295898,-66.2131652832031,-132.94985632614964,95.09344514887525,1534692190
iw,-55.2258491516113,-67.9442977905273,-127.46895460541252,99.25917596737956,1534708857
iw,-53.2007522583007,-69.6573257446289,-122.95906934246938,104.01407513040049,1534725524
iw,-51.5693206787109,-71.3554077148437,-119.208168691812,109.10060256860065,1534742191
iw,-50.1178550720214,-73.130126953125,-115.69791008993137,114.0090076978052,1534758858
iw,-48.1185646057128,-75.0283966064453,-111.69883950510327,117.99138881500504,1534775525
iw,-45.7888984680175,-77.0173645019531,-106.43520709814844,120.16733412310633,1534792192
iw,-43.6126747131347,-79.159194946289,-99.29823401450133,119.71564144360886,1534808859
iw,-41.8198814392089,-81.3666458129882,-90.0379946109914,116.10578761943323,1534825526
iw,-40.5234298706054,-83.3051376342773,-78.85423228205394,109.29585448210194,1534842193
iw,-39.6335716247558,-84.8943939208984,-66.350152938433,99.82531350101046,1534858860
iw,-39.0032157897949,-86.3386840820312,-53.379287166566115,88.76268668266668,1534875527
iw,-38.4831047058105,-87.5905151367187,-40.8580926854351,77.5140305626067,1534892194
iw,-37.7325820922851,-88.4641799926757,-29.611927112884516,67.53735294221026,1534908861
iw,-37.0700950622558,-89.0108795166015,-20.280169061922813,60.03049386572196,1534925528
iw,-36.9200019836425,-88.9879913330078,-13.2634737818881,55.66749548560046,1534942195
iw,-37.07661819458,-88.4711990356445,-8.686300626257008,54.451800516614284,1534958862
iw,-37.0038032531738,-87.6130447387695,-6.372800613036501,55.7293632458401,1534975529
iw,-36.8769912719726,-86.4565734863281,-5.860875804551479,58.36052372423117,1534992196
iw,-36.7539863586425,-85.1349029541015,-6.475776359555581,60.99756979752986,1535008863
iw,-36.5269508361816,-83.7985687255859,-7.4543999341965606,62.376547466655424,1535025530
iw,-36.3599166870117,-82.615608215332,-8.083322889464444,61.528292648767376,1535042197
iw,-36.2049369812011,-81.6967163085937,-7.80779776204781,57.85190101801818,1535058864
iw,-36.0706748962402,-81.0409240722656,-6.284323542104911,51.05841387729749,1535075531
iw,-36.2051811218261,-80.5598983764648,-3.3741840127953826,41.05141560416428,1535092198
iw,-36.453067779541,-80.1951675415039,0.902557971973857,27.833888826513487,1535108865
iw,-36.3354454040527,-79.9380569458007,6.424451781484026,11.505481662521587,1535125532
iw,-36.1042251586914,-79.8678512573242,13.01933580583119,-7.644785981460959,1535142199
iw,-36.5883598327636,-80.0252456665039,20.507934558265337,-29.007513915629975,1535158866
iw,-37.7828865051269,-80.4629440307617,28.740782753913887,-51.57471639136917,1535175533
iw,-38.6570472717285,-81.4856719970703,37.607205280010234,-73.99338346143234,1535192200
iw,-38.8198165893554,-83.0748825073242,46.986315129009796,-94.77317862640697,1535208867
iw,-39.1913223266601,-84.7626190185546,56.64857867077272,-112.59272065168099,1535225534
iw,-40.4118156433105,-85.8408432006836,66.17515582415193,-126.58955516237886,1535242201
iw,-42.0434951782226,-85.5913162231445,74.97156483045106,-136.5153511022879,1535258868
iw,-43.687442779541,-84.3765335083007,82.3895331783897,-142.696852984355,1535275535
iw,-45.0109748840332,-82.6808547973632,87.89415111760682,-145.83129107328386,1535292202
iw,-46.1746559143066,-80.6860809326171,91.19250580601903,-146.7116465145724,1535308869
iw,-47.3865737915039,-78.6514282226562,92.28092402707998,-145.99167762332465,1535325536
iw,-48.7993545532226,-76.7664947509765,91.42060745598272,-144.06947166292431,1535342203
iw,-50.2023773193359,-74.7269592285156,89.07215602188616,-141.1177511534186,1535358870
iw,-51.508316040039,-72.2382202148437,85.80902453784603,-137.2359681679867,1535375537
iw,-52.717960357666,-69.4653167724609,82.21690756181727,-132.64731218986992,1535392204
iw,-53.90087890625,-67.0359344482421,78.78915803162994,-127.8278242630219,1535408871
iw,-55.1019058227539,-65.090347290039,75.84128918929963,-123.4672225959155,1535425538
iw,-56.3833503723144,-63.6980781555175,73.47287327143759,-120.2386795132562,1535442205
iw,-57.7968482971191,-62.3550796508789,71.59310599039155,-118.46456560084204,1535458872
iw,-59.2596435546875,-60.5478858947753,70.0012070306101,-117.83806851389727,1535475539
iw,-60.6519584655761,-58.4723358154296,68.48817114720403,-117.34663902683108,1535492206
iw,-61.7564888000488,-56.6313591003418,66.91705852906216,-115.45324668414433,1535508873
iw,-62.5894622802734,-54.8315391540527,65.25209448318428,-110.48451424828247,1535525540
iw,-63.2787322998046,-52.8675422668457,63.53489389713283,-101.10510776051802,1535542207
iw,-63.9056053161621,-51.1616706848144,61.831148857118116,-86.7388282482539,1535558874
iw,-64.4692687988281,-50.0091819763183,60.178893817567506,-67.81665818456291,1535575541
iw,-64.96484375,-49.4083442687988,58.56003347352568,-45.78133140860324,1535592208
iw,-65.4224472045898,-49.1784439086914,56.90059639329386,-22.84747955544479,1535608875
iw,-65.8699798583984,-49.1994857788085,55.092004553374665,-1.5825095276286216,1535625542
iw,-66.3081741333007,-49.4814758300781,53.019828935956404,15.589666609324745,1535642209
iw,-66.7538223266601,-50.082664489746,50.588448355861736,26.856704535603846,1535658876
iw,-67.2517471313476,-50.8463325500488,47.73724422383613,31.367222185996603,1535675543
iw,-67.7674102783203,-51.5944023132324,44.4510017058378,29.39059986339554,1535692210
iw,-68.187515258789,-52.3657073974609,40.769338913599356,22.243423393645905,1535708877
iw,-68.5150375366211,-52.2257575988769,36.797608049904746,11.984414794864671,1535725544
iw,-68.8224105834961,-51.8755187988281,32.71793721425732,0.9434734974770931,1535742211
iw,-69.1500244140625,-51.6877250671386,28.794695055566674,-8.791338783999674,1535758878
iw,-69.481948852539,-51.5101165771484,25.363511396814005,-15.788687931033426,1535775545
iw,-69.7940597534179,-51.223949432373,22.79059419084121,-19.490590817595102,1535792212
iw,-70.1326293945312,-50.8535652160644,21.3946837795427,-20.200182426293253,1535808879
iw,-70.5009460449218,-50.4809417724609,21.338231114527026,-18.868290486386424,1535825546
iw,-70.9256591796875,-50.2611961364746,22.511631570483928,-16.739030711402734,1535842213
iw,-71.3905258178711,-50.2463760375976,24.446524284149376,-14.934727647478384,1535858880
iw,-71.7572326660156,-50.4984741210937,26.2954863394182,-14.079560926708595,1535875547
iw,-72.0142364501953,-50.66845703125,26.90464199346251,-14.070571422031684,1535892214
iw,-72.2878494262695,-50.6111984252929,24.984722028726825,-14.082451753701932,1535908881
iw,-72.5740890502929,-50.297134399414,19.35791172518689,-12.826833637446924,1535925548
iw,-72.8127212524414,-49.7931175231933,9.228091500152965,-8.993733475641909,1535942215
iw,-72.9747924804687,-49.6718406677246,-5.597635397723316,-1.7248240737120653,1535958882
iw,-73.0141372680664,-49.6983184814453,-24.60439604014348,9.05206014655809,1535975549
iw,-72.9291534423828,-49.9819984436035,-46.618256475437036,22.547153712933213,1535992216
iw,-72.8151168823242,-51.099983215332,-69.99566098759583,37.31337489338708,1536008883
iw,-72.7446060180664,-52.5495071411132,-92.8985595848245,51.64853544956686,1536025550
iw,-72.7296981811523,-53.877098083496,-113.58484710527055,64.04324590296993,1536042217
iw,-72.6079711914062,-55.0276756286621,-130.65875765464793,73.51920861268874,1536058884
iw,-71.9739761352539,-56.2474403381347,-143.2528560099675,79.76632701447105,1536075551
iw,-70.4251403808593,-57.7173995971679,-151.1281317669885,83.0787921704198,1536092218
iw,-68.4335403442382,-59.164924621582,-154.67570515108596,84.1566288258832,1536108885
iw,-66.637825012207,-60.4942893981933,-154.80307159044335,83.85714778467536,1536125552
iw,-64.7225875854492,-61.8335037231445,-152.71259780489362,82.96653118641558,1536142219
iw,-62.6290168762207,-63.2329139709472,-149.62260574331836,82.03923161752763,1536158886
iw,-60.4516334533691,-64.6443710327148,-146.50639549451657,81.32984847176019,1536175553
iw,-58.3183822631835,-66.0302352905273,-143.91081594273558,80.81772568571354,1536192220
iw,-56.1844100952148,-67.4342193603515,-141.8805094668309,80.302422477152,1536208887
iw,-54.0908432006835,-68.8425521850586,-139.98617177959426,79.534924810317,1536225554
iw,-51.9038772583007,-70.2064208984375,-137.44430771649806,78.34686687915813,1536242221
iw,-49.6968765258789,-71.5066986083984,-133.31130110578255,76.74563031862672,1536258888
iw,-47.4954299926757,-72.8232040405273,-126.72444326760476,74.95372096085066,1536275555
iw,-45.1496772766113,-74.1515960693359,-117.1456092863316,73.38312523189045,1536292222
iw,-42.9788284301757,-75.4041137695312,-104.54823236636543,72.54723097865404,1536308889
iw,-41.2853813171386,-76.6316604614257,-89.48830489289767,72.92488547601066,1536325556
iw,-40.0185356140136,-77.8602447509765,-73.02535554163586,74.80462335022301,1536342223
iw,-39.2272224426269,-79.0405197143554,-56.506807037428054,78.14974599530919,1536358890
iw,-38.737003326416,-80.2846908569336,-41.279277940908855,82.53020803586179,1536375557
iw,-38.516616821289,-81.6834869384765,-28.41796189257102,87.15819345635121,1536392224
iw,-38.336498260498,-83.2781906127929,-18.55551928637176,91.03785889300569,1536408891
iw,-37.8703689575195,-85.049201965332,-11.847980698579978,93.20091749698928,1536425558
iw,-37.3946151733398,-86.7785186767578,-8.056196461910641,92.96292051326563,1536442225
iw,-37.2463150024414,-88.4522476196289,-6.677606758673088,90.11832688975764,1536458892
iw,-37.2561340332031,-90.0,-7.060939749664405,85.00603061846398,1536475559
iw,-37.2993240356445,-88.6139297485351,-8.47538363201332,78.41698857157647,1536492226
iw,-37.130084991455,-87.6237258911132,-10.152977573237903,71.3681114837036,1536508893
iw,-36.9302520751953,-86.8566436767578,-11.341230191830089,64.81478681230911,1536525560
iw,-36.6542892456054,-86.0436935424804,-11.384281654805116,59.39965491354979,1536542227
iw,-36.4019393920898,-85.0556182861328,-9.818006137665956,55.32082322738911,1536558894
iw,-36.2186851501464,-83.8240356445312,-6.444581035645683,52.34788034041118,1536575561
iw,-36.168041229248,-82.6059646606445,-1.3560131686826489,49.94494305889164,1536592228
iw,-36.3310928344726,-81.6996231079101,5.102257063985924,47.41793214960473,1536608895
iw,-36.6290283203125,-81.1328887939453,12.411079850028337,44.01571259723991,1536625562
iw,-36.9762115478515,-80.7360458374023,19.96881802777352,38.971848092709784,1536642229
iw,-37.4108657836914,-80.3507843017578,27.166184561864185,31.53271537822748,1536658896
iw,-37.6537971496582,-79.911865234375,33.438696596230095,21.03437545753898,1536675563
iw,-37.966022491455,-79.5069961547851,38.31719803023603,7.053009079203686,1536692230
iw,-38.406265258789,-79.3699035644531,41.506725309000224,-10.410275301375195,1536708897
iw,-39.4229354858398,-79.662353515625,43.00015881270534,-30.795123422659884,1536725564
iw,-40.9721374511718,-80.3757781982421,43.180806294513076,-52.98051869735544,1536742231
iw,-42.0242958068847,-81.556640625,42.82530649781726,-75.44993654171182,1536758898
iw,-42.1439895629882,-83.2103729248046,42.936350537254825,-96.58794468178641,1536775565
iw,-42.1313934326171,-85.0271301269531,44.42742923696513,-115.01577074950393,1536792232
iw,-42.8222274780273,-86.1634521484375,47.790381281330106,-129.85163155949564,1536808899
iw,-43.9244003295898,-85.8610458374023,52.90928865664748,-140.80833906295072,1536825566
iw,-45.2130317687988,-84.6019592285156,59.10761181668044,-148.1096616006168,1536842233
iw,-46.4504890441894,-82.7401504516601,65.39063866529226,-152.2851854928097,1536858900
iw,-47.498607635498,-80.5393447875976,70.76390339057964,-153.94579765268492,1536875567
iw,-48.5129051208496,-78.3373184204101,74.5074683670311,-153.6272589869847,1536892234
iw,-49.6445274353027,-76.1576309204101,76.33577314067955,-151.73868096514852,1536908901
iw,-50.7738380432128,-73.8293991088867,76.42496093861081,-148.60321399747477,1536925568
iw,-51.7957725524902,-71.2932662963867,75.32234221990718,-144.54702757367494,1536942235
iw,-52.8053131103515,-68.7145004272461,73.77234406224538,-139.97648459437764,1536958902
iw,-53.8466491699218,-66.4383239746093,72.50898017857898,-135.38354919238128,1536975569
iw,-54.9191093444824,-64.5311126708984,72.07255495138092,-131.2470643594046,1536992236
iw,-56.1149787902832,-62.7692947387695,72.6993000979083,-127.85166491312397,1537008903
iw,-57.549144744873,-60.9078865051269,74.30651551433701,-125.09979550605048,1537025570
iw,-59.1129302978515,-58.9640274047851,76.56161276942777,-122.41082636896627,1537042237
iw,-60.5199851989746,-57.1065788269043,78.99543284497544,-118.77302995041447,1537058904
iw,-61.6788482666015,-55.3834800720214,81.11255474208187,-112.95838112522641,1537075571
iw,-62.666576385498,-53.6144866943359,82.4682051945972,-103.85463384232635,1537092238
iw,-63.5586547851562,-51.7742500305175,82.70956592873893,-90.82857941812763,1537108905
iw,-64.3495178222656,-50.2960319519043,81.59776466529603,-74.01320068802386,1537125572
iw,-65.0233383178711,-49.3688926696777,79.02601857529008,-54.41801572135732,1537142239
iw,-65.5572357177734,-48.8667373657226,75.03665805611426,-33.80537755559637,1537158906
iw,-66.026008605957,-48.697021484375,69.82785906186588,-14.347325362527448,1537175573
iw,-66.507583618164,-48.9548683166503,63.73686228733341,1.8506398535787907,1537192240
iw,-66.9065399169921,-49.5157432556152,57.19166809120373,13.228064014360644,1537208907
iw,-67.1838455200195,-50.38325881958,50.63720533016075,19.113909954896226,1537225574
iw,-67.4753036499023,-50.6548156738281,44.45965729216859,19.835293073017027,1537242241
iw,-67.9019546508789,-50.5851593017578,38.94057055249628,16.56156798295124,1537258908
iw,-68.4409942626953,-50.6797790527343,34.25809429086656,10.944912671120825,1537275575
iw,-68.9627380371093,-50.7225608825683,30.521287393833124,4.685404836496804,1537292242
iw,-69.3671875,-50.583194732666,27.797947085392895,-0.8416226098399868,1537308909
iw,-69.6641311645507,-50.4254074096679,26.09747835885421,-4.800711952248452,1537325576
iw,-69.9143753051757,-50.4125480651855,25.29871433505145,-6.9212952474874605,1537342243
iw,-70.1204452514648,-50.479923248291,25.051196213877503,-7.357378089472238,1537358910
iw,-70.3471069335937,-50.4981117248535,24.705218741893137,-6.4495614459999295,1537375577
iw,-70.6187362670898,-50.6780929565429,23.325804159874647,-4.479505031139735,1537392244
iw,-70.8524169921875,-50.9795341491699,19.81733425576643,-1.5036534402684132,1537408911
iw,-71.0791702270507,-51.2651977539062,13.141588163274715,2.675135279677659,1537425578
iw,-71.3347625732421,-51.3059921264648,2.571939746518734,8.387484999474562,1537442245
iw,-71.5724487304687,-51.2974967956543,-12.09314457231998,15.877309369799706,1537458912
iw,-71.7509078979492,-51.6481628417968,-30.425822667916616,25.078749207569754,1537475579
iw,-71.8288269042968,-52.290111541748,-51.40809626893205,35.496672743361735,1537492246
iw,-71.7469635009765,-53.1372871398925,-73.60041978686539,46.2536217816256,1537508913
iw,-71.5758743286132,-54.4940147399902,-95.38339923065993,56.29033128198203,1537525580
iw,-71.4145736694336,-55.932373046875,-115.20187749305404,64.63920715422411,1537542247
iw,-71.1989669799804,-57.1940765380859,-131.76134817894612,70.66327515330887,1537558914
iw,-70.6061935424804,-58.3189849853515,-144.16452323784947,74.17773060745925,1537575581
iw,-69.2149581909179,-59.502155303955,-151.9991892463894,75.43152205721529,1537592248
iw,-67.3225631713867,-60.7655372619628,-155.38050652956773,74.9863414805907,1537608915
iw,-65.4037780761718,-61.9823265075683,-154.92798426847583,73.55764108080452,1537625582
iw,-63.4444122314453,-63.2295875549316,-151.65264518963383,71.87208953993984,1537642249
iw,-61.387451171875,-64.5011138916015,-146.75702472601674,70.56752801899435,1537658916
iw,-59.3343849182128,-65.7247161865234,-141.3892340908118,70.13591662132569,1537675583
iw,-57.374900817871,-66.9216918945312,-136.41263039054854,70.89638416933361,1537692250
iw,-55.4262008666992,-68.1923599243164,-132.2459852844241,72.98400405878135,1537708917
iw,-53.5134963989257,-69.5239486694336,-128.80750401433482,76.34531953787521,1537725584
iw,-51.5698699951171,-70.8914337158203,-125.57240034768786,80.73842394102545,1537742251
iw,-49.6194458007812,-72.2879486083984,-121.73158772627163,85.74116121130295,1537758918
iw,-47.5055046081543,-73.7579193115234,-116.41777476864179,90.7757472767873,1537775585
iw,-45.3239555358886,-75.3298263549804,-108.94675810929235,95.1602473330652,1537792252
iw,-43.3739318847656,-76.9655990600586,-99.01233467805888,98.1935596478446,1537808919
iw,-41.7567825317382,-78.6015167236328,-86.78105028609507,99.2700979766723,1537825586
iw,-40.5693359375,-80.2529373168945,-72.8613320595339,98.00694538946273,1537842253
iw,-39.8119506835937,-81.9150238037109,-58.16317234838702,94.35500933974203,1537858920
iw,-39.2730674743652,-83.4973907470703,-43.70231974750983,88.6603945276786,1537875587
iw,-38.9199447631835,-84.9046173095703,-30.41844175217877,81.64590189780405,1537892254
iw,-38.6195106506347,-86.1381225585937,-19.06098497380993,74.29779785674138,1537908921
iw,-38.1803550720214,-87.28271484375,-10.156309077884767,67.66833859108795,1537925588
iw,-37.8207130432128,-88.281494140625,-4.026006490571169,62.632688185382385,1537942255
iw,-37.7908363342285,-88.9595794677734,-0.8047995463888663,59.66089211263398,1537958922
iw,-38.0916099548339,-89.2997512817382,-0.42237640659910775,58.67496770372979,1537975589
iw,-38.2132720947265,-88.8974914550781,-2.5569038187156092,59.05117568454128,1537992256
iw,-38.0992546081543,-87.7865447998046,-6.604708408470667,59.789939592880295,1538008923
iw,-37.8753852844238,-86.4199142456054,-11.710531540098462,59.81287646861657,1538025590
iw,-37.5138359069824,-85.0673141479492,-16.86845283724552,58.28347045623767,1538042257
iw,-37.1185150146484,-83.937255859375,-21.065439753676024,54.82388610037116,1538058924
iw,-36.7523345947265,-83.165771484375,-23.42387422617379,49.537603953030796,1538075591
iw,-36.3853950500488,-82.6605911254882,-23.309290512797624,42.83194254666715,1538092258
iw,-36.1128158569335,-82.3308181762695,-20.391560783069846,35.12408905394404,1538108925
iw,-36.0924911499023,-82.1482467651367,-14.66692460977781,26.565512556356047,1538125592
iw,-36.0068244934082,-82.0536422729492,-6.454753580836485,16.911037797616963,1538142259
iw,-35.7445335388183,-81.8664855957031,3.6272007762753042,5.5971159568747035,1538158926
iw,-35.3935012817382,-81.6561660766601,14.726188707133897,-7.994882197168621,1538175593
iw,-35.8011627197265,-81.5987930297851,25.883357027950666,-24.195848861377975,1538192260
iw,-37.1944503784179,-81.9052734375,36.22789713355919,-42.7724275455768,1538208927
iw,-38.3838462829589,-82.6904296875,45.17754472929961,-62.84137077488693,1538225594
iw,-39.044334411621,-83.9855575561523,52.548579169548994,-83.02209371248885,1538242261
iw,-39.5078048706054,-85.5696868896484,58.51281931088237,-101.77460144938972,1538258928
iw,-40.4026870727539,-86.6659927368164,63.42952694303211,-117.792333741237,1538275595
iw,-41.7172698974609,-86.3439331054687,67.64917064421039,-130.30041004601756,1538292262
iw,-43.0978622436523,-84.9612960815429,71.37897876560174,-139.15771833662137,1538308929
iw,-44.2374610900878,-83.1049423217773,74.64054730652006,-144.75044616159835,1538325596
iw,-45.2163314819335,-81.0520553588867,77.30065607440679,-147.74844797460096,1538342263
iw,-46.3139839172363,-78.9455795288086,79.14781217923127,-148.83672012242894,1538358930
iw,-47.5938568115234,-76.8119812011718,79.99696917065718,-148.52491342018104,1538375597
iw,-48.9357643127441,-74.5778656005859,79.80229196349445,-147.09455843805,1538392264
iw,-50.2205505371093,-72.0992965698242,78.74260834436798,-144.6851875633368,1538408931
iw,-51.4421768188476,-69.3826065063476,77.24005584131869,-141.46004162195186,1538425598
iw,-52.622760772705,-66.5104064941406,75.8935215487212,-137.74677892072077,1538442265
iw,-53.7557487487793,-64.0571517944336,75.34392896528499,-134.0450955344292,1538458932
iw,-54.9504013061523,-62.5590133666992,76.11590589434842,-130.852112526389,1538475599
iw,-56.3056945800781,-61.232135772705,78.48525296138071,-128.36403367437907,1538492266
iw,-57.8755187988281,-59.3518943786621,82.40428829898825,-126.20848740752757,1538508933
iw,-59.4348182678222,-57.1642837524414,87.49037573559022,-123.374619267665,1538525600
iw,-60.8331756591796,-55.2574005126953,93.06461734951809,-118.42031165364365,1538542267
iw,-62.0764007568359,-53.3281593322753,98.22854796207936,-109.90581547458444,1538558934
iw,-63.2586326599121,-51.3145446777343,101.97986983600461,-96.90668674814141,1538575601
iw,-64.45361328125,-49.6523628234863,103.37370001758683,-79.42895680897853,1538592268
iw,-65.6335525512695,-48.5671501159668,101.71912140786819,-58.578697427595536,1538608935
iw,-66.703742980957,-47.9702682495117,96.7684919155786,-36.41228166811161,1538625602
iw,-67.5756454467773,-47.9842567443847,88.83231898358811,-15.495204009376472,1538642269
iw,-68.0767135620117,-48.4688339233398,78.75842211669196,1.705054791409903,1538658936
iw,-68.2061767578125,-49.0191192626953,67.75714242027547,13.409293734348758,1538675603
iw,-68.1268692016601,-49.7179450988769,57.1184058622642,18.92248185531267,1538692270
iw,-68.1826553344726,-49.8407096862793,47.91782500506662,18.724855663628876,1538708937
iw,-68.5060806274414,-49.7880325317382,40.81464031276763,14.25213979806594,1538725604
iw,-69.0316543579101,-49.992820739746,35.99638007666458,7.458440706323392,1538742271
iw,-69.6236419677734,-49.9710655212402,33.2518766563023,0.30969020154166893,1538758938
iw,-70.1919479370117,-49.7084808349609,32.101087237495236,-5.6485018064742665,1538775605
iw,-70.6637268066406,-49.3846588134765,31.905424544586673,-9.54660881787925,1538792272
iw,-71.1028366088867,-49.1629295349121,31.920120506118053,-11.221912947327485,1538808939
iw,-71.4800415039062,-49.0935134887695,31.301690713605513,-11.03278478962037,1538825606
iw,-71.7814254760742,-49.3228874206543,29.119180488676704,-9.527004002360314,1538842273
iw,-71.9521179199218,-49.791015625,24.42089378399635,-7.088360964935608,1538858940
iw,-72.0461273193359,-50.2263107299804,16.378661412824908,-3.7051214786831186,1538875607
iw,-72.1061019897461,-50.3560943603515,4.4842907293790235,1.0338361628401003,1538892274
iw,-72.1624450683593,-50.064281463623,-11.268328271508647,7.704380219529625,1538908941
iw,-72.229736328125,-49.8924827575683,-30.294105929318118,16.6796076821175,1538925608
iw,-72.3036193847656,-50.1900901794433,-51.47211371740521,27.80991786198242,1538942275
iw,-72.2883529663086,-50.9786033630371,-73.33995580302302,40.313367379577464,1538958942
iw,-72.1794204711914,-52.386734008789,-94.3632364251925,52.93285651570381,1538975609
iw,-72.0804595947265,-53.9701766967773,-113.19041727530235,64.28439869492661,1538992276
iw,-71.9538955688476,-55.3844184875488,-128.82606460003538,73.23863473872098,1539008943
iw,-71.4413528442382,-56.5780601501464,-140.70738315229676,79.1852020205038,1539025610
iw,-70.133186340332,-57.88325881958,-148.70907284456106,82.10781282254358,1539042277
iw,-68.3412399291992,-59.3307266235351,-153.10409115797088,82.48936576035122,1539058944
iw,-66.4053955078125,-60.6678657531738,-154.48523391909802,81.11976355049639,1539075611
iw,-64.4145050048828,-61.9248123168945,-153.6394150071659,78.88333425874215,1539092278
iw,-62.3280448913574,-63.2611389160156,-151.3821804485025,76.57984327754774,1539108945
iw,-60.1892318725585,-64.6236953735351,-148.38880038555638,74.80598427679823,1539125612
iw,-57.9992561340332,-65.8789749145507,-145.07046246188634,73.90187134988261,1539142279
iw,-55.7740249633789,-67.0836715698242,-141.5278097054806,73.95240033640567,1539158946
iw,-53.6615333557128,-68.3635864257812,-137.58328454765433,74.82838123537259,1539175613
iw,-51.558536529541,-69.6963119506836,-132.87026200045477,76.25366593383917,1539192280
iw,-49.484748840332,-71.0271301269531,-126.95068119541591,77.88537680602292,1539208947
iw,-47.4008712768554,-72.3844604492187,-119.43791048179308,79.39300566132812,1539225614
iw,-45.2819480895996,-73.771987915039,-110.10669936863897,80.52217776228348,1539242281
iw,-43.3103790283203,-75.160774230957,-98.97235943125513,81.13247487376523,1539258948
iw,-41.716453552246,-76.5456314086914,-86.32105125889423,81.20454259543595,1539275615
iw,-40.4275932312011,-77.9114227294921,-72.68007322907285,80.81807837535635,1539292282
iw,-39.4546546936035,-79.2497940063476,-58.73380504458266,80.10866687945129,1539308949
iw,-38.7759552001953,-80.5383911132812,-45.21032529407633,79.21701035755973,1539325616
iw,-38.3338241577148,-81.8197631835937,-32.77436245604794,78.24684960472838,1539342283
iw,-37.9311637878418,-83.1519546508789,-21.957058545167165,77.2451340572999,1539358950
iw,-37.4471130371093,-84.5244216918945,-13.132869599609885,76.20869300141676,1539375617
iw,-37.1653823852539,-85.8593444824218,-6.52853221633588,75.1089686619999,1539392284
iw,-37.25191116333,-87.1555252075195,-2.2351997293834547,73.91757496675277,1539408951
iw,-37.418773651123,-88.391242980957,-0.20459959994551452,72.6168627358399,1539425618
iw,-37.437400817871,-89.5381774902343,-0.23513611317517955,71.19103701673806,1539442285
iw,-37.306037902832,-89.4161758422851,-1.969835784539737,69.60748732783377,1539458952
iw,-37.1924667358398,-88.2876510620117,-4.920371403367848,67.80531336287672,1539475619
iw,-37.0401039123535,-87.1149291992187,-8.511260796588859,65.70224700009493,1539492286
iw,-36.884593963623,-85.8389663696289,-12.12712557707271,63.21378821570452,1539508953
iw,-36.6720466613769,-84.5723495483398,-15.151226191325595,60.260283700746555,1539525620
iw,-36.4101066589355,-83.5603866577148,-16.996282725764555,56.73466974862544,1539542287
iw,-36.185302734375,-82.8807907104492,-17.13745061685444,52.425650551322725,1539558954
iw,-36.0257873535156,-82.3988342285156,-15.158378648984929,46.93088614663863,1539575621
iw,-36.0252990722656,-81.8894271850586,-10.815816498809781,39.62614112863417,1539592288
iw,-35.8903274536132,-81.344497680664,-4.116404360329264,29.75041237277919,1539608955
iw,-35.570327758789,-80.7841796875,4.619788436364147,16.61688109553346,1539625622
iw,-35.3148498535156,-80.4549713134765,14.753466104060955,-0.11006813079674364,1539642289
iw,-35.830825805664,-80.4925460815429,25.420159633948654,-20.180120663502993,1539658956
iw,-37.226879119873,-80.9865951538086,35.722847965918966,-42.67184263880677,1539675623
iw,-38.4147872924804,-82.065559387207,44.953002687297264,-66.11250051894865,1539692290
iw,-39.0324096679687,-83.6671142578125,52.73242130665674,-88.77936836289909,1539708957
iw,-39.5205764770507,-85.5358200073242,59.00848081761039,-109.08629876163033,1539725624
iw,-40.4142379760742,-86.9910507202148,63.92915314360816,-125.92297827753542,1539742291
iw,-41.6801567077636,-86.735595703125,67.69166812767303,-138.83126951662874,1539758958
iw,-42.9891471862793,-85.2381134033203,70.44888519445723,-147.96909172231804,1539775625
iw,-44.1311569213867,-83.2565689086914,72.2960832454852,-153.898611227968,1539792292
iw,-45.1557426452636,-80.9508285522461,73.30976228822973,-157.30027653187796,1539808959
iw,-46.2104949951171,-78.6508407592773,73.59904326130027,-158.7287659595875,1539825626
iw,-47.4380836486816,-76.4309616088867,73.34309517085187,-158.4943384769397,1539842293
iw,-48.6632614135742,-73.9487686157226,72.79925881918729,-156.69741039637623,1539858960
iw,-49.7722053527832,-71.1242446899414,72.27229381851016,-153.3846911416677,1539875627
iw,-50.86714553833,-68.1637268066406,72.04639273334266,-148.74221302232397,1539892294
iw,-52.0577850341796,-65.5678939819336,72.30043993841382,-143.21263486427614,1539908961
iw,-53.29976272583,-63.3957328796386,73.04081591135694,-137.44793678573757,1539925628
iw,-54.5789031982421,-61.7587776184082,74.08307596665516,-132.08907562646024,1539942295
iw,-55.8652000427246,-60.1682777404785,75.09579404724792,-127.46341105296293,1539958962
iw,-57.1923103332519,-58.149169921875,75.69722057756445,-123.34798371672676,1539975629
iw,-58.5592575073242,-56.17822265625,75.57666370730001,-118.92500703542214,1539992296
iw,-59.855728149414,-54.517463684082,74.60143086095151,-112.97131890206448,1540008963
iw,-60.9498291015625,-52.6032562255859,72.86946761799204,-104.22792311068133,1540025630
iw,-61.783836364746,-50.6956214904785,70.68110194864899,-91.83130929337814,1540042297
iw,-62.3946800231933,-49.2416877746582,68.43140853584455,-75.66684972744102,1540058964
iw,-62.804401397705,-48.3023414611816,66.45973169392386,-56.525584183057944,1540075631
iw,-63.2108535766601,-47.8258743286132,64.91742820542807,-36.0067384158948,1540092298
iw,-63.8015403747558,-47.7047271728515,63.71140850182684,-16.191443678904527,1540108965
iw,-64.4387969970703,-47.9075012207031,62.546697604432985,0.8160466354746796,1540125632
iw,-65.0525970458984,-48.2930221557617,61.04457163143747,13.351331626359672,1540142299
iw,-65.6766891479492,-48.8147201538085,58.881964743094194,20.538083314997504,1540158966
iw,-66.2567443847656,-49.4705162048339,55.897889745370605,22.44031019687888,1540175633
iw,-66.693130493164,-49.7528228759765,52.13631732387983,19.990189648454553,1540192300
iw,-66.9896469116211,-49.6928215026855,47.824830441787284,14.72144370480494,1540208967
iw,-67.2249679565429,-49.7475204467773,43.31117514632316,8.390032089402391,1540225634
iw,-67.4429931640625,-49.8736724853515,38.98889152177374,2.5891764001463438,1540242301
iw,-67.6700897216796,-49.9388122558593,35.236615699835944,-1.5489849550073078,1540258968
iw,-67.9456939697265,-49.8739318847656,32.37786955854096,-3.51541326876536,1540275635
iw,-68.2579269409179,-49.7403030395507,30.64991648859821,-3.441096071116223,1540292302
iw,-68.5754241943359,-49.679100036621,30.163128652134073,-1.982253750387458,1540308969
iw,-68.9619369506836,-49.750389099121,30.841531805720404,-0.09805040985878771,1540325636
iw,-69.4202804565429,-49.888816833496,32.35538389575951,1.2407254869620992,1540342303
iw,-69.8650894165039,-50.0710830688476,34.07487404025686,1.3537131434086271,1540358970
iw,-70.2122116088867,-50.3536834716796,35.07952407453334,0.09035022398638588,1540375637
iw,-70.4068908691406,-50.6897392272949,34.24833151137349,-2.0659587052086765,1540392304
iw,-70.538330078125,-50.8277053833007,30.434344239204396,-4.078221093022257,1540408971
iw,-70.6589126586914,-50.6925163269043,22.698742997758707,-4.622952667585512,1540425638
iw,-70.7106704711914,-50.3955841064453,10.550982760778883,-2.4820823024512144,1540442305
iw,-70.7183380126953,-50.2781982421875,-5.875061172781309,3.0600970954788504,1540458972
iw,-70.7600936889648,-50.3138198852539,-25.77194421471197,11.954014697817778,1540475639
iw,-70.877815246582,-50.6634941101074,-47.76516907852821,23.357277469810956,1540492306
iw,-71.1267395019531,-51.6659812927246,-70.15264401951417,35.85994560682079,1540508973
iw,-71.4944381713867,-52.9679145812988,-91.2088008955876,47.88419603086567,1540525640
iw,-71.8878707885742,-54.2615928649902,-109.46912965394911,58.11327841645422,1540542307
iw,-72.0624694824218,-55.39208984375,-123.93145006442897,65.79939314156003,1540558974
iw,-71.7482452392578,-56.4787559509277,-134.15026488215986,70.8601934458214,1540575641
iw,-70.754409790039,-57.6655464172363,-140.23305644705513,73.76562693077699,1540592308
iw,-69.2575149536132,-58.8432693481445,-142.75846099252286,75.2911628228741,1540608975
iw,-67.5992736816406,-60.0150032043457,-142.633620422669,76.24054244297405,1540625642
iw,-65.8496780395507,-61.3094367980957,-140.908546916011,77.2249423757446,1540642309
iw,-63.9732818603515,-62.7230262756347,-138.5756711331381,78.54668560096813,1540658976
iw,-62.0333213806152,-64.1463928222656,-136.39276612461364,80.19334958514662,1540675643
iw,-60.0101165771484,-65.5769500732421,-134.76334033525836,81.91538851476882,1540692310
iw,-57.9759521484375,-67.0386352539062,-133.69030346167915,83.34521164285985,1540708977
iw,-56.0417594909668,-68.4906158447265,-132.80058403479987,84.1182647325004,1540725644
iw,-54.0873794555664,-69.8937530517578,-131.4325890866353,83.96987978105956,1540742311
iw,-52.0289421081543,-71.228157043457,-128.78096688587937,82.79682550401894,1540758978
iw,-49.884422302246,-72.6345443725586,-124.08877885125031,80.68343091738423,1540775645
iw,-47.5588912963867,-74.0638961791992,-116.85751972536548,77.8955683911655,1540792312
iw,-45.3627471923828,-75.4116516113281,-107.02016154793142,74.84302133703439,1540808979
iw,-43.5833473205566,-76.6314086914062,-95.0126870823607,72.00905449424337,1540825646
iw,-42.1757354736328,-77.7716522216796,-81.70143786705115,69.8527224976981,1540842313
iw,-41.2233543395996,-78.8634872436523,-68.17440709429022,68.70344861494546,1540858980
iw,-40.6049995422363,-79.9344253540039,-55.461832559938756,68.67881984078927,1540875647
iw,-40.1329803466796,-81.073989868164,-44.285624710933064,69.65564304040693,1540892314
iw,-39.6668853759765,-82.3364105224609,-34.9292262276008,71.30880955006326,1540908981
iw,-39.1314125061035,-83.6699295043945,-27.270639930330073,73.20814338078546,1540925648
iw,-38.5009040832519,-85.0537948608398,-20.952718092711038,74.94078641845968,1540942315
iw,-38.0204544067382,-86.412971496582,-15.608284331839803,76.21664337291453,1540958982
iw,-37.7361450195312,-87.7036437988281,-11.040405761691956,76.92215136486753,1540975649
iw,-37.729736328125,-89.0130538940429,-7.28760328946621,77.10913274084172,1540992316
iw,-37.7953567504882,-89.8208694458007,-4.562598187494645,76.9298467189515,1541008983
iw,-37.8789825439453,-88.5073471069336,-3.1090460432797866,76.54556658591126,1541025650
iw,-37.9131774902343,-87.2133712768554,-3.0466320609839337,76.03866557634667,1541042317
iw,-37.9017486572265,-85.8221893310546,-4.264944428810542,75.34852112162818,1541058984
iw,-37.7472610473632,-84.4315109252929,-6.394767548586417,74.2359539266656,1541075651
iw,-37.5646133422851,-83.2231521606445,-8.852122018867156,72.26962723010716,1541092318
iw,-37.4157752990722,-82.1540222167968,-10.929870959658519,68.83000803347855,1541108985
iw,-37.3110923767089,-81.1627578735351,-11.908664719557255,63.14115776405159,1541125652
iw,-37.3150787353515,-80.3371810913086,-11.168700375919201,54.35398743630854,1541142319
iw,-37.3359451293945,-79.6878433227539,-8.294252254368141,41.70070146188724,1541158986
iw,-37.0306396484375,-79.1122436523437,-3.1615300594100795,24.713667612980373,1541175653
iw,-36.510383605957,-78.6599731445312,4.014884725982765,3.4612411981321802,1541192320
iw,-36.6668090820312,-78.6011199951171,12.713200891149153,-21.283272912482758,1541208987
iw,-37.8831138610839,-79.099494934082,22.22858853832278,-48.031532350815155,1541225654
iw,-38.8722915649414,-80.2478103637695,31.84957716005599,-74.78363322964508,1541242321
iw,-39.3088150024414,-82.0277252197265,41.0004244515933,-99.42179368184708,1541258988
iw,-39.6502876281738,-84.098876953125,49.283769006903604,-120.18356475569627,1541275655
iw,-40.32612991333,-85.7499237060546,56.43601016045951,-136.05146876743697,1541292322
iw,-41.5859489440918,-85.8254776000976,62.26870672978324,-146.91232095550492,1541308989
iw,-43.0740280151367,-84.8131408691406,66.65618627531856,-153.42760589045298,1541325656
iw,-44.162784576416,-83.3181838989257,69.5667729986737,-156.67884867009838,1541342323
iw,-45.0275726318359,-81.2639846801757,71.09255233759166,-157.74505288907594,1541358990
iw,-45.8641281127929,-79.0840454101562,71.44569474893451,-157.3829066749791,1541375657
iw,-46.9134063720703,-76.8992462158203,70.92912563316783,-155.916069260502,1541392324
iw,-48.1289253234863,-74.4075241088867,69.90689377970457,-153.3427589841915,1541408991
iw,-49.32124710083,-71.5572052001953,68.78223619737891,-149.58546871347136,1541425658
iw,-50.4410591125488,-68.6635131835937,67.96712642165413,-144.75316973978,1541442325
iw,-51.5151062011718,-66.1260452270507,67.82568650226686,-139.27752173678084,1541458992
iw,-52.6096572875976,-64.13427734375,68.59604855538042,-133.83489462975965,1541475659
iw,-53.7761993408203,-62.5790557861328,70.3189393157825,-129.0685713051966,1541492326
iw,-55.0045433044433,-61.0352134704589,72.80661773380862,-125.23427089282478,1541508993
iw,-56.2947807312011,-59.1796607971191,75.67086461752233,-121.94474154971701,1541525660
iw,-57.662670135498,-57.1946868896484,78.40531520492488,-118.15291389084985,1541542327
iw,-59.0203208923339,-55.4033126831054,80.49824078886822,-112.40968226244216,1541558994
iw,-60.3182067871093,-53.400089263916,81.54307534413977,-103.31850180940185,1541575661
iw,-61.439525604248,-51.5236549377441,81.31646234791762,-90.03395711576314,1541592328
iw,-62.3427658081054,-50.1168670654296,79.80604449107057,-72.63494380724974,1541608995
iw,-63.0765571594238,-49.2898559570312,77.18829574352192,-52.24369419016482,1541625662
iw,-63.7041587829589,-48.9240798950195,73.77210085962035,-30.845787665809024,1541642329
iw,-64.2654724121093,-48.9370613098144,69.92875421950448,-10.86401142774414,1541658996
iw,-64.7821350097656,-49.2621345520019,66.02333805957602,5.387212600973475,1541675663
iw,-65.2467498779296,-49.7582855224609,62.35403477540184,16.21390280370361,1541692330
iw,-65.6134719848632,-50.346393585205,59.103379100740675,20.888970002010737,1541708997
iw,-65.9305114746093,-50.7929306030273,56.309865417129366,19.753941338371078,1541725664
iw,-66.3663330078125,-50.9675941467285,53.87244277326991,14.065839156413919,1541742331
iw,-66.9241180419921,-50.7663421630859,51.595014661802274,5.64851358018866,1541758998
iw,-67.4359817504882,-50.5377655029296,49.26143327561632,-3.5410171998970954,1541775665
iw,-67.8303527832031,-50.4087486267089,46.71424189672754,-11.806945003886488,1541792332
iw,-68.129150390625,-50.2410125732421,43.906983702868004,-17.976400829044046,1541808999
iw,-68.4101333618164,-49.9527168273925,40.91313116660163,-21.493792252130152,1541825666
iw,-68.7081451416015,-49.5984916687011,37.892766872972835,-22.367124210485237,1541842333
iw,-69.0208129882812,-49.3145217895507,35.02807601610716,-21.01344765878126,1541859000
iw,-69.2842559814453,-49.169017791748,32.4393647316475,-18.054663974542574,1541875667
iw,-69.4922866821289,-49.0822372436523,30.09382207758498,-14.110228200085622,1541892334
iw,-69.6637802124023,-49.0157279968261,27.726769414204234,-9.62785672660381,1541909001
iw,-69.7956466674804,-49.1219978332519,24.805515162761537,-4.785289714226223,1541925668
iw,-69.862548828125,-49.3584327697753,20.566740906532534,0.5169372126125433,1541942335
iw,-69.901611328125,-49.5681343078613,14.14133528818716,6.569202539780274,1541959002
iw,-69.9458694458007,-49.7724151611328,4.749860763468011,13.692451129614948,1541975669
iw,-69.9682540893554,-49.9979133605957,-8.079257327623118,22.0492403953491,1541992336
iw,-69.9920806884765,-50.3349952697753,-24.33361853935816,31.49246938638017,1542009003
iw,-70.0724182128906,-51.1103134155273,-43.440787925600056,41.51683129548331,1542025670
iw,-70.2969741821289,-52.1106910705566,-64.31996739920338,51.34476598585873,1542042337
iw,-70.6452941894531,-53.3622207641601,-85.54774838591615,60.12390629613978,1542059004
iw,-71.032844543457,-54.7797203063964,-105.59175883346217,67.16396236735642,1542075671
iw,-71.2987976074218,-56.1689987182617,-123.05622511132187,72.1234561437973,1542092338
iw,-71.1856384277343,-57.3797760009765,-136.89346731205632,75.07927599887873,1542109005
iw,-70.4719085693359,-58.5124282836914,-146.5499498840282,76.46304876473326,1542125672
iw,-69.1612396240234,-59.7676124572753,-152.02460088647186,76.90227433624746,1542142339
iw,-67.4421463012695,-61.0597686767578,-153.8251188423219,77.03441199175688,1542159006
iw,-65.5905532836914,-62.3185310363769,-152.82462450837306,77.35767643077855,1542175673
iw,-63.6695709228515,-63.6501235961914,-150.04683915293154,78.15401444995017,1542192340
iw,-61.6567001342773,-65.0718536376953,-146.4315967349017,79.48717859914122,1542209007
iw,-59.6565589904785,-66.5670623779296,-142.6398002886545,81.25452326942782,1542225674
iw,-57.6977233886718,-68.0431594848632,-138.9426717568747,83.25934000638104,1542242341
iw,-55.7449073791503,-69.4558181762695,-135.212716865157,85.27303788130442,1542259008
iw,-53.6280250549316,-70.8475036621093,-131.00808071142552,87.07181968972458,1542275675
iw,-51.5285682678222,-72.3101196289062,-125.72633047781562,88.45199913704961,1542292342
iw,-49.4301681518554,-73.8419113159179,-118.79566479575473,89.23937990313361,1542309009
iw,-47.3001289367675,-75.4257659912109,-109.86501708683042,89.30503330378588,1542325676
iw,-45.2277374267578,-76.9740219116211,-98.94849051914618,88.58756931472021,1542342343
iw,-43.5691413879394,-78.4805908203125,-86.48034873529998,87.11175745556314,1542359010
iw,-42.290771484375,-79.9225311279296,-73.25354842232065,84.99240470092099,1542375677
iw,-41.3923873901367,-81.2786178588867,-60.24979318078403,82.41952976899493,1542392344
iw,-40.7588272094726,-82.6145706176757,-48.41011674309003,79.6294893676135,1542409011
iw,-40.2878303527832,-83.956558227539,-38.42086603242407,76.87072891436975,1542425678
iw,-39.8886680603027,-85.2565383911132,-30.585602135489715,74.37063315351756,1542442345
iw,-39.3934059143066,-86.5185623168945,-24.819745421783654,72.30500637433022,1542459012
iw,-38.8983879089355,-87.716552734375,-20.756932400797997,70.76957146238242,1542475679
iw,-38.5418434143066,-88.8601379394531,-17.91558137202129,69.75621546951038,1542492346
iw,-38.1245040893554,-90.0,-15.858554501915227,69.1427592787768,1542509013
iw,-37.8582687377929,-88.9180908203125,-14.292020919382152,68.70770205852631,1542525680
iw,-37.7281341552734,-87.716552734375,-13.081508503581047,68.17574844888861,1542542347
iw,-37.6244010925293,-86.4740829467773,-12.197975479890216,67.28595203888212,1542559014
iw,-37.5093994140625,-85.2139816284179,-11.630894764311556,65.85816872776839,1542575681
iw,-37.3667068481445,-83.9905166625976,-11.310578389044034,63.824948982890355,1542592348
iw,-37.1726989746093,-82.8957977294921,-11.06882358854787,61.20272022410711,1542609015
iw,-36.961124420166,-81.9541625976562,-10.64513328405164,57.998909357454224,1542625682
iw,-36.7861289978027,-81.1560897827148,-9.727512331512326,54.08306692297848,1542642349
iw,-36.6762733459472,-80.4790344238281,-8.009483848929777,49.076768570668996,1542659016
iw,-36.6988372802734,-79.9009857177734,-5.248274717508343,42.32523968676112,1542675683
iw,-36.8213233947753,-79.3835525512695,-1.3164516103376984,32.99508659719051,1542692350
iw,-36.7183570861816,-78.8617172241211,3.7588463792930824,20.298898180760638,1542709017
iw,-36.371826171875,-78.4321594238281,9.783229180873825,3.7916257283543207,1542725684
iw,-36.4780464172363,-78.3556518554687,16.431397097745297,-16.36223025771141,1542742351
iw,-37.6212501525878,-78.6959457397461,23.3406320190762,-39.26316045689537,1542759018
iw,-38.7036552429199,-79.6090621948242,30.225897117251765,-63.369185772729494,1542775685
iw,-39.0541152954101,-81.1608428955078,36.944640168818175,-86.80627616619516,1542792352
iw,-39.188175201416,-83.1830139160156,43.461781383818085,-107.80794784519976,1542809019
iw,-39.7678031921386,-85.1977996826171,49.74263849180612,-125.1322987431635,1542825686
iw,-40.8981208801269,-86.2362594604492,55.661429198403326,-138.3008277174996,1542842353
iw,-42.3257446289062,-85.8767318725586,60.99463328481714,-147.57127009146683,1542859020
iw,-43.4111137390136,-84.8154525756836,65.49387204860727,-153.67268142346225,1542875687
iw,-44.2566680908203,-83.1022720336914,68.97720262500776,-157.4368271628287,1542892354
iw,-45.1400299072265,-80.880256652832,71.38373923331531,-159.49503626851123,1542909021
iw,-46.2200355529785,-78.5397415161132,72.77953727207688,-160.15685528622063,1542925688
iw,-47.4255332946777,-75.8915252685546,73.33290163415418,-159.485509020838,1542942355
iw,-48.5759620666503,-73.010025024414,73.27650721103859,-157.49438928232223,1542959022
iw,-49.6356925964355,-70.1784362792968,72.86184404813795,-154.34413615202578,1542975689
iw,-50.7345314025878,-67.5476303100586,72.31074074443718,-150.42823533095267,1542992356
iw,-51.9216766357421,-65.3532791137695,71.77787143652185,-146.2897637385118,1543009023
iw,-53.2159576416015,-63.3788414001464,71.34123331180386,-142.39422622803187,1543025690
iw,-54.6363945007324,-61.4078559875488,71.02589959107208,-138.85842808631395,1543042357
iw,-55.9936981201171,-59.2909469604492,70.84700174953551,-135.26539292874816,1543059024
iw,-57.2829856872558,-57.2235221862793,70.84534426502941,-130.6651061714037,1543075691
iw,-58.4854698181152,-55.2299575805664,71.09240376588546,-123.78792416634296,1543092358
iw,-59.49755859375,-53.1438255310058,71.65831905373408,-113.41703089450372,1543109025
iw,-60.2988014221191,-51.1596450805664,72.5567357563425,-98.80744564766779,1543125692
iw,-61.0312385559082,-49.6369514465332,73.69424302826314,-80.01721799456703,1543142359
iw,-61.822166442871,-48.6779136657714,74.85362881832049,-58.03876015639567,1543159026
iw,-62.6657104492187,-48.2289695739746,75.7268506634867,-34.68107216712511,1543175693
iw,-63.5211563110351,-48.1697845458984,75.98947325132015,-12.234142817300121,1543192360
iw,-64.2326889038086,-48.481346130371,75.38619237873581,6.988975259598193,1543209027
iw,-64.7968597412109,-48.828987121582,73.79152462818944,21.111869234444935,1543225694
iw,-65.3380661010742,-49.5182762145996,71.22456378054837,29.0490306980338,1543242361
iw,-65.8152084350586,-50.267406463623,67.82113934635956,30.682865385677573,1543259028
iw,-66.1818542480468,-50.7206153869628,63.78527810601883,26.834069431646817,1543275695
iw,-66.5046081542968,-50.9813804626464,59.34612723602419,19.04028266559585,1543292362
iw,-66.804328918457,-50.9543838500976,54.737295885870886,9.201466055061411,1543309029
iw,-67.0860824584961,-50.9121475219726,50.19875326233549,-0.8177944314871147,1543325696
iw,-67.338752746582,-50.7934761047363,45.98512654650398,-9.533484966107189,1543342363
iw,-67.5901794433593,-50.4938011169433,42.35701350808952,-16.062290784409115,1543359030
iw,-67.8923797607421,-50.0770568847656,39.53811965270358,-20.181080963502716,1543375697
iw,-68.2443008422851,-49.7153892517089,37.63734668252506,-22.225313559124686,1543392364
iw,-68.6769485473632,-49.4537773132324,36.55323748601701,-22.855568918761616,1543409031
iw,-69.1141128540039,-49.2132034301757,35.89180561695082,-22.74983041433639,1543425698
iw,-69.4315414428711,-49.2215461730957,34.934918836902405,-22.304749063403538,1543442365
iw,-69.5723724365234,-49.2620887756347,32.69244850299669,-21.44064385511849,1543459032
iw,-69.5765151977539,-49.166706085205,28.05334250918729,-19.58855678332373,1543475699
iw,-69.5063552856445,-48.7893447875976,20.018672434632947,-15.885900669511388,1543492366
iw,-69.3515014648437,-48.2740211486816,7.963154125621318,-9.528923463267438,1543509033
iw,-69.1976242065429,-48.1425628662109,-8.152697378505342,-0.15643490579467062,1543525700
iw,-69.1357803344726,-48.0248107910156,-27.69467515050384,11.889578822873885,1543542367
iw,-69.1786041259765,-48.2711486816406,-49.43116385961128,25.543586427240477,1543559034
iw,-69.4126434326171,-49.336311340332,-71.75742730448015,39.26306019619241,1543575701
iw,-69.7982482910156,-50.87495803833,-92.99907715878395,51.46060230066052,1543592368
iw,-70.2210540771484,-52.3398246765136,-111.70261932492946,60.95904909935934,1543609035
iw,-70.6021499633789,-53.4770927429199,-126.83833927546965,67.29446935704011,1543625702
iw,-70.6943817138671,-54.4725265502929,-137.88686033093632,70.76236835084592,1543642369
iw,-70.1782150268554,-55.5668220520019,-144.8267301293994,72.2186584804241,1543659036
iw,-68.9546737670898,-56.6718788146972,-148.06046636044422,72.74196855085756,1543675703
iw,-67.3656387329101,-57.8077583312988,-148.3070397529086,73.29345339041164,1543692370
iw,-65.7013854980468,-59.0727844238281,-146.4700092407381,74.47919533868614,1543709037
iw,-63.962345123291,-60.4822006225585,-143.4858402676162,76.46146447636748,1543725704
iw,-62.1589088439941,-61.9265518188476,-140.1691089980953,79.00863064029717,1543742371
iw,-60.2681083679199,-63.3593711853027,-137.08232068417146,81.6363222263266,1543759038
iw,-58.3257598876953,-64.8123397827148,-134.45341118837888,83.78067781079409,1543775705
iw,-56.5591697692871,-66.282958984375,-132.1500343153221,84.95451163113974,1543792372
iw,-54.787742614746,-67.7140731811523,-129.71259814631574,84.85763617765251,1543809039
iw,-52.8033943176269,-69.103530883789,-126.45049215731378,83.43222475532968,1543825706
iw,-50.6484909057617,-70.4644775390625,-121.60323689686477,80.86734315774291,1543842373
iw,-48.4412155151367,-71.8126831054687,-114.54789389591097,77.56267596970588,1543859040
iw,-46.3242950439453,-73.1190567016601,-105.0039894005329,74.0613704712115,1543875707
iw,-44.5112037658691,-74.3580856323242,-93.16978086706135,70.9593704413127,1543892374
iw,-43.0721588134765,-75.5532684326171,-79.73521514897624,68.79847397564585,1543909041
iw,-42.1196479797363,-76.6825561523437,-65.75621731041065,67.95548161741073,1543925708
iw,-41.4710884094238,-77.7358245849609,-52.425641576988525,68.54857254436715,1543942375
iw,-40.9711837768554,-78.7938385009765,-40.81477212136252,70.38885102115097,1543959042
iw,-40.5051612854003,-79.9738006591796,-31.666275030858753,73.0025841570632,1543975709
iw,-40.0694427490234,-81.3186645507812,-25.291888963573644,75.7329468028197,1543992376
iw,-39.6689414978027,-82.8130493164062,-21.582499735618025,77.90166217069462,1544009043
iw,-39.3518447875976,-84.2845458984375,-20.099731546053878,78.98338143436632,1544025710
iw,-39.0938453674316,-85.6533737182617,-20.20352439647539,78.73542156724857,1544042377
iw,-38.7375869750976,-86.9481582641601,-21.178730396208493,77.24062210994843,1544059044
iw,-38.3961105346679,-88.2427520751953,-22.342247957982373,74.85403404677928,1544075711
iw,-38.0726699829101,-89.3810348510742,-23.126861688533044,72.07768648874993,1544092378
iw,-37.6160850524902,-89.5454406738281,-23.142825362125276,69.40805232074044,1544109045
iw,-37.0899772644043,-88.4830245971679,-22.214492903639464,67.20377948671255,1544125712
iw,-36.706256866455,-87.3066711425781,-20.382425181457517,65.60778804812418,1544142379
iw,-36.4035034179687,-86.0890426635742,-17.860239983990958,64.53199420832999,1544159046
iw,-36.2519989013671,-84.8647766113281,-14.946950064300713,63.68535773586719,1544175713
iw,-36.1566162109375,-83.6952514648437,-11.91604267614759,62.61196242350623,1544192380
iw,-36.1054801940918,-82.6807556152343,-8.918685442714597,60.71460182516194,1544209047
iw,-36.0805282592773,-81.847053527832,-5.938112645551759,57.266188520804974,1544225714
iw,-35.9509086608886,-81.1589584350586,-2.8134001955399985,51.439959420998335,1544242381
iw,-35.9176177978515,-80.4997024536132,0.6786005573729849,42.40011253084834,1544259048
iw,-35.817138671875,-79.8749008178711,4.721377146969642,29.47433525620244,1544275715
iw,-35.7185516357421,-79.3338775634765,9.387028288105794,12.382901622346177,1544292382
iw,-35.771369934082,-79.1490631103515,14.633407375677459,-8.550887484875965,1544309049
iw,-36.6498222351074,-79.4457244873046,20.37253324840913,-32.30604149218861,1544325716
iw,-37.7510299682617,-80.2782363891601,26.562855804047658,-57.25697914149504,1544342383
iw,-38.3091773986816,-81.6854019165039,33.24721103128858,-81.46049728598257,1544359050
iw,-38.3593559265136,-83.5268249511718,40.484588047376725,-103.06429153833929,1544375717
iw,-38.766845703125,-85.4370498657226,48.20472595522296,-120.70843986422452,1544392384
iw,-39.787254333496,-86.5370025634765,56.08704964909864,-133.78340204175876,1544409051
iw,-41.1592750549316,-86.0279312133789,63.5606974879214,-142.45710842314722,1544425718
iw,-42.5720481872558,-84.7289047241211,69.94140907503825,-147.4739522452775,1544442385
iw,-43.68599319458,-82.9501037597656,74.63485056764802,-149.81996151358828,1544459052
iw,-44.6506919860839,-80.8019180297851,77.31054566541559,-150.39412451331677,1544475719
iw,-45.7006340026855,-78.6829528808593,77.98811128174398,-149.80436751722223,1544492386
iw,-46.9181900024414,-76.5320434570312,77.03057557565431,-148.33875130174948,1544509053
iw,-48.144229888916,-74.0515747070312,75.06698802571013,-146.08798282675536,1544525720
iw,-49.2701110839843,-71.2417831420898,72.86671401538003,-143.13949435754034,1544542387
iw,-50.3586387634277,-68.6008148193359,71.18407482463707,-139.73516415480802,1544559054
iw,-51.4916343688964,-66.3945236206054,70.59878310897226,-136.29650120215373,1544575721
iw,-52.6638298034668,-64.6268234252929,71.38826567072036,-133.28286580318002,1544592388
iw,-53.9160614013671,-62.9703140258789,73.46878416092694,-130.93996624163137,1544609055
iw,-55.3434562683105,-60.9928512573242,76.42753977120972,-129.0649499612741,1544625722
iw,-56.9153289794921,-58.7939682006835,79.6412040235655,-126.91555273791971,1544642389
iw,-58.5092163085937,-56.9104843139648,82.44630047953423,-123.32571400814832,1544659056
iw,-59.9916496276855,-55.0420684814453,84.30596959058263,-117.0030590844838,1544675723
iw,-61.1841583251953,-52.9795913696289,84.91817682279257,-106.91866244332367,1544692390
iw,-62.0631027221679,-51.1531372070312,84.23586983331543,-92.67036321360052,1544709057
iw,-62.7383422851562,-49.795352935791,82.40870745346454,-74.70423150729765,1544725724
iw,-63.3269958496093,-48.9980316162109,79.6875622215761,-54.315707270339416,1544742391
iw,-63.9243087768554,-48.5793876647949,76.33951913788681,-33.419532996842065,1544759058
iw,-64.5881118774414,-48.4974975585937,72.60100644461242,-14.15227394754157,1544775725
iw,-65.2008285522461,-48.7102546691894,68.66579216999835,1.5795333782317682,1544792392
iw,-65.667366027832,-49.139347076416,64.68511856930063,12.48455108145458,1544809059
iw,-66.1154632568359,-49.6158180236816,60.76156581389688,18.111188524531418,1544825726
iw,-66.6160278320312,-49.9403533935546,56.93866536589828,18.865908210079258,1544842393
iw,-67.1495971679687,-50.047077178955,53.20376334930435,15.83684367866014,1544859060
iw,-67.6958389282226,-50.0394210815429,49.51706367275027,10.486451329867595,1544875727
iw,-68.1089477539062,-50.1739845275878,45.859150901537944,4.306533089214749,1544892394
iw,-68.3755874633789,-50.2583236694335,42.27041860095658,-1.4755826217776584,1544909061
iw,-68.6152877807617,-50.176040649414,38.85384528026039,-6.082591574845821,1544925728
iw,-68.9240036010742,-49.8808097839355,35.727891719486045,-9.243534420705112,1544942395
iw,-69.2574996948242,-49.5667190551757,32.9376662051593,-11.123473361223137,1544959062
iw,-69.5580902099609,-49.492130279541,30.350367774756215,-12.144251901418846,1544975729
iw,-69.8623962402343,-49.5288162231445,27.573355838845085,-12.73558935346023,1544992396
iw,-70.1950225830078,-49.5517234802246,23.937512768363156,-13.085032202252803,1545009063
iw,-70.4253616333007,-49.681785583496,18.577147719515363,-12.973976132478132,1545025730
iw,-70.5529708862304,-49.918357849121,10.607070886920104,-11.774864016528634,1545042397
iw,-70.6893615722656,-49.716022491455,-0.6422216546073177,-8.636545522113355,1545059064
iw,-70.7969055175781,-49.2206535339355,-15.400378971785685,-2.811796711129202,1545075731
iw,-70.8692626953125,-49.1076202392578,-33.3185302290716,5.99055320829434,1545092398
iw,-70.9489288330078,-49.2607879638671,-53.466664771198246,17.37764735473845,1545109065
iw,-70.9874954223632,-49.7506599426269,-74.47192865528761,30.27952051832298,1545125732
iw,-70.9643249511718,-50.9204635620117,-94.75500884288881,43.20498520497768,1545142399
iw,-70.958740234375,-52.3579635620117,-112.79633736181565,54.65306478257324,1545159066
iw,-70.8602523803711,-53.6461944580078,-127.37176646043916,63.52197894565221,1545175733
iw,-70.3138198852539,-54.7395286560058,-137.72465377897518,69.36694442654306,1545192400
iw,-69.0110931396484,-55.8732070922851,-143.66160032484044,72.43304889735522,1545209067
iw,-67.3163375854492,-57.0742149353027,-145.56100659225137,73.48522373928348,1545225734
iw,-65.6350479125976,-58.2111740112304,-144.28169587690974,73.52319401836075,1545242401
iw,-63.9425315856933,-59.3570976257324,-140.97467056281388,73.4851251442276,1545259068
iw,-62.1011810302734,-60.5901908874511,-136.83489722866008,74.02255001410377,1545275735
iw,-60.1711959838867,-61.8999290466308,-132.8568340443809,75.392338695126,1545292402
iw,-58.2282180786132,-63.2376556396484,-129.65429249660102,77.47269024413502,1545309069
iw,-56.3710861206054,-64.6211395263671,-127.37663640608223,79.87775337492036,1545325736
iw,-54.5233039855957,-66.0833892822265,-125.72314478895434,82.12548370197351,1545342403
iw,-52.5644302368164,-67.6273803710937,-124.04140015388403,83.80720883743233,1545359070
iw,-50.5828628540039,-69.1387405395507,-121.48997183348725,84.7129919878484,1545375737
iw,-48.542194366455,-70.5426712036132,-117.23971276263,84.88238684963456,1545392404
iw,-46.4793434143066,-71.9341049194336,-110.67886451838018,84.573278795226,1545409071
iw,-44.5421867370605,-73.3863983154296,-101.57995665074114,84.16556605882076,1545425738
iw,-42.7583541870117,-74.821792602539,-90.18673282413592,84.03225268897272,1545442405
iw,-41.2944946289062,-76.1903076171875,-77.19058515403646,84.41426273729934,1545459072
iw,-40.2861633300781,-77.5654220581054,-63.590754078453635,85.33101542160128,1545475739
iw,-39.7069702148437,-78.9896545410156,-50.46925312067148,86.55127077201728,1545492406
iw,-39.356460571289,-80.4188766479492,-38.74820520531559,87.63750431093737,1545509073
iw,-39.0750312805175,-81.8796997070312,-29.012754556437248,88.05988601931476,1545525740
iw,-38.6917724609375,-83.4974517822265,-21.460369958069002,87.35440556954784,1545542407
iw,-38.1708831787109,-85.1594085693359,-15.981905069454857,85.27978336030492,1545559074
iw,-37.6801033020019,-86.6554336547851,-12.318981910691939,81.91862507239225,1545575741
iw,-37.4042434692382,-87.9450988769531,-10.210479570009563,77.67935501832271,1545592408
iw,-37.3671150207519,-89.0934524536132,-9.456635805901696,73.18872205246544,1545609075
iw,-37.2659149169921,-89.6749496459961,-9.881848342514322,69.10746878843493,1545625742
iw,-37.1781730651855,-88.9251708984375,-11.233939925429414,65.9326433264479,1545642409
iw,-37.23237991333,-87.858901977539,-13.088016003943988,63.85283697756708,1545659076
iw,-37.1262702941894,-86.5978622436523,-14.818245043141852,62.69542292209481,1545675743
iw,-36.8118133544921,-85.3362503051757,-15.669751646742181,61.96149013188406,1545692410
iw,-36.4024009704589,-84.2011337280273,-14.918475592139853,60.90969767513858,1545709077
iw,-35.9723815917968,-83.2825927734375,-12.064743751638513,58.64656180815618,1545725744
iw,-35.7317733764648,-82.5702285766601,-6.985604452968752,54.2083636974336,1545742411
iw,-35.8213233947753,-81.9511184692382,0.01565356817491781,46.65525486411082,1545759078
iw,-36.0291061401367,-81.2964477539062,8.283493742332432,35.210489041395476,1545775745
iw,-36.1081581115722,-80.6969528198242,16.983270361366866,19.452265612777335,1545792412
iw,-36.4033126831054,-80.3754577636718,25.321263214795334,-0.48443305353012467,1545809079
iw,-37.3177070617675,-80.4436645507812,32.750398021560024,-23.77976464470299,1545825746
iw,-38.4655990600585,-81.0642929077148,39.09926372458404,-48.95900953377204,1545842413
iw,-39.1704406738281,-82.3295974731445,44.57127091733682,-74.11640111711571,1545859080
iw,-39.4450950622558,-84.1104736328125,49.60031448153735,-97.29058585751548,1545875747
iw,-40.022850036621,-86.0427474975586,54.6184363693408,-116.87866557703468,1545892414
iw,-41.1042785644531,-87.1161575317382,59.844256036262614,-131.94862242013292,1545909081
iw,-42.4683189392089,-86.3845901489257,65.18831122038314,-142.3450735895981,1545925748
iw,-43.7691307067871,-84.7709350585937,70.29874349172471,-148.56813809110983,1545942415
iw,-44.8046875,-82.7347259521484,74.69774102583885,-151.4969178597595,1545959082
iw,-45.7878761291503,-80.3468933105468,77.93648625148322,-152.0785267501784,1545975749
iw,-46.925365447998,-78.0302200317382,79.72028636739559,-151.0906976570232,1545992416
iw,-48.1991233825683,-75.9106750488281,79.98654223595345,-149.03387745587,1546009083
iw,-49.4674682617187,-73.7187347412109,78.92952365812735,-146.15643911581154,1546025750
iw,-50.6525726318359,-71.2688827514648,76.9646569787115,-142.58019949532198,1546042417
iw,-51.7643928527832,-68.5618820190429,74.63182573430252,-138.4633957331857,1546059084
iw,-52.7879180908203,-65.816291809082,72.45825370890519,-134.11296129322847,1546075751
iw,-53.8271293640136,-63.6160087585449,70.82397836165232,-129.96171863463707,1546092418
iw,-55.0239334106445,-62.1745910644531,69.87917760383182,-126.38430925741808,1546109085
iw,-56.447452545166,-60.8124885559082,69.54434771549379,-123.42400631347475,1546125752
iw,-57.9982872009277,-58.8572921752929,69.58782145050264,-120.5796089314313,1546142419
iw,-59.4180755615234,-56.7639541625976,69.73938667199607,-116.79485360763452,1546159086
iw,-60.5327224731445,-54.9740028381347,69.78551317046708,-110.69918400239297,1546175753
iw,-61.4046020507812,-53.060432434082,69.60963754298109,-101.0300963501684,1546192420
iw,-62.1361427307128,-51.2205047607421,69.17731347816832,-87.09041920280205,1546209087
iw,-62.8726348876953,-49.8666839599609,68.49562478622396,-69.08168843931585,1546225754
iw,-63.6548423767089,-49.1093978881835,67.58107659768922,-48.196819590627165,1546242421
iw,-64.3466644287109,-48.8237495422363,66.45168262464503,-26.433786661467554,1546259088
iw,-64.8773803710937,-48.8694114685058,65.1343605353241,-6.18200034353849,1546275755
iw,-65.3358383178711,-49.2987060546875,63.66666630892177,10.298322442411326,1546292422
iw,-65.7850112915039,-49.9894790649414,62.07899050916474,21.359016571718538,1546309089
iw,-66.2007369995117,-50.4555511474609,60.361913645531146,26.284910891346193,1546325756
iw,-66.6449737548828,-50.9361724853515,58.43990987807959,25.381750187721124,1546342423
iw,-67.2347030639648,-51.3372001647949,56.17621901289179,19.827825667196137,1546359090
iw,-67.9314498901367,-51.2907943725585,53.4203903225583,11.348671072340094,1546375757
iw,-68.5219802856445,-51.0377883911132,50.08555861267171,1.8146208907132333,1546392424
iw,-68.9552536010742,-50.9396286010742,46.22217274277389,-7.130214091235888,1546409091
iw,-69.2668991088867,-50.9219627380371,42.052437819120264,-14.32455728187862,1546425758
iw,-69.5118865966796,-50.7459144592285,37.945334104886314,-19.199645706407324,1546442425
iw,-69.7514877319336,-50.4222106933593,34.33393343389278,-21.758552836494424,1546459092
iw,-70.0539627075195,-49.9773025512695,31.59323607675389,-22.462923921405892,1546475759
iw,-70.3870773315429,-49.517032623291,29.904766291649654,-22.05692943231523,1546492426
iw,-70.723388671875,-49.1494483947753,29.137760758428563,-21.344801677878603,1546509093
iw,-71.0896911621093,-48.9478759765625,28.77973348579195,-20.942811109818173,1546525760
iw,-71.4397277832031,-49.0654487609863,27.94854128498091,-21.05193511797296,1546542427
iw,-71.6974868774414,-49.170124053955,25.50644040243351,-21.325035968919774,1546559094
iw,-71.9379196166992,-48.9891700744628,20.27113092824521,-20.903104827487038,1546575761
iw,-72.1951141357421,-48.5102081298828,11.285554297909925,-18.649154864918184,1546592428
iw,-72.350830078125,-47.9257774353027,-1.9205656923218386,-13.525845107069584,1546609095
iw,-72.4246444702148,-47.7888259887695,-19.155189559232046,-4.987183053211117,1546625762
iw,-72.5062561035156,-47.7949028015136,-39.53493679248707,6.766418016639916,1546642429
iw,-72.5819778442382,-48.0739440917968,-61.618840969296286,20.77221402459784,1546659096
iw,-72.63671875,-49.018684387207,-83.6670007293815,35.539259008680155,1546675763
iw,-72.6184005737304,-50.4039802551269,-103.94883370398337,49.449592968023524,1546692430
iw,-72.4957504272461,-51.7694664001464,-121.02303839484283,61.18200808127095,1546709097
iw,-72.0958557128906,-52.9549369812011,-133.93794941031314,70.01019154695834,1546725764
iw,-71.1929092407226,-54.1222839355468,-142.33301119645265,75.88674810144332,1546742431
iw,-69.776382446289,-55.3736419677734,-146.4406336085357,79.31812847058833,1546759098
iw,-68.1001052856445,-56.6559333801269,-146.99395169616443,81.11170479192823,1546775765
iw,-66.3969421386718,-57.9629249572753,-145.05367268291735,82.10184829573612,1546792432
iw,-64.6388244628906,-59.3709068298339,-141.78353386446582,82.94067759550327,1546809099
iw,-62.8069305419921,-60.8779754638671,-138.22110587566203,83.99556123479371,1546825766
iw,-60.8276977539062,-62.4043922424316,-135.0941366818811,85.35178080522834,1546842433
