Label,Left_Hip_q,Right_Hip_q,Left_Hip_qd,Right_Hip_qd,SampleTimeFine
uw,-21.26216506958,-86.9466171264648,0.947831928730011,-0.0628189668059349,542875533
uw,-21.1453895568847,-86.990852355957,0.9872746847093962,-0.2735626181357431,542892200
uw,-21.0425834655761,-86.9544525146484,1.1011809112463649,-0.2690706961727022,542908867
uw,-21.0696983337402,-86.8207244873046,1.2237610631331621,-0.25063388446177054,542925534
uw,-21.2943611145019,-86.5904998779296,1.3579255290918373,-0.20814241904725167,542942201
uw,-21.6306533813476,-86.2645645141601,1.4981549131917378,-0.13608084511217244,542958868
uw,-21.982271194458,-85.8316268920898,1.630201904879838,-0.03549063498012195,542975535
uw,-22.1901950836181,-85.2946395874023,1.7341773131734788,0.08496223955925425,542992202
uw,-22.2816715240478,-84.6456604003906,1.7903398070690568,0.20978945139048924,543008869
uw,-22.4958438873291,-84.0142822265625,1.785871446475634,0.31990901570617325,543025536
uw,-23.030927658081,-83.5479736328125,1.7203053965195991,0.3977646070549317,543042203
uw,-23.7870979309082,-83.2309112548828,1.6074865521949808,0.4326587534467248,543058870
uw,-24.5702762603759,-82.9662551879882,1.4731137565270171,0.42424932448840275,543075537
uw,-25.3001613616943,-82.7318649291992,1.3486237338915148,0.3828641522181875,543092204
uw,-26.0413646697998,-82.6333541870117,1.2636283679702085,0.3266137532244796,543108871
uw,-26.9337177276611,-82.6979217529296,1.2395836552430815,0.2764150288112996,543125538
uw,-28.0448360443115,-82.8303985595703,1.2866238836826294,0.250511254762514,543142205
uw,-29.3066692352294,-82.9599533081054,1.4039311755380337,0.2599825644263381,543158872
uw,-30.7179260253906,-83.1876754760742,1.5824360451932475,0.30632318555988386,543175539
uw,-32.1373748779296,-83.5082550048828,1.8078462452637507,0.3814760922071597,543192206
uw,-33.4237785339355,-83.8064804077148,2.0623484673334724,0.4699196938608747,543208873
uw,-34.6398315429687,-84.0939254760742,2.32462192039791,0.5519375340366893,543225540
uw,-35.9642028808593,-84.3750381469726,2.5693373700305164,0.6073256710324173,543242207
uw,-37.5237350463867,-84.7192153930664,2.7681458711603972,0.6191644927528026,543258874
uw,-39.2408905029296,-85.0600128173828,2.89364011535767,0.5773665339221533,543275541
uw,-41.005126953125,-85.3581848144531,2.926040555290594,0.4813975820780404,543292208
uw,-42.4665718078613,-85.6745529174804,2.860347770379113,0.3412269851713315,543308875
uw,-43.4687461853027,-86.0119934082031,2.710608908598931,0.17569200550342587,543325542
uw,-44.2503662109375,-86.3142776489257,2.5085729459747044,0.008283723928466307,543342209
uw,-45.0706787109375,-86.5596313476562,2.2962821920893592,-0.13845925341340037,543358876
uw,-46.0596580505371,-86.7261886596679,2.1150042916613074,-0.24800016138857528,543375543
uw,-46.9660873413085,-86.8288040161132,1.9947402233880804,-0.31258242279862286,543392210
uw,-47.6058349609375,-86.9257888793945,1.948162434053846,-0.333122122163153,543408877
uw,-47.9548110961914,-87.0261917114257,1.9704493870746937,-0.3168440324777691,543425544
uw,-48.2277526855468,-87.1078186035156,2.0437001476553958,-0.2739656353205955,543442211
uw,-48.6579666137695,-87.1812362670898,2.143195770287127,-0.2146095067586316,543458878
uw,-49.4465522766113,-87.2869033813476,2.2432235501915114,-0.1465156264463042,543475545
uw,-50.5189056396484,-87.4007568359375,2.3215581969387853,-0.07360364878320037,543492212
uw,-51.5418434143066,-87.5045700073242,2.362687604291932,0.004578662916405999,543508879
uw,-52.3276214599609,-87.5543212890625,2.3599234853476947,0.09207334620506771,543525546
uw,-52.9535217285156,-87.43310546875,2.316069058617243,0.19375724176649634,543542213
uw,-53.5480842590332,-87.0277709960937,2.2420641849614205,0.31069270609423083,543558880
uw,-53.9919090270996,-86.5261611938476,2.1533782733423976,0.4351715002586259,543575547
uw,-54.3293266296386,-86.1549911499023,2.064819811992209,0.5481959805635147,543592214
uw,-54.6738967895507,-85.8875350952148,1.9854730578881237,0.6217311109519188,543608881
uw,-55.191535949707,-85.707649230957,1.9159019801693953,0.6259859316549644,543625548
uw,-55.8137397766113,-85.7104263305664,1.8489610789799769,0.5394124062246073,543642215
uw,-56.3667106628418,-85.8551864624023,1.7738378778185135,0.35756212928606873,543658882
uw,-56.7329673767089,-86.154067993164,1.6814672538690076,0.09725203424570118,543675549
uw,-56.9158477783203,-86.5756072998046,1.569085492118692,-0.2056190212353472,543692216
uw,-57.090217590332,-87.1363143920898,1.4423549064544465,-0.5038531965789788,543708883
uw,-57.3324737548828,-87.7876052856445,1.3145330089426743,-0.7497648533614337,543725550
uw,-57.6311836242675,-88.4478302001953,1.2030632044771032,-0.9057752164624047,543742217
uw,-57.8796119689941,-88.9678878784179,1.1245868038625937,-0.9519467558075488,543758884
uw,-58.1367149353027,-88.9573287963867,1.089747095337339,-0.88868743377127,543775551
uw,-58.3252754211425,-88.4087371826171,1.0992384304288596,-0.7342768165035677,543792218
uw,-58.4462242126464,-87.5472106933593,1.1422812471465222,-0.5184468892429221,543808885
uw,-58.5776138305664,-86.5024108886718,1.1981530501851487,-0.2745711831358099,543825552
uw,-58.7258911132812,-85.3446960449218,1.2407502044992191,-0.03331750400158916,543842219
uw,-58.9256286621093,-84.0523834228515,1.2454548691328475,0.18054869498523793,543858886
uw,-59.3043670654296,-82.5233612060546,1.1967991700671057,0.34856336089489415,543875553
uw,-59.8314399719238,-80.9005737304687,1.0947295700800435,0.4579963343111873,543892220
uw,-60.4539031982421,-79.2635116577148,0.9571612123978913,0.5019906162768256,543908887
uw,-61.1508636474609,-77.5099182128906,0.8173634009977939,0.48060244213073566,543925554
uw,-61.7813911437988,-75.7224731445312,0.7163449535342269,0.40154641084954984,543942221
uw,-62.2146987915039,-73.9309616088867,0.6920892242842671,0.2792994210660403,543958888
uw,-62.6158905029296,-72.2050476074218,0.768526319952402,0.13224373313624282,543975555
uw,-63.0012817382812,-70.4924163818359,0.9473011596521186,-0.021218793387409143,543992222
uw,-63.4230270385742,-68.7263412475586,1.2048333199970591,-0.16607125488386235,544008889
uw,-64.0349578857421,-66.9476318359375,1.495994699408098,-0.2924523937806058,544025556
uw,-64.6428527832031,-65.1425323486328,1.7640558153199133,-0.39556460766353074,544042223
uw,-65.1889114379882,-63.3290519714355,1.9546982634289252,-0.474362665690939,544058890
uw,-65.801887512207,-61.5062179565429,2.030425723677324,-0.5300478783093224,544075557
uw,-66.3835144042968,-59.6348876953125,1.981191374271629,-0.5651789974813903,544092224
uw,-66.7434768676757,-57.6952972412109,1.8278443533728412,-0.5835913569899549,544108891
uw,-67.0252151489257,-55.7466506958007,1.6170272259966803,-0.5907053678845999,544125558
uw,-67.3208389282226,-53.8583106994628,1.4088217521198219,-0.5935802833489932,544142225
uw,-67.5256423950195,-52.117015838623,1.2607502122279421,-0.6002410756032196,544158892
uw,-67.6037826538086,-50.4375457763671,1.2128100115044207,-0.6181578045560941,544175559
uw,-67.5225524902343,-48.7952232360839,1.277704950202519,-0.6521767067672305,544192226
uw,-67.3505325317382,-47.2157478332519,1.438648993028176,-0.7026215394013096,544208893
uw,-67.2622909545898,-45.7021255493164,1.6548193757350818,-0.7644945065178527,544225560
uw,-67.4921035766601,-44.2437324523925,1.8725255152341764,-0.8285030975777189,544242227
uw,-67.9269256591796,-42.8623085021972,2.0389328299881138,-0.8840077259189318,544258894
uw,-68.3311309814453,-41.5768432617187,2.114869798080186,-0.9231003847583356,544275561
uw,-68.6390609741211,-40.4074096679687,2.0837513793833007,-0.9442507150570072,544292228
uw,-68.9473876953125,-39.3420944213867,1.9547375358454335,-0.9537891674367533,544308895
uw,-69.3537521362304,-38.3763618469238,1.7596321590292265,-0.964231427830215,544325562
uw,-69.8420333862304,-37.5496444702148,1.5444795497525476,-0.989838316803049,544342229
uw,-70.2691574096679,-36.8408241271972,1.3580880097445134,-1.0411418220435407,544358896
uw,-70.5351867675781,-36.2146797180175,1.2404484571298342,-1.120683070806584,544375563
uw,-70.6773452758789,-35.6792297363281,1.2139193341762524,-1.221552716923621,544392230
uw,-70.7735977172851,-35.2538414001464,1.2791758651307095,-1.328908665651084,544408897
uw,-70.807388305664,-34.9812049865722,1.416664129502195,-1.4234436394186536,544425564
uw,-70.8128890991211,-34.8074836730957,1.5930275771612419,-1.4855257351093791,544442231
uw,-70.7986297607421,-34.6273536682128,1.770832517918352,-1.4993013381532938,544458898
uw,-70.7490921020507,-34.4326286315918,1.9190053733782886,-1.4566220842073365,544475565
uw,-70.7219772338867,-34.2899551391601,2.0209733258438995,-1.3605633458315187,544492232
uw,-70.8382492065429,-34.2566795349121,2.0779141562697343,-1.2276103180261446,544508899
uw,-71.0517654418945,-34.3581352233886,2.105880109086291,-1.0870131439634123,544525566
uw,-71.325813293457,-34.6202392578125,2.12759435017554,-0.9760943314850878,544542233
uw,-71.6954116821289,-35.0370216369628,2.161844280724916,-0.9316247545553421,544558900
uw,-72.1532897949218,-35.7208633422851,2.2147636772342336,-0.9792682548253484,544575567
uw,-72.6017456054687,-36.596019744873,2.2769552354169025,-1.124560650856365,544592234
uw,-73.055435180664,-37.5320358276367,2.3279579853865977,-1.3489715788812409,544608901
uw,-73.4544906616211,-38.5525588989257,2.3459353819367044,-1.6129713710224831,544625568
uw,-73.8352584838867,-39.5931854248046,2.31773610690536,-1.8654067334946625,544642235
uw,-74.1898422241211,-40.5376091003418,2.2444596192873902,-2.056232435489872,544658902
uw,-74.4410629272461,-41.485740661621,2.1403387143278123,-2.148763599010881,544675569
uw,-74.585578918457,-42.4263267517089,2.0263306453964365,-2.1282068223989326,544692236
uw,-74.6833419799804,-43.2553100585937,1.9221831368004159,-2.0047016819302907,544708903
uw,-74.7678756713867,-44.0172042846679,1.8408980656452436,-1.8106756812516047,544725570
uw,-74.8282775878906,-44.7252311706543,1.787740051960653,-1.5934686094529238,544742237
uw,-74.9403610229492,-45.3822021484375,1.763291161512161,-1.4048639293275678,544758904
uw,-75.0882949829101,-45.998306274414,1.7678667870943359,-1.289577009383059,544775571
uw,-75.2047653198242,-46.5409507751464,1.8040097670715147,-1.2749893189417711,544792238
uw,-75.2973251342773,-47.0016250610351,1.8751298059766086,-1.3643791882795893,544808905
uw,-75.3936233520507,-47.3737411499023,1.9809362375896342,-1.5354220956864435,544825572
uw,-75.4988555908203,-47.6798973083496,2.1126519624231297,-1.7447476481641868,544842239
uw,-75.60595703125,-48.0019912719726,2.25168080368417,-1.9379382085689643,544858906
uw,-75.6690597534179,-48.3413581848144,2.3738726902510567,-2.06281538413637,544875573
uw,-75.6253433227539,-48.6416244506835,2.4584402924268307,-2.0826494302449263,544892240
uw,-75.6866378784179,-48.8028411865234,2.4975518066583553,-1.985561662374069,544908907
uw,-75.9527511596679,-48.8681945800781,2.5015027964008314,-1.7871893907610066,544925574
uw,-76.2368087768554,-48.9501647949218,2.496120026442777,-1.5255838712815402,544942241
uw,-76.3020324707031,-49.0752449035644,2.512909583406314,-1.2498347881371943,544958908
uw,-75.9982147216796,-49.328556060791,2.5762001780760095,-1.0061873230787552,544975575
uw,-75.6146621704101,-49.6633148193359,2.692911078141787,-0.826383463355591,544992242
uw,-75.4193649291992,-49.9281044006347,2.848909702826212,-0.7219464995002168,545008909
uw,-75.516616821289,-50.159568786621,3.0125081563647003,-0.6854839153019175,545025576
uw,-75.6706085205078,-50.4310722351074,3.1427285257852233,-0.6971905485817792,545042243
uw,-75.6725006103515,-50.8141784667968,3.199067754695437,-0.7331164454879339,545058910
uw,-75.5273056030273,-51.4028205871582,3.150392121424818,-0.7720007093694234,545075577
uw,-75.3534774780273,-52.1645927429199,2.9818511833569556,-0.7989674019276753,545092244
uw,-75.3788299560546,-52.9006690979003,2.6991873324420257,-0.8060782960368635,545108911
uw,-75.7398452758789,-53.5571327209472,2.329623441745305,-0.7908756419984838,545125578
uw,-76.1566848754882,-54.1700019836425,1.9185089959807025,-0.7543569110603904,545142245
uw,-76.4677658081054,-54.7972259521484,1.5216701322759645,-0.6994241133480048,545158912
uw,-76.628921508789,-55.4947624206543,1.1947056256144692,-0.6301079381455027,545175579
uw,-76.7544708251953,-56.2317199707031,0.981629398375687,-0.5512133136286277,545192246
uw,-76.9112167358398,-56.9652252197265,0.905761087453519,-0.4677951399430004,545208913
uw,-76.9935073852539,-57.6946487426757,0.9653764209825331,-0.3841415000161541,545225580
uw,-76.9677658081054,-58.4174270629882,1.135328131139626,-0.30248460611962336,545242247
uw,-76.8483123779296,-59.1729354858398,1.3739649458535055,-0.2220340646664616,545258914
uw,-76.6443405151367,-60.0066604614257,1.6329615130836663,-0.1388514995207049,545275581
uw,-76.4182510375976,-60.8175888061523,1.8669416180359604,-0.04671216746504435,545292248
uw,-76.1953430175781,-61.5840110778808,2.0403932761770887,0.06119616745119326,545308915
uw,-75.7770080566406,-62.2761611938476,2.1310071605107943,0.18995187732792249,545325582
uw,-75.0305633544921,-63.0207824707031,2.130322276345251,0.3402119144018223,545342249
uw,-74.0527420043945,-63.893756866455,2.043386634590064,0.5057180774848545,545358916
uw,-73.0527648925781,-64.7049865722656,1.8884807120609917,0.6720884380160835,545375583
uw,-72.0601196289062,-65.4512939453125,1.6962934997671473,0.8182069809909417,545392250
uw,-71.0536422729492,-66.2062301635742,1.5066706309937408,0.920786034409784,545408917
uw,-69.9996566772461,-66.9788055419921,1.3614519792384119,0.9610512371535228,545425584
uw,-68.7532043457031,-67.7594528198242,1.2940381841160593,0.9310410282357948,545442251
uw,-67.3632431030273,-68.547866821289,1.3188391461160431,0.8368279481896476,545458918
uw,-66.0223541259765,-69.317756652832,1.4249371128059247,0.6972125735944833,545475585
uw,-64.8720245361328,-70.0796508789062,1.577266521144584,0.5383949127891924,545492252
uw,-63.5473518371582,-70.8387069702148,1.7258364395430354,0.38683207694939703,545508919
uw,-61.9879341125488,-71.5906143188476,1.8203646927942696,0.2631245443586242,545525586
uw,-60.371955871582,-72.2826309204101,1.8255642023901606,0.17899784876760252,545542253
uw,-58.8442802429199,-72.9796981811523,1.7320197601906957,0.13773480100899074,545558920
uw,-56.8688240051269,-73.6869277954101,1.55913022967315,0.13681233116940061,545575587
uw,-54.2086219787597,-74.3853530883789,1.3493314535500092,0.17087210323095528,545592254
uw,-51.2762260437011,-75.0198211669921,1.15572066169277,0.23363179624872216,545608921
uw,-48.9812812805175,-75.5957489013671,1.0272088819319236,0.3183729277906493,545625588
uw,-47.3600845336914,-76.1151885986328,0.9957817223416471,0.41750482704886327,545642255
uw,-46.1064300537109,-76.5491409301757,1.0693459415371664,0.5220280234810775,545658922
uw,-44.8293075561523,-76.9009780883789,1.2315347069704174,0.6215825646790515,545675589
uw,-43.2401885986328,-77.2464599609375,1.447579286129216,0.7054359249997287,545692256
uw,-41.3911399841308,-77.5641784667968,1.6737284026891066,0.7644107724961726,545708923
uw,-39.4235038757324,-77.8883056640625,1.8671738294532247,0.7933887649744972,545725590
uw,-37.4941444396972,-78.2001724243164,1.9940068888355729,0.7936480213920194,545742257
uw,-35.9665412902832,-78.463264465332,2.0339528617442526,0.774009499951714,545758924
uw,-34.8056526184082,-78.7359619140625,1.9818889769961232,0.7498062446669543,545775591
uw,-33.804515838623,-78.956184387207,1.8469343347137734,0.7392582110121069,545792258
uw,-32.7389411926269,-79.1480865478515,1.6500335825017214,0.7579088269655927,545808925
uw,-31.6327209472656,-79.3114700317382,1.4206429329959473,0.8129296611321909,545825592
uw,-30.3539066314697,-79.3972091674804,1.1927463161316483,0.8996291496810206,545842259
uw,-29.0494785308837,-79.4981842041015,1.0002697278559973,1.0019042429418494,545858926
uw,-27.9339542388916,-79.7224960327148,0.8721183339599753,1.0967726717246915,545875593
uw,-27.1552677154541,-80.0104598999023,0.8274647611591985,1.161309497370877,545892260
uw,-26.5732059478759,-80.2419204711914,0.8723227891508769,1.1793014824335422,545908927
uw,-26.0765991210937,-80.458511352539,0.9984730133752965,1.1452857843458946,545925594
uw,-25.5536785125732,-80.6583862304687,1.1852520469708423,1.0650422560009163,545942261
uw,-24.8813438415527,-80.7946548461914,1.4038084784062488,0.953135731587909,545958928
uw,-24.2199459075927,-80.9286651611328,1.6227014837295468,0.8289298672018256,545975595
uw,-23.6558952331542,-81.2103729248046,1.8135236444893361,0.712399085175732,545992262
uw,-23.2914028167724,-81.5863265991211,1.9554760134740252,0.6204366128644291,546008929
uw,-23.0402011871337,-82.0444564819336,2.0381898957277884,0.563823897739638,546025596
uw,-22.8599967956542,-82.5427551269531,2.062391920200933,0.5449794672818659,546042263
uw,-22.8418540954589,-83.0187683105468,2.0383054102248055,0.556916696693344,546058930
uw,-22.9090099334716,-83.4555740356445,1.9820961705964735,0.5840670408026927,546075597
uw,-22.8241577148437,-83.8837203979492,1.9111834144985556,0.6054388345831442,546092264
uw,-22.5979995727539,-84.3705062866211,1.839639652003028,0.5999334345082898,546108931
uw,-22.4807319641113,-84.9500656127929,1.7749669723857693,0.5526935972895471,546125598
uw,-22.5956897735595,-85.5550308227539,1.717202571016665,0.46050281528700915,546142265
uw,-22.9457550048828,-86.1074600219726,1.660680574607521,0.3340706998713448,546158932
uw,-23.3115272521972,-86.5607681274414,1.5979874629042354,0.1959256218966852,546175599
uw,-23.6504344940185,-86.8960647583007,1.5248471943465267,0.07435061014426307,546192266
uw,-23.9800910949707,-87.1367950439453,1.444167252253198,-0.0045204742804604865,546208933
uw,-24.368408203125,-87.3125610351562,1.3676336866308536,-0.023625996264284174,546225600
uw,-24.7830715179443,-87.4126815795898,1.3141276689571324,0.02123052625240885,546242267
uw,-25.16109085083,-87.4352493286132,1.3054343639715422,0.12126073100334675,546258934
uw,-25.5977363586425,-87.3766937255859,1.3606156100988887,0.2572634600447487,546275601
uw,-26.2302055358886,-87.2822189331054,1.4906693711310293,0.4033592080694453,546292268
uw,-27.014591217041,-87.1914672851562,1.6947768100978868,0.5309089077382939,546308935
uw,-27.7989807128906,-87.1103210449218,1.9588599193636982,0.6125662475617817,546325602
uw,-28.6534709930419,-87.0324478149414,2.2566289087449825,0.6267691162721349,546342269
uw,-29.6515274047851,-87.0022583007812,2.5529070203570114,0.5624257274306899,546358936
uw,-30.7679424285888,-87.0534362792968,2.8087729430943518,0.4226347282789909,546375603
uw,-31.8152713775634,-87.175064086914,2.987937024379129,0.22584915704504832,546392270
uw,-32.8667488098144,-87.2931137084961,3.063692675775436,0.0033719710244948867,546408937
uw,-33.9913101196289,-87.3662719726562,3.025531021517464,-0.20676569282139257,546425604
uw,-35.2102661132812,-87.3864135742187,2.8839061831415145,-0.3682111212201239,546442271
uw,-36.4970932006835,-87.3961639404296,2.671027605880631,-0.45480164057548367,546458938
uw,-37.7591171264648,-87.3858108520507,2.4358029279111135,-0.4568794991993006,546475605
uw,-39.0407409667968,-87.3718490600586,2.2328157022758637,-0.38364217695742625,546492272
uw,-40.2091255187988,-87.3731155395507,2.1080221223579527,-0.2606821935218234,546508939
uw,-41.3601303100585,-87.3939132690429,2.086021581006769,-0.12300569471167888,546525606
uw,-42.5314598083496,-87.4757080078125,2.1636009872398487,-0.0050921377322377314,546542273
uw,-43.3722648620605,-87.5504760742187,2.3115729567259007,0.06925961448628366,546558940
uw,-43.88427734375,-87.5195083618164,2.4834057986811704,0.09393442465459931,546575607
uw,-44.2128410339355,-87.3490829467773,2.6270232941502702,0.08147168935360578,546592274
uw,-44.6326828002929,-87.1521530151367,2.696383403327358,0.05695388206006683,546608941
uw,-45.335708618164,-86.9614028930664,2.6610033582832524,0.04651137510277729,546625608
uw,-46.1715621948242,-86.8404922485351,2.512591066000805,0.0646713675604427,546642275
uw,-46.8393363952636,-86.8845443725586,2.2675587128741452,0.10581041857500784,546658942
uw,-47.2388801574707,-86.952522277832,1.963672482021989,0.14381023528897724,546675609
uw,-47.5950508117675,-87.0951232910156,1.6503688651895667,0.14093627987830074,546692276
uw,-48.1230812072753,-87.3433227539062,1.3753900677266524,0.06312706486793335,546708943
uw,-48.9411239624023,-87.5811157226562,1.1728700130225365,-0.1040945293634484,546725610
uw,-49.9481506347656,-87.8610076904296,1.0573774508397924,-0.34565974073507494,546742277
uw,-50.9000167846679,-88.1242446899414,1.0250123752714864,-0.6176281808802084,546758944
uw,-51.7926979064941,-88.4218292236328,1.0591277121310616,-0.8592103675848068,546775611
uw,-52.4903526306152,-88.8002548217773,1.1369161027121881,-1.0122632246930614,546792278
uw,-53.0847702026367,-89.1049652099609,1.2342012244821965,-1.0411068016814704,546808945
uw,-53.8907089233398,-89.0252227783203,1.3279704471685414,-0.9451399751224152,546825612
uw,-54.8914947509765,-88.4740219116211,1.397918933971926,-0.7595791921643069,546842279
uw,-55.9937210083007,-87.6852264404296,1.428623276580638,-0.5443469469294923,546858946
uw,-57.122875213623,-86.7754745483398,1.4128602327754731,-0.3654428872824833,546875613
uw,-58.2314949035644,-85.8252410888671,1.3547727266305045,-0.2753177183548754,546892280
uw,-59.3688163757324,-84.8388595581054,1.2703738133441511,-0.2984527123148361,546908947
uw,-60.5532188415527,-83.848403930664,1.183445983655088,-0.4261569455108055,546925614
uw,-61.7155151367187,-82.7946472167968,1.1172644119689707,-0.621442577064353,546942281
uw,-62.7937126159668,-81.6663360595703,1.0852983336021176,-0.8316270607803279,546958948
uw,-63.7637252807617,-80.5452880859375,1.0852023337268384,-1.0040379179157202,546975615
uw,-64.5647048950195,-79.36181640625,1.09916026195607,-1.0997375463914065,546992282
uw,-65.2434692382812,-78.1329956054687,1.100827386947822,-1.1016322466715596,547008949
uw,-65.8568038940429,-76.8696136474609,1.0663473966838461,-1.0157726716429685,547025616
uw,-66.4541320800781,-75.5195693969726,0.9853039852812305,-0.8668860061303003,547042283
uw,-67.0691680908203,-74.0755386352539,0.8672915732898676,-0.6904699739191966,547058950
uw,-67.6757507324218,-72.5550384521484,0.7410909168163604,-0.524005132119647,547075617
uw,-68.2519989013671,-70.9714431762695,0.6461345138037213,-0.39929937226300755,547092284
uw,-68.7577743530273,-69.3444442749023,0.6192380112006457,-0.337148331180822,547108951
uw,-69.1314544677734,-67.693603515625,0.6817811809390663,-0.3447652214228983,547125618
uw,-69.3563537597656,-65.9863739013671,0.8322480905723819,-0.41592455332336664,547142285
uw,-69.3842620849609,-64.2341537475586,1.0464797190031905,-0.5334302861124813,547158952
uw,-69.2028350830078,-62.525520324707,1.2848024326059044,-0.6733144314045378,547175619
uw,-68.9977645874023,-60.731086730957,1.503029282955288,-0.8100525209695221,547192286
uw,-68.8671951293945,-58.916030883789,1.6637590992967233,-0.9219535300453179,547208953
uw,-68.7989273071289,-57.0250091552734,1.7450248189349533,-0.9956998430795172,547225620
uw,-68.7860031127929,-55.1581153869628,1.7445069814706688,-1.028936178900953,547242287
uw,-68.8024597167968,-53.3898391723632,1.6787687745033248,-1.030117505869854,547258954
uw,-68.6881027221679,-51.7710838317871,1.5780793168043759,-1.0155993147130022,547275621
uw,-68.4845504760742,-50.1907386779785,1.4782749575463427,-1.0048620207877301,547292288
uw,-68.3241271972656,-48.7081298828125,1.411654781042504,-1.015318109212397,547308955
uw,-68.260498046875,-47.2550048828125,1.3990157748495258,-1.0581176948550557,547325622
uw,-68.2014617919921,-45.863410949707,1.4445972076215923,-1.1358811529375423,547342289
uw,-68.192138671875,-44.6114959716796,1.5350254217177122,-1.2426577173144893,547358956
uw,-68.2731781005859,-43.5172576904296,1.642495535832492,-1.365870232173815,547375623
uw,-68.4339904785156,-42.5453987121582,1.7315653622722336,-1.4896166050979889,547392290
uw,-68.5672912597656,-41.7168235778808,1.7681836274909726,-1.5984319368002087,547408957
uw,-68.6401596069336,-41.0034065246582,1.7289662970099702,-1.6805156030693196,547425624
uw,-68.783088684082,-40.3818473815918,1.6083470482486275,-1.7296141022767684,547442291
uw,-69.0559844970703,-39.8175659179687,1.4213511065321567,-1.745236068706027,547458958
uw,-69.4370574951171,-39.3083839416503,1.2007436719437936,-1.7314474768006756,547475625
uw,-69.7425994873046,-38.8498649597168,0.9891077125484422,-1.6948616395680207,547492292
uw,-69.9414749145507,-38.4869003295898,0.8282281246898161,-1.6424834143206744,547508959
uw,-70.1603393554687,-38.231517791748,0.7490286284458204,-1.5799115866216331,547525626
uw,-70.4118728637695,-38.0930938720703,0.7648515342689389,-1.5102433566209201,547542293
uw,-70.703628540039,-38.0760765075683,0.8695003660485873,-1.4339348163308183,547558960
uw,-70.9659805297851,-38.1888198852539,1.0399065632718956,-1.349760001526481,547575627
uw,-71.1590957641601,-38.3756561279296,1.2421042389703076,-1.256750703740556,547592294
uw,-71.3768768310546,-38.6452369689941,1.438689537609503,-1.1566012999458115,547608961
uw,-71.646614074707,-38.9841423034668,1.5960925207185817,-1.0556815199100484,547625628
uw,-71.9280395507812,-39.411865234375,1.6904737696515937,-0.9657441948992488,547642295
uw,-72.2077255249023,-39.8746871948242,1.711458617945864,-0.9027223930123534,547658962
uw,-72.5550231933593,-40.3602294921875,1.6631413008741878,-0.8835687710649234,547675629
uw,-73.1050491333007,-40.887897491455,1.5621172886231105,-0.9217018058355054,547692296
uw,-73.745376586914,-41.461311340332,1.432956418009524,-1.0221266646107574,547708963
uw,-74.4305801391601,-42.115550994873,1.3022890740927013,-1.1776045428323998,547725630
uw,-75.1623382568359,-42.8916702270507,1.1930831469591165,-1.367273507329576,547742297
uw,-75.8622665405273,-43.73970413208,1.1205161744296375,-1.558758473255632,547758964
uw,-76.4175338745117,-44.5056686401367,1.0902304889443175,-1.7140034080352222,547775631
uw,-76.7904586791992,-45.247989654541,1.098974249961797,-1.797970206296313,547792298
uw,-77.0085525512695,-45.9923667907714,1.1369579751565684,-1.7882490794260453,547808965
uw,-77.2211380004882,-46.6107521057128,1.190980173693129,-1.6827964136075841,547825632
uw,-77.5178604125976,-47.1966934204101,1.2476155147697612,-1.5028611285747497,547842299
uw,-77.8757629394531,-47.8167381286621,1.2962345224841003,-1.2891857211826894,547858966
uw,-78.1995849609375,-48.4500312805175,1.3318230968588916,-1.0918271855099746,547875633
uw,-78.4718704223632,-49.0923957824707,1.3572503423518951,-0.9565311236251235,547892300
uw,-78.7728424072265,-49.7326774597168,1.384081162533546,-0.9120910785663588,547908967
uw,-79.1014709472656,-50.3247032165527,1.4308162654602101,-0.9627097518264905,547925634
uw,-79.4077377319336,-50.9043197631835,1.51794934784186,-1.0874141814452185,547942301
uw,-79.6766357421875,-51.5355339050293,1.6603794825376328,-1.2461874180778367,547958968
uw,-79.8673477172851,-52.209358215332,1.859066442308069,-1.390663050072973,547975635
uw,-79.8850326538086,-52.8574028015136,2.094833084941045,-1.4763471928761391,547992302
uw,-79.7889328002929,-53.4886627197265,2.3273825884434807,-1.473265773343721,548008969
uw,-79.8161315917968,-54.2009582519531,2.501494321897719,-1.3725115806572088,548025636
uw,-79.9356689453125,-54.9277763366699,2.5600413872579955,-1.1872745820863948,548042303
uw,-80.1156692504882,-55.717658996582,2.460736526728595,-0.9483085361601447,548058970
uw,-80.3609771728515,-56.6052742004394,2.1915629387244757,-0.6950245922278337,548075637
uw,-80.6337661743164,-57.4330673217773,1.7795742891165869,-0.46439872690979367,548092304
uw,-80.9212799072265,-58.2689514160156,1.2893504414611412,-0.2807343665842774,548108971
uw,-81.2458190917968,-59.150291442871,0.8104101435549151,-0.1496475537769632,548125638
uw,-81.6268463134765,-60.1122207641601,0.4363726208254722,-0.058588674122006246,548142305
uw,-81.9570693969726,-61.1215667724609,0.2414786252133068,0.016326846294179395,548158972
uw,-82.105239868164,-62.1154632568359,0.2612213724840938,0.10014105021407797,548175639
uw,-82.1585311889648,-63.0906028747558,0.4828189830293035,0.20975581040222718,548192306
uw,-82.0989303588867,-64.0323104858398,0.8484079145388609,0.3489212514723398,548208973
uw,-81.6336059570312,-64.9568939208984,1.270166981369059,0.5086984903257805,548225640
uw,-80.7731018066406,-65.8563995361328,1.653231996300484,0.6722445906797659,548242307
uw,-79.6819381713867,-66.7579040527343,1.920022308543931,0.8213602440850302,548258974
uw,-78.4922180175781,-67.6476516723632,2.029000005162413,0.9421338439750875,548275641
uw,-77.1718368530273,-68.5507431030273,1.9823594233044546,1.0279189093685845,548292308
uw,-75.7179870605468,-69.4087829589843,1.8206641182505146,1.0792443177817372,548308975
uw,-74.1593017578125,-70.2166976928711,1.6069314119660416,1.1015474999221015,548325642
uw,-72.4865264892578,-70.9892883300781,1.4061882014432285,1.1023334022299722,548342309
uw,-70.6905975341796,-71.7542343139648,1.2674568895212217,1.0891577223962228,548358976
uw,-68.6413650512695,-72.5260467529296,1.2132773087360569,1.0688968160523762,548375643
uw,-66.4254913330078,-73.2538146972656,1.2385080305022322,1.0477933453061634,548392310
uw,-63.9657592773437,-73.9798049926757,1.3169701948030614,1.0313828461866639,548408977
uw,-61.3124656677246,-74.7243270874023,1.4125497971812442,1.0236952225812503,548425644
uw,-58.80464553833,-75.4614486694336,1.4909021138129233,1.025753806409958,548442311
uw,-56.5509529113769,-76.1897659301757,1.528659267645945,1.0340089884967385,548458978
uw,-54.6290168762207,-76.8758697509765,1.5184486018361383,1.0397119636296182,548475645
uw,-52.377212524414,-77.5077209472656,1.4693553028740698,1.0301618799985186,548492312
uw,-49.8554229736328,-78.1507415771484,1.403301299815541,0.9921286168251001,548508979
uw,-47.312271118164,-78.8086853027343,1.3483081814120643,0.9167410371235475,548525646
uw,-44.8247032165527,-79.4834289550781,1.3300718982084665,0.8042484324277063,548542313
uw,-42.6631507873535,-80.1593780517578,1.3637367453895244,0.6668092189566895,548558980
uw,-40.7241020202636,-80.773696899414,1.4480122495032512,0.5279377933468758,548575647
uw,-39.098159790039,-81.2714614868164,1.5636032814260579,0.41818483029545733,548592314
uw,-37.5659103393554,-81.6536483764648,1.6771334031046534,0.36772752243320916,548608981
uw,-35.9606170654296,-81.9408340454101,1.7502548829790956,0.39759947083770986,548625648
uw,-34.0234375,-82.106086730957,1.7517298559882972,0.5120912295332745,548642315
uw,-31.8966464996337,-82.1302185058593,1.6686983176323251,0.695060342341308,548658982
uw,-30.0698871612548,-82.1307907104492,1.5130212031124775,0.9120933798283796,548675649
uw,-28.6853199005126,-82.1771011352539,1.319905086596208,1.1185761929911535,548692316
uw,-27.5547790527343,-82.2848434448242,1.13860051879194,1.2713944652785818,548708983
uw,-26.5895252227783,-82.5569763183593,1.0178887085900634,1.3403923925507708,548725650
uw,-25.7409725189209,-82.8932876586914,0.991208372697915,1.315802270977354,548742317
uw,-24.9961414337158,-83.1528396606445,1.0666479650852865,1.2095963309708542,548758984
uw,-24.5268459320068,-83.3379135131836,1.225279209115278,1.0510926615535943,548775651
uw,-24.2375202178955,-83.481216430664,1.4280941322057197,0.8788809129229415,548792318
uw,-24.1214408874511,-83.5536270141601,1.6285974228773332,0.7315678136119443,548808985
uw,-24.1528701782226,-83.5862579345703,1.7863318518129043,0.6393079418014904,548825652
uw,-24.206932067871,-83.6026077270507,1.8768540761134733,0.6173837501636599,548842319
uw,-24.1912193298339,-83.5975799560546,1.8954956514816095,0.6627178417282844,548858986
uw,-24.1754245758056,-83.5478591918945,1.8546954020118145,0.7540387029665517,548875653
uw,-24.431037902832,-83.4888076782226,1.7769098752420447,0.8561155976358944,548892320
uw,-25.055679321289,-83.5257110595703,1.6864735563606772,0.9278048233003539,548908987
uw,-25.8745231628417,-83.694351196289,1.6038058704251699,0.932632106991781,548925654
uw,-26.8717613220214,-84.0177841186523,1.5438712648497361,0.8495002836534895,548942321
uw,-28.3654251098632,-84.4716110229492,1.518322968337576,0.6803000253505629,548958988
uw,-30.1871147155761,-84.9823379516601,1.5385671586576684,0.45134308430063,548975655
uw,-32.0605583190918,-85.4818649291992,1.6164286348855197,0.20711837440568617,548992322
uw,-34.0550079345703,-85.9632797241211,1.7606849915239657,-0.002323987859434791,549008989
uw,-36.0341529846191,-86.4075164794921,1.9705879718351864,-0.13621605814905868,549025656
uw,-37.9641799926757,-86.7673568725586,2.229823583799669,-0.17475341058772662,549042323
uw,-40.0251426696777,-86.9903945922851,2.5047558892883957,-0.12346538921874581,549058990
uw,-41.8955535888671,-87.083755493164,2.749140130196131,-0.009210139364350719,549075657
uw,-43.6289710998535,-87.1003112792968,2.9147619053403746,0.13002141470085266,549092324
uw,-45.3979949951171,-87.0554962158203,2.9649064298050805,0.2573543126656357,549108991
uw,-47.2100563049316,-86.9274444580078,2.8861353828515064,0.34704799881616033,549125658
uw,-48.6031646728515,-86.7343368530273,2.6939545395712545,0.38938861020394455,549142325
uw,-49.1422538757324,-86.5381927490234,2.429440760381056,0.3897427612173171,549158992
uw,-49.4735221862793,-86.34130859375,2.146584902522788,0.3631272153852285,549175659
uw,-50.2011451721191,-86.1620254516601,1.8940539275501593,0.3269105918477083,549192326
uw,-51.7270698547363,-85.9552841186523,1.699123604947384,0.294481669364019,549208993
uw,-53.8371925354003,-85.7038116455078,1.562174033970094,0.2719360020987033,549225660
uw,-55.569522857666,-85.5030746459961,1.4646572560644693,0.2583183661997103,549242327
uw,-56.5880508422851,-85.2137374877929,1.3847679023786723,0.24841157660126142,549258994
uw,-57.2557945251464,-84.8098220825195,1.310359282796959,0.23631860762005863,549275661
uw,-58.1319847106933,-84.3421020507812,1.241838775601898,0.2183407095197274,549292328
uw,-59.1736297607421,-84.0376739501953,1.185515853463107,0.19434836336156303,549308995
uw,-60.192642211914,-83.9218521118164,1.1437993401740378,0.1674254612107552,549325662
uw,-61.1868553161621,-83.9272994995117,1.1092668612815206,0.14202416342527993,549342329
uw,-62.0928955078125,-84.1515579223632,1.0659008500887515,0.12142196216258952,549358996
uw,-62.943862915039,-84.4862289428711,0.9960239403899819,0.10583258412204478,549375663
uw,-63.7900657653808,-84.9039154052734,0.8886781931120097,0.09253846132641487,549392330
uw,-64.5550537109375,-85.3620681762695,0.7453306886296693,0.07840029333223592,549408997
uw,-65.144660949707,-85.8423995971679,0.5808276811782732,0.06341862035568122,549425664
uw,-65.6559143066406,-86.2747955322265,0.41985149997042337,0.05292904480312294,549442331
uw,-66.1588058471679,-86.5967102050781,0.29067530157301924,0.05660123844874856,549458998
uw,-66.7102355957031,-86.7385330200195,0.2184209611368138,0.0844470969243752,549475665
uw,-67.2792205810546,-86.6036224365234,0.21956044565655503,0.1420254394675482,549492332
uw,-67.7779846191406,-86.1097717285156,0.2986253567177214,0.22751297962545086,549508999
uw,-68.2209701538086,-85.3408737182617,0.4474357466564073,0.3320867462550342,549525666
uw,-68.6770553588867,-84.3080825805664,0.6467016510212665,0.4431185623402637,549542333
uw,-69.1050033569336,-82.9955444335937,0.8695061960030711,0.5482674596728319,549559000
uw,-69.4557266235351,-81.3928070068359,1.08594754580746,0.6383712507622311,549575667
uw,-69.7681579589843,-79.5431976318359,1.268124594164513,0.7079936572216421,549592334
uw,-70.1235046386718,-77.5761184692382,1.3946315155749913,0.7538961535161386,549609001
uw,-70.4915542602539,-75.575454711914,1.4537249758448803,0.7727445322288985,549625668
uw,-70.8561325073242,-73.6095809936523,1.4444684737412379,0.7595499214716865,549642335
uw,-71.2235717773437,-71.6945877075195,1.3756392809550984,0.70778226685191,549659002
uw,-71.5554580688476,-69.903938293457,1.262946688253336,0.6112419592854547,549675669
uw,-71.8478851318359,-68.1936874389648,1.1257177778221998,0.46704745212743193,549692336
uw,-72.045783996582,-66.5575790405273,0.9841908882004942,0.27866355187918673,549709003
uw,-72.1756591796875,-64.982925415039,0.8578730461466095,0.05777635363091548,549725670
uw,-72.338623046875,-63.3617858886718,0.7644960226167921,-0.1759456161750648,549742337
uw,-72.55859375,-61.8211975097656,0.7185730366240564,-0.3975490702826575,549759004
uw,-72.7521591186523,-60.3449478149414,0.7288966475695619,-0.5814794558957476,549775671
uw,-72.8822784423828,-58.8609390258789,0.7954598502448266,-0.7071151214632434,549792338
uw,-73.0444183349609,-57.4403686523437,0.9074231063153363,-0.7637085337769567,549809005
uw,-73.3119735717773,-56.1479911804199,1.0438923569518295,-0.7532953591548655,549825672
uw,-73.5952224731445,-54.957046508789,1.17813888643368,-0.6904821423728186,549842339
uw,-73.8410034179687,-53.8294029235839,1.284191269849859,-0.5988501512693546,549859006
uw,-74.0883483886718,-52.7171554565429,1.343538899413107,-0.5048677736035762,549875673
uw,-74.3506622314453,-51.6331825256347,1.3496530868973218,-0.43116803994970226,549892340
uw,-74.6561508178711,-50.6515426635742,1.3090299901222961,-0.39130929482444465,549909007
uw,-75.0079193115234,-49.8013343811035,1.2387896827225147,-0.3875369024684473,549925674
uw,-75.4566497802734,-49.0594444274902,1.1618055054877743,-0.41186713734383945,549942341
uw,-75.9995651245117,-48.4041290283203,1.1006673317328595,-0.4495889884838583,549959008
uw,-76.5515594482421,-47.8189125061035,1.0718133179416665,-0.48363046307852464,549975675
uw,-77.0027847290039,-47.3407440185546,1.0812189592040327,-0.49844022360797596,549992342
uw,-77.3597335815429,-46.9875717163085,1.122963387803313,-0.48280641548865566,550009009
uw,-77.6445159912109,-46.7314224243164,1.1813674974367403,-0.43171617206121304,550025676
uw,-77.9304656982421,-46.6168937683105,1.2361535535563424,-0.34748083784219697,550042343
uw,-78.2203674316406,-46.686897277832,1.2688226948519923,-0.24001734267525932,550059010
uw,-78.4896163940429,-46.9147872924804,1.267990182422112,-0.1259047020262122,550075677
uw,-78.7263717651367,-47.3174934387207,1.2320263765784614,-0.026036615317048598,550092344
uw,-78.9475021362304,-47.8730850219726,1.168569881606548,0.03772546989178055,550109011
uw,-79.185188293457,-48.5403861999511,1.0915881579003985,0.04603622413669198,550125678
uw,-79.3942718505859,-49.2427253723144,1.0172281103169538,-0.015080858421660357,550142345
uw,-79.5314636230468,-50.0027885437011,0.9597414815828978,-0.1522250827602302,550159012
uw,-79.5936660766601,-50.8099365234375,0.9285019595830457,-0.3631947979536539,550175679
uw,-79.7248306274414,-51.6479148864746,0.9266877150526133,-0.6359424605425024,550192346
uw,-79.931900024414,-52.4184036254882,0.9516464688467136,-0.94821011802597,550209013
uw,-80.0986938476562,-53.2410621643066,0.996438899257662,-1.2686553727092538,550225680
uw,-80.1737289428711,-54.1665611267089,1.0518190452169143,-1.560302265677434,550242347
uw,-80.1977767944336,-55.0216636657714,1.1081036677212852,-1.786384049581494,550259014
uw,-80.2353134155273,-55.9749488830566,1.1568401501252186,-1.9172952446562486,550275681
uw,-80.3106079101562,-56.8926391601562,1.1924962258464111,-1.9364018518716255,550292348
uw,-80.3168258666992,-57.6821784973144,1.2142654423386603,-1.842850557769973,550309015
uw,-80.1570587158203,-58.4866180419921,1.2275811404336001,-1.6510178004985667,550325682
uw,-79.8529891967773,-58.8417129516601,1.244424427238609,-1.3874196301993196,550342349
uw,-79.337661743164,-59.2058715820312,1.2814068878069993,-1.0858769819682876,550359016
uw,-78.77001953125,-59.9571418762207,1.3551583745977356,-0.781370879379175,550375683
uw,-78.2347259521484,-60.7438926696777,1.475722261513748,-0.5036849049000334,550392350
uw,-77.8514099121093,-61.4684333801269,1.6400541042272156,-0.27309668167328016,550409017
uw,-77.6896362304687,-62.1542320251464,1.8285697501678777,-0.0999016972405743,550425684
uw,-77.6234512329101,-62.7549057006835,2.0071565176733475,0.013121897444807473,550442351
uw,-77.665771484375,-63.4448623657226,2.134948719038068,0.06852216173138714,550459018
uw,-77.8959884643554,-64.2296600341796,2.175495732525448,0.07469712179039766,550475685
uw,-78.3319473266601,-64.9736022949218,2.1074003846134333,0.048228415548747565,550492352
uw,-78.7418594360351,-65.7230148315429,1.9309713370280701,0.014471228545886977,550509019
uw,-78.9175262451171,-66.456298828125,1.669272189965523,0.003447941726865559,550525686
uw,-78.8820114135742,-67.1336517333984,1.3637964466397665,0.041464213880223776,550542353
uw,-78.746337890625,-67.7620162963867,1.0660961813219192,0.14218960234006692,550559020
uw,-78.3677902221679,-68.4177932739257,0.8272413637708966,0.3016282789052976,550575687
uw,-77.6461486816406,-69.1056060791015,0.6873526733596143,0.49920538973886147,550592354
uw,-76.6652603149414,-69.8093109130859,0.6674978122454442,0.7040771528327766,550609021
uw,-75.5005416870117,-70.4950180053711,0.765671835200856,0.8838608353690276,550625688
uw,-74.4174194335937,-71.2003936767578,0.9575877246351726,1.0128627799414252,550642355
uw,-73.3916778564453,-71.9562454223632,1.2020782702386605,1.0777702238313787,550659022
uw,-72.2052536010742,-72.7100830078125,1.4501400346048685,1.0797576454581457,550675689
uw,-70.6738510131836,-73.4278945922851,1.6557730712955023,1.0328033048097507,550692356
uw,-68.8051834106445,-74.1222381591796,1.7859662030798051,0.9588869299348606,550709023
uw,-66.8395614624023,-74.8258056640625,1.8271491830150093,0.8815960009799144,550725690
uw,-64.8533706665039,-75.5417404174804,1.7864900618148545,0.8201207240184651,550742357
uw,-62.96484375,-76.2535171508789,1.6880133198315488,0.7853418609132274,550759024
uw,-61.2067947387695,-76.9546737670898,1.5649063667893737,0.7787859968224483,550775691
uw,-59.4135017395019,-77.6446151733398,1.4502710904924294,0.7941040909049311,550792358
uw,-57.5455856323242,-78.3360214233398,1.368918153797977,0.8199878213690917,550809025
uw,-55.4329605102539,-78.9913558959961,1.3324409660614132,0.843373907744029,550825692
uw,-53.2875671386718,-79.5910034179687,1.3386717560088282,0.8522367069217561,550842359
uw,-51.2892417907714,-80.1604537963867,1.3750700312218092,0.8377609476806771,550859026
uw,-49.6165924072265,-80.7023391723632,1.4243026583133809,0.7958462928249963,550875693
uw,-48.2455101013183,-81.2280197143554,1.4698065646258351,0.7277596930606883,550892360
uw,-46.8406257629394,-81.7540435791015,1.4995918956356604,0.6396661369818882,550909027
uw,-45.2725830078125,-82.2857131958007,1.5075843942251148,0.5410134291168652,550925694
uw,-43.4284210205078,-82.7860488891601,1.4928521049139754,0.44226582180096974,550942361
uw,-41.7182846069335,-83.3008651733398,1.457700474535397,0.35288936199085413,550959028
uw,-40.1186027526855,-83.811164855957,1.4057510617288678,0.28036074227691027,550975695
uw,-38.5696945190429,-84.2509613037109,1.340832527857214,0.23027382806830046,550992362
uw,-36.9780654907226,-84.6454086303711,1.2669585909507919,0.20686881909133678,551009029
uw,-35.505516052246,-84.962776184082,1.189067862059492,0.21310205020883108,551025696
uw,-34.0649948120117,-85.1849288940429,1.1138178583728282,0.24983336195293868,551042363
uw,-32.5528450012207,-85.4332275390625,1.0497069560369214,0.31447470092938407,551059030
uw,-31.1650123596191,-85.6754608154296,1.0060910459740242,0.40001517557569594,551075697
uw,-29.9319763183593,-85.878303527832,0.9911090983472602,0.49534682968057364,551092364
uw,-28.8794841766357,-86.050178527832,1.0090042010598332,0.5872285383832163,551109031
uw,-27.9609050750732,-86.1889038085937,1.0577379854484128,0.6633868706853615,551125698
uw,-27.1022033691406,-86.2544555664062,1.1280114827669132,0.715642895295056,551142365
uw,-26.3905849456787,-86.3054656982421,1.2046007779328014,0.7418699626256001,551159032
uw,-25.7404708862304,-86.3488082885742,1.270139372307663,0.7460244668016546,551175699
uw,-25.2390346527099,-86.4001083374023,1.3103305016691964,0.7362172404764195,551192366
uw,-24.9458560943603,-86.5029067993164,1.3186657382347278,0.7214951617920389,551209033
uw,-24.7715148925781,-86.627456665039,1.298682642044728,0.7084342419169668,551225700
uw,-24.5848236083984,-86.7359008789062,1.2627064831267265,0.6986972537850885,551242367
uw,-24.368667602539,-86.817398071289,1.2274031524128657,0.6883885508578321,551259034
uw,-24.1728897094726,-86.8786392211914,1.2076776152249393,0.6694460364931807,551275701
uw,-24.1301021575927,-86.9472579956054,1.2110416337338124,0.6326283225345818,551292368
uw,-24.3671779632568,-87.0101776123046,1.2344141153684667,0.57110600817406,551309035
uw,-24.8721923828125,-87.0951232910156,1.2645598152281738,0.483455336643024,551325702
uw,-25.6075325012207,-87.1400833129882,1.2822997334004238,0.37509655337342374,551342369
uw,-26.423204421997,-87.1535949707031,1.269479054188872,0.2578048395347368,551359036
uw,-27.1777553558349,-87.1597213745117,1.216690342596276,0.1474997841743898,551375703
uw,-27.7936897277832,-87.1130981445312,1.1292536516681302,0.06082592055402218,551392370
uw,-28.3112182617187,-87.0270462036132,1.0292288083641912,0.011156436223716462,551409037
uw,-28.877851486206,-86.9343338012695,0.9522558044060393,0.004816487227989049,551425704
uw,-29.6514778137207,-86.7978363037109,0.9394815576619147,0.03856555790127144,551442371
uw,-30.7363681793212,-86.6702194213867,1.0263300768796906,0.0994684213075571,551459038
uw,-32.1691093444824,-86.5542907714843,1.231004085387502,0.1678769579468803,551475705
uw,-33.8107604980468,-86.457290649414,1.5460278636646105,0.22317085700029318,551492372
uw,-35.4620780944824,-86.3765792846679,1.935681155426255,0.2504949839968147,551509039
uw,-36.9072837829589,-86.2542495727539,2.3408990122050928,0.24580077230947925,551525706
uw,-38.2012138366699,-86.1000747680664,2.6913789317875216,0.21682666496610892,551542373
uw,-39.7301750183105,-85.9455642700195,2.922571408717807,0.17933740637815712,551559040
uw,-41.3216819763183,-85.7680282592773,2.9933145959822243,0.15017522516305043,551575707
uw,-42.6392593383789,-85.5419158935546,2.89872620039385,0.14019598349222254,551592374
uw,-43.5490264892578,-85.2934799194336,2.6734822050534723,0.15014163425593857,551609041
uw,-44.1857681274414,-85.0920791625976,2.3833551526613563,0.17108448380815675,551625708
uw,-44.8659324645996,-84.9122314453125,2.107109143880473,0.1891075441176236,551642375
uw,-45.3681564331054,-84.6997299194336,1.9144465187806312,0.19224180662380194,551659042
uw,-45.5425491333007,-84.4097747802734,1.846757414915728,0.17692542711081258,551675709
uw,-45.750804901123,-84.0218429565429,1.9059672255833104,0.1515248999924405,551692376
uw,-46.617317199707,-83.5811309814453,2.0544407403340483,0.1355118123162343,551709043
uw,-48.0452537536621,-83.1718597412109,2.226620172812925,0.1542667071968042,551725710
uw,-49.3022918701171,-82.8209991455078,2.3500931604537434,0.23079867260418593,551742377
uw,-49.8964805603027,-82.5100936889648,2.3698289555550915,0.37670698528631863,551759044
uw,-50.2798995971679,-82.1837768554687,2.266618164009793,0.5852901151554648,551775711
uw,-50.9359436035156,-81.836799621582,2.0621921254400566,0.8295449128082205,551792378
uw,-51.9788665771484,-81.4344329833984,1.809139249493455,1.0666302859683563,551809045
uw,-53.0486679077148,-80.9776153564453,1.570425413874735,1.2482821786064724,551825712
uw,-54.0157890319824,-80.544563293457,1.3973833713179986,1.3342745316440132,551842379
uw,-54.8365783691406,-80.3036117553711,1.314651809107067,1.3043404794770197,551859046
uw,-55.62593460083,-80.3440246582031,1.3164862432977997,1.1640397308792585,551875713
uw,-56.4774780273437,-80.4962081909179,1.3737086144595652,0.942270065036703,551892380
uw,-57.3219451904296,-80.7907485961914,1.4468651373223658,0.6816143265503007,551909047
uw,-58.0048637390136,-81.2036895751953,1.4999838589844776,0.4256778948716257,551925714
uw,-58.5713806152343,-81.6581420898437,1.510324610654947,0.2084290289511906,551942381
uw,-59.1555709838867,-82.1520309448242,1.47180541427562,0.049006527064919016,551959048
uw,-59.8324356079101,-82.6955032348632,1.392372624162073,-0.0474284594753886,551975715
uw,-60.5474014282226,-83.3340835571289,1.2875457900775287,-0.08481515285732487,551992382
uw,-61.2385749816894,-83.9705200195312,1.173209744488308,-0.0704678942413967,552009049
uw,-61.8838424682617,-84.4680633544921,1.0604592511521505,-0.011255148242117784,552025716
uw,-62.4617881774902,-84.8528900146484,0.9541915624199833,0.08703091404541677,552042383
uw,-62.9799118041992,-85.1824035644531,0.8555186405130124,0.21762658641538876,552059050
uw,-63.467601776123,-85.42431640625,0.7664168615785223,0.37000701372731004,552075717
uw,-63.9855346679687,-85.554817199707,0.6939902652076066,0.5286787497905482,552092384
uw,-64.5733947753906,-85.533935546875,0.651806286082901,0.6749516222845807,552109051
uw,-65.1173629760742,-85.2535171508789,0.6570331781880432,0.7913173018064568,552125718
uw,-65.5567398071289,-84.6066055297851,0.724082632597224,0.8664833180721285,552142385
uw,-65.8771362304687,-83.6193008422851,0.8572637826976507,0.8986148914967553,552159052
uw,-66.1594314575195,-82.3884353637695,1.0457023104187613,0.8951176319055365,552175719
uw,-66.483039855957,-80.9588241577148,1.2630598970541815,0.8688836819492067,552192386
uw,-66.8313827514648,-79.3788452148437,1.4727177666191784,0.8325528875973643,552209053
uw,-67.2016372680664,-77.6734466552734,1.6369120436800353,0.7932569793996256,552225720
uw,-67.5568389892578,-75.8911666870117,1.7267533742859233,0.7500731776830288,552242387
uw,-67.9158554077148,-74.0316619873046,1.7297395860708034,0.6951419156207881,552259054
uw,-68.2598266601562,-72.1314926147461,1.6523814911230126,0.6177688980826747,552275721
uw,-68.6079025268554,-70.1825485229492,1.5174495672550985,0.5096350065968156,552292388
uw,-68.96044921875,-68.2287826538086,1.3572469092530286,0.36896457932864274,552309055
uw,-69.2953720092773,-66.2886276245117,1.2054065397566933,0.20213244967159788,552325722
uw,-69.6144409179687,-64.4498901367187,1.0897107888444668,0.02231204017048202,552342389
uw,-69.879280090332,-62.7095375061035,1.0276257574749093,-0.15412074728788805,552359056
uw,-70.0637512207031,-61.0580329895019,1.0251343146717276,-0.3119732396569247,552375723
uw,-70.2182922363281,-59.5065002441406,1.0784029911524695,-0.4407750470220052,552392390
uw,-70.4253997802734,-58.0094184875488,1.1770479347610987,-0.5362518980020443,552409057
uw,-70.6746597290039,-56.563247680664,1.3074868928990757,-0.5994276493170859,552425724
uw,-70.9266738891601,-55.130126953125,1.4552487494240285,-0.634147528688515,552442391
uw,-71.0604934692382,-53.729564666748,1.6060345346770666,-0.6445700900777651,552459058
uw,-71.0666885375976,-52.3799209594726,1.7462466056360841,-0.6340769287853737,552475725
uw,-71.0629577636718,-51.1251373291015,1.8639633279656558,-0.6060902392226493,552492392
uw,-71.1652297973632,-49.9388236999511,1.95069733673556,-0.5660743802839546,552509059
uw,-71.3912811279296,-48.8347549438476,2.0032339353702806,-0.5232602668864832,552525726
uw,-71.6458053588867,-47.8757743835449,2.024293176396446,-0.49070379614601983,552542393
uw,-71.8438186645507,-47.0556602478027,2.0212015878683274,-0.4830411471399268,552559060
uw,-72.0432052612304,-46.3691978454589,2.0028688938443877,-0.5123733475125625,552575727
uw,-72.3060531616211,-45.8026580810546,1.9763181937276306,-0.5836829280533478,552592394
uw,-72.61572265625,-45.3373222351074,1.9442286703132876,-0.6916466461916905,552609061
uw,-72.9087219238281,-44.9814949035644,1.9044385164029891,-0.8203801394108685,552625728
uw,-73.183609008789,-44.7095565795898,1.8515393492541226,-0.9465984356476386,552642395
uw,-73.5408020019531,-44.4926414489746,1.779968769669717,-1.045364447969558,552659062
uw,-73.964111328125,-44.3710556030273,1.6875434288884446,-1.096612149916314,552675729
uw,-74.3513107299804,-44.3786849975585,1.5782072876593816,-1.0903454001136086,552692396
uw,-74.6324996948242,-44.5077209472656,1.4629591946046092,-1.0289057822148953,552709063
uw,-74.8207015991211,-44.7288589477539,1.3585004125521587,-0.9258005784157521,552725730
uw,-75.0117721557617,-44.9789009094238,1.2839217570958044,-0.8018486800847631,552742397
uw,-75.1990203857421,-45.2926521301269,1.256350584725503,-0.6802493416111562,552759064
uw,-75.3451843261718,-45.6730651855468,1.2866353472922307,-0.5822153589001252,552775731
uw,-75.4539718627929,-46.2288703918457,1.3759722184637222,-0.5241330858854905,552792398
uw,-75.6227645874023,-47.0519371032714,1.5141965829538404,-0.5163012369849472,552809065
uw,-75.8028411865234,-48.009708404541,1.680364733437744,-0.5626554509550238,552825732
uw,-75.9740676879882,-48.9278678894043,1.845969768781494,-0.6607517522754105,552842399
uw,-76.1368026733398,-49.73779296875,1.980442508052903,-0.8016618423354153,552859066
uw,-76.3462829589843,-50.4627380371093,2.057715125583251,-0.9701250131116884,552875733
uw,-76.667236328125,-51.1200866699218,2.0621209939681004,-1.1458532989781927,552892400
uw,-77.0417785644531,-51.7024269104003,1.9921006714440537,-1.3067385127616493,552909067
uw,-77.4174194335937,-52.3515586853027,1.8609193045228583,-1.4336823244618104,552925734
uw,-77.7438125610351,-52.9384307861328,1.6944308587040082,-1.5154560146676346,552942401
uw,-78.0202941894531,-53.4916954040527,1.5264941283102134,-1.5514217398192094,552959068
uw,-78.280288696289,-54.0335006713867,1.3928869294578705,-1.5506562500189327,552975735
uw,-78.5056838989257,-54.5774497985839,1.324646758248398,-1.5275835830985887,552992402
uw,-78.6333618164062,-55.2401428222656,1.3418725952904107,-1.4957239411517986,553009069
uw,-78.5708236694336,-55.9426727294921,1.4491607784246303,-1.4619606279125845,553025736
uw,-78.350830078125,-56.5437889099121,1.6338384170611888,-1.4236550473799507,553042403
uw,-78.1368331909179,-57.2200584411621,1.8677670684520478,-1.3699957271169527,553059070
uw,-78.12109375,-57.599739074707,2.112626517006526,-1.2871954316426495,553075737
uw,-78.1753005981445,-57.8002014160156,2.327490206436914,-1.1651059421228438,553092404
uw,-78.1532897949218,-58.5065422058105,2.476689242547439,-1.0018425614247117,553109071
uw,-78.0209732055664,-59.4953002929687,2.535886168350393,-0.8042626890025578,553125738
uw,-77.8248596191406,-60.4691352844238,2.4950179742053504,-0.5849834248017426,553142405
uw,-77.7366409301757,-61.2837295532226,2.3579948688261134,-0.358647359764096,553159072
uw,-77.883804321289,-61.9746017456054,2.140206650154788,-0.13965275840647387,553175739
uw,-78.1917114257812,-62.6110877990722,1.8654566577849014,0.05852357351379927,553192406
uw,-78.4984893798828,-63.3195152282714,1.5636424478706228,0.22371893658682498,553209073
uw,-78.7262115478515,-64.1022644042968,1.2694588145539307,0.3462906953654349,553225740
uw,-78.7941436767578,-64.8555068969726,1.0211275774958928,0.4211207398138048,553242407
uw,-78.7344970703125,-65.5422668457031,0.8574267362794467,0.44948846596608577,553259074
uw,-78.5579528808593,-66.1995468139648,0.8117323560151641,0.4396796304805409,553275741
uw,-78.2283859252929,-66.9408416748046,0.9033859894979956,0.4057178981329812,553292408
uw,-77.7535934448242,-67.673957824707,1.1286906949621411,0.3645317233195068,553309075
uw,-77.2187118530273,-68.3917236328125,1.4551797239791033,0.3326073225278023,553325742
uw,-76.697509765625,-69.0957717895507,1.8227482636728578,0.32320055657452507,553342409
uw,-76.2791748046875,-69.8386306762695,2.153580717627816,0.3445429583615646,553359076
uw,-75.90576171875,-70.5975952148437,2.3698950911340937,0.3988518311680056,553375743
uw,-75.4334487915039,-71.2991180419921,2.4152325388541183,0.4819559738419298,553392410
uw,-74.8141784667968,-72.0045013427734,2.2725980863361035,0.5838321634441228,553409077
uw,-74.0447769165039,-72.7304611206054,1.9725507876135673,0.6905348769489775,553425744
uw,-73.1706085205078,-73.4616928100586,1.5871384171813938,0.7874002472668727,553442411
uw,-72.1277923583984,-74.1357955932617,1.210712648832248,0.862473247858508,553459078
uw,-70.7846984863281,-74.791030883789,0.9338347493682448,0.9088017583987198,553475745
uw,-69.2109069824218,-75.4754180908203,0.819018372399048,0.924930293305927,553492412
uw,-67.4753341674804,-76.1212158203125,0.8858051589434267,0.913986973776151,553509079
uw,-65.7299194335937,-76.6937942504882,1.108692041724719,0.8822955178797547,553525746
uw,-64.0333175659179,-77.2144165039062,1.4269626523772383,0.8381750216164744,553542413
uw,-62.2729988098144,-77.7226181030273,1.762318070447622,0.7909523007248641,553559080
uw,-60.3407478332519,-78.2381286621093,2.0389338569110267,0.7498422302589498,553575747
uw,-58.2598342895507,-78.7225036621093,2.2008772401776073,0.7225330581420211,553592414
uw,-56.1137924194335,-79.1465988159179,2.2231532099260645,0.713770608381652,553609081
uw,-54.077392578125,-79.5372848510742,2.1145327184608433,0.7244338242528782,553625748
uw,-52.1554946899414,-79.8992919921875,1.9123270688980705,0.7513188486979536,553642415
uw,-50.2681770324707,-80.2583770751953,1.67103241257335,0.7874445656313008,553659082
uw,-48.377456665039,-80.6061477661132,1.4479883651141399,0.8226624315143682,553675749
uw,-46.5232315063476,-80.9327163696289,1.2896797098762232,0.8447736492508932,553692416
uw,-44.760082244873,-81.2427902221679,1.2219621511792604,0.8417605496280149,553709083
uw,-43.2195663452148,-81.5118713378906,1.2463568458765548,0.8055423242049446,553725750
uw,-41.7118492126464,-81.7810287475586,1.3428609844962063,0.7366848495119147,553742417
uw,-40.2209930419921,-82.1120834350586,1.477890077295284,0.648171711378888,553759084
uw,-38.8579864501953,-82.5352325439453,1.6145869941570175,0.5655845525771971,553775751
uw,-37.5389137268066,-83.0340194702148,1.7223348930901836,0.5217386658865288,553792418
uw,-36.1052551269531,-83.5320434570312,1.783027152527398,0.5461987948437436,553809085
uw,-34.4538116455078,-83.8876266479492,1.793046192806698,0.6532084265592106,553825752
uw,-32.6629981994628,-84.1008987426757,1.761292058935168,0.8334821553081513,553842419
uw,-31.0387840270996,-84.2037658691406,1.7045225343443635,1.0543753478321214,553859086
uw,-29.676700592041,-84.2614059448242,1.6416407456607143,1.2692447409343275,553875753
uw,-28.5527572631835,-84.3822860717773,1.5884973185944458,1.4323981122349332,553892420
uw,-27.5502185821533,-84.5198135375976,1.5544169432315127,1.5134497676383045,553909087
uw,-26.5694408416748,-84.6326522827148,1.5411605090695204,1.505445675905904,553925754
uw,-25.5957355499267,-84.7202911376953,1.5444084763426298,1.4242290295818316,553942421
uw,-24.5749759674072,-84.788948059082,1.5570607274907866,1.3003676249890095,553959088
uw,-23.7406864166259,-84.8385925292968,1.5729246080696266,1.167648535315624,553975755
uw,-23.2705841064453,-84.8656158447265,1.5891981286956312,1.0526702699111825,553992422
uw,-23.1342658996582,-84.8719177246093,1.6067784550450899,0.9687202005195196,554009089
uw,-23.1145496368408,-84.8453903198242,1.628471460257601,0.9150477131134713,554025756
uw,-22.90083694458,-84.8117523193359,1.6560336679530476,0.8808779680958265,554042423
uw,-22.4359321594238,-84.7675628662109,1.6873310307191687,0.8523864888137175,554059090
uw,-21.823034286499,-84.7188034057617,1.7148194272142123,0.8201940194997257,554075757
uw,-21.2900066375732,-84.7242965698242,1.7261757795639228,0.7847000150591571,554092424
uw,-20.9984588623046,-84.7335205078125,1.7072812913447333,0.7570458053553663,554109091
uw,-21.0067768096923,-84.7059860229492,1.6469890356569388,0.7549216319746409,554125758
uw,-21.2497768402099,-84.5940856933593,1.5424400833588892,0.7945190046083666,554142425
uw,-21.7830581665039,-84.4614791870117,1.403317767805235,0.8818014452442058,554159092
uw,-22.5208511352539,-84.3483734130859,1.2534105193703917,1.0068829153898748,554175759
uw,-23.4896869659423,-84.2432022094726,1.1282642857692733,1.1441680198844937,554192426
uw,-24.7494831085205,-84.1473007202148,1.0686251514327858,1.2585034514963798,554209093
uw,-26.2019653320312,-84.0403366088867,1.1106557345907115,1.3151222688550386,554225760
uw,-27.7240905761718,-83.9381561279296,1.2751395286803962,1.2898040473272954,554242427
uw,-29.6154479980468,-83.9052581787109,1.5586418374983162,1.175894825208383,554259094
uw,-31.7464847564697,-83.94482421875,1.9296368849744798,0.9862660220923333,554275761
uw,-33.7720909118652,-84.1164398193359,2.331797207698045,0.7501331959729843,554292428
uw,-35.9811973571777,-84.407844543457,2.694853255469814,0.5061529732093637,554309095
uw,-38.5403213500976,-84.6866989135742,2.9508569060761864,0.29393417967330165,554325762
uw,-41.1143493652343,-84.8944702148437,3.0512466188523835,0.14599603166326997,554342429
uw,-43.3663482666015,-85.0884933471679,2.9792586511533234,0.08162492767228718,554359096
uw,-45.2719764709472,-85.2607040405273,2.753788604942463,0.1034992554455398,554375763
uw,-47.0156631469726,-85.3786468505859,2.424035888183087,0.19757960197784927,554392430
uw,-48.8685226440429,-85.4515380859375,2.0573003255854707,0.3364094857560894,554409097
uw,-50.8635063171386,-85.532974243164,1.723666491105856,0.48534298503150824,554425764
uw,-52.331687927246,-85.6053771972656,1.4809790567282997,0.6103299000406375,554442431
uw,-53.4152717590332,-85.6611709594726,1.3626768150120294,0.6852025131029701,554459098
uw,-54.7235870361328,-85.7139892578125,1.370811480497786,0.6964759309406617,554475765
uw,-56.5225524902343,-85.8776397705078,1.4766128875347975,0.6446364707164554,554492432
uw,-58.320198059082,-86.1527938842773,1.6297457451745814,0.5422603517116076,554509099
uw,-59.6992683410644,-86.4795227050781,1.774197260910494,0.4102665958792912,554525766
uw,-60.5447311401367,-86.8373947143554,1.865205379081716,0.2736451194903318,554542433
uw,-61.1193733215332,-87.1838073730468,1.8806287297032982,0.157325281350418,554559100
uw,-61.7333259582519,-87.5173797607421,1.8227627345390995,0.08223086199891298,554575767
uw,-62.4659271240234,-87.7879562377929,1.7111552052388272,0.06160782870482585,554592434
uw,-63.1793060302734,-87.9579925537109,1.5708087944539142,0.09826068414614332,554609101
uw,-63.7556228637695,-87.9968948364257,1.4215292190569355,0.1836807284487812,554625768
uw,-64.1888732910156,-87.8776321411132,1.272771065384482,0.29968095581853527,554642435
uw,-64.6184539794921,-87.5119476318359,1.1251091464091674,0.42224108398869425,554659102
uw,-65.1611709594726,-86.8980178833007,0.97618874708528,0.5264610122033186,554675769
uw,-65.6662292480468,-86.1123428344726,0.8272696139724854,0.591339893997101,554692436
uw,-66.0146942138671,-85.1559677124023,0.6868144350076187,0.6035073281931946,554709103
uw,-66.3213424682617,-84.1053848266601,0.5694401717471814,0.5595517425436639,554725770
uw,-66.7295455932617,-83.0911865234375,0.49089576345368996,0.46680141353127125,554742437
uw,-67.1902084350586,-82.1266784667968,0.46152427234360577,0.3423612116568097,554759104
uw,-67.6553115844726,-81.179084777832,0.4812263168842027,0.21025351596877237,554775771
uw,-68.0017318725586,-80.1375350952148,0.5381423168677973,0.0968458234354955,554792438
uw,-68.2184219360351,-78.9440765380859,0.6116130600622044,0.0252180605580662,554809105
uw,-68.3270187377929,-77.6021270751953,0.6782893213746853,0.009521859911938883,554825772
uw,-68.4631805419921,-76.1429290771484,0.7191921865149967,0.050648212376164466,554842439
uw,-68.6566085815429,-74.5542221069336,0.7252870823212189,0.13455927997516318,554859106
uw,-68.9266281127929,-72.8723831176757,0.6996629503684302,0.23423317785818507,554875773
uw,-69.2306594848632,-71.1227874755859,0.6555980681426604,0.3152258244553711,554892440
uw,-69.5992431640625,-69.3229064941406,0.6114020249490647,0.3436748756939929,554909107
uw,-70.0552291870117,-67.526870727539,0.5843187184937428,0.2946989701577502,554925774
uw,-70.598518371582,-65.7712936401367,0.5861044220531169,0.158958348440026,554942441
uw,-71.0830535888671,-64.0792846679687,0.6217852429820804,-0.054335834905174456,554959108
uw,-71.3956527709961,-62.4309272766113,0.6911960680197795,-0.318676827840504,554975775
uw,-71.5709228515625,-60.8049201965332,0.7914839920614334,-0.5953651648400391,554992442
uw,-71.691909790039,-59.2695808410644,0.9186747161816357,-0.841147004880592,555009109
uw,-71.8197326660156,-57.7757377624511,1.067452859925627,-1.0166480686764638,555025776
uw,-71.984390258789,-56.2426528930664,1.2296251564148393,-1.0938868725699793,555042443
uw,-72.1289672851562,-54.6941680908203,1.3925766182306079,-1.0614777853469415,555059110
uw,-72.1751556396484,-53.1729660034179,1.5391499850495733,-0.9266718163072152,555075777
uw,-72.1720199584961,-51.7364349365234,1.6498547705977187,-0.7140505081234481,555092444
uw,-72.1476821899414,-50.335952758789,1.707332432799563,-0.4612885686615976,555109111
uw,-72.1608963012695,-48.9659194946289,1.7018961571449187,-0.21275094033313455,555125778
uw,-72.1855545043945,-47.6318244934082,1.6362028644653843,-0.011863538149383934,555142445
uw,-72.1861038208007,-46.3172416687011,1.5271036075202882,0.10657891876033293,555159112
uw,-72.1635208129882,-45.0717620849609,1.4035143433470818,0.12273290503424204,555175779
uw,-72.1483993530273,-43.9378471374511,1.3004131741133313,0.03521238439561012,555192446
uw,-72.0445098876953,-42.922607421875,1.2502806272601241,-0.13915428854936251,555209113
uw,-71.8907241821289,-42.0254592895507,1.2740744942010203,-0.3693407875438026,555225780
uw,-71.7383651733398,-41.2577247619628,1.374106809760507,-0.6169594705798711,555242447
uw,-71.6915893554687,-40.5802116394043,1.5310642977591133,-0.8442554559554782,555259114
uw,-71.6877365112304,-40.0353507995605,1.7067999119086243,-1.0213574607976488,555275781
uw,-71.7164611816406,-39.6657371520996,1.8531428298972132,-1.1311593451354485,555292448
uw,-71.7986068725586,-39.3758544921875,1.9248778656183454,-1.1708973416673127,555309115
uw,-71.9601364135742,-39.0565948486328,1.8930429437131266,-1.1504152227860354,555325782
uw,-72.2602157592773,-38.7510643005371,1.7539741829102267,-1.0879987293983384,555342449
uw,-72.5616836547851,-38.5645942687988,1.5307445996978866,-1.0051877097215793,555359116
uw,-72.8737487792968,-38.4863319396972,1.2663767006887712,-0.9219819867660267,555375783
uw,-73.1852722167968,-38.4810333251953,1.0112426301825246,-0.853476616193002,555392450
uw,-73.5058898925781,-38.5113716125488,0.8090894916214708,-0.8084158370745557,555409117
uw,-73.8897552490234,-38.5798721313476,0.6863391607509575,-0.7895457242122287,555425784
uw,-74.3103866577148,-38.7309417724609,0.6476979153759714,-0.795073728292215,555442451
uw,-74.7102508544921,-39.0240173339843,0.6784714557486726,-0.8202671470593142,555459118
uw,-75.0235061645507,-39.4348030090332,0.7515903939398646,-0.8584696507550287,555475785
uw,-75.2437973022461,-39.984806060791,0.8362481168017751,-0.9014647922376638,555492452
uw,-75.4087295532226,-40.6038818359375,0.9054379330430908,-0.939726025105124,555509119
uw,-75.5106964111328,-41.2484054565429,0.9409363304031989,-0.9632665591882839,555525786
uw,-75.580940246582,-41.9167518615722,0.9355419802585547,-0.9634757402095983,555542453
uw,-75.6589660644531,-42.6219367980957,0.8930979088439781,-0.9357386810295877,555559120
uw,-75.6918869018554,-43.3829040527343,0.8269788983628679,-0.882098010191193,555575787
uw,-75.6685638427734,-44.2313270568847,0.7575963222995984,-0.8129431674024249,555592454
uw,-75.6898117065429,-45.110252380371,0.7092682843728493,-0.7467734579792579,555609121
uw,-75.73388671875,-45.9750175476074,0.706574031596108,-0.7074793478400057,555625788
uw,-75.8037643432617,-46.8385887145996,0.77014138342183,-0.7192951693751835,555642455
uw,-75.8513259887695,-47.6971359252929,0.9119053213142124,-0.800425939440294,555659122
uw,-75.9221878051757,-48.4704704284668,1.130346428087112,-0.9569771495763607,555675789
uw,-75.9102401733398,-49.1914138793945,1.4069184188326245,-1.1788924128760396,555692456
uw,-75.8500595092773,-49.9174499511718,1.7054222306351747,-1.4391230614849841,555709123
uw,-75.8457946777343,-50.6663627624511,1.9760357495592966,-1.6965003020513563,555725790
uw,-75.7760314941406,-51.3948631286621,2.164729445439709,-1.9020559218921769,555742457
uw,-75.4963760375976,-52.1143112182617,2.226886625354463,-2.0079581706631595,555759124
uw,-75.1644058227539,-52.8668632507324,2.141660529402054,-1.9777237424855247,555775791
uw,-75.0423355102539,-53.6339454650878,1.922032662284661,-1.795830531511978,555792458
uw,-75.2869415283203,-54.3659210205078,1.6158510987368369,-1.4743796116303536,555809125
uw,-75.603042602539,-55.0632286071777,1.2957820623074894,-1.054415452474317,555825792
uw,-75.8378143310546,-55.751953125,1.0402478022844848,-0.6003223783258107,555842459
uw,-76.1620864868164,-56.4997291564941,0.9111193562962497,-0.18740126652856548,555859126
uw,-76.6874923706054,-57.3985214233398,0.9353964074348816,0.1151770217962397,555875793
uw,-77.3214645385742,-58.4138679504394,1.096844659184547,0.2620010139263449,555892460
uw,-77.8207321166992,-59.512710571289,1.3403534849242489,0.24452313080347562,555909127
uw,-78.2443084716796,-60.7760124206543,1.587844790716671,0.0947176105083184,555925794
uw,-78.6415100097656,-62.0086326599121,1.7610542932835256,-0.12361446284779189,555942461
uw,-79.0857162475586,-63.1328239440918,1.8044180148106586,-0.33471185546136456,555959128
uw,-79.7264328002929,-63.8436584472656,1.7012813428776015,-0.4755987521137888,555975795
uw,-80.421028137207,-64.4119033813476,1.4786973887458066,-0.5159577953318244,555992462
uw,-80.9392852783203,-65.0813446044921,1.1995151626297655,-0.46446821223082607,556009129
uw,-81.2508850097656,-65.8637619018554,0.9442183394633075,-0.3590542376075237,556025796
uw,-81.3982315063476,-66.6599655151367,0.7879766834595656,-0.24636418625191125,556042463
uw,-81.4352569580078,-67.3360214233398,0.779762514656137,-0.16059518903199185,556059130
uw,-81.3345870971679,-67.8261260986328,0.9297095676299841,-0.1109080183159886,556075797
uw,-81.1065597534179,-68.1942520141601,1.20824883224112,-0.08145446773576452,556092464
uw,-80.7765502929687,-68.5029373168945,1.5567351305860413,-0.04194518829484948,556109131
uw,-80.2979202270507,-68.8287353515625,1.9056366028558802,0.037283060753469335,556125798
uw,-79.6643676757812,-69.1540222167968,2.194237336239368,0.17241065631175595,556142465
uw,-78.9323196411132,-69.4329605102539,2.3858110207539935,0.36010401424464766,556159132
uw,-78.1130828857421,-69.6923370361328,2.474053997204966,0.5795037770051559,556175799
uw,-77.2570037841796,-69.9807205200195,2.479442928434557,0.8002178062639472,556192466
uw,-76.3256683349609,-70.2647171020507,2.4373165730565303,0.9924712081816889,556209133
uw,-75.3379516601562,-70.5322799682617,2.382109219547389,1.1355806717512624,556225800
uw,-74.2294616699218,-70.7999572753906,2.3334641958107687,1.2223982655567476,556242467
uw,-72.9820098876953,-71.1020889282226,2.289304639824961,1.2593092919925961,556259134
uw,-71.5779800415039,-71.4777221679687,2.228396488544356,1.2628109175014526,556275801
uw,-69.9871444702148,-71.8655853271484,2.1213998570221415,1.254269431622192,556292468
uw,-68.2303390502929,-72.180679321289,1.9461649277224624,1.2543543386054055,556309135
uw,-66.4676208496093,-72.3827362060546,1.7012404278208075,1.278264801246632,556325802
uw,-64.411262512207,-72.4364776611328,1.4119735177215333,1.3324691445328052,556342469
uw,-62.2753143310546,-72.4046783447265,1.1262905950625863,1.4133539642610287,556359136
uw,-60.0630302429199,-72.4215927124023,0.9013623353936898,1.5078931681053926,556375803
uw,-57.9669075012207,-72.5376510620117,0.786067756960489,1.5961808894610552,556392470
uw,-56.0401458740234,-72.7035064697265,0.8057032351081643,1.6554413901067278,556409137
uw,-54.2096328735351,-72.9530487060546,0.9541528567900663,1.6648788473557061,556425804
uw,-52.7370300292968,-73.2759780883789,1.1956671088808797,1.6104149147168911,556442471
uw,-51.0905532836914,-73.6534652709961,1.4750574800557124,1.4881660805774524,556459138
uw,-49.160717010498,-74.0383224487304,1.732675465464879,1.3057298484519977,556475805
uw,-47.1938972473144,-74.4568176269531,1.9195015414042549,1.080989974618516,556492472
uw,-45.3565940856933,-74.9354934692382,2.0081028919435098,0.8388669238124795,556509139
uw,-43.8495216369628,-75.4313278198242,1.9968851017765539,0.606861159436404,556525806
uw,-42.5686683654785,-75.9444351196289,1.9073314726493877,0.4102927573789954,556542473
uw,-41.1860771179199,-76.4477233886718,1.7759341817976135,0.2680325835714861,556559140
uw,-39.5558280944824,-76.9511947631836,1.6436191702085152,0.18943685769904212,556575807
uw,-37.585636138916,-77.397102355957,1.5455556484934456,0.17309892002619467,556592474
uw,-35.8602294921875,-77.7845993041992,1.5036672112749694,0.20774568868470047,556609141
uw,-34.849925994873,-78.1514739990234,1.5232682063795426,0.27510890290731765,556625808
uw,-34.0836029052734,-78.5058059692382,1.5941845459995683,0.3541188148860228,556642475
uw,-32.7664070129394,-78.7996444702148,1.695609710664422,0.4255198706167443,556659142
uw,-31.0891304016113,-79.0482635498046,1.8030251706864975,0.4759525954332561,556675809
uw,-29.627384185791,-79.382095336914,1.895044119261632,0.5005382591804723,556692476
uw,-28.4723968505859,-79.8604202270507,1.9582232053578246,0.5031309992900364,556709143
uw,-27.4738311767578,-80.3928527832031,1.9887459094612354,0.49391833541726293,556725810
uw,-26.596170425415,-80.929443359375,1.9910721716195756,0.4849320265404135,556742477
uw,-25.7221374511718,-81.4088363647461,1.9745797338828484,0.48484422083810363,556759144
uw,-24.8458251953125,-81.8607864379882,1.9495207211459835,0.49474165792553165,556775811
uw,-24.1257438659667,-82.2680053710937,1.9234129848531045,0.506343407495454,556792478
uw,-23.6902027130126,-82.6230697631836,1.8986382045789378,0.5035327737345422,556809145
uw,-23.5083560943603,-82.9425888061523,1.871717507954623,0.4671900509237269,556825812
uw,-23.6282005310058,-83.2593078613281,1.834458231739879,0.38218260280112826,556842479
uw,-23.8547267913818,-83.5752029418945,1.7768155403755308,0.24432135674372835,556859146
uw,-24.0303764343261,-83.8949127197265,1.690806195495559,0.06470247695900311,556875813
uw,-24.1587200164794,-84.2361907958984,1.5742282509923389,-0.13052712956062235,556892480
uw,-24.4997615814209,-84.5722045898437,1.432652098831406,-0.30547082559366057,556909147
uw,-25.1458950042724,-84.8379821777343,1.2785927232304202,-0.42356073911876446,556925814
uw,-25.8921966552734,-85.1010360717773,1.1279634023846727,-0.45772260055800623,556942481
uw,-26.6021347045898,-85.3497543334961,0.995256267689376,-0.3984783920843709,556959148
uw,-27.22607421875,-85.5245590209961,0.8895963791984586,-0.25745059035903467,556975815
uw,-27.9304332733154,-85.6113510131836,0.8134476900269131,-0.06506522194333268,556992482
uw,-28.7198390960693,-85.7480773925781,0.7645159717601392,0.13712761859961534,557009149
uw,-29.6163387298584,-86.0890426635742,0.7399548794679801,0.30749001501921047,557025816
uw,-30.4861164093017,-86.5182266235351,0.7410282477643858,0.41547132199368675,557042483
uw,-31.4509105682373,-86.9034576416015,0.7762340182876843,0.4494985421158572,557059150
uw,-32.5249595642089,-87.2324676513671,0.861396870756892,0.419226418644641,557075817
uw,-33.6284713745117,-87.5808715820312,1.0160433076935644,0.35169289218016636,557092484
uw,-34.5929145812988,-87.7743759155273,1.2563439766504176,0.28273108786691775,557109151
uw,-35.3531303405761,-87.7075729370117,1.5861286960739038,0.24606395160364225,557125818
uw,-35.8891830444335,-87.5098266601562,1.988809708600731,0.262940958836941,557142485
uw,-36.5094337463378,-87.2431030273437,2.4237922337353615,0.3352705824669618,557159152
uw,-37.3843460083007,-86.9752197265625,2.830269045432807,0.4447021057680732,557175819
uw,-38.5427665710449,-86.7568359375,3.139016036598097,0.558418891881751,557192486
uw,-39.9084167480468,-86.5530395507812,3.289715441750929,0.6397324395053233,557209153
uw,-41.3307304382324,-86.3177261352539,3.2487286686898225,0.6594030949812907,557225820
uw,-42.6560821533203,-86.0461196899414,3.021290068387069,0.603558231000306,557242487
uw,-43.7214546203613,-85.7939224243164,2.653378228177873,0.47618966385037986,557259154
uw,-44.6243057250976,-85.6121139526367,2.221748260256068,0.296826271483284,557275821
uw,-45.4909553527832,-85.4892425537109,1.8146101274253328,0.09532206674692958,557292488
uw,-46.4245719909668,-85.4383773803711,1.508649686917493,-0.09452014147679577,557309155
uw,-47.5848388671875,-85.3990478515625,1.3492860124765589,-0.24151830452096185,557325822
uw,-48.8911628723144,-85.3350296020507,1.3399104945915736,-0.3231847759297405,557342489
uw,-49.8085403442382,-85.3211975097656,1.4430260811434952,-0.3303305112658536,557359156
uw,-50.2991828918457,-85.3138275146484,1.5928823024548748,-0.26893124430858734,557375823
uw,-50.9150924682617,-85.3839569091796,1.716224747916733,-0.1582751327478978,557392490
uw,-51.843505859375,-85.5782775878906,1.7553461309550789,-0.02548840873605131,557409157
uw,-52.6590118408203,-85.8141860961914,1.686160282718571,0.10200122254173419,557425824
uw,-53.162296295166,-85.931770324707,1.5247995443680717,0.20354281660138349,557442491
uw,-53.4992332458496,-85.852066040039,1.3201303402649902,0.26960024688406936,557459158
uw,-53.8500137329101,-85.7499237060546,1.1352330226316976,0.30232380900130806,557475825
uw,-54.2921562194824,-85.810676574707,1.025217210160251,0.31273519809113454,557492492
uw,-54.7604331970214,-86.0178833007812,1.0194985102871001,0.3157812181681281,557509159
uw,-55.1516456604003,-86.3045654296875,1.1140207828820914,0.32479005832486796,557525826
uw,-55.5245208740234,-86.6666946411132,1.2747323869788878,0.3467911209659386,557542493
uw,-55.944221496582,-87.0712356567382,1.449862024988569,0.3799028391257952,557559160
uw,-56.405963897705,-87.5108413696289,1.5862866289837965,0.41354146095883587,557575827
uw,-56.8651542663574,-87.871467590332,1.6447607642417368,0.4314963767911199,557592494
uw,-57.3448486328125,-88.0143661499023,1.6097202894537777,0.41706660960568365,557609161
uw,-57.8388557434082,-87.7671737670898,1.491354511287905,0.3587885528163571,557625828
uw,-58.265510559082,-87.1305084228515,1.3201394236533472,0.25509346403885064,557642495
uw,-58.5493736267089,-86.2574996948242,1.1363422420069114,0.11652939090780587,557659162
uw,-58.7817420959472,-85.2697296142578,0.9783168668777651,-0.03519596915879289,557675829
uw,-58.984619140625,-84.230484008789,0.87318755811301,-0.17128339273166462,557692496
uw,-59.1508331298828,-83.1381378173828,0.8320549241632393,-0.2620773346164645,557709163
uw,-59.247501373291,-82.034797668457,0.8501049360680987,-0.2838555456819759,557725830
uw,-59.3393745422363,-80.9256744384765,0.9107352622846513,-0.22443738582674733,557742497
uw,-59.4401130676269,-79.8228607177734,0.9920971370573506,-0.08633854740736929,557759164
uw,-59.42915725708,-78.7117919921875,1.0739847021620172,0.11310737923021778,557775831
uw,-59.4443855285644,-77.5503616333007,1.1427952786484366,0.34461290789006827,557792498
uw,-59.5220680236816,-76.3407669067382,1.1927876353745,0.5721108952076068,557809165
uw,-59.6710891723632,-75.0677719116211,1.2234116359797538,0.7589353537589426,557825832
uw,-59.834602355957,-73.753547668457,1.2345738174566994,0.8734987462501062,557842499
uw,-60.0658798217773,-72.4852905273437,1.2230375975742418,0.8935112871053656,557859166
uw,-60.3209114074707,-71.302864074707,1.1826270837818464,0.8087252746577084,557875833
uw,-60.5436325073242,-70.2151107788086,1.1086388679220949,0.6226792164685429,557892500
uw,-60.7398834228515,-69.1615753173828,1.0042175772122715,0.35356550127816005,557909167
uw,-60.9487075805664,-68.1197509765625,0.8849880188137725,0.033582034838110446,557925834
uw,-61.240966796875,-67.012954711914,0.7787317459990922,-0.29424987859044555,557942501
uw,-61.5506324768066,-65.9430999755859,0.7190261607776616,-0.5823589168356322,557959168
uw,-61.8120498657226,-64.8855743408203,0.7344907551242543,-0.7874031911129662,557975835
uw,-62.1687393188476,-63.8468475341796,0.837441408116092,-0.8796916604158007,557992502
uw,-62.5572242736816,-62.8163223266601,1.0164893285513072,-0.8505967597351906,558009169
uw,-62.7268753051757,-61.7141876220703,1.2365894570331877,-0.7154864413864668,558025836
uw,-62.7853126525878,-60.548656463623,1.4474484212839918,-0.5109221654832858,558042503
uw,-62.9814147949218,-59.345848083496,1.597899304328396,-0.28665930695773645,558059170
uw,-63.2827568054199,-58.1565284729003,1.6512934802549584,-0.09455547703773039,558075837
uw,-63.8050727844238,-57.0117607116699,1.5965139228037635,0.02275061669841749,558092504
uw,-64.4166717529296,-55.911376953125,1.4511088476910237,0.04064090078187372,558109171
uw,-64.6447982788086,-54.8721771240234,1.2561067091141696,-0.043211329126603804,558125838
uw,-64.8762130737304,-53.9071235656738,1.0646887672270913,-0.2099340722184236,558142505
uw,-65.3785858154296,-53.0788879394531,0.9281986039991975,-0.4253074129133028,558159172
uw,-65.9560546875,-52.3459815979003,0.883134214773199,-0.6485072930619554,558175839
uw,-66.4931182861328,-51.7176208496093,0.9423402006738066,-0.8413081720174059,558192506
uw,-67.0203781127929,-51.2008018493652,1.092713153443774,-0.9755898640337404,558209173
uw,-67.4983825683593,-50.8099365234375,1.3000670005054378,-1.0378326498722756,558225840
uw,-67.9458999633789,-50.4843254089355,1.5195176656064557,-1.0302199418282398,558242507
uw,-68.4078674316406,-50.2215385437011,1.7078432644232477,-0.9686351228623247,558259174
uw,-68.7868118286132,-50.0375595092773,1.8338588344491094,-0.8781439406405334,558275841
uw,-69.1158218383789,-49.9225769042968,1.8840556622449482,-0.7867253096490667,558292508
uw,-69.4732360839843,-49.8281517028808,1.8627505121178325,-0.718373860553771,558309175
uw,-69.8214035034179,-49.747802734375,1.7877818680344606,-0.6872220994519255,558325842
uw,-70.1447448730468,-49.6812553405761,1.6838508047490859,-0.6945083022342221,558342509
uw,-70.5298385620117,-49.6325035095214,1.575807704093906,-0.7295271229695456,558359176
uw,-70.9638137817382,-49.622817993164,1.483615775496108,-0.774240672568295,558375843
uw,-71.3173141479492,-49.6631736755371,1.4197172318946791,-0.809761191756015,558392510
uw,-71.4890060424804,-49.7166938781738,1.3886333630839431,-0.8222713915677907,558409177
uw,-71.5683517456054,-49.7552108764648,1.388208242631464,-0.8064142159500207,558425844
uw,-71.7876968383789,-49.8218765258789,1.4118667850247175,-0.7654024625089413,558442511
uw,-72.1169357299804,-49.9890022277832,1.4512981703506056,-0.7084001308577124,558459178
uw,-72.3733978271484,-50.2779693603515,1.4989790447754119,-0.6465549257049383,558475845
uw,-72.5224075317382,-50.6162376403808,1.550031110897828,-0.5892119982849569,558492512
uw,-72.6094741821289,-51.004898071289,1.6031436086132578,-0.5414501162598786,558509179
uw,-72.7110748291015,-51.4552574157714,1.6605597178034668,-0.5034527987049148,558525846
uw,-72.9165725708007,-52.1886329650878,1.7272225744658452,-0.47162084480301586,558542513
uw,-73.1710586547851,-52.9898223876953,1.8090756404165667,-0.44087384186718115,558559180
uw,-73.3728103637695,-53.6801452636718,1.9104801734965715,-0.4073017457965744,558575847
uw,-73.5444183349609,-54.4018974304199,2.0310714148107785,-0.37025811454621804,558592514
uw,-73.6976013183593,-55.2709579467773,2.1630778972183475,-0.33322558400474883,558609181
uw,-73.7726211547851,-56.0924987792968,2.2906376465782468,-0.30327239588517735,558625848
uw,-73.7468566894531,-56.8302726745605,2.3923263812362556,-0.28932645501261134,558642515
uw,-73.7979736328125,-57.5115318298339,2.4468010970322642,-0.2995710642046023,558659182
uw,-73.9715270996093,-58.1943473815918,2.439750102701178,-0.3382343944920774,558675849
uw,-74.1463546752929,-58.8642845153808,2.369319138111401,-0.40231425366251167,558692516
uw,-74.2268753051757,-59.5587501525878,2.247658153707032,-0.47934254801808585,558709183
uw,-74.2561492919921,-60.3489379882812,2.0979999455996725,-0.5476296155427773,558725850
uw,-74.2664642333984,-61.2550163269043,1.948636378816293,-0.5799837310540047,558742517
uw,-74.2433166503906,-62.3064193725585,1.8261744467673058,-0.5505868192103711,558759184
uw,-74.1292190551757,-63.2447929382324,1.7501521447029817,-0.4430663061149808,558775851
uw,-73.9377288818359,-64.2486419677734,1.7299417583258778,-0.25678859265400167,558792518
uw,-73.7834396362304,-65.3458099365234,1.7637589580806796,-0.008818670478864424,558809185
uw,-73.8264465332031,-66.360725402832,1.8392173686169424,0.2691861205949896,558825852
uw,-73.9921264648437,-67.2418212890625,1.9352261727599944,0.5377742558984288,558842519
uw,-74.1467056274414,-68.0359497070312,2.02550596480464,0.757862760805454,558859186
uw,-74.305061340332,-68.7481918334961,2.0839253717425463,0.8985092102829503,558875853
uw,-74.402603149414,-69.3360061645507,2.091079923271463,0.9435369577449346,558892520
uw,-74.3362655639648,-69.9778289794921,2.0404964192524897,0.8963604595652106,558909187
uw,-74.1489715576171,-70.6175003051757,1.942239112206445,0.7815360499522854,558925854
uw,-73.9337081909179,-71.2141342163086,1.8219832987228803,0.6411467693696281,558942521
uw,-73.5887374877929,-71.7752151489257,1.7148636986515255,0.5253767867283474,558959188
uw,-72.9881591796875,-72.2682266235351,1.655296398497244,0.47930968002993435,558975855
uw,-72.0656356811523,-72.7210540771484,1.665867315289918,0.5303657852266607,558992522
uw,-70.7374649047851,-73.1823120117187,1.7493370493512814,0.6810854316306056,559009189
uw,-69.2229537963867,-73.6139373779296,1.8870265526865566,0.9098215314285003,559025856
uw,-67.6915588378906,-73.9865570068359,2.044375578767708,1.1785897922699944,559042523
uw,-66.3030014038086,-74.3456344604492,2.1815133552695083,1.4445901788534057,559059190
uw,-65.0513839721679,-74.7009124755859,2.2648749926703675,1.6709123333800238,559075857
uw,-63.5696372985839,-75.04833984375,2.2760515201720906,1.8329266244370195,559092524
uw,-61.6160202026367,-75.3802108764648,2.215678745377995,1.919280514155463,559109191
uw,-59.2203788757324,-75.7161026000976,2.1020948413843707,1.9290263390509403,559125858
uw,-56.7639541625976,-76.0842819213867,1.9658696604416137,1.867796287857685,559142525
uw,-54.328556060791,-76.4869689941406,1.8419268539327538,1.7454304994105048,559159192
uw,-52.1707382202148,-76.9283752441406,1.7610665606431604,1.575613774971084,559175859
uw,-50.2688598632812,-77.432144165039,1.7425625031554457,1.3762730715865796,559192526
uw,-48.1559753417968,-77.9333419799804,1.7893202863416626,1.1689331005396297,559209193
uw,-45.687744140625,-78.4031372070312,1.8867757431340815,0.9761395171897828,559225860
uw,-43.0010757446289,-78.8410720825195,2.006093098256299,0.8176146399871392,559242527
uw,-40.5210418701171,-79.220100402832,2.111219761886868,0.7068002522773064,559259194
uw,-38.6481323242187,-79.6069869995117,2.1681763546619965,0.6491912222869839,559275861
uw,-37.2078170776367,-80.0008163452148,2.154077531969414,0.6427099401804259,559292528
uw,-35.6925659179687,-80.3992156982421,2.0632813181047576,0.6792988823174231,559309195
uw,-34.0342216491699,-80.7925262451171,1.9088999063531438,0.7466941902704192,559325862
uw,-32.4692420959472,-81.1406707763671,1.7193356258940002,0.829962699700284,559342529
uw,-31.0682735443115,-81.4572982788086,1.5309565989392246,0.9131325923727129,559359196
uw,-29.8870906829834,-81.7676620483398,1.3790315197769452,0.9814117281365159,559375863
uw,-29.0556354522705,-82.1108856201171,1.2893699219932262,1.0239513589146267,559392530
uw,-28.4180126190185,-82.4416351318359,1.272741967422805,1.0363687541401687,559409197
uw,-27.6370868682861,-82.7884445190429,1.3232703659180498,1.021902739442559,559425864
uw,-26.7529582977294,-83.1370162963867,1.420929205056025,0.9904013651206737,559442531
uw,-25.913869857788,-83.4442062377929,1.5373280044768607,0.9551564699248832,559459198
uw,-25.0584125518798,-83.692642211914,1.643237845271171,0.9285160593499494,559475865
uw,-24.1548595428466,-83.9059066772461,1.715927762041312,0.9178204382852819,559492532
uw,-23.4092006683349,-84.150520324707,1.7444329514130423,0.9232038878674796,559509199
uw,-22.8531055450439,-84.3847274780273,1.7314037060120218,0.9380974438451054,559525866
uw,-22.5140380859375,-84.5968017578125,1.6911026810669745,0.9521788901134491,559542533
uw,-22.3818264007568,-84.7886505126953,1.644234800909246,0.9556093894999366,559559200
uw,-22.3872489929199,-84.9301300048828,1.611275327651545,0.9430289560107069,559575867
uw,-22.5472469329834,-85.0435485839843,1.6064149457491124,0.915910764440772,559592534
uw,-22.8389682769775,-85.1838302612304,1.6339448980725597,0.8823378044873896,559609201
uw,-23.2760601043701,-85.3432693481445,1.6879730229684855,0.8540342630921633,559625868
uw,-23.8371257781982,-85.4416427612304,1.7552012129784738,0.841496464283462,559642535
uw,-24.4830245971679,-85.5186996459961,1.8196027367690597,0.8489917177568477,559659202
uw,-25.1144084930419,-85.618408203125,1.8675060980744276,0.8715220564659693,559675869
uw,-25.6930217742919,-85.7228240966796,1.8917478988519796,0.8952708386734012,559692536
uw,-26.3107299804687,-85.8479080200195,1.8939470684231021,0.9017108097897137,559709203
uw,-27.0934104919433,-85.9557647705078,1.884444274546855,0.8740293875049704,559725870
uw,-28.1758975982666,-86.0393905639648,1.8800154883300266,0.8035474290984602,559742537
uw,-29.3854045867919,-86.0991668701171,1.8999696297541215,0.6938267937188544,559759204
uw,-30.5445213317871,-86.0913467407226,1.9614766412485323,0.5610647153450187,559775871
uw,-31.7436294555664,-85.960952758789,2.0749272591905115,0.4306282524910229,559792538
uw,-33.249038696289,-85.6873397827148,2.240010360673516,0.3307010667383584,559809205
uw,-35.0196342468261,-85.3790817260742,2.443259220444754,0.284782241977425,559825872
uw,-36.8626518249511,-85.0612030029296,2.658110175158087,0.30513296421793756,559842539
uw,-38.4036903381347,-84.7384338378906,2.848687201430118,0.38917197553446026,559859206
uw,-39.7350578308105,-84.4130401611328,2.9779305124645985,0.520210239471725,559875873
uw,-41.1366462707519,-84.1045227050781,3.0188808892950534,0.672677598278279,559892540
uw,-41.5530090332031,-83.8945922851562,2.965273671635213,0.8202174468678138,559909207
uw,-41.3072776794433,-83.8109130859375,2.8357029946129133,0.9434613046126443,559925874
uw,-41.3031730651855,-83.7178039550781,2.666984773235224,1.0341337185912984,559942541
uw,-42.3743362426757,-83.5479736328125,2.498021069509088,1.0938352331766072,559959208
uw,-44.3908500671386,-83.3736877441406,2.3522589627959833,1.1284458043568093,559975875
uw,-45.9842910766601,-83.2622985839843,2.228847015302503,1.1410537701851253,559992542
uw,-46.8076820373535,-83.2711029052734,2.1073691601690476,1.1268411161971803,560009209
uw,-47.2980308532714,-83.4860916137695,1.9626657015001743,1.07259083936494,560025876
uw,-48.2451019287109,-83.8290481567382,1.7809239783815554,0.9618430506103909,560042543
uw,-49.5127754211425,-84.2321166992187,1.5685709291264682,0.7844985025946735,560059210
uw,-50.6733932495117,-84.6212387084961,1.3501727455830215,0.5473222548708518,560075877
uw,-51.5977554321289,-84.9792938232421,1.1576149442374424,0.2803169555009969,560092544
uw,-52.414264678955,-85.2800903320312,1.0171118485244708,0.03446757962295637,560109211
uw,-53.1478843688964,-85.5891342163086,0.9407462621252168,-0.13058324798782697,560125878
uw,-53.8589248657226,-85.8068923950195,0.9255217993998957,-0.16565356929133632,560142545
uw,-54.694580078125,-85.8143768310546,0.9582384468153147,-0.05059750576213574,560159212
uw,-55.6283073425293,-85.5522994995117,1.0220249520967561,0.19578920501826788,560175879
uw,-56.4417190551757,-85.0341110229492,1.1010362765031099,0.5192436420379674,560192546
uw,-57.1114349365234,-84.3312683105468,1.1822649103906486,0.845723949044,560209213
uw,-57.7206802368164,-83.5020675659179,1.2555275003448179,1.103069254679354,560225880
uw,-58.2751731872558,-82.5646057128906,1.3132575110730906,1.2405892762257462,560242547
uw,-58.8507804870605,-81.5213851928711,1.350922686422329,1.2403285836645186,560259214
uw,-59.5137138366699,-80.3456344604492,1.3677249570093104,1.1176216298569153,560275881
uw,-60.3416061401367,-78.9654693603515,1.3666888053337392,0.9124918863572588,560292548
uw,-61.2837562561035,-77.4763412475586,1.3535572440481565,0.6759762818888112,560309215
uw,-62.2058944702148,-75.9789276123046,1.3347352919094861,0.4560274806618774,560325882
uw,-63.0289878845214,-74.5143432617187,1.3152847130063043,0.28661146686883077,560342549
uw,-63.7783279418945,-73.072509765625,1.2981490267080882,0.18191126954460712,560359216
uw,-64.4592361450195,-71.6088562011718,1.2851089646055915,0.13604959475729078,560375883
uw,-65.164566040039,-70.1323013305664,1.2787584267986438,0.1277154943493453,560392550
uw,-65.8509902954101,-68.7449035644531,1.28390785370957,0.1282687439320346,560409217
uw,-66.4017028808593,-67.4684982299804,1.307012722121094,0.11113243045850268,560425884
uw,-66.8702163696289,-66.1750869750976,1.3534468232606596,0.059832913960715155,560442551
uw,-67.3724136352539,-64.9249801635742,1.42386433903139,-0.027646557878381675,560459218
uw,-67.9097442626953,-63.7265892028808,1.51160198242455,-0.13932961361644944,560475885
uw,-68.4031753540039,-62.5367774963378,1.6027197530297124,-0.25397015624370606,560492552
uw,-68.7622833251953,-61.4037017822265,1.679146511480929,-0.34805543817991774,560509219
uw,-68.9265899658203,-60.33003616333,1.7240154650370956,-0.40258648814307463,560525886
uw,-68.948989868164,-59.2644729614257,1.727192814057753,-0.4076457562772008,560542553
uw,-68.9631729125976,-58.1980018615722,1.6887422687640627,-0.3639130506391554,560559220
uw,-69.0796890258789,-57.1514701843261,1.618895363865565,-0.2814572008452456,560575887
uw,-69.3861541748046,-56.1375846862793,1.5346651106403644,-0.1768298407183519,560592554
uw,-69.7018432617187,-55.1451683044433,1.454665583163056,-0.06957946831194807,560609221
uw,-69.86767578125,-54.1748123168945,1.3942043461145437,0.021029880627466104,560625888
uw,-69.9385299682617,-53.26806640625,1.3621919818311392,0.07874397674242425,560642555
uw,-70.0287399291992,-52.4543914794921,1.3603689990706294,0.09240750013456883,560659222
uw,-70.2152938842773,-51.7499504089355,1.3843928781678898,0.057380705955484175,560675889
uw,-70.4524230957031,-51.1548995971679,1.4257962038746916,-0.023817082818999954,560692556
uw,-70.7477645874023,-50.6105155944824,1.4738286942127508,-0.14174634358841384,560709223
uw,-71.0735702514648,-50.129581451416,1.5167220529804044,-0.28117712368540504,560725890
uw,-71.3987121582031,-49.6979904174804,1.542699008477821,-0.42300421354820966,560742557
uw,-71.7142257690429,-49.2730712890625,1.5414919540016896,-0.5468156960689206,560759224
uw,-72.0261306762695,-48.8920555114746,1.5067673958769998,-0.6339919010016549,560775891
uw,-72.3420104980468,-48.5682411193847,1.43887105258443,-0.6711106022221307,560792558
uw,-72.6396408081054,-48.3243217468261,1.3464945633838907,-0.6531739296807592,560809225
uw,-72.917854309082,-48.1741638183593,1.2458986284525042,-0.5858667966259355,560825892
uw,-73.1814956665039,-48.1419792175293,1.1572778813785958,-0.48591318282042417,560842559
uw,-73.4230041503906,-48.2257385253906,1.0992098942812158,-0.3788162567204659,560859226
uw,-73.5673675537109,-48.4339981079101,1.0831671009569364,-0.293914981005033,560875893
uw,-73.6766052246093,-48.7464370727539,1.1102211506675983,-0.25759334701174325,560892560
uw,-73.8649215698242,-49.1939735412597,1.1711995294439494,-0.2862892290313793,560909227
uw,-74.0930709838867,-49.7030944824218,1.250060855607836,-0.3813189217692712,560925894
uw,-74.3300552368164,-50.284324645996,1.328915163485385,-0.5272812769764595,560942561
uw,-74.5581512451171,-50.9188270568847,1.392665679174343,-0.6949742436783894,560959228
uw,-74.7576675415039,-51.5862464904785,1.4318945142007793,-0.8485413862916689,560975895
uw,-74.9681015014648,-52.2960014343261,1.443840476415144,-0.9552397119929252,560992562
uw,-75.1719436645507,-52.947395324707,1.4322331939468878,-0.9951335323762523,561009229
uw,-75.3419189453125,-53.5602302551269,1.4067616401135443,-0.9675917730345952,561025896
uw,-75.4512176513671,-54.227798461914,1.3822267924440184,-0.8920689936181152,561042563
uw,-75.5304870605468,-54.9645271301269,1.3767143798892405,-0.8023598382958627,561059230
uw,-75.6314697265625,-55.6225967407226,1.4081220045698568,-0.7358472627081771,561075897
uw,-75.7320480346679,-56.1992797851562,1.4891672443943116,-0.7212198267857228,561092564
uw,-75.7151718139648,-56.8189086914062,1.6221014073603053,-0.7687776157591244,561109231
uw,-75.6064147949218,-57.4018173217773,1.7951237894696135,-0.8665328823301708,561125898
uw,-75.5235214233398,-57.9542388916015,1.9824512457907066,-0.9833291278911165,561142565
uw,-75.5570678710937,-58.4798698425293,2.1489750296790535,-1.077929158758857,561159232
uw,-75.6078720092773,-58.9523620605468,2.2587382147095774,-1.1111344879896903,561175899
uw,-75.5606918334961,-59.3377113342285,2.2848305300381817,-1.057013420220145,561192566
uw,-75.4629516601562,-59.9385108947753,2.2174870530761317,-0.9096709730289977,561209233
uw,-75.3489913940429,-60.6626663208007,2.067575186957566,-0.6838111704536246,561225900
uw,-75.2167129516601,-61.4448280334472,1.8641576455290045,-0.40989354125001076,561242567
uw,-75.1490631103515,-62.1489372253418,1.6469000347020715,-0.12645962980451234,561259234
uw,-75.2347640991211,-62.7607383728027,1.455898962144716,0.12787333808940968,561275901
uw,-75.4397506713867,-63.2980194091796,1.3222163100064266,0.3216166870523081,561292568
uw,-75.6609497070312,-63.8306655883789,1.2617722870563266,0.43659833667142284,561309235
uw,-75.8355407714843,-64.4573135375976,1.273768288472906,0.4724044994741042,561325902
uw,-76.0206146240234,-65.1588439941406,1.3432407404056974,0.44725107358234245,561342569
uw,-76.2157821655273,-65.8416748046875,1.446212263057664,0.3935691822027954,561359236
uw,-76.3572158813476,-66.4677581787109,1.555458776305091,0.3486485793411752,561375903
uw,-76.3466796875,-67.1036987304687,1.6452736816278033,0.34348680188813585,561392570
uw,-76.1717758178711,-67.7423324584961,1.6946555368292673,0.3943740314335505,561409237
uw,-75.7601852416992,-68.3634262084961,1.6894844886134504,0.5004911622910035,561425904
uw,-75.1340637207031,-68.9548721313476,1.6246698008496758,0.6476924261789675,561442571
uw,-74.3938903808593,-69.5041580200195,1.5065904796886767,0.815733965686361,561459238
uw,-73.5122909545898,-70.1003875732421,1.3549194903179183,0.9851475448818984,561475905
uw,-72.516357421875,-70.6902236938476,1.2020868343826518,1.140976337419484,561492572
uw,-71.5142211914062,-71.2826538085937,1.088846421467798,1.2727681764338967,561509239
uw,-70.3481903076171,-71.8824005126953,1.0556426222895798,1.3723166467937744,561525906
uw,-69.0440368652343,-72.464599609375,1.1312681688626178,1.4316436386922025,561542573
uw,-67.7747726440429,-73.0371475219726,1.3220382261931671,1.4431651627582687,561559240
uw,-66.5814666748046,-73.590705871582,1.6055437537440418,1.4022271151794585,561575907
uw,-65.4613647460937,-74.1870040893554,1.9321546963847065,1.310360895621029,561592574
uw,-64.3661804199218,-74.8327255249023,2.2348007706989903,1.1769407996259211,561609241
uw,-63.1669578552246,-75.5270309448242,2.4444673404200294,1.0178901331066468,561625908
uw,-61.8460540771484,-76.2064590454101,2.507001322022128,0.8519333913243323,561642575
uw,-60.4587326049804,-76.8772506713867,2.3968033012644843,0.6962539025780216,561659242
uw,-58.7567024230957,-77.5397491455078,2.124085959147462,0.5634451332994987,561675909
uw,-56.3195610046386,-78.1874542236328,1.7338540730679335,0.4606067118790705,561692576
uw,-53.4395294189453,-78.8175888061523,1.2965528884193576,0.39024189417724875,561709243
uw,-50.8405075073242,-79.3969650268554,0.8924858949881089,0.35197029830257576,561725910
uw,-48.8674583435058,-79.938980102539,0.5940101395918167,0.34409309915170255,561742577
uw,-47.3152770996093,-80.4405212402343,0.45019931080733594,0.3644414470874152,561759244
uw,-45.9803657531738,-80.8644943237304,0.4776856085361844,0.41039292718047515,561775911
uw,-44.6227264404296,-81.211196899414,0.6592592280384536,0.47832718264852225,561792578
uw,-43.1475067138671,-81.4809188842773,0.9495752779530676,0.5630405795005763,561809245
uw,-41.7408027648925,-81.7115859985351,1.2858702602614427,0.6576239644564115,561825912
uw,-40.4940452575683,-81.902099609375,1.6011102286767986,0.7540054129606605,561842579
uw,-39.3345565795898,-82.0877532958984,1.8370619877492598,0.8439994245075603,561859246
uw,-38.0701217651367,-82.3095092773437,1.9549848702506583,0.9205415679128132,561875913
uw,-36.7463417053222,-82.5155410766601,1.9420213053867443,0.9788214057013573,561892580
uw,-35.4432334899902,-82.6660766601562,1.812163356648959,1.0170881861665115,561909247
uw,-34.2260475158691,-82.80712890625,1.6018287008207326,1.0369240047573256,561925914
uw,-33.0897331237793,-83.002212524414,1.3612029469712614,1.0428189249116973,561942581
uw,-32.1383171081543,-83.2564544677734,1.143275363968929,1.0410061230804337,561959248
uw,-31.463150024414,-83.4403686523437,0.9928350109077848,1.0377339641210632,561975915
uw,-30.981725692749,-83.5557022094726,0.9376217910161591,1.0374121739891995,561992582
uw,-30.6419773101806,-83.612548828125,0.9833792432846017,1.041246302166584,562009249
uw,-30.4667892456054,-83.6743927001953,1.1138102527839313,1.0469288935396024,562025916
uw,-30.4521656036376,-83.8037490844726,1.2954559322744583,1.04961649733927,562042583
uw,-30.7065124511718,-83.9781341552734,1.4863863248592213,1.043849797422398,562059250
uw,-31.24214553833,-84.1774520874023,1.6465943968109662,1.0255203131914303,562075917
uw,-31.9856739044189,-84.4090042114257,1.7475447964039275,0.9928496759739337,562092584
uw,-32.6980438232421,-84.6598434448242,1.778625570006011,0.9458693948923299,562109251
uw,-33.3805046081543,-84.9530181884765,1.7490627342363239,0.8848058916566378,562125918
uw,-34.3958091735839,-85.3380584716796,1.6848866509505285,0.8084373077296704,562142585
uw,-36.0925064086914,-85.7665405273437,1.6216909082894655,0.7134508629157588,562159252
uw,-38.1187171936035,-86.2252960205078,1.5950928565945366,0.5952296516484282,562175919
uw,-40.0055809020996,-86.7131271362304,1.6315860183725037,0.44981719506581014,562192586
uw,-41.5606422424316,-87.2389144897461,1.7423806733288454,0.27640131164053516,562209253
uw,-42.8547401428222,-87.7660293579101,1.9217508719232457,0.07956637270624123,562225920
uw,-44.0657730102539,-88.2525787353515,2.149741221863174,-0.1293454508896772,562242587
uw,-45.2663345336914,-88.7006454467773,2.3975476581496875,-0.33226288238685764,562259254
uw,-46.3665466308593,-89.1095733642578,2.6332534352094186,-0.5061129936380303,562275921
uw,-47.3665122985839,-89.4418716430664,2.8262982640355765,-0.6262943485358252,562292588
uw,-48.1413116455078,-89.4987640380859,2.95058446153004,-0.6715224752641479,562309255
uw,-48.5042533874511,-89.2720794677734,2.9871323532574356,-0.6291206773909578,562325922
uw,-48.7810974121093,-89.0160293579101,2.926756694257439,-0.4993887750392314,562342589
uw,-49.1853103637695,-88.7652053833007,2.772083265162777,-0.2976563670934354,562359256
uw,-49.9500656127929,-88.3431854248046,2.5379862780816165,-0.053102137816153576,562375923
uw,-51.0732917785644,-87.9156875610351,2.2503757555836907,0.19577527104852926,562392590
uw,-52.1501312255859,-87.4919662475586,1.9435609776572644,0.40828353454666183,562409257
uw,-52.8623733520507,-87.0877227783203,1.6555342642241688,0.5498068391292522,562425924
uw,-53.4740753173828,-86.7664489746093,1.420351707132863,0.5993771379485177,562442591
uw,-54.4741134643554,-86.6059265136718,1.25885864418069,0.5546943792682826,562459258
uw,-55.6517715454101,-86.6298904418945,1.1716921707711003,0.43312173174804525,562475925
uw,-56.581069946289,-86.7576141357421,1.1388677383399153,0.2679519408001924,562492592
uw,-57.2525329589843,-87.0040893554687,1.1275136612802612,0.10039692261719495,562509259
uw,-57.9532203674316,-87.3065948486328,1.1052181983179765,-0.03088584345080276,562525926
uw,-58.7629928588867,-87.5539932250976,1.053520611737244,-0.09983459908430156,562542593
uw,-59.7250251770019,-87.5711822509765,0.975929558493328,-0.09950083108564996,562559260
uw,-60.6702003479003,-87.2116165161132,0.8973507226606,-0.04294106564589812,562575927
uw,-61.5376548767089,-86.4933471679687,0.8553288921093642,0.04173777662404357,562592594
uw,-62.409324645996,-85.4895935058593,0.8863460238231824,0.12039865243940037,562609261
uw,-63.3771743774414,-84.1650772094726,1.011843820165177,0.1628886110798919,562625928
uw,-64.3723831176757,-82.460220336914,1.2286402267461847,0.15087331253238453,562642595
uw,-65.3411178588867,-80.5666885375976,1.5070113229698976,0.0813665622306209,562659262
uw,-66.2464828491211,-78.6998291015625,1.7971460418928036,-0.03446353793724701,562675929
uw,-67.116340637207,-76.8624877929687,2.0418329913706885,-0.1760140291331331,562692596
uw,-68.0379562377929,-74.9655380249023,2.1912951434412467,-0.3194244198598136,562709263
uw,-68.9644241333007,-73.0494079589843,2.2157312178323894,-0.44321578849649057,562725930
uw,-69.8214035034179,-71.2110290527343,2.112252238880198,-0.5321089327385246,562742597
uw,-70.5689544677734,-69.4577026367187,1.9049517488551393,-0.578619505000254,562759264
uw,-71.1501007080078,-67.7374267578125,1.6390621477603544,-0.5827337949549475,562775931
uw,-71.5705337524414,-66.0506515502929,1.371684438560155,-0.5503559556231465,562792598
uw,-71.7729568481445,-64.3543548583984,1.1617823694258655,-0.4912668065792579,562809265
uw,-71.8088684082031,-62.6084938049316,1.0610441407517228,-0.4171129912143434,562825932
uw,-71.6935501098632,-60.8634414672851,1.1057790521317312,-0.339621070834582,562842599
uw,-71.4272689819336,-59.1316452026367,1.3095197177834395,-0.26901811568007394,562859266
uw,-71.0054092407226,-57.4067230224609,1.6570146493253057,-0.21265314367311003,562875933
uw,-70.4440002441406,-55.6848220825195,2.102034622775703,-0.1739775696082807,562892600
uw,-69.8746871948242,-53.9452934265136,2.5721569201935917,-0.15218919234384098,562909267
uw,-69.4128341674804,-52.2197151184082,2.9820796101629083,-0.1428932164893178,562925934
uw,-69.1949157714843,-50.5782279968261,3.253349607173498,-0.1400508405539177,562942601
uw,-69.1010818481445,-49.0381240844726,3.3347312793845996,-0.139074919817211,562959268
uw,-69.0185928344726,-47.6430206298828,3.2161898045010657,-0.14006901946295625,562975935
uw,-68.9380874633789,-46.3565711975097,2.9314827107567423,-0.14941857171157039,562992602
uw,-69.0119552612304,-45.1676940917968,2.5484880991170997,-0.1782118248784284,563009269
uw,-69.2825088500976,-44.0681686401367,2.150586431381862,-0.23758016335532128,563025936
uw,-69.5924530029296,-43.0702934265136,1.8150393655396293,-0.3329880484059456,563042603
uw,-69.9070510864257,-42.2535667419433,1.594728970556841,-0.4603183704304899,563059270
uw,-70.199951171875,-41.6052780151367,1.5080409779288968,-0.6057181723357961,563075937
uw,-70.3884582519531,-41.1250686645507,1.5388833837962432,-0.7492624859780427,563092604
uw,-70.565933227539,-40.7721366882324,1.6458211337984052,-0.8707521204787784,563109271
uw,-70.7963104248046,-40.525276184082,1.7768786433569672,-0.9552398138516419,563125938
uw,-71.0726089477539,-40.4312362670898,1.885202790873892,-0.9963625381409489,563142605
uw,-71.2983016967773,-40.5165405273437,1.9408165745836574,-0.9968393980660797,563159272
uw,-71.4707870483398,-40.7723236083984,1.9352606783873751,-0.9668028682857205,563175939
uw,-71.6428985595703,-41.1839904785156,1.8786321951801808,-0.921216471836961,563192606
uw,-71.8425140380859,-41.7326507568359,1.7913568569242324,-0.8772674077735566,563209273
uw,-72.1000747680664,-42.4231643676757,1.694737130413393,-0.8518143332237965,563225940
uw,-72.3420486450195,-43.2240562438964,1.604186405775087,-0.8585477895991181,563242607
uw,-72.5845336914062,-44.1397972106933,1.5272881485100978,-0.9048954679584299,563259274
uw,-72.8587112426757,-45.0445861816406,1.4663341341343132,-0.9895188480319373,563275941
uw,-73.0876007080078,-45.8667831420898,1.4229529767887987,-1.1017439213603024,563292608
uw,-73.251594543457,-46.6320419311523,1.4017379037045028,-1.2239225682752959,563309275
uw,-73.4223861694336,-47.3603477478027,1.4106733297493874,-1.3365444888178148,563325942
uw,-73.6181564331054,-48.1233291625976,1.4580838531059779,-1.4244421369344469,563342609
uw,-73.8093719482421,-48.9072227478027,1.5477079993301595,-1.4815403776333291,563359276
uw,-74.0092010498046,-49.6727027893066,1.6744020990420867,-1.5120338253461285,563375943
uw,-74.1876144409179,-50.5207633972168,1.8226541197069928,-1.5275117457227168,563392610
uw,-74.303596496582,-51.3259544372558,1.9689163805375265,-1.5413987892744865,563409277
uw,-74.3880310058593,-51.9874610900878,2.0873225043245394,-1.5631170981325335,563425944
uw,-74.5661468505859,-52.7136764526367,2.157087211349346,-1.5942815666774863,563442611
uw,-74.8792953491211,-53.4732666015625,2.1691527366564567,-1.6282962551003963,563459278
uw,-75.2243957519531,-54.0698852539062,2.1297521640918404,-1.6533415636427455,563475945
uw,-75.4659805297851,-54.5474662780761,2.059573416626664,-1.6573489320840102,563492612
uw,-75.5792922973632,-54.9636344909668,1.9887327242565063,-1.6327004306391395,563509279
uw,-75.5949630737304,-55.3244972229003,1.9491009658964826,-1.5785809769392463,563525946
uw,-75.6034698486328,-55.6911354064941,1.9661389867931982,-1.5001770769606504,563542613
uw,-75.6822814941406,-56.0546875,2.0522407695830087,-1.405581526603457,563559280
uw,-75.7532196044921,-56.3871345520019,2.2029515106065416,-1.302307335968189,563575947
uw,-75.7516174316406,-56.7230949401855,2.396645430718517,-1.1951047011023193,563592614
uw,-75.7328338623046,-57.0821189880371,2.597557751088828,-1.0856223220781736,563609281
uw,-75.6880722045898,-57.4481201171875,2.7616510402980077,-0.9733504516950617,563625948
uw,-75.556411743164,-57.8992004394531,2.8446633728363997,-0.8569553527615223,563642615
uw,-75.3500671386718,-58.4343872070312,2.8115178775618928,-0.7354532884642209,563659282
uw,-75.0653076171875,-58.9923362731933,2.6456887456359586,-0.6091123774945859,563675949
uw,-74.8725433349609,-59.4968757629394,2.3562206846411864,-0.4801451513786339,563692616
uw,-74.9656524658203,-60.0271530151367,1.9796102669636704,-0.353141969197499,563709283
uw,-75.2884140014648,-60.6160163879394,1.574477710964223,-0.23494441562623639,563725950
uw,-75.6221618652343,-61.2802047729492,1.2090734558745366,-0.13351915519481974,563742617
uw,-75.8698272705078,-61.9698219299316,0.9444651639367787,-0.05564662185258509,563759284
uw,-76.0187606811523,-62.6351356506347,0.8184185475796408,-0.003929073941894202,563775951
uw,-76.1626510620117,-63.3161735534668,0.835341594863867,0.02562908098734083,563792618
uw,-76.3948440551757,-64.0320816040039,0.9658906846042545,0.04399595993961541,563809285
uw,-76.6142196655273,-64.8003616333007,1.1566372663813254,0.06661114961009683,563825952
uw,-76.7566604614257,-65.6331253051757,1.346817888134165,0.10846858688197411,563842619
uw,-76.814468383789,-66.5369720458984,1.486800990726285,0.1785242732019842,563859286
uw,-76.6998214721679,-67.4914321899414,1.5522331356891303,0.27572956121598896,563875953
uw,-76.3529739379882,-68.4923019409179,1.5491707624381874,0.38847644600710957,563892620
uw,-75.7684097290039,-69.5186233520507,1.5086106698502957,0.4978739018757494,563909287
uw,-74.9080200195312,-70.5994262695312,1.4726782402985228,0.5837271663870252,563925954
uw,-73.9277725219726,-71.6898574829101,1.4777553886841592,0.6310827840456923,563942621
uw,-73.0225753784179,-72.7571258544921,1.5407388173072667,0.6351005892450063,563959288
uw,-72.2211074829101,-73.8126449584961,1.6531143247602862,0.6027394003476888,563975955
uw,-71.345588684082,-74.8118820190429,1.7844082683513263,0.5509090887553937,563992622
uw,-70.4370346069336,-75.7349853515625,1.8932038504315536,0.501851060125151,564009289
uw,-69.4728240966796,-76.5690612792968,1.9415057290397195,0.47716059855585863,564025956
uw,-68.2784957885742,-77.2943572998046,1.9074426503494581,0.4919440372051187,564042623
uw,-66.7855377197265,-77.9093475341796,1.7921980254614904,0.5503173975766453,564059290
uw,-65.1420440673828,-78.3822250366211,1.6192840993767506,0.6431335436728596,564075957
uw,-63.3459281921386,-78.7010879516601,1.4270220762066241,0.7486439082089892,564092624
uw,-61.3815803527832,-78.9270477294921,1.2573095597408253,0.8365818868290456,564109291
uw,-59.3652534484863,-79.2482376098632,1.1446172334332725,0.8755035679751316,564125958
uw,-57.0793724060058,-79.5592727661132,1.1084646306778383,0.8420193801357092,564142625
uw,-54.5934791564941,-79.7556610107421,1.1508891132237342,0.7293023614558523,564159292
uw,-52.2031860351562,-79.932991027832,1.2585355391898065,0.5517540070942398,564175959
uw,-49.9532661437988,-80.1324386596679,1.4077423902246118,0.3434266762326382,564192626
uw,-47.8268699645996,-80.2515792846679,1.5706968797929084,0.14977026933642512,564209293
uw,-45.668285369873,-80.2599334716796,1.7211510612995122,0.015024074064184077,564225960
uw,-43.4366607666015,-80.2602767944336,1.8388180824629983,-0.030131308025194713,564242627
uw,-41.278636932373,-80.3091659545898,1.912011864441348,0.024183348909951535,564259294
uw,-39.2495574951171,-80.3841934204101,1.9383270535564396,0.16739045929523685,564275961
uw,-37.3323135375976,-80.438117980957,1.9233830046977058,0.37524346085899235,564292628
uw,-35.5724639892578,-80.4999084472656,1.8780186625861992,0.6191917075737025,564309295
uw,-34.0819473266601,-80.5908432006836,1.8147475311689998,0.8739662165014848,564325962
uw,-32.8273582458496,-80.7144775390625,1.7445182438806395,1.1206058248717794,564342629
uw,-31.6608772277832,-80.8939895629882,1.6746676967635579,1.3446734058390417,564359296
uw,-30.524299621582,-81.1250228881836,1.6084344436618851,1.5317164142934354,564375963
uw,-29.4878463745117,-81.3368225097656,1.5458020731915971,1.6633114173760368,564392630
uw,-28.5400962829589,-81.5475769042968,1.4850750918063864,1.7168814407324569,564409297
uw,-27.667869567871,-81.795654296875,1.4245548249338822,1.6708186802579974,564425964
uw,-26.8461990356445,-82.1539764404296,1.363837711787756,1.5137473410560123,564442631
uw,-26.1749114990234,-82.680908203125,1.304411889218089,1.2541237382678672,564459298
uw,-25.7263622283935,-83.2943725585937,1.24936176567307,0.925190475552721,564475965
uw,-25.4181423187255,-83.8905487060546,1.202236185218806,0.5815231402250276,564492632
uw,-25.2011775970459,-84.4370498657226,1.1655201868908718,0.2868068426508062,564509299
uw,-25.0485725402832,-84.830322265625,1.1394497064409785,0.09653531610608063,564525966
uw,-24.9250125885009,-84.9936752319336,1.1218384350274617,0.041940462467172146,564542633
uw,-24.8636722564697,-84.9755859375,1.1091109681610802,0.12120480975235799,564559300
uw,-24.9632930755615,-84.8353271484375,1.098134990816739,0.3010667629193332,564575967
uw,-25.1301746368408,-84.6738052368164,1.0880595878737036,0.5279088699001347,564592634
uw,-25.3579998016357,-84.5602264404296,1.0813333495208322,0.7441540722628944,564609301
uw,-25.6956748962402,-84.505386352539,1.0833371821170852,0.904346479727205,564625968
uw,-26.1274547576904,-84.5386199951171,1.100546339089946,0.9858779918040402,564642635
uw,-26.7252140045166,-84.6221771240234,1.1377486123418243,0.9915508249426388,564659302
uw,-27.5079536437988,-84.6962203979492,1.1953702224955463,0.9441572888267445,564675969
uw,-28.4055213928222,-84.7194747924804,1.268089011071614,0.8758980724451422,564692636
uw,-29.4336547851562,-84.7097930908203,1.345501241046751,0.8168422389271356,564709303
uw,-30.5418739318847,-84.6862564086914,1.4148436918324985,0.7863813109454044,564725970
uw,-31.7430629730224,-84.6392593383789,1.465058523593804,0.7900012001713824,564742637
uw,-32.9505043029785,-84.6105346679687,1.4911056355599543,0.8214364924662427,564759304
uw,-34.2615013122558,-84.624771118164,1.4973244553689697,0.8682799014706853,564775971
uw,-35.6131935119628,-84.6818695068359,1.4986232396637809,0.918106485846358,564792638
uw,-36.9562187194824,-84.7253799438476,1.5183812309191143,0.9624796593485954,564809305
uw,-38.2745819091796,-84.7255630493164,1.5825551940982658,0.997677968163041,564825972
uw,-39.6947708129882,-84.675796508789,1.7107924329498256,1.022870961125893,564842639
uw,-41.2207527160644,-84.5355758666992,1.9069662626832837,1.0376932344137515,564859306
uw,-42.6980247497558,-84.2898635864257,2.152625042317667,1.0409926521494801,564875973
uw,-43.9738006591796,-84.021125793457,2.406666421321282,1.0312084780474984,564892640
uw,-44.9954071044921,-83.8286056518554,2.6129091547746035,1.007457092776627,564909307
uw,-45.8875389099121,-83.7972335815429,2.714455696224274,0.9700339970616161,564925974
uw,-46.3706283569335,-83.9058456420898,2.6706435460019784,0.9198527167604196,564942641
uw,-46.8320274353027,-84.0590133666992,2.470432538780873,0.8575155988392253,564959308
uw,-47.61328125,-84.1821746826171,2.1369097625972753,0.7831771009398776,564975975
uw,-48.9324531555175,-84.3681335449218,1.7213823358754932,0.6976818196659327,564992642
uw,-50.3685760498046,-84.5991287231445,1.2899333607197274,0.6041959798652258,565009309
uw,-51.6251411437988,-84.8563919067382,0.9074606985607025,0.5088367728759482,565025976
uw,-52.6121025085449,-85.1665725708007,0.6236689973439062,0.41937681967544543,565042643
uw,-53.4948120117187,-85.5032501220703,0.46397502862837253,0.3425549146473164,565059310
uw,-54.3456954956054,-85.8174133300781,0.42694467291785404,0.2816266492882714,565075977
uw,-55.1325912475585,-86.0575256347656,0.4884006143160265,0.23565885922849028,565092644
uw,-55.9865226745605,-86.2046585083007,0.6104985326571035,0.20095325701549516,565109311
uw,-56.9047508239746,-86.3206558227539,0.7525656253085531,0.17382453949445692,565125978
uw,-57.781940460205,-86.4321823120117,0.8802551334711267,0.1534282336554856,565142645
uw,-58.6285972595214,-86.5359878540039,0.9708141597336283,0.14340990998076128,565159312
uw,-59.4549522399902,-86.5583267211914,1.0142187734588302,0.15151679385540354,565175979
uw,-60.2804107666015,-86.4765243530273,1.0114151197661019,0.18688720946775897,565192646
uw,-61.0973014831543,-86.3050384521484,0.9712768662865754,0.2555938282187677,565209313
uw,-61.953872680664,-86.0298080444336,0.9073900608910075,0.3559812482487845,565225980
uw,-62.8094291687011,-85.6392440795898,0.835056801907387,0.47585537052145677,565242647
uw,-63.5780792236328,-85.0694580078125,0.7684921197285662,0.5931652009362848,565259314
uw,-64.2866897583007,-84.2393188476562,0.7182617194939526,0.6805316960233377,565275981
uw,-64.9889602661132,-83.2182846069336,0.6893695895050617,0.7124441437017366,565292648
uw,-65.726448059082,-82.1294479370117,0.6805905822631568,0.672877701647432,565309315
uw,-66.5397109985351,-81.092544555664,0.6853442465324658,0.5608526430337268,565325982
uw,-67.4015884399414,-80.0048522949218,0.6938047887135945,0.39202907760276895,565342649
uw,-68.2265319824218,-78.8379669189453,0.6955256302033699,0.19559887758787287,565359316
uw,-68.9510116577148,-77.5752410888671,0.6818989300505588,0.007206257966138132,565375983
uw,-69.5592041015625,-76.1801223754882,0.6480919285479315,-0.14002882648077172,565392650
uw,-70.0932540893554,-74.66845703125,0.594332102727197,-0.22361279629391814,565409317
uw,-70.6075592041015,-73.081184387207,0.5263899152863217,-0.23642846466245332,565425984
uw,-71.1026229858398,-71.4584274291992,0.4550018746165249,-0.18686367351866143,565442651
uw,-71.5039749145507,-69.851821899414,0.3940596084884676,-0.094684306398902,565459318
uw,-71.7863693237304,-68.2970809936523,0.35773254960791767,0.015562436734816346,565475985
uw,-71.9570541381836,-66.7784347534179,0.35712041708296044,0.12114387393152694,565492652
uw,-72.0872650146484,-65.3563156127929,0.397337707390405,0.20556318465472903,565509319
uw,-72.2117691040039,-64.0355529785156,0.4759889186312978,0.2598006572392961,565525986
uw,-72.3013610839843,-62.7483749389648,0.5836967214300831,0.2808870750256118,565542653
