Label,Left_Hip_q,Right_Hip_q,Left_Hip_qd,Right_Hip_qd,SampleTimeFine
fw,-88.3331680297851,-48.8516044616699,59.6660728454589,58.922794342041,3108200802
fw,-87.3572845458984,-49.884536743164,55.59612911131323,50.92864568499542,3108217469
fw,-86.3477325439453,-51.7598762512207,58.812746942786575,61.482977009250774,3108234136
fw,-85.3127059936523,-54.0880584716796,61.003918168595,69.10523978680378,3108250803
fw,-84.1794357299804,-55.9653892517089,61.39152978229468,71.63639955727072,3108267470
fw,-82.9982604980468,-57.5034446716308,59.26034269801718,68.38528254788051,3108284137
fw,-81.926399230957,-58.2939720153808,53.995056505779694,60.17422965414657,3108300804
fw,-81.1185836791992,-58.555362701416,45.137153761909055,48.88924032368122,3108317471
fw,-80.6061477661132,-58.4321594238281,32.446315337977424,36.77030129859952,3108334138
fw,-80.3634262084961,-58.2188339233398,15.954225226495344,25.754361174722728,3108350805
fw,-80.3524780273437,-59.0645523071289,-3.9982196781086774,17.11409390095995,3108367472
fw,-80.6974334716796,-60.6925888061523,-26.75307156090079,11.457287418069184,3108384139
fw,-81.567626953125,-61.1178855895996,-51.37418242341712,8.959550804315853,3108400806
fw,-83.1865310668945,-60.9167366027832,-76.74114729613456,9.611544831795573,3108417473
fw,-85.6597290039062,-61.0346870422363,-101.67928035570112,13.3222301221792,3108434140
fw,-88.0607376098632,-61.1906356811523,-125.077118650539,19.86625865168192,3108450807
fw,-86.8902053833007,-61.6432304382324,-145.94210104329298,28.776155394722274,3108467474
fw,-84.2239608764648,-62.2250518798828,-163.3884372355366,39.29667565798905,3108484141
fw,-81.2635421752929,-62.9976501464843,-176.61286554894636,50.46474793650602,3108500808
fw,-78.214614868164,-64.3091735839843,-184.9385107748117,61.30514772696507,3108517475
fw,-75.0525207519531,-65.929946899414,-187.96128248627363,71.07146516400147,3108534142
fw,-71.690071105957,-67.5221481323242,-185.7440718510723,79.43105352489144,3108550809
fw,-68.4040756225586,-68.9584579467773,-178.93674600888113,86.50575095962866,3108567476
fw,-65.5473327636718,-70.2731246948242,-168.70578795020822,92.73893630560315,3108584143
fw,-63.1193580627441,-71.705322265625,-156.44172666739482,98.63818808586545,3108600810
fw,-60.990665435791,-73.3334655761718,-143.33354985773576,104.49862961833965,3108617477
fw,-59.0771408081054,-75.0296173095703,-129.9882257699464,110.21668812618688,3108634144
fw,-57.1999435424804,-76.7967529296875,-116.27367208967937,115.26246299345114,3108650811
fw,-55.3945503234863,-78.7936325073242,-101.46977633634826,118.81749786678436,3108667478
fw,-53.8893661499023,-80.9191360473632,-84.67501694124444,120.02792439965569,3108684145
fw,-52.7469291687011,-82.9111175537109,-65.30691848487298,118.28546183721087,3108700812
fw,-51.8765983581543,-84.4530944824218,-43.50039714142678,113.44148450605628,3108717479
fw,-51.7283134460449,-85.4491271972656,-20.25385352757687,105.88740078480191,3108734146
fw,-52.26953125,-85.9125671386718,2.7272817546850177,96.4864887788915,3108750813
fw,-53.3566780090332,-85.880012512207,23.425090313251,86.39175201171855,3108767480
fw,-54.5150833129882,-85.3979415893554,39.99332396287179,76.80897874363187,3108784147
fw,-55.6575889587402,-84.6575698852539,51.16787791753268,68.76076012069072,3108800814
fw,-57.2819480895996,-83.7893142700195,56.49614572392326,62.88819915186315,3108817481
fw,-58.6707191467285,-82.906623840332,56.36041672913453,59.3080946949389,3108834148
fw,-59.9631462097168,-82.0621948242187,51.82954214923956,57.534797692210255,3108850815
fw,-61.0954132080078,-81.2663497924804,44.39581753894998,56.47889211277481,3108867482
fw,-61.8580589294433,-80.5197448730468,35.66004837682638,54.54060646467372,3108884149
fw,-62.0838508605957,-79.757080078125,27.034009937065374,49.811256697529394,3108900816
fw,-62.1525650024414,-79.0490188598632,19.532991533178127,40.37467693947065,3108917483
fw,-62.5123786926269,-78.4862289428711,13.715362503866851,24.669233066297,3108934150
fw,-63.7777099609375,-78.3222427368164,9.777405289305678,1.844126574941708,3108950817
fw,-64.7417831420898,-78.6567764282226,7.741073858170662,-27.966818065453133,3108967484
fw,-64.8714752197265,-79.6445388793945,7.623616912515598,-63.52115140589145,3108984151
fw,-64.9275894165039,-81.3948287963867,9.4949269017153,-102.53494848829355,3109000818
fw,-65.1200561523437,-83.6072387695312,13.40543757237224,-141.9476409295777,3109017485
fw,-65.4605636596679,-86.3164520263671,19.248179410237476,-178.35429931172087,3109034152
fw,-65.8642044067382,-87.8462295532226,26.65091202451055,-208.53976351617885,3109050819
fw,-66.6445999145507,-84.7146530151367,34.97015675775958,-230.01741624775588,3109067486
fw,-67.668716430664,-80.5311813354492,43.403153088411436,-241.4575160928539,3109084153
fw,-68.9276809692382,-76.502815246582,51.176223270182945,-242.9028326888233,3109100820
fw,-70.188362121582,-72.703140258789,57.7326895381902,-235.71905701858333,3109117487
fw,-71.3952407836914,-69.005256652832,62.84470911774621,-222.29488420414683,3109134154
fw,-72.6073913574218,-65.5667266845703,66.610211872272,-205.5593839911554,3109150821
fw,-73.9302215576171,-62.5027542114257,69.34931156031918,-188.40589618676864,3109167488
fw,-75.3671646118164,-59.6478729248046,71.45499686706844,-173.11407348818548,3109184155
fw,-76.8761978149414,-57.247760772705,73.26047876660496,-160.86632350038278,3109200822
fw,-78.4142913818359,-55.5613479614257,74.96273287091189,-151.46657829667583,3109217489
fw,-79.9954757690429,-53.521987915039,76.6081330031261,-143.3673390814808,3109234156
fw,-81.5826797485351,-51.1247215270996,78.12140131526226,-134.06193827915067,3109250823
fw,-83.1171569824218,-48.6808815002441,79.35195765337166,-120.7898839187414,3109267490
fw,-84.5842742919921,-46.5958671569824,80.11934676337461,-101.37355345644811,3109284157
fw,-86.0430526733398,-45.2938346862793,80.25272009185282,-74.93154342526422,3109300824
fw,-87.489631652832,-44.8274002075195,79.62809886917697,-42.24852725533693,3109317491
fw,-88.8279724121093,-44.9956245422363,78.20490611594234,-5.704048593555756,3109334158
fw,-88.8336639404296,-45.6499671936035,76.051975191749,31.194834736302923,3109350825
fw,-87.6054306030273,-47.2029609680175,73.34298069996838,64.53130245112732,3109367492
fw,-86.2231750488281,-48.5069198608398,70.30287167660633,90.76372938533875,3109384159
fw,-84.9418182373046,-50.48384475708,67.10366473360502,107.4075419226138,3109400826
fw,-83.7938919067382,-53.5311775207519,63.73358656287329,113.48040211038123,3109417493
fw,-82.7799911499023,-55.492820739746,59.886313076778265,109.62020521747769,3109434160
fw,-81.7949142456054,-57.160358428955,54.92443576394802,97.84317167858912,3109450827
fw,-80.8230743408203,-58.1173210144043,47.95507650656716,80.99999663321485,3109467494
fw,-80.0153884887695,-58.6845016479492,38.01834851018952,62.093128180716114,3109484161
fw,-79.4523239135742,-59.268756866455,24.34606045147884,43.67654265499737,3109500828
fw,-79.2066345214843,-59.4292297363281,6.617389494149389,27.522158063331638,3109517495
fw,-79.3819046020507,-60.6726684570312,-14.868349529628569,14.61278442727206,3109534162
fw,-80.0073776245117,-61.8859329223632,-39.162642101469956,5.370143097129456,3109550829
fw,-81.2867889404296,-61.6171379089355,-64.80266460952598,-0.0696348734538057,3109567496
fw,-83.3969345092773,-61.0128707885742,-90.07687518792207,-1.6995119469082713,3109584163
fw,-86.2379302978515,-61.0310821533203,-113.33803306639612,0.3525475028618631,3109600830
fw,-88.4853439331054,-61.1330337524414,-133.25916187270542,5.737615309015949,3109617497
fw,-86.8410491943359,-61.3518180847168,-148.95769109532756,13.83763408282826,3109634164
fw,-84.1028594970703,-61.7919998168945,-159.98738705558762,23.819969804743508,3109650831
fw,-81.118782043457,-62.4429779052734,-166.2699282470825,34.78614948029933,3109667498
fw,-78.2149124145507,-63.3487434387207,-168.0514969500904,45.96050255350838,3109684165
fw,-75.1807022094726,-64.5392990112304,-165.91177429770534,56.850377683113685,3109700832
fw,-72.054214477539,-65.8187713623046,-160.77021007927738,67.31770071041781,3109717499
fw,-69.1756515502929,-67.0970687866211,-153.79424360565994,77.52838649284924,3109734166
fw,-66.7942276000976,-68.3952178955078,-146.15284395595694,87.7881044805636,3109750833
fw,-64.5966873168945,-69.9107818603515,-138.65968062849743,98.31692129978285,3109767500
fw,-62.3676414489746,-71.7078552246093,-131.4508178215888,109.04094855824603,3109784167
fw,-60.151569366455,-73.6603240966796,-123.87044244394431,119.4736497593327,3109800834
fw,-57.8896369934082,-75.6082153320312,-114.66555740703501,128.72915317358814,3109817501
fw,-55.9142532348632,-77.7693405151367,-102.45272004642904,135.67206673724948,3109834168
fw,-54.2518348693847,-80.0996475219726,-86.29132716541477,139.17378937859155,3109850835
fw,-53.0497398376464,-82.3526535034179,-66.14377007293581,138.41528272429017,3109867502
fw,-52.4693756103515,-84.1393356323242,-43.045759359022014,133.15492715596548,3109884169
fw,-52.639404296875,-85.2676620483398,-18.926441033875577,123.87966986993221,3109900836
fw,-53.3832778930664,-85.6768646240234,3.8458563409286386,111.78485257513181,3109917503
fw,-54.3898849487304,-85.3930892944336,23.020238633183467,98.57356781844415,3109934170
fw,-55.1838264465332,-84.7703323364257,36.93610551561364,86.11363509500573,3109950837
fw,-56.4091529846191,-84.0234832763671,44.79309444108085,76.02769418756992,3109967504
fw,-57.7144966125488,-83.1764526367187,46.697578298766665,69.31167990809996,3109984171
fw,-58.9610214233398,-82.1958389282226,43.53369658306218,66.07180972092226,3110000838
fw,-60.2327346801757,-81.142219543457,36.72250181898524,65.44019641223402,3110017505
fw,-61.2824440002441,-80.1441574096679,27.92082897880382,65.68681917728962,3110034172
fw,-61.6637077331543,-79.2212905883789,18.707208233938665,64.50710936019001,3110050839
fw,-61.5803184509277,-78.2593688964843,10.315836995584503,59.436740611849906,3110067506
fw,-61.4829406738281,-77.3909530639648,3.491952303379011,48.324998547870635,3110084173
fw,-61.9614486694335,-76.7644882202148,-1.4792255961156284,29.782626153152773,3110100840
fw,-63.156021118164,-76.5057067871093,-4.586119430991143,3.5145119060291274,3110117507
fw,-63.7272109985351,-76.7029724121093,-5.8472337404442465,-29.539892319708464,3110134174
fw,-63.751537322998,-77.7793884277343,-5.148149200441609,-67.30188099558112,3110150841
fw,-63.7380561828613,-79.8305130004882,-2.249646559410893,-106.87651463773774,3110167508
fw,-63.7406501770019,-82.5583724975586,3.047106368195871,-145.03654527285025,3110184175
fw,-63.7508277893066,-85.8210678100586,10.684236591291373,-178.75458203843485,3110200842
fw,-64.1510162353515,-89.2818145751953,20.21041644374383,-205.66022405054156,3110217509
fw,-65.0906753540039,-86.7276229858398,30.80631733869085,-224.33014785721625,3110234176
fw,-66.3473968505859,-82.6282348632812,41.46765003819435,-234.37559295183715,3110250843
fw,-67.6289443969726,-78.829849243164,51.26305390782591,-236.34632808246653,3110267510
fw,-68.8224334716796,-75.1143646240234,59.55413020033901,-231.5046271922332,3110284177
fw,-70.0299682617187,-71.4740295410156,66.0939820621934,-221.53378133864578,3110300844
fw,-71.3416366577148,-68.1446990966796,70.98627708497513,-208.23882871502383,3110317511
fw,-72.7692947387695,-65.0371551513671,74.54856355483322,-193.28112415016585,3110334178
fw,-74.2681350708007,-62.1977996826171,77.1506699788757,-177.97217432472522,3110350845
fw,-75.8702926635742,-59.2948684692382,79.08835225431784,-163.14072029973298,3110367512
fw,-77.5530242919921,-57.0508689880371,80.52154741059506,-149.0797887200699,3110384179
fw,-79.2000350952148,-55.0161018371582,81.47579431690845,-135.57582070626108,3110400846
fw,-80.7863388061523,-52.7984962463378,81.88665420657729,-122.01677447198604,3110417513
fw,-82.3428344726562,-50.8190040588378,81.66271946205877,-107.56408995834153,3110434180
fw,-83.8678970336914,-49.7878303527832,80.74757172087494,-91.35753437186587,3110450847
fw,-85.328987121582,-48.8890686035156,79.16690290352149,-72.71878905445934,3110467514
fw,-86.7105636596679,-48.2657089233398,77.05039939134353,-51.334464637604235,3110484181
fw,-87.9356918334961,-47.7482261657714,74.62093208129149,-27.41021393374067,3110500848
fw,-88.5468063354492,-47.5664329528808,72.14911311675463,-1.7751222568354348,3110517515
fw,-88.0955657958984,-48.0029907226562,69.88001279484557,24.107248804864955,3110534182
fw,-87.0946502685546,-48.7572517395019,67.94874911245188,48.26798552436309,3110550849
fw,-85.9284057617187,-49.8358917236328,66.30834754955991,68.51985948092319,3110567516
fw,-84.7577209472656,-51.4314613342285,64.69200741366056,82.8688982801561,3110584183
fw,-83.652603149414,-53.8443908691406,62.62229694773859,89.96086076999453,3110600850
fw,-82.6180267333984,-55.6703834533691,59.46702570862185,89.43106871505638,3110617517
fw,-81.6720886230468,-57.3115577697753,54.53127026116448,82.02708343642998,3110634184
fw,-80.6979217529296,-58.4861602783203,47.16856183889242,69.43956692340157,3110650851
fw,-79.9320755004882,-58.8983268737793,36.89042203330151,53.88994098074496,3110667518
fw,-79.4542083740234,-59.0753364562988,23.45309103093303,37.627467693707935,3110684185
fw,-79.249755859375,-59.0188331604003,6.905324570859691,22.524837755007294,3110700852
fw,-79.4191284179687,-59.8354835510253,-12.409904595286545,9.904240343251852,3110717519
fw,-80.0941467285156,-60.9765968322753,-33.897423699042136,0.5974174707490175,3110734186
fw,-81.4789581298828,-61.0525703430175,-56.7827243026202,-4.884259770486145,3110750853
fw,-83.5361022949218,-60.6313362121582,-80.18987914482098,-6.232536288753244,3110767520
fw,-85.9402542114257,-60.2803268432617,-103.19104144681576,-3.361850139824054,3110784187
fw,-87.3047790527343,-60.2219848632812,-124.80819522336633,3.478506955402554,3110800854
fw,-86.3533630371093,-60.5531845092773,-143.98924030731672,13.617107238126923,3110817521
fw,-84.0138244628906,-61.019676208496,-159.62389671187228,25.992220949025732,3110834188
fw,-81.3151779174804,-61.7642211914062,-170.66686109943606,39.319416526087224,3110850855
fw,-78.4604263305664,-62.82320022583,-176.37711536160376,52.342567340325765,3110867522
fw,-75.3571548461914,-64.1006698608398,-176.5937533935546,64.085268487754,3110884189
fw,-72.0509262084961,-65.4205474853515,-171.90754502150835,74.02482871161543,3110900856
fw,-69.0119247436523,-66.7557220458984,-163.597401001304,82.14053893011251,3110917523
fw,-66.6172256469726,-68.1745986938476,-153.29012142776466,88.8300636203713,3110934190
fw,-64.5103149414062,-69.7838668823242,-142.4371694024205,94.72700288474165,3110950857
fw,-62.5149345397949,-71.5001449584961,-131.81528892973034,100.47419346696591,3110967524
fw,-60.5283508300781,-73.1896133422851,-121.27812102608532,106.5085013854018,3110984191
fw,-58.2903366088867,-74.9191436767578,-109.88987340282557,112.90346633043346,3111000858
fw,-56.1399612426757,-76.7951126098632,-96.40236856144054,119.30492456371469,3111017525
fw,-54.3241958618164,-78.7734756469726,-79.8775905851767,124.98000277253998,3111034192
fw,-53.1241302490234,-80.7934417724609,-60.19035170180819,128.9764718799025,3111050859
fw,-52.7769699096679,-82.6973876953125,-38.20685873660985,130.36036060947774,3111067526
fw,-53.1432495117187,-84.2583999633789,-15.59320874567299,128.4755329980161,3111084193
fw,-53.8660354614257,-85.3304595947265,5.624644587086066,123.15766950973132,3111100860
fw,-54.5400619506835,-85.468879699707,23.543769431598047,114.83809652099693,3111117527
fw,-55.138816833496,-84.8077850341796,36.74043623890164,104.49096244259692,3111134194
fw,-56.2864875793457,-83.9275588989257,44.44200289454358,93.414138911977,3111150861
fw,-57.6095504760742,-83.0248947143554,46.554886420657084,82.88720597189753,3111167528
fw,-58.9775428771972,-82.1515197753906,43.613084157736,73.79929527671702,3111184195
fw,-60.3588066101074,-81.2510452270507,36.6759127685309,66.35817690950225,3111200862
fw,-61.4987831115722,-80.3467712402343,27.166166542005495,59.9684489705329,3111217529
fw,-61.7072143554687,-79.5006408691406,16.64267202911171,53.3149402179106,3111234196
fw,-61.5225257873535,-78.7461929321289,6.5429283113694785,44.632236260644554,3111250863
fw,-61.350357055664,-78.133560180664,-2.023639051846874,32.09962318173673,3111267530
fw,-61.9119758605957,-77.8217315673828,-8.350663668145499,14.277209253221011,3111284197
fw,-62.9153099060058,-77.9266128540039,-12.06095118274314,-9.508159858347739,3111300864
fw,-63.1775207519531,-78.3733444213867,-12.957085693650308,-38.911269017180004,3111317531
fw,-63.1106834411621,-79.4614715576171,-10.913732071447813,-72.51413949526543,3111334198
fw,-63.084903717041,-81.2173614501953,-5.88829129803787,-107.99654529323594,3111350865
fw,-63.1311874389648,-83.6876144409179,1.9637399523450527,-142.51070975605538,3111367532
fw,-63.3544311523437,-86.8955612182617,12.154555084242249,-173.18553745683894,3111384199
fw,-63.9356727600097,-88.8881149291992,23.810481769577883,-197.64320344102478,3111400866
fw,-64.7932586669921,-85.5322647094726,35.757894671427906,-214.40045472481958,3111417533
fw,-65.9966278076171,-81.4416580200195,46.741335670586146,-223.05962326831602,3111434200
fw,-67.3769378662109,-77.6758193969726,55.70707262145151,-224.25938340466115,3111450867
fw,-68.8061141967773,-74.3866195678711,62.05469392774991,-219.4243545833216,3111467534
fw,-70.2322463989257,-70.8539886474609,65.76665701833511,-210.39830956666822,3111484201
fw,-71.6447219848632,-67.6048889160156,67.36783106530723,-199.054860243717,3111500868
fw,-73.0844650268554,-64.6046600341796,67.72836166622777,-186.9573917944135,3111517535
fw,-74.5160446166992,-61.7106781005859,67.77876605107318,-175.1086583244508,3111534202
fw,-75.9393615722656,-59.0396575927734,68.23372232262808,-163.81212290527154,3111550869
fw,-77.3871612548828,-56.9346580505371,69.41222108212602,-152.66528030712712,3111567536
fw,-78.9105606079101,-55.1432991027832,71.20348600862303,-140.70523486825806,3111584203
fw,-80.517593383789,-52.8886375427246,73.17602743978293,-126.7078745889888,3111600870
fw,-82.1859588623046,-50.4205818176269,74.77934922829934,-109.59056299865277,3111617537
fw,-83.8242263793945,-48.5801048278808,75.55999110923976,-88.80231908514463,3111634204
fw,-85.2743682861328,-48.3135337829589,75.31526203100182,-64.56133122082672,3111650871
fw,-86.5200271606445,-48.1625747680664,74.13815880786552,-37.86042428878459,3111667538
fw,-87.6550674438476,-48.2956047058105,72.35206306533166,-10.273114183890478,3111684205
fw,-88.4588394165039,-48.6326942443847,70.37283335332474,16.331828359571105,3111700872
fw,-88.3415298461914,-49.213321685791,68.55259079581313,40.0691033365982,3111717539
fw,-87.4800567626953,-50.0678062438964,67.05250831465476,59.27137526789548,3111734206
fw,-86.4200744628906,-51.4357452392578,65.77238103237998,72.68880407225271,3111750873
fw,-85.2998123168945,-53.2647438049316,64.34480232743766,79.66285136994728,3111767540
fw,-84.193130493164,-55.142276763916,62.18711603820745,80.24915994597244,3111784207
fw,-83.0753936767578,-56.4199447631835,58.59540029041573,75.23443399109921,3111800874
fw,-82.0295181274414,-57.6248741149902,52.86050102650437,66.00269422886407,3111817541
fw,-81.1389389038086,-58.621238708496,44.38575465381228,54.25978921262301,3111834208
fw,-80.4667739868164,-59.1728744506835,32.788906227048145,41.68922620901153,3111850875
fw,-80.0961685180664,-59.2209663391113,17.975690219726186,29.650794839373642,3111867542
fw,-80.0237426757812,-59.1056098937988,0.17717449214581,19.028250964936618,3111884209
fw,-80.3208847045898,-60.1256637573242,-20.055281785459073,10.277698061959148,3111900876
fw,-81.0592575073242,-61.323070526123,-41.90364933757186,3.6322184126824815,3111917543
fw,-82.4262771606445,-61.2993583679199,-64.38651501845371,-0.6727773252400902,3111934210
fw,-84.4833908081054,-60.9166679382324,-86.49583891941857,-2.3014311317721763,3111950877
fw,-87.1155471801757,-60.666820526123,-107.32651711270437,-0.9026609447814368,3111967544
fw,-88.1977844238281,-60.730655670166,-126.14772466355706,3.692084508679396,3111984211
fw,-85.8768768310546,-61.0178794860839,-142.39015280166433,11.292932983614312,3112000878
fw,-83.0099258422851,-61.3025131225585,-155.5779195986582,21.30263588718961,3112017545
fw,-80.0127868652343,-61.9061851501464,-165.27792096086498,32.82285649926372,3112034212
fw,-77.1115417480468,-62.9253921508789,-171.1308171156465,44.87326616535218,3112050879
fw,-74.0674514770507,-64.2173919677734,-172.96525017898813,56.63855743185595,3112067546
fw,-70.7901382446289,-65.4747924804687,-170.9227340767285,67.64866304757827,3112084213
fw,-67.7246322631836,-66.6703567504882,-165.48736735597075,77.82356112190033,3112100880
fw,-65.1708450317382,-68.0337219238281,-157.3517074368443,87.36968714121042,3112117547
fw,-62.9630279541015,-69.6500396728515,-147.14684309127432,96.57439713465264,3112134214
fw,-60.8939094543457,-71.3908233642578,-135.16588190975705,105.57851173351942,3112150881
fw,-58.8982315063476,-73.1160736083984,-121.2448854159014,114.20599287046959,3112167548
fw,-56.9283485412597,-74.8840866088867,-104.90088985988919,121.90736458457432,3112184215
fw,-55.2242355346679,-76.9202499389648,-85.69678811492966,127.84260469065812,3112200882
fw,-53.8799400329589,-79.2424011230468,-63.68166340884823,131.09039243293162,3112217549
fw,-53.0774993896484,-81.6429061889648,-39.70620264685481,130.9247743942146,3112234216
fw,-52.8710289001464,-83.5332794189453,-15.456911570770835,127.06559463204049,3112250883
fw,-53.5045204162597,-84.7589569091796,6.832677188163685,119.81211119275274,3112267550
fw,-54.7473640441894,-85.52197265625,24.901145191802698,110.01612248064778,3112284217
fw,-56.0306091308593,-85.7512054443359,37.021495134233064,98.91327013940688,3112300884
fw,-57.196678161621,-85.3345642089843,42.41091898792745,87.8705191146604,3112317551
fw,-58.3755836486816,-84.5942687988281,41.37149564208856,78.11179497600594,3112334218
fw,-59.363052368164,-83.7951889038086,35.15997730522009,70.470213404899,3112350885
fw,-60.1457176208496,-82.9449768066406,25.667654599414867,65.20401846547999,3112367552
fw,-60.8752098083496,-82.0305557250976,15.01429745811333,61.90591953411671,3112384219
fw,-61.1648292541503,-81.0958099365234,5.144943003021053,59.52407089713109,3112400886
fw,-61.061050415039,-80.1584548950195,-2.500560006568082,56.49588375216783,3112417553
fw,-60.81787109375,-79.3155746459961,-7.184263082105113,50.97910423640571,3112434220
fw,-60.428897857666,-78.7042770385742,-8.88339320351414,41.152924464084414,3112450887
fw,-60.7035179138183,-78.3439788818359,-8.106278395932854,25.554228274537568,3112467554
fw,-61.8709602355957,-78.2760696411132,-5.5647258012787875,3.4051583096447917,3112484221
fw,-62.6149826049804,-78.4864044189453,-1.8298111041397802,-25.125445382612995,3112500888
fw,-62.7673759460449,-79.2423019409179,2.876651802702707,-58.79662133658373,3112517555
fw,-62.7828178405761,-80.7332458496093,8.662106110189072,-95.37058044037242,3112534222
fw,-62.6253776550293,-83.0301055908203,15.742329120904214,-131.91564394309827,3112550889
fw,-62.7994995117187,-86.0528106689453,24.1544603565456,-165.2965763388369,3112567556
fw,-63.6939544677734,-88.9162826538086,33.5665985515795,-192.74159162916956,3112584223
fw,-64.9793701171875,-86.1750564575195,43.28317900916867,-212.33714873377647,3112600890
fw,-66.5008850097656,-82.2687606811523,52.43569048445708,-223.31892464145514,3112617557
fw,-67.9951934814453,-78.5724563598632,60.25918367370579,-226.09504796972536,3112634224
fw,-69.3974609375,-75.1094894409179,66.32862409785024,-222.02410410165317,3112650891
fw,-70.7943344116211,-71.5438079833984,70.66262065553694,-213.03552653722542,3112667558
fw,-72.2522048950195,-68.2757492065429,73.66579940847642,-201.19880914241472,3112684225
fw,-73.7790756225586,-65.2410812377929,75.94420515609329,-188.32554348427777,3112700892
fw,-75.3275375366211,-62.3188934326171,78.06913169617644,-175.65398499735554,3112717559
fw,-76.9046401977539,-59.6738052368164,80.37448778009716,-163.64770768399907,3112734226
fw,-78.5631484985351,-57.9735794067382,82.85391097480868,-151.94280132028993,3112750893
fw,-80.3242950439453,-55.8790168762207,85.18598705273807,-139.482840370434,3112767560
fw,-82.1749725341796,-53.4841499328613,86.87107889224632,-124.85648689398597,3112784227
fw,-84.0489273071289,-51.1602096557617,87.42503885291096,-106.7823454746178,3112800894
fw,-85.8353881835937,-49.3722190856933,86.55726445411273,-84.60006525833283,3112817561
fw,-87.4340209960937,-48.7102890014648,84.27102350090493,-58.593941870587564,3112834228
fw,-88.9472427368164,-48.6441764831543,80.85803821400405,-30.0356078760101,3112850895
fw,-89.7209320068359,-48.973762512207,76.8001052598502,-0.9508526079837689,3112867562
fw,-88.3013076782226,-49.4344940185546,72.61912285443549,26.285893837752987,3112884229
fw,-87.028694152832,-50.4878349304199,68.72466211851304,49.397132096348905,3112900896
fw,-85.7402572631836,-51.3870468139648,65.29902872575072,66.58581117098157,3112917563
fw,-84.4316253662109,-53.2502174377441,62.24189452415135,76.80071398252383,3112934230
fw,-83.1967544555664,-54.8092002868652,59.17698128834519,79.85937164487662,3112950897
fw,-82.1249771118164,-56.0124740600585,55.50846232145821,76.42178062043166,3112967564
fw,-81.1701889038086,-57.1104698181152,50.50962267349267,67.82706293793699,3112984231
fw,-80.2993545532226,-58.4551773071289,43.42936463445365,55.82994980230574,3113000898
fw,-79.6241149902343,-59.1805763244628,33.60628333897811,42.293517823873074,3113017565
fw,-79.2479400634765,-59.2100830078125,20.580440692445684,28.903744627861897,3113034232
fw,-79.1463088989257,-58.9582328796386,4.19088898938891,16.97509682752958,3113050899
fw,-79.3340301513671,-59.6228256225585,-15.354953372344879,7.40256099489665,3113067566
fw,-79.8926162719726,-60.7823677062988,-37.455692142308976,0.7584215328237522,3113084233
fw,-80.9195022583007,-60.9321327209472,-61.14985948157604,-2.553731636847199,3113100900
fw,-82.6077423095703,-60.6242485046386,-85.21738418173955,-2.216808844143775,3113117567
fw,-85.0092315673828,-60.3572082519531,-108.33612537094066,1.9391526566131556,3113134234
fw,-87.5401916503906,-60.2187385559082,-129.2546973741309,9.780550629705248,3113150901
fw,-87.3326644897461,-60.5422439575195,-146.93121376648253,20.744293163615783,3113167568
fw,-84.6466827392578,-61.3079223632812,-160.60696168039502,33.85301705500945,3113184235
fw,-81.5368728637695,-62.3461723327636,-169.82490751923956,47.89657194153843,3113200902
fw,-78.5129470825195,-63.6205825805664,-174.43189080641037,61.713204064608206,3113217569
fw,-75.5119400024414,-65.1762084960937,-174.59390879714354,74.45518116471068,3113234236
fw,-72.4668579101562,-66.7586517333984,-170.81339224843384,85.73254605301265,3113250903
fw,-69.4367904663086,-68.2529144287109,-163.9002784768831,95.58216523482129,3113267570
fw,-66.6746520996093,-69.8110656738281,-154.8481371795558,104.28116679304222,3113284237
fw,-64.2991027832031,-71.5463256835937,-144.61154569545883,112.08490772220179,3113300904
fw,-62.1317329406738,-73.4392700195312,-133.84858216454012,118.99530167478589,3113317571
fw,-60.0730094909668,-75.426887512207,-122.73829085779587,124.64796535719178,3113334238
fw,-58.0636711120605,-77.3891983032226,-110.96988339115974,128.35952043619648,3113350905
fw,-56.2334518432617,-79.5682907104492,-97.92849002627364,129.3213026666784,3113367572
fw,-54.8133926391601,-81.8388519287109,-83.01279916578635,126.8780119999519,3113384239
fw,-53.8598594665527,-83.8423156738281,-65.96438286933581,120.7988026702929,3113400906
fw,-53.1519966125488,-85.1695785522461,-47.09081080887842,111.4454579571831,3113417573
fw,-52.94091796875,-85.9539794921875,-27.311569723557596,99.77604290175624,3113434240
fw,-53.2579154968261,-86.2591705322265,-8.018732138929183,87.18203287149552,3113450907
fw,-53.9854927062988,-86.1691665649414,9.198663893413828,75.21252493036438,3113467574
fw,-54.8450164794921,-85.7677917480468,22.881290225895523,65.26464348702153,3113484241
fw,-55.8948287963867,-85.0918426513671,31.988051768819094,58.31084777058844,3113500908
fw,-57.2951736450195,-84.3096313476562,36.083299925341656,54.70637593153976,3113517575
fw,-58.651554107666,-83.5398406982421,35.39509337016476,54.09297005303134,3113534242
fw,-59.6087608337402,-82.7683868408203,30.743936221505784,55.40139501221585,3113550909
fw,-60.4884071350097,-81.9566116333007,23.362543994355732,56.95509204812828,3113567576
fw,-61.3326416015625,-81.1038284301757,14.650472495549996,56.67822325367919,3113584243
fw,-61.4882316589355,-80.2752685546875,5.926921806992858,52.399989177017474,3113600910
fw,-61.2519226074218,-79.5754776000976,-1.7511862134351162,42.22192411238848,3113617577
fw,-61.2561149597168,-79.0808181762695,-7.655440532660472,24.887547203020524,3113634244
fw,-61.8724784851074,-78.8910522460937,-11.325807664513004,0.07884487524633894,3113650911
fw,-62.7008171081543,-79.1989974975586,-12.433213196795776,-31.430920297267235,3113667578
fw,-62.9654731750488,-80.262092590332,-10.665484295342416,-67.81422832022521,3113684245
fw,-62.6265716552734,-82.2615585327148,-5.734728271118379,-106.42301006314032,3113700912
fw,-62.1076431274414,-84.8923187255859,2.4697517124673958,-144.17944246221103,3113717579
fw,-61.752513885498,-88.0249404907226,13.662021079104774,-178.04434749114006,3113734246
fw,-62.1644973754882,-88.0784835815429,27.011786948914928,-205.46561459984562,3113750913
fw,-63.2337837219238,-84.0302505493164,41.17988364344577,-224.71887879187867,3113767580
fw,-64.5208511352539,-80.1682434082031,54.55753026870128,-235.08516152842643,3113784247
fw,-65.9219055175781,-76.5587310791015,65.6352666975783,-236.854396101755,3113800914
fw,-67.4740295410156,-72.7368850708007,73.37700816756167,-231.18336792908798,3113817581
fw,-69.0483093261718,-68.9415817260742,77.47808502127954,-219.8523232742794,3113834248
fw,-70.5629959106445,-65.5575332641601,78.42803500040255,-204.9535355447396,3113850915
fw,-72.0940628051757,-62.601089477539,77.35951266333278,-188.53318024781166,3113867582
fw,-73.5269088745117,-60.0478973388671,75.7262794969416,-172.22329525703736,3113884249
fw,-74.8752746582031,-58.0752487182617,74.90047816746463,-156.93850028960006,3113900916
fw,-76.2719955444336,-56.138011932373,75.80154917625913,-142.73574621318033,3113917583
fw,-77.7827987670898,-53.7799568176269,78.66075631543937,-128.90840070307232,3113934250
fw,-79.3959197998046,-51.5178413391113,82.98635256742047,-114.30355149161035,3113950917
fw,-81.1494750976562,-49.6471366882324,87.73426672743766,-97.75387349846443,3113967584
fw,-82.9745712280273,-48.9105720520019,91.62738953055242,-78.46905380434495,3113984251
fw,-84.7951965332031,-48.5740280151367,93.52457077554371,-56.273175964609884,3114000918
fw,-86.4816436767578,-48.4977874755859,92.73111227261874,-31.669148668220767,3114017585
fw,-87.7562484741211,-48.3752250671386,89.16598619376154,-5.782176160651101,3114034252
fw,-88.121955871582,-48.4997787475585,83.3472257950931,19.764059830629762,3114050919
fw,-87.56201171875,-49.3007125854492,76.2108384834862,43.02834244545827,3114067586
fw,-86.7252349853515,-50.236572265625,68.82472127071878,62.01000698439668,3114084253
fw,-85.8159561157226,-51.674518585205,62.08478369858838,74.98758868196128,3114100920
fw,-84.8920135498046,-53.7309951782226,56.47844844489051,80.88898786344316,3114117587
fw,-83.8971939086914,-55.7470626831054,51.97199059632137,79.58995107446944,3114134254
fw,-82.9221649169921,-57.2053642272949,48.03453080261739,72.01883332280525,3114150921
fw,-82.0153503417968,-58.4429168701171,43.77169948214964,59.98919260774226,3114167588
fw,-81.2712707519531,-58.8231468200683,38.12158718731345,45.78312966591522,3114184255
fw,-80.8189163208007,-58.8244934082031,30.06742617978359,31.62089810452938,3114200922
fw,-80.5493850708007,-58.7744903564453,18.835085539870132,19.213319815962222,3114217589
fw,-80.412368774414,-58.8044052124023,4.053707548773657,9.562085607865349,3114234256
fw,-80.5663681030273,-60.0475273132324,-14.143336763591906,3.0535618520272325,3114250923
fw,-81.1227645874023,-61.0755462646484,-35.10536183141539,-0.259483275682448,3114267590
fw,-82.3125228881836,-60.7298889160156,-57.75912765780989,-0.38612755954443556,3114284257
fw,-84.3196640014648,-60.366470336914,-80.7986876056657,2.701546097890906,3114300924
fw,-86.9059219360351,-60.2142868041992,-102.91228990554585,8.971449069474987,3114317591
fw,-87.9977722167968,-60.5214729309082,-122.96345217598689,18.15171932455312,3114334258
fw,-85.993423461914,-61.0855369567871,-140.06834868563496,29.617483064381748,3114350925
fw,-83.2289733886718,-61.807201385498,-153.57993086945632,42.43081361551689,3114367592
fw,-80.4156494140625,-62.8173675537109,-163.05154503525625,55.527533031710846,3114384259
fw,-77.6435317993164,-64.2663192749023,-168.25649555930156,67.97705632290881,3114400926
fw,-74.6729202270507,-65.9051818847656,-169.27815084667935,79.2139680043363,3114417593
fw,-71.4661712646484,-67.5244445800781,-166.6028737858727,89.14849543748362,3114434260
fw,-68.4412384033203,-69.0725936889648,-161.10598439645858,98.10431410362209,3114450927
fw,-65.8893890380859,-70.6990280151367,-153.85638459055556,106.59647363467286,3114467594
fw,-63.6481704711914,-72.5096740722656,-145.7685600749389,115.02482510397675,3114484261
fw,-61.5616226196289,-74.3322677612304,-137.2419524247377,123.3919408915914,3114500928
fw,-59.4956550598144,-76.1064300537109,-127.97113939540633,131.1493805922323,3114517595
fw,-57.4570121765136,-78.052749633789,-117.04924010506225,137.24026490572433,3114534262
fw,-55.6073112487793,-80.2759094238281,-103.35319521633545,140.34929694719466,3114550929
fw,-54.0074234008789,-82.6722259521484,-86.06779416455946,139.3005953630437,3114567596
fw,-52.9141235351562,-84.4597778320312,-65.14195666977467,133.47717115314907,3114584263
fw,-52.3915367126464,-85.1039123535156,-41.50034772928337,123.10853505705846,3114600930
fw,-52.5966835021972,-84.9543762207031,-16.935880628479982,109.31229350456584,3114617597
fw,-53.382095336914,-84.5454788208007,6.265883563373459,93.87022334044023,3114634264
fw,-54.1751594543457,-83.9904479980468,25.829101857053427,78.81972472485222,3114650931
fw,-55.3344573974609,-83.2613220214843,39.95767591411071,65.99626874675681,3114667598
fw,-56.7890472412109,-82.4251632690429,47.66102922567936,56.652881527072694,3114684265
fw,-58.2300491333007,-81.612319946289,48.891108348650945,51.229369895863414,3114700932
fw,-59.6005592346191,-80.8310012817382,44.49375476336333,49.28619888996292,3114717599
fw,-60.8767395019531,-80.0399932861328,36.00094489413776,49.58397426140338,3114734266
fw,-61.5822372436523,-79.175910949707,25.307595968869418,50.27990877515414,3114750933
fw,-61.627815246582,-78.3486785888671,14.300636093251551,49.210322260186274,3114767600
fw,-61.4721603393554,-77.6424942016601,4.533283100905393,44.222027272852564,3114784267
fw,-61.3802070617675,-77.1583633422851,-2.9596730126946187,33.50975252382327,3114800934
fw,-62.0551261901855,-76.9433441162109,-7.6545518745716805,15.918871350059337,3114817601
fw,-62.9535484313964,-76.9899520874023,-9.375939077990159,-8.820845427643318,3114834268
fw,-63.15571975708,-77.4285583496093,-8.09584778158223,-39.96347819010473,3114850935
fw,-63.0486373901367,-78.5713577270507,-3.825330519400289,-75.75389694821874,3114867602
fw,-62.9833679199218,-80.3561019897461,3.3427966229645873,-113.60437418048015,3114884269
fw,-63.0008811950683,-82.931282043457,13.088068211351366,-150.44294740736842,3114900936
fw,-63.4567756652832,-86.2711791992187,24.729372778927697,-183.18607881920352,3114917603
fw,-64.4907455444336,-88.682258605957,37.21339185884825,-209.23853763760397,3114934270
fw,-65.7264938354492,-85.5274429321289,49.26604641291722,-226.90122453067457,3114950937
fw,-67.1658782958984,-81.4813385009765,59.66660357772665,-235.5904009374406,3114967604
fw,-68.7169647216796,-77.5711898803711,67.54758778921197,-235.83123031499431,3114984271
fw,-70.3444213867187,-73.9369506835937,72.61082282138017,-229.05288099962573,3115000938
fw,-71.9652709960937,-70.1064834594726,75.17881610730224,-217.25090233845165,3115017605
fw,-73.5473022460937,-66.8454895019531,76.05839391368774,-202.58807924217,3115034272
fw,-75.0905303955078,-63.9446144104003,76.2601560121881,-186.99416655552045,3115050939
fw,-76.5849380493164,-61.0476722717285,76.66899260658485,-171.81898364158567,3115067606
fw,-78.0853958129882,-58.6063423156738,77.77783885408,-157.59746958594314,3115084273
fw,-79.7316284179687,-56.8996086120605,79.57204326825271,-143.98722136818165,3115100940
fw,-81.5384750366211,-54.7984962463378,81.59423412853936,-129.92247360294277,3115117607
fw,-83.3981170654296,-52.6310653686523,83.15229151490723,-113.98078245432445,3115134274
fw,-85.147964477539,-50.4079933166503,83.58446894410838,-94.88217763244393,3115150941
fw,-86.7626342773437,-49.2533912658691,82.48578728901556,-71.97193445252441,3115167608
fw,-88.2562866210937,-49.0675773620605,79.82789329123287,-45.532614989799406,3115184275
fw,-89.5670471191406,-48.9968070983886,75.95079926031296,-16.84288310389148,3115200942
fw,-88.8921737670898,-49.0514411926269,71.44563168716759,12.003702241554246,3115217609
fw,-87.682014465332,-49.4886474609375,66.970738043382,38.45312837010565,3115234276
fw,-86.5561599731445,-50.6937179565429,63.05113132998947,59.94821099893453,3115250943
fw,-85.4759826660156,-52.0535354614257,59.909608955468514,74.42080674800175,3115267610
fw,-84.3414459228515,-54.1946601867675,57.36938828302851,80.73026490420563,3115284277
fw,-83.2257003784179,-56.1227188110351,54.85189281743247,78.93480475555417,3115300944
fw,-82.1815643310546,-57.2720069885253,51.47077245137667,70.29525997031831,3115317611
fw,-81.1852416992187,-58.196922302246,46.2001309280704,56.981234280367076,3115334278
fw,-80.3470611572265,-58.654010772705,38.078247390777236,41.55619543262654,3115350945
fw,-79.8135604858398,-58.7491264343261,26.40235848678297,26.407107811471857,3115367612
fw,-79.6064147949218,-58.4898948669433,10.876112417312303,13.30905114684867,3115384279
fw,-79.7103271484375,-58.3485221862793,-8.314626827325892,3.2623171235852233,3115400946
fw,-80.2042541503906,-59.5919456481933,-30.50686567922235,-3.376066206835462,3115417613
fw,-81.1320877075195,-60.5890998840332,-54.64380141719493,-6.5820527657813095,3115434280
fw,-82.7909469604492,-60.2927093505859,-79.42177417855974,-6.378132179548286,3115450947
fw,-85.10595703125,-59.7111740112304,-103.46925002531016,-2.7384770318650413,3115467614
fw,-87.3974456787109,-59.3573417663574,-125.50971963009908,4.293255035402635,3115484281
fw,-86.8917846679687,-59.5498657226562,-144.4631231082082,14.401184666203044,3115500948
fw,-84.4999008178711,-60.0636940002441,-159.47585632089942,26.87821562988039,3115517615
fw,-81.6442413330078,-60.8475875854492,-169.92054684441092,40.685003867869774,3115534282
fw,-78.6754760742187,-61.9803466796875,-175.42951783600645,54.66817057278975,3115550949
fw,-75.6915969848632,-63.4450149536132,-175.99062040741802,67.84041671424434,3115567616
fw,-72.5561904907226,-64.981575012207,-172.06115307419114,79.60504194771417,3115584283
fw,-69.3734512329101,-66.4687194824218,-164.60027028298654,89.83726354430897,3115600950
fw,-66.6891174316406,-67.9833068847656,-154.92811076835358,98.79590594313083,3115617617
fw,-64.415771484375,-69.6454620361328,-144.39723830868698,106.90604140159711,3115634284
fw,-62.3897094726562,-71.5380477905273,-133.97247901524256,114.49777812911265,3115650951
fw,-60.5774116516113,-73.4818267822265,-123.89486239552133,121.5929045425288,3115667618
fw,-58.7325363159179,-75.4556655883789,-113.59904955380028,127.80602942148671,3115684285
fw,-56.8491821289062,-77.5498046875,-101.95455457735132,132.38869821798704,3115700952
fw,-55.1892471313476,-79.8028106689453,-87.75791373674485,134.40661152060022,3115717619
fw,-53.9304084777832,-81.9048843383789,-70.28941709122846,133.0055078636388,3115734286
fw,-53.1449584960937,-83.7174682617187,-49.71940269935477,127.69542655085067,3115750953
fw,-53.0494346618652,-85.1671829223632,-27.21399429539018,118.57457465858299,3115767620
fw,-53.6486587524414,-85.9528121948242,-4.712532384364565,106.42610223375344,3115784287
fw,-54.5404586791992,-85.9706649780273,15.528422809269985,92.64812937215578,3115800954
fw,-55.4577026367187,-85.4872894287109,31.45984837077385,79.01326298921336,3115817621
fw,-56.7928237915039,-84.9196319580078,41.67629898575007,67.29587194146265,3115834288
fw,-58.2747840881347,-84.3618469238281,45.66851991612835,58.846885035246096,3115850955
fw,-59.6833953857421,-83.7670669555664,43.8673341944978,54.22198841576024,3115867622
fw,-60.8877029418945,-83.0882339477539,37.497993468164026,52.96537965950343,3115884289
fw,-61.8606071472168,-82.3113479614257,28.28899421771262,53.61555509027208,3115900956
fw,-62.2423057556152,-81.4175109863281,18.10249848096778,53.94382726694023,3115917623
fw,-62.0883064270019,-80.4039611816406,8.577425525354812,51.377806279647615,3115934290
fw,-61.8451385498046,-79.5183868408203,0.8843260444406427,43.51661691758701,3115950957
fw,-62.0097846984863,-78.999641418457,-4.338266414440453,28.62458662632553,3115967624
fw,-62.8827781677246,-78.8772354125976,-6.868245132797501,6.001503871355467,3115984291
fw,-63.3393440246582,-79.1646041870117,-6.6927497248720185,-23.836810541508395,3116000958
fw,-63.1675643920898,-80.0546569824218,-3.8413203853003446,-59.19204867230538,3116017625
fw,-62.8896179199218,-81.6609878540039,1.6435447251978055,-97.42134440202219,3116034292
fw,-62.5951461791992,-83.9522705078125,9.596889192865888,-135.34245538422977,3116050959
fw,-62.6612701416015,-86.9826049804687,19.57286737140706,-169.74087438139216,3116067626
fw,-63.3390502929687,-88.7752380371093,30.757497901033304,-197.88540697598154,3116084293
fw,-64.4175186157226,-85.1388931274414,42.03145650814558,-217.9443484889842,3116100960
fw,-65.6722412109375,-81.214729309082,52.18292728635886,-229.21068077235645,3116117627
fw,-67.0575790405273,-77.4531326293945,60.19995116292573,-232.0952340566362,3116134294
fw,-68.5451889038086,-73.783935546875,65.53798222645801,-227.91170631177397,3116150961
fw,-70.0535659790039,-70.0508422851562,68.266057921693,-218.52472805004095,3116167628
fw,-71.4745788574218,-66.7617568969726,69.03590641573113,-205.9440196187839,3116184295
fw,-72.8856353759765,-63.7953605651855,68.87883662700008,-191.93501882387906,3116200962
fw,-74.2773361206054,-60.8751754760742,68.89473673934619,-177.70275297923246,3116217629
fw,-75.6776657104492,-58.2460441589355,69.93262035683655,-163.7006625791732,3116234296
fw,-77.1415481567382,-56.4873809814453,72.36005707897448,-149.610883764997,3116250963
fw,-78.7041549682617,-54.3568458557128,75.98424642209184,-134.52392759717998,3116267630
fw,-80.3489532470703,-52.11372756958,80.13674563549243,-117.30155845763008,3116284297
fw,-82.1002502441406,-49.8541221618652,83.88484149483457,-97.0356642861982,3116300964
fw,-83.8456268310546,-48.2318420410156,86.29933936763305,-73.4515032064111,3116317631
fw,-85.5246887207031,-48.3025474548339,86.69931022995165,-47.1058023311533,3116334298
fw,-87.1359786987304,-48.6736373901367,84.8094830606653,-19.32254572062266,3116350965
fw,-88.6886520385742,-48.9073104858398,80.7975128753166,8.066173389869752,3116367632
fw,-89.6113357543945,-49.1864280700683,75.19386513369484,33.0451241313653,3116384299
fw,-88.5764617919921,-50.0173187255859,68.72654933955143,53.71300050909333,3116400966
fw,-87.5320129394531,-51.1213760375976,62.121379670623135,68.53180153624609,3116417633
fw,-86.5163650512695,-52.6453247070312,55.92247945873931,76.54294959025617,3116434300
fw,-85.482307434082,-54.6276893615722,50.375024801737446,77.54086755348995,3116450967
fw,-84.4845962524414,-56.0515174865722,45.38661013046719,72.15414527888433,3116467634
fw,-83.5886459350586,-57.0229110717773,40.55736433434498,61.77550619227763,3116484301
fw,-82.7805786132812,-58.110424041748,35.25513032291829,48.32135698635538,3116500968
fw,-82.1791839599609,-58.4749641418457,28.714534380770733,33.86782516216048,3116517635
fw,-81.9025802612304,-58.5802116394043,20.150779274039152,20.26543961239759,3116534302
fw,-81.8415908813476,-58.2573204040527,8.888807270892215,8.854115635665462,3116550969
fw,-81.877082824707,-58.177734375,-5.494614672526071,0.37263763157432556,3116567636
fw,-82.1465988159179,-59.4090614318847,-23.037300771843228,-4.921822749542316,3116584303
fw,-82.8384780883789,-60.1131324768066,-43.31023228952338,-7.015429688330878,3116600970
fw,-84.1766815185546,-59.6852874755859,-65.43366909083021,-5.939530745043705,3116617637
fw,-86.2146759033203,-59.1551361083984,-88.20329133646257,-1.7333635817478845,3116634304
fw,-88.4309005737304,-59.0161972045898,-110.28635353744549,5.439219379042269,3116650971
fw,-87.0734405517578,-59.377082824707,-130.41258837954422,15.13867466058208,3116667638
fw,-84.134292602539,-60.029556274414,-147.49654215719394,26.594724190535963,3116684305
fw,-80.994140625,-60.7662391662597,-160.68220342096024,38.79997864012592,3116700972
fw,-77.8989181518554,-61.7116546630859,-169.3565304364608,50.71571758884488,3116717639
fw,-75.0060882568359,-63.0364799499511,-173.19084381589974,61.50631968651885,3116734306
fw,-71.9032363891601,-64.4032897949218,-172.22575554018974,70.71674379151722,3116750973
fw,-68.6093215942382,-65.7121276855468,-166.94644084259315,78.33342320847106,3116767640
fw,-65.783462524414,-67.0121231079101,-158.2537493762775,84.71145755310144,3116784307
fw,-63.3843269348144,-68.4306488037109,-147.2661045880926,90.39832941406685,3116800974
fw,-61.3527488708496,-70.1070022583007,-134.98464009327003,95.91720460337972,3116817641
fw,-59.6102104187011,-71.869140625,-121.95935922785957,101.5769413743042,3116834308
fw,-57.9552688598632,-73.5350952148437,-108.13003673272563,107.35669529094925,3116850975
fw,-56.3042068481445,-75.2391738891601,-92.94942665668863,112.88861353192993,3116867642
fw,-54.6953010559082,-77.1882400512695,-75.76200359517418,117.54254392950087,3116884309
fw,-53.4173545837402,-79.293472290039,-56.28174314233478,120.59653444833909,3116900976
fw,-52.7661056518554,-81.4640884399414,-34.95586938663642,121.45083331376492,3116917643
fw,-52.8656120300293,-83.376350402832,-13.048498232640835,119.82118723701284,3116934310
fw,-53.5537872314453,-84.8861083984375,7.5947622641285255,115.84749500672196,3116950977
fw,-54.6300621032714,-86.0152282714843,25.000038353577217,110.08139903983013,3116967644
fw,-55.5998458862304,-86.4815292358398,37.55539206564861,103.35584639209779,3116984311
fw,-56.7631950378418,-86.0370559692382,44.372177888721104,96.57039315901079,3117000978
fw,-58.0878829956054,-85.1544723510742,45.43458535490068,90.4413882112911,3117017645
fw,-59.3953819274902,-84.1451568603515,41.54214968199247,85.27288493473188,3117034312
fw,-60.5155601501464,-83.0547103881836,34.097150150096475,80.80518428287385,3117050979
fw,-61.4314613342285,-81.9080123901367,24.797641616179554,76.18610227891433,3117067646
fw,-61.6282386779785,-80.8031616210937,15.297827276003034,70.08140754345374,3117084313
fw,-61.4351463317871,-79.8379287719726,6.908936433697199,60.90549186231703,3117100980
fw,-61.186725616455,-79.0921401977539,0.42303571704598086,47.12718408319637,3117117647
fw,-61.3168144226074,-78.6203918457031,-3.88047605566043,27.595640225192465,3117134314
fw,-62.2817687988281,-78.5241394042968,-6.0541570695780855,1.8320572637844412,3117150981
fw,-62.9841194152832,-78.8471221923828,-6.222486305859324,-29.764108325514755,3117167648
fw,-62.9812355041503,-79.7148208618164,-4.384503821649962,-65.84250785745543,3117184315
fw,-62.7861671447753,-81.4132766723632,-0.3868085801306496,-104.19995769673764,3117200982
fw,-62.6487846374511,-83.877212524414,5.926087454742566,-142.05779767762354,3117217649
fw,-62.7078437805175,-86.9650115966796,14.479222219278157,-176.48094151504452,3117234316
fw,-63.0217475891113,-88.5779800415039,24.789567444465707,-204.85273798048595,3117250983
fw,-63.9058723449707,-84.9358520507812,35.946771664007386,-225.2937088983357,3117267650
fw,-64.9934310913086,-80.8112411499023,46.77558244419601,-236.924751544416,3117284317
fw,-66.3349990844726,-76.9300308227539,56.12150082666041,-239.92291977166963,3117300984
fw,-67.7627944946289,-73.1444396972656,63.15241153402973,-235.37822594838804,3117317651
fw,-69.2230453491211,-69.2439727783203,67.56673040389607,-225.00549785301413,3117334318
fw,-70.6287078857421,-65.9403610229492,69.63799516497158,-210.78150603699322,3117350985
fw,-72.0497055053711,-62.9009628295898,70.08881540372207,-194.57227875544524,3117367652
fw,-73.4634628295898,-59.8166580200195,69.8475776730031,-177.80748011752343,3117384319
fw,-74.880256652832,-57.3688507080078,69.77484541380454,-161.25617214869504,3117400986
fw,-76.3049011230468,-55.6591072082519,70.44369048805103,-144.9553418822639,3117417653
fw,-77.8000411987304,-53.4909553527832,72.02852017717537,-128.32746778225416,3117434320
fw,-79.3400268554687,-51.2875900268554,74.31758926025744,-110.48102813083513,3117450987
fw,-80.9378814697265,-49.1129150390625,76.82886889428258,-90.61644652515123,3117467654
fw,-82.5973129272461,-48.1083030700683,78.98440594970253,-68.39818481004318,3117484321
fw,-84.2262344360351,-47.9495658874511,80.28805898165947,-44.15966454296935,3117500988
fw,-85.7723770141601,-47.8979721069335,80.45648021369128,-18.89064386619786,3117517655
fw,-87.2975234985351,-47.9993743896484,79.47106253317216,5.945825424002996,3117534322
fw,-88.8387069702148,-48.3917617797851,77.54282722554454,28.677001113699664,3117550989
fw,-89.6194763183593,-49.4495849609375,75.00499381834709,47.693245856660155,3117567656
fw,-88.3470840454101,-50.3307075500488,72.16481737424016,61.69336212877206,3117584323
fw,-87.1115417480468,-51.874168395996,69.15666780700795,69.88190105009166,3117600990
fw,-85.8849182128906,-53.2832260131835,65.84058966416275,72.09646497152518,3117617657
fw,-84.7137985229492,-54.7023735046386,61.780459576050774,68.84013744902045,3117634324
fw,-83.572883605957,-55.7504959106445,56.31258435029807,61.20158586245921,3117650991
fw,-82.5392837524414,-56.7976112365722,48.68687925383174,50.667446982505325,3117667658
fw,-81.7704238891601,-57.3263244628906,38.24151053549452,38.86337834457084,3117684325
fw,-81.3121261596679,-57.5254783630371,24.56721948014672,27.28917984222965,3117700992
fw,-81.0929870605468,-57.4268569946289,7.627569303446774,17.12569411186463,3117717659
fw,-81.156135559082,-57.7331924438476,-12.18519159349285,9.172583175727716,3117734326
fw,-81.6653671264648,-58.8699874877929,-34.07072221406194,3.9187883666773025,3117750993
fw,-82.6673889160156,-59.3612480163574,-56.922851326981416,1.6722983877870001,3117767660
fw,-84.3477172851562,-58.9904098510742,-79.50240866927558,2.6388109344717177,3117784327
fw,-86.7844772338867,-58.7261161804199,-100.64139910551252,6.884740746053423,3117800994
fw,-89.0160293579101,-58.8237495422363,-119.41438730570707,14.22054080489104,3117817661
fw,-86.9915008544921,-59.4236717224121,-135.2161099389736,24.10889668652032,3117834328
fw,-84.0868606567382,-60.1280479431152,-147.72729433286636,35.68496046249397,3117850995
fw,-81.0317459106445,-60.9991836547851,-156.8119339424694,47.90129152545456,3117867662
fw,-78.1724548339843,-62.1731986999511,-162.42471957219445,59.74334133948804,3117884329
fw,-75.3623733520507,-63.5327949523925,-164.58904214743433,70.43640694105898,3117900996
fw,-72.3277206420898,-64.9446258544921,-163.44664990922124,79.57653123693869,3117917663
fw,-69.2352828979492,-66.3769912719726,-159.31987718656544,87.14915633465695,3117934330
fw,-66.5303344726562,-67.8862533569336,-152.70674650411098,93.43793781528773,3117950997
fw,-64.1704864501953,-69.5241470336914,-144.16660887099806,98.85998996974364,3117967664
fw,-62.02779006958,-71.2640762329101,-134.13015420752967,103.78136683178519,3117984331
fw,-60.0198860168457,-73.0463256835937,-122.73179302985967,108.36472858740753,3118000998
fw,-58.1051788330078,-74.7722549438476,-109.76884716791206,112.48728470423357,3118017665
fw,-56.391788482666,-76.5434036254882,-94.83556596042757,115.75007839646328,3118034332
fw,-54.9420509338378,-78.4838333129882,-77.5953790011056,117.58099354472326,3118050999
fw,-53.8919792175293,-80.5062866210937,-58.08714782480536,117.41016237540441,3118067666
fw,-53.1760025024414,-82.3955307006836,-36.9394756967127,114.8704177274072,3118084333
fw,-53.0444221496582,-83.8703002929687,-15.396853274040993,109.96033105766436,3118101000
fw,-53.5610618591308,-85.0655364990234,4.869506502744963,103.11586430868795,3118117667
fw,-54.537353515625,-85.8696136474609,22.109978423545297,95.16561796894366,3118134334
fw,-55.4373321533203,-86.0718078613281,34.88669309295333,87.17664427268546,3118151001
fw,-56.6128730773925,-85.6728820800781,42.38129091088273,80.2193396004727,3118167668
fw,-57.9426727294921,-84.9898834228515,44.54234131865538,75.09303110352496,3118184335
fw,-59.0842361450195,-84.2636947631836,42.05748719005072,72.06649284050062,3118201002
fw,-59.9685630798339,-83.4376831054687,36.179279177174976,70.6980900245415,3118217669
fw,-60.7048568725585,-82.5098800659179,28.45433342119234,69.7964445017607,3118234336
fw,-61.0478973388671,-81.5155181884765,20.417420461691556,67.5556623784468,3118251003
fw,-61.16157913208,-80.5081024169921,13.32132080125564,61.85507374462482,3118267670
fw,-61.1564750671386,-79.6238861083984,7.971515619245616,50.66917375016329,3118284337
fw,-61.4557495117187,-78.9636917114257,4.709810749857629,32.50478477028225,3118301004
fw,-62.4661102294921,-78.7411956787109,3.5387037024441814,6.77537934446905,3118317671
fw,-63.3593139648437,-79.0117263793945,4.315076569528907,-25.966078501562574,3118334338
fw,-63.5728416442871,-79.9276046752929,6.90619146741364,-63.990926650988044,3118351005
fw,-63.559959411621,-81.6578598022461,11.227290116667882,-104.57879212342745,3118367672
fw,-63.6064376831054,-84.0895156860351,17.159391646854818,-144.40568545353136,3118384339
fw,-63.9164657592773,-87.1042327880859,24.423568102206126,-180.07361423185603,3118401006
fw,-64.561767578125,-87.789192199707,32.511163224530286,-208.67523737231178,3118417673
fw,-65.6341171264648,-84.1611175537109,40.73021021519174,-228.26457749755957,3118434340
fw,-66.8081970214843,-80.236457824707,48.35950014396567,-238.12225259565034,3118451007
fw,-68.1397705078125,-76.3935165405273,54.84428510222909,-238.762713305548,3118467674
fw,-69.4523544311523,-72.6552734375,59.94673381711589,-231.7068377828036,3118484341
fw,-70.7406463623046,-68.9569625854492,63.784546342458526,-219.09873856257107,3118501008
fw,-72.0419692993164,-65.6559906005859,66.74058541221025,-203.26079376197433,3118517675
fw,-73.3542709350586,-62.7607994079589,69.28204482033428,-186.26697538731264,3118534342
fw,-74.7451858520507,-59.9292678833007,71.76421910619693,-169.596387549763,3118551009
fw,-76.2526779174804,-57.4934730529785,74.29582171754667,-153.9189859070634,3118567676
fw,-77.8271102905273,-55.8677062988281,76.7120740591957,-139.0583478994718,3118584343
fw,-79.4981079101562,-53.8128204345703,78.65523866528984,-124.15804710491439,3118601010
fw,-81.238525390625,-51.5097579956054,79.72113810133695,-108.03311684986912,3118617677
fw,-82.8421249389648,-49.3958435058593,79.61032432029782,-89.61707230530969,3118634344
fw,-84.3339004516601,-48.4421005249023,78.2295113333721,-68.35839741885175,3118651011
fw,-85.7275390625,-48.2609405517578,75.71666260032383,-44.435119605059825,3118667678
fw,-87.0899429321289,-48.297191619873,72.39585615496841,-18.74690882800665,3118684345
fw,-88.4158859252929,-48.4264755249023,68.68861323054277,7.257104804563467,3118701012
fw,-89.6118469238281,-48.8176574707031,65.01073922492435,31.821817889466583,3118717679
fw,-89.2294998168945,-49.7169075012207,61.675794443415484,53.14014742959203,3118734346
fw,-88.1536865234375,-50.7296409606933,58.819182650103485,69.60169696232526,3118751013
fw,-87.0114212036132,-52.4727668762207,56.35356357325789,80.03229907226492,3118767680
fw,-85.8616638183593,-54.3428001403808,53.96268105888291,83.8985604647776,3118784347
fw,-84.7980575561523,-55.7770690917968,51.134217020490794,81.42513672297702,3118801014
fw,-83.825942993164,-56.9984970092773,47.22573157363393,73.57282103188886,3118817681
fw,-82.9719543457031,-58.5676574707031,41.55425847289026,61.860913621039685,3118834348
fw,-82.303108215332,-59.1530876159668,33.49882832480828,48.069122295149256,3118851015
fw,-81.8794631958007,-59.3881683349609,22.603606079441214,33.89946912499157,3118867682
fw,-81.6900253295898,-59.2100639343261,8.666805055569785,20.70499653468373,3118884349
fw,-81.7023696899414,-59.3130416870117,-8.20202066789447,9.382699901579977,3118901016
fw,-82.1474990844726,-60.573616027832,-27.573928968218393,0.4617082657964513,3118917683
fw,-83.222915649414,-61.2546119689941,-48.751845773264336,-5.690571012746674,3118934350
fw,-84.9571762084961,-60.7506484985351,-70.87096530291497,-8.698451624972506,3118951017
fw,-87.1448059082031,-60.2928314208984,-93.01122670897466,-8.169193004678137,3118967684
fw,-87.959243774414,-60.0139694213867,-114.27160406584359,-3.848246078833683,3118984351
fw,-85.750015258789,-60.0996055603027,-133.77677449993357,4.1738084049842055,3119001018
fw,-82.9649429321289,-60.4141654968261,-150.63810148875632,15.338028463601061,3119017685
fw,-80.0828323364257,-60.90376663208,-163.93809601294254,28.65104634466572,3119034352
fw,-77.2654113769531,-61.7090301513671,-172.80894653710112,42.86634990711173,3119051019
fw,-74.3210830688476,-62.9267654418945,-176.61970650760117,56.745825351454144,3119067686
fw,-71.0931777954101,-64.254280090332,-175.20414204832866,69.31336195293395,3119084353
fw,-67.8995361328125,-65.6471862792968,-169.00449701328992,80.02186175571849,3119101020
fw,-65.2728500366211,-67.0904922485351,-159.01826432928536,88.78874865339726,3119117687
fw,-62.9318885803222,-68.6618041992187,-146.5222368470794,95.90116805931697,3119134354
fw,-60.8837928771972,-70.4432373046875,-132.66838109886606,101.83153873912629,3119151021
fw,-59.1419601440429,-72.203498840332,-118.12799724009534,107.02321810435075,3119167688
fw,-57.5364151000976,-73.8332901000976,-102.95283833627784,111.70641165708396,3119184355
fw,-55.9064598083496,-75.5274429321289,-86.72674173654045,115.79546537509322,3119201022
fw,-54.3511390686035,-77.4749603271484,-68.94664834704591,118.9019884439907,3119217689
fw,-53.2399444580078,-79.5630111694336,-49.462459995388976,120.4674205365218,3119234356
fw,-52.7295341491699,-81.5316085815429,-28.77566643778411,119.97599864735494,3119251023
fw,-53.0789985656738,-83.2114105224609,-8.065031648832116,117.17424294023174,3119267690
fw,-53.9031982421875,-84.5683364868164,11.061530523637833,112.2171019051352,3119284357
fw,-54.5798835754394,-85.5129318237304,26.970563850308622,105.68555435848684,3119301024
fw,-55.7842063903808,-85.7950439453125,38.40056750403417,98.45967120723563,3119317691
fw,-57.0373229980468,-85.4255218505859,44.731127157577355,91.46968679890247,3119334358
fw,-58.2161903381347,-84.7142105102539,46.075366455807014,85.381485128362,3119351025
fw,-59.338882446289,-83.8871154785156,43.20629377207639,80.30069761134057,3119367692
fw,-60.4263229370117,-83.0170288085937,37.35831258987821,75.59131849253515,3119384359
fw,-61.2068634033203,-82.0617065429687,29.9594724484075,69.88604719551338,3119401026
fw,-61.5514945983886,-81.022720336914,22.359170253348367,61.31407956648527,3119417693
fw,-61.6986579895019,-80.1470108032226,15.620225738646829,47.90561527977264,3119434360
fw,-62.0852851867675,-79.5835342407226,10.43189331823044,28.078833833059726,3119451027
fw,-63.0390815734863,-79.4509811401367,7.157946276052696,1.0935005339479527,3119467694
fw,-63.9504890441894,-79.7629241943359,5.969318958639043,-32.63467074346638,3119484361
fw,-64.0472030639648,-80.6996383666992,6.963923546023142,-71.43596248442108,3119501028
fw,-63.9222984313964,-82.4612121582031,10.190984098654146,-112.54363840428779,3119517695
fw,-64.0003967285156,-84.8579177856445,15.572352897634566,-152.49667748193366,3119534362
fw,-64.3188323974609,-87.3164978027343,22.792458532485092,-187.7209877363369,3119551029
fw,-64.9323501586914,-85.9603729248046,31.251702299474434,-215.16518936441756,3119567696
fw,-65.9351806640625,-82.2007217407226,40.13609662439229,-232.83588741654958,3119584363
fw,-67.0159759521484,-78.3691711425781,48.587536141711965,-240.09706692032057,3119601030
fw,-68.2645263671875,-74.7349853515625,55.908221746029206,-237.67277819093772,3119617697
fw,-69.5921325683593,-71.0079498291015,61.71918966583168,-227.38729529314347,3119634364
fw,-70.9391555786132,-67.2555694580078,66.01371948822197,-211.7389231424049,3119651031
fw,-72.2845840454101,-64.0425872802734,69.08894867845824,-193.40829983654723,3119667698
fw,-73.6604080200195,-61.3596000671386,71.38684010005245,-174.77587215231273,3119684365
fw,-75.1347732543945,-58.7143096923828,73.3095003735935,-157.50812987947876,3119701032
fw,-76.6714706420898,-56.7141456604003,75.07866524020508,-142.2791101583865,3119717699
fw,-78.2529678344726,-55.1751899719238,76.68441450431511,-128.70021750822895,3119734366
fw,-79.8943939208984,-53.2085723876953,77.9289288704737,-115.50956323260975,3119751033
fw,-81.5414657592773,-51.1385650634765,78.53696434916336,-101.00727221054606,3119767700
fw,-83.1149597167968,-49.1619911193847,78.28753497261712,-83.62882005353619,3119784367
fw,-84.6302032470703,-47.9207382202148,77.12176107079328,-62.47553531576424,3119801034
fw,-86.0859375,-47.7435836791992,75.19410909557492,-37.629050405041504,3119817701
fw,-87.4120712280273,-47.9434051513671,72.85179807781951,-10.172164059664947,3119834368
fw,-88.5414276123046,-48.2534523010253,70.5458794225039,18.039931366362616,3119851035
fw,-89.0591354370117,-48.9592552185058,68.69503040869301,44.744192853175655,3119867702
fw,-88.3350524902343,-50.2066192626953,67.53618561503109,67.6617720239499,3119884369
fw,-87.2431716918945,-51.4328689575195,67.00078000035991,84.85306489498436,3119901036
fw,-86.0868835449218,-53.3473358154296,66.65032177800823,95.00550914609894,3119917703
fw,-84.8828964233398,-55.3425216674804,65.692725610786,97.63175963412158,3119934370
fw,-83.6256332397461,-56.8887329101562,63.08416733042824,93.14972641904228,3119951037
fw,-82.4017791748046,-58.5661277770996,57.70175832443612,82.81764742525904,3119967704
fw,-81.3433303833007,-59.9303817749023,48.5535388754175,68.52047605030113,3119984371
fw,-80.6310806274414,-60.5444641113281,34.98120387046948,52.44447538254648,3120001038
fw,-80.3248825073242,-60.6879577636718,16.813478771072663,36.719315045993774,3120017705
fw,-80.3368606567382,-60.7045097351074,-5.557689512187257,23.129297196233704,3120034372
fw,-80.7853927612304,-61.7495765686035,-31.189022248554448,12.970888563578487,3120051039
fw,-81.814582824707,-62.7808456420898,-58.68419654227586,7.055635097474166,3120067706
fw,-83.4702453613281,-62.6897506713867,-86.36618905870888,5.772846200963641,3120084373
fw,-85.8002624511718,-62.4347801208496,-112.49592407794715,9.111687781662887,3120101040
fw,-88.3461380004882,-62.3807678222656,-135.49152933038633,16.61859942449583,3120117707
fw,-87.3162765502929,-62.6987113952636,-154.0970000504601,27.361717656788716,3120134374
fw,-84.3487548828125,-63.5073585510253,-167.4702230621351,39.99976576591152,3120151041
fw,-81.2149047851562,-64.5646591186523,-175.20190528721216,52.99340677095951,3120167708
fw,-78.2193603515625,-65.9147338867187,-177.3091922286588,64.90925937676975,3120184375
fw,-75.1975708007812,-67.4635848999023,-174.24097588027362,74.71206471324426,3120201042
fw,-71.9999389648437,-68.9065246582031,-166.88608661347558,81.94217654752865,3120217709
fw,-68.9807891845703,-70.2193298339843,-156.5254305783144,86.72307750473777,3120234376
fw,-66.520767211914,-71.5551681518554,-144.66036412319056,89.61040421085647,3120251043
fw,-64.2970657348632,-72.9661483764648,-132.70365297011566,91.34922340378274,3120267710
fw,-62.2975425720214,-74.4474487304687,-121.60982159986543,92.62702958061803,3120284377
fw,-60.4472846984863,-75.9442672729492,-111.5879655449157,93.89347966755277,3120301044
fw,-58.602123260498,-77.5014419555664,-102.03464532605375,95.28137753425149,3120317711
fw,-56.8489303588867,-79.0429306030273,-91.74689326233018,96.6281368354968,3120334378
fw,-55.373249053955,-80.5238800048828,-79.36443137157809,97.57450036381988,3120351045
fw,-54.0231704711914,-81.8843688964843,-63.89570973101469,97.70812750376354,3120367712
fw,-53.1134796142578,-83.2639083862304,-45.1434441721753,96.7179348023036,3120384379
fw,-53.0459594726562,-84.5640792846679,-23.87950255632146,94.52411508712642,3120401046
fw,-53.5821838378906,-85.4315948486328,-1.7159176787695962,91.34755324319322,3120417713
fw,-54.3694076538085,-85.7747421264648,19.26393428159655,87.68844103253714,3120434380
fw,-55.1498832702636,-85.6709823608398,36.9731504940941,84.20477463971491,3120451047
fw,-56.2821464538574,-85.108154296875,49.74719016088019,81.51196233137894,3120467714
fw,-57.8808479309082,-84.221923828125,56.641446974992945,79.94956384429119,3120484381
fw,-59.6190071105957,-83.2118148803711,57.56793053030019,79.3710741948709,3120501048
fw,-61.0072708129882,-82.1690292358398,53.26373331451367,79.0117169338007,3120517715
fw,-62.0998344421386,-81.155891418457,45.100583416952226,77.48303800564435,3120534382
fw,-62.8797950744628,-80.1559982299804,34.77894193620958,72.92788892200099,3120551049
fw,-63.093334197998,-79.1732177734375,23.99261348768307,63.33736136745103,3120567716
fw,-63.2581253051757,-78.3080825805664,14.166307434348397,46.9838528456377,3120584383
fw,-63.8922805786132,-77.6764144897461,6.336570968607295,22.877331118708046,3120601050
fw,-64.9499053955078,-77.5338745117187,1.1748440404076128,-8.873280616553822,3120617717
fw,-65.2691421508789,-78.1436309814453,-0.9217163668252701,-46.90027237335879,3120634384
fw,-65.042495727539,-79.6882247924804,0.22952350747696132,-88.67797283138788,3120651051
fw,-64.878791809082,-82.0948028564453,4.5735024079177125,-130.8746201064109,3120667718
fw,-65.0754013061523,-84.9859313964843,11.74280382869694,-169.87985315071515,3120684385
fw,-65.3836288452148,-88.3717727661132,21.015753011361078,-202.39187640951118,3120701052
fw,-66.0619812011718,-86.984619140625,31.37798050301239,-225.9417996271706,3120717719
fw,-67.060920715332,-83.0310897827148,41.69844632083367,-239.25419885455187,3120734386
fw,-68.2969970703125,-79.0120010375976,50.9691002886485,-242.38302476420745,3120751053
fw,-69.6524200439453,-75.1110610961914,58.52384413104127,-236.61137537093285,3120767720
fw,-70.912841796875,-71.3437576293945,64.156720460189,-224.14854423463947,3120784387
fw,-72.1453323364257,-67.873176574707,68.09739363463787,-207.68561007681518,3120801054
fw,-73.4776000976562,-64.9203720092773,70.85820462265515,-189.8835224703876,3120817721
fw,-74.9059524536132,-62.2913475036621,73.0152306813314,-172.87699848187398,3120834388
fw,-76.3822479248046,-59.5952453613281,75.0033105483352,-157.88647302019766,3120851055
fw,-77.8936767578125,-57.6963653564453,76.98889268928032,-145.027723925261,3120867722
fw,-79.4581680297851,-55.8066673278808,78.84998705008913,-133.382219713264,3120884389
fw,-81.1237640380859,-53.4666671752929,80.25689981832564,-121.33492686263762,3120901056
fw,-82.7922210693359,-51.1194534301757,80.81988614293046,-107.10401126924395,3120917723
fw,-84.4623565673828,-49.2925682067871,80.25332723078546,-89.30646097720255,3120934390
fw,-86.0253677368164,-48.3337326049804,78.50290367812217,-67.37813673077855,3120951057
fw,-87.3902359008789,-48.0327796936035,75.79430896745492,-41.729396272776256,3120967724
fw,-88.5165481567382,-48.2661705017089,72.58679173243088,-13.636393768711873,3120984391
fw,-88.8644332885742,-48.7473526000976,69.44398582648446,15.033124820421397,3121001058
fw,-88.1570816040039,-49.327651977539,66.85802016296182,42.13759863929613,3121017725
fw,-87.161376953125,-50.2771682739257,65.07466731686985,65.54851842934447,3121034392
fw,-86.0515670776367,-51.2479133605957,63.96659621060046,83.3990109366191,3121051059
fw,-84.915771484375,-53.3362045288085,62.99045770075639,94.31866251039764,3121067726
fw,-83.7920227050781,-55.6355934143066,61.24410822725204,97.65427750509717,3121084393
fw,-82.6913452148437,-57.4007415771484,57.61654200321089,93.6226213155103,3121101060
fw,-81.6208877563476,-59.01607131958,50.999779022167324,83.3166859116412,3121117727
fw,-80.6960830688476,-59.9987258911132,40.514464083967106,68.52744347682804,3121134394
fw,-80.1125869750976,-60.5291023254394,25.69585278866059,51.425478862007246,3121151061
fw,-79.9423828125,-60.6690597534179,6.598901035775981,34.21196912852958,3121167728
fw,-80.2112197875976,-61.3068695068359,-16.193218952372547,18.85047625228842,3121184395
fw,-81.012336730957,-62.4648742675781,-41.64586400778377,6.926059323263952,3121201062
fw,-82.5031509399414,-62.6136512756347,-68.40628600365255,-0.4101096843457803,3121217729
fw,-84.7068328857421,-62.0834159851074,-94.95895587966967,-2.4926250605247873,3121234396
fw,-87.3004913330078,-61.7297897338867,-119.77045959674278,0.7741875155722349,3121251063
fw,-88.2954406738281,-61.8512496948242,-141.40367420641408,8.851573376342419,3121267730
fw,-85.9135208129882,-62.339500427246,-158.60496476366416,20.6097617345678,3121284397
fw,-82.8152618408203,-63.1710472106933,-170.3928025089117,34.52056253974183,3121301064
fw,-79.7439498901367,-64.1637954711914,-176.17745727191584,48.955745336902226,3121317731
fw,-76.7147903442382,-65.3212585449218,-175.9066411887763,62.49518407867484,3121334398
fw,-73.4568328857421,-66.6181030273437,-170.17921976227976,74.15318511508507,3121351065
fw,-70.2418746948242,-67.9851684570312,-160.2363548452621,83.47364823069266,3121367732
fw,-67.5801544189453,-69.4690017700195,-147.7584495367708,90.49338659688621,3121384399
fw,-65.230842590332,-71.1000289916992,-134.4725369693524,95.60715727407232,3121401066
fw,-63.1887588500976,-72.7989196777343,-121.67719040880786,99.38164359550986,3121417733
fw,-61.3259544372558,-74.4788513183593,-109.86277670276483,102.36378420759738,3121434400
fw,-59.4889869689941,-76.1309661865234,-98.59591045978291,104.92122138319537,3121451067
fw,-57.6369361877441,-77.8245468139648,-86.7436981702684,107.14554667542673,3121467734
fw,-56.0713500976562,-79.5642852783203,-72.97625457850891,108.84066059358017,3121484401
fw,-54.6590385437011,-81.3352584838867,-56.36773345637642,109.60347019781777,3121501068
fw,-53.7592163085937,-82.9782028198242,-36.87124412022506,108.98151213435897,3121517735
fw,-53.5912170410156,-84.5555877685546,-15.491967452994897,106.6677597898434,3121534402
fw,-54.1723327636718,-86.0495834350586,5.896453228649775,102.6742029604073,3121551069
fw,-55.168285369873,-86.8615036010742,25.009368728228747,97.41859714705448,3121567736
fw,-56.1332130432128,-86.685302734375,39.70960548387208,91.6704043600314,3121584403
fw,-57.3821334838867,-85.9899520874023,48.49080556338374,86.33988749331122,3121601070
fw,-58.7655220031738,-85.1453857421875,50.77542004408696,82.1538327253547,3121617737
fw,-60.380859375,-84.2011642456054,46.99405021772314,79.31774312478281,3121634404
fw,-61.6267890930175,-83.1478042602539,38.4575210573581,77.28642547601774,3121651071
fw,-62.3105659484863,-82.0182266235351,27.054391436938836,74.73826358187449,3121667738
fw,-62.2942352294921,-80.8423690795898,14.838815444338747,69.7842482832644,3121684405
fw,-62.0635871887207,-79.6513366699218,3.620251316142726,60.367781137541456,3121701072
fw,-61.8714752197265,-78.7003479003906,-5.3140887196379785,44.7528580915296,3121717739
fw,-62.2420310974121,-78.2184448242187,-11.261082090030149,21.974817747951082,3121734406
fw,-63.1221847534179,-78.2847137451171,-13.968453225175129,-7.856445404073016,3121751073
fw,-63.3905372619628,-78.9525070190429,-13.42424525254858,-43.467268467482135,3121767740
fw,-63.0648384094238,-80.2967834472656,-9.711846248104285,-82.55954236691876,3121784407
fw,-62.7962951660156,-82.4194869995117,-3.0078028041781626,-122.14758787514363,3121801074
fw,-62.6184921264648,-85.2902297973632,6.310052029300703,-159.02587514572497,3121817741
fw,-62.703254699707,-88.7947235107421,17.55299733847675,-190.2743555058818,3121834408
fw,-63.4177589416503,-87.2750930786132,29.715360595202664,-213.69653621182778,3121851075
fw,-64.4938812255859,-83.230972290039,41.60836744982927,-228.09958793923613,3121867742
fw,-65.742446899414,-79.5492172241211,52.09116261529566,-233.36983615297248,3121884409
fw,-67.1038513183593,-76.0204849243164,60.312416791638526,-230.3573407944284,3121901076
fw,-68.515625,-72.3350067138671,65.87820511962941,-220.63108526511175,3121917743
fw,-69.9144287109375,-68.786018371582,68.89545759820355,-206.17716253102438,3121934410
fw,-71.3298416137695,-65.6839828491211,69.88623326232599,-189.08978641679772,3121951077
fw,-72.7547760009765,-63.0495643615722,69.61065195296688,-171.27956476106095,3121967744
fw,-74.1975326538086,-60.6768608093261,68.86112786161702,-154.22017466564992,3121984411
fw,-75.6943130493164,-58.0802764892578,68.28873170558725,-138.76634403878097,3122001078
fw,-77.1978225708007,-56.2356719970703,68.29847642002382,-125.0787599931932,3122017745
fw,-78.7184448242187,-54.3708038330078,69.02010986499143,-112.67552616962551,3122034412
fw,-80.1995239257812,-52.5864677429199,70.3403980079363,-100.60360364528485,3122051079
fw,-81.5833892822265,-51.1253318786621,71.97682502197627,-87.69700228056426,3122067746
fw,-83.0207901000976,-50.0335693359375,73.57477408285132,-72.86924298309796,3122084413
fw,-84.5723495483398,-49.4921607971191,74.81082995441376,-55.38610372805891,3122101080
fw,-86.1788482666015,-48.9524154663085,75.47966115442348,-35.08108030028815,3122117747
fw,-87.7653350830078,-48.6030197143554,75.53665955737908,-12.491180345341956,3122134414
fw,-89.2371597290039,-48.5908279418945,75.07438743011248,11.112886996267695,3122151081
fw,-89.5094146728515,-49.0717544555664,74.2333319118356,33.840157687184,3122167748
fw,-88.215347290039,-49.9599685668945,73.07791946286405,53.46531591313748,3122184415
fw,-86.9248352050781,-51.2119102478027,71.4890624002141,67.8685770049532,3122201082
fw,-85.5961608886718,-53.359748840332,69.12078764216928,75.53903120249191,3122217749
fw,-84.2929153442382,-55.5112991333007,65.44174620133983,75.98939355042172,3122234416
fw,-83.0643234252929,-56.5956192016601,59.847265426588926,69.92190368896956,3122251083
fw,-81.9709701538086,-57.5232391357421,51.80152422962816,59.058451020383025,3122267750
fw,-81.1056976318359,-58.0086250305175,40.962366892157895,45.682770238125705,3122284417
fw,-80.5519180297851,-58.1252937316894,27.252871658588816,32.06734716261657,3122301084
fw,-80.3324203491211,-58.023078918457,10.86625116950002,20.001911424254082,3122317751
fw,-80.4027023315429,-58.2296867370605,-7.786793449848067,10.583502255952926,3122334418
fw,-80.9435806274414,-59.5132637023925,-28.16459619528108,4.297900117978865,3122351085
fw,-82.116958618164,-60.4755821228027,-49.68507157686603,1.2774291077030462,3122367752
fw,-83.9174346923828,-60.2114181518554,-71.78773690811876,1.5405016704967525,3122384419
fw,-85.9952316284179,-59.8074531555175,-93.93618822410431,5.063462924434687,3122401086
fw,-86.9328002929687,-59.6442604064941,-115.54711554141471,11.678547563953098,3122417753
fw,-85.6563415527343,-60.0140571594238,-135.87306960739397,20.921875722734185,3122434420
fw,-83.48046875,-60.6318778991699,-153.91538830567092,31.97797943444245,3122451087
fw,-80.9128646850586,-61.4691619873046,-168.46088504321617,43.78892298251408,3122467754
fw,-78.1834182739257,-62.5806579589843,-178.2905652420057,55.29368364234083,3122484421
fw,-75.2064056396484,-63.9736099243164,-182.51507239044255,65.70007226722134,3122501088
fw,-72.045181274414,-65.4331665039062,-180.9037335950009,74.68155330694812,3122517755
fw,-68.8773880004882,-66.7976455688476,-174.0458620181796,82.42260357309031,3122534422
fw,-66.1389770507812,-68.2021942138671,-163.23612658464504,89.49224438935416,3122551089
fw,-63.814712524414,-69.7445297241211,-150.09240318790802,96.5863552790028,3122567756
fw,-61.7876815795898,-71.379653930664,-136.04274454599894,104.22260613729064,3122584423
fw,-59.9325408935546,-73.104133605957,-121.89171760068758,112.48363208642179,3122601090
fw,-58.1767120361328,-74.8626480102539,-107.65166157685438,120.88747886738524,3122617757
fw,-56.4759902954101,-76.8304595947265,-92.71071829114476,128.43042346388805,3122634424
fw,-54.99556350708,-78.9841156005859,-76.26372753194804,133.8032169307394,3122651091
fw,-53.8294410705566,-81.1743240356445,-57.82327533339945,135.73231463523877,3122667758
fw,-53.1733322143554,-83.1381378173828,-37.60195167800118,133.35408853559053,3122684425
fw,-53.19580078125,-84.5516586303711,-16.61943336968997,126.51020203036107,3122701092
fw,-53.8806343078613,-85.2769012451171,3.4916762311115583,115.86853706597134,3122717759
fw,-54.8794136047363,-85.240005493164,20.885268865190145,102.82297141536701,3122734426
fw,-55.7869110107421,-84.7274627685546,33.94524565916737,89.19003800404555,3122751093
fw,-56.9811363220214,-84.0710067749023,41.63065694253265,76.77952060325246,3122767760
fw,-58.3062324523925,-83.32861328125,43.65487789112957,66.95049582414663,3122784427
fw,-59.5959281921386,-82.4862442016601,40.50204533057525,60.26380772133439,3122801094
fw,-60.791690826416,-81.6264038085937,33.31280185410231,56.30995097053607,3122817761
fw,-61.6286010742187,-80.8250656127929,23.66956941438324,53.74442310348287,3122834428
fw,-61.9044647216796,-80.0551300048828,13.313152431902692,50.51936787762416,3122851095
fw,-61.6550674438476,-79.3246231079101,3.843308992098303,44.26905448501053,3122867762
fw,-61.3161125183105,-78.7162094116211,-3.520414625597176,32.78460617793499,3122884429
fw,-61.5091400146484,-78.3355178833007,-8.047381347187342,14.496312833665481,3122901096
fw,-62.4061698913574,-78.2826461791992,-9.456859653285964,-11.128154958120172,3122917763
fw,-62.5735702514648,-78.691535949707,-7.789714016096339,-43.357991187733624,3122934430
fw,-62.2792625427246,-79.8656997680664,-3.290352550138764,-80.21187878263909,3122951097
fw,-62.2346267700195,-81.9167251586914,3.6333931023184562,-118.7307777550967,3122967764
fw,-62.212547302246,-84.6087493896484,12.384809021130192,-155.47143256596573,3122984431
fw,-62.7034797668457,-87.4798202514648,22.161026130220325,-187.11866754426964,3123001098
fw,-63.912799835205,-86.7863006591796,32.016126696408335,-211.0741260673232,3123017765
fw,-65.2761688232421,-83.2383041381836,41.02120833123975,-225.88029643423036,3123034432
fw,-66.6144561767578,-79.442886352539,48.47119047990882,-231.38629555036476,3123051099
fw,-67.6934356689453,-75.8488082885742,54.05257384157264,-228.6396137163033,3123067766
fw,-68.7895126342773,-72.2001953125,57.89895709081718,-219.56156197928968,3123084433
fw,-69.9211654663086,-68.6215744018554,60.508919062664624,-206.50141087954805,3123101100
fw,-71.128059387207,-65.5613784790039,62.55620338773936,-191.7608127279211,3123117767
fw,-72.4446182250976,-62.8298187255859,64.66047580679019,-177.1612490495007,3123134434
fw,-73.7848739624023,-60.0755233764648,67.19607160855007,-163.71851122305594,3123151101
fw,-75.2428359985351,-58.2201652526855,70.19746819675707,-151.48918167140985,3123167768
fw,-76.8236618041992,-56.1448745727539,73.38404379860472,-139.64381306638492,3123184435
fw,-78.4569625854492,-53.7778930664062,76.28617992554949,-126.77979332243635,3123201102
fw,-80.0607147216796,-51.4611129760742,78.42297500435753,-111.41071349505961,3123217769
fw,-81.6528701782226,-49.4235153198242,79.46944100996024,-92.48742917172963,3123234436
fw,-83.2347946166992,-48.4319343566894,79.3610982931719,-69.77526156530107,3123251103
fw,-84.7981338500976,-48.3358192443847,78.30908824837269,-43.96955651907638,3123267770
fw,-86.3325424194336,-48.4069137573242,76.72736656772652,-16.550198963701078,3123284437
fw,-87.7860107421875,-48.5355148315429,75.09674474507239,10.524530664931484,3123301104
fw,-89.2082061767578,-48.9025650024414,73.8053966557722,35.16388276864794,3123317771
fw,-89.4995422363281,-49.9311904907226,73.01068125107787,55.45711371535542,3123334438
fw,-88.1298904418945,-51.091136932373,72.56102253918125,69.93302473689576,3123351105
fw,-86.7406387329101,-52.831916809082,71.99890665549334,77.76194067201963,3123367772
fw,-85.3233337402343,-54.5603065490722,70.641150151522,78.87860572009714,3123384439
fw,-83.9087677001953,-55.5566787719726,67.70915946345504,73.99145421142141,3123401106
fw,-82.6061019897461,-56.769187927246,62.469249463222305,64.45850506838579,3123417773
fw,-81.5077972412109,-58.0245971679687,54.34647644635029,52.04616307012741,3123434440
fw,-80.6996994018554,-58.6101341247558,42.992859109367366,38.620940695506256,3123451107
fw,-80.2278060913086,-58.6523513793945,28.313230551368367,25.8447846664189,3123467774
fw,-79.9954376220703,-58.3711509704589,10.467144142815762,14.955635829241773,3123484441
fw,-80.0241546630859,-58.8934097290039,-10.135572406519344,6.703039157277772,3123501108
fw,-80.4804306030273,-60.05419921875,-32.84368917208797,1.448396676329729,3123517775
fw,-81.4803924560546,-60.3740043640136,-56.79303849353597,-0.6534529501064368,3123534442
fw,-83.2713012695312,-60.0823669433593,-80.97063664387997,0.4740132675180228,3123551109
fw,-85.8336029052734,-59.8155136108398,-104.30944467604331,4.81884737796458,3123567776
fw,-87.961067199707,-59.7991867065429,-125.78215612804438,12.16328162931212,3123584443
fw,-86.7581024169921,-60.2424278259277,-144.4593249817864,21.97416815905652,3123601110
fw,-84.0836486816406,-60.911506652832,-159.52968617070124,33.40683521922719,3123617777
fw,-81.1078796386718,-61.7675170898437,-170.322309236198,45.45069734637062,3123634444
fw,-78.2289505004882,-62.9592857360839,-176.37672923174463,57.16385199877956,3123651111
fw,-75.2006378173828,-64.3925018310546,-177.56335397997807,67.90126401816289,3123667778
fw,-72.0020523071289,-65.7988967895507,-174.19432311473747,77.44425326195093,3123684445
fw,-68.8904953002929,-67.1914291381836,-167.03372897416398,85.97797393970794,3123701112
fw,-66.2853317260742,-68.6698226928711,-157.1448354715418,93.92234018853482,3123717779
fw,-63.9601783752441,-70.2814254760742,-145.59332176459262,101.67776354346974,3123734446
fw,-61.7978858947753,-72.0406799316406,-133.11618693544395,109.37744640463572,3123751113
fw,-59.8382568359375,-73.8047866821289,-119.90768528533354,116.73392396292591,3123767780
fw,-57.9277305603027,-75.6923446655273,-105.6342918621158,123.0366882605149,3123784447
fw,-56.1944999694824,-77.7570648193359,-89.68898442125513,127.31254665852937,3123801114
fw,-54.8140907287597,-80.0930557250976,-71.58609840647308,128.6094536910594,3123817781
fw,-53.8697242736816,-82.3764572143554,-51.3365201799933,126.31767938194461,3123834448
fw,-53.4424705505371,-84.1767120361328,-29.65429244452145,120.41795532700792,3123851115
fw,-53.5689392089843,-85.4551162719726,-7.917105433337199,111.56422160350986,3123867782
fw,-54.3070106506347,-86.2809066772461,12.102219318122263,100.96821977821736,3123884449
fw,-55.3171768188476,-86.5839614868164,28.637077071355105,90.1255654683783,3123901116
fw,-56.6088066101074,-86.3264617919921,40.327954209357735,80.47076750313418,3123917783
fw,-58.055004119873,-85.6348037719726,46.50244381761817,73.0540223942041,3123934450
fw,-59.1264495849609,-84.6895751953125,47.26651218446975,68.30482540848776,3123951117
fw,-60.0337486267089,-83.6559448242187,43.40843829194206,65.91031598770957,3123967784
fw,-61.218147277832,-82.7095413208007,36.17532888269273,64.81127260146962,3123984451
fw,-61.9993896484375,-81.8539199829101,27.006270757619152,63.313034915509164,3124001118
fw,-62.0153579711914,-80.980712890625,17.294316210410667,59.31188256790047,3124017785
fw,-61.8941383361816,-80.1216812133789,8.224890191639854,50.630589984763844,3124034452
fw,-61.8997230529785,-79.4794082641601,0.7168193569485108,35.43073333694294,3124051119
fw,-62.569580078125,-79.1298217773437,-4.539043269207327,12.634073574923665,3124067786
fw,-63.1363372802734,-79.1823501586914,-6.997995493718086,-17.739130987013922,3124084453
fw,-62.8723983764648,-79.8658142089843,-6.224627151356762,-54.40744763017729,3124101120
fw,-62.4424285888671,-81.3594207763671,-1.9610664245764575,-94.9073052645504,3124117787
fw,-62.3793449401855,-83.6425094604492,5.723203533417326,-135.92897885788108,3124134454
fw,-62.5246238708496,-86.7602767944336,16.296886550915058,-173.85770782260653,3124151121
fw,-63.2002601623535,-88.5622329711914,28.74890819369981,-205.40276304177291,3124167788
fw,-64.3642501831054,-84.7977981567382,41.72743150238309,-228.15981279747513,3124184455
fw,-65.6051254272461,-80.828254699707,53.80106135939296,-240.9661019216803,3124201122
fw,-66.9662704467773,-76.9498443603515,63.7609102656171,-243.97614411196577,3124217789
fw,-68.4633712768554,-73.1334152221679,70.87491353680585,-238.4763865331927,3124234456
fw,-70.0476455688476,-69.1546478271484,75.02523831500936,-226.5218700709041,3124251123
fw,-71.639175415039,-65.7155532836914,76.69178018082228,-210.49054563929323,3124267790
fw,-73.2284927368164,-62.6729621887207,76.78381634438043,-192.63036745958271,3124284457
fw,-74.7933883666992,-59.9283180236816,76.36358586407626,-174.65834644274415,3124301124
fw,-76.2950363159179,-57.3378868103027,76.33943982775287,-157.47423675212968,3124317791
fw,-77.7876510620117,-55.7228622436523,77.21916379842386,-141.05778162595007,3124334458
fw,-79.3767700195312,-53.6795578002929,78.99838156814427,-124.60239317645497,3124351125
fw,-81.0969314575195,-51.5775642395019,81.21629137066134,-106.88404662143755,3124367792
fw,-82.9516830444336,-49.5348396301269,83.15362492513331,-86.7768920346078,3124384459
fw,-84.7760314941406,-48.0497741699218,84.09712221885752,-63.74723887511263,3124401126
fw,-86.4494552612304,-47.9135055541992,83.57368913767338,-38.1472083673425,3124417793
fw,-87.951301574707,-48.3137588500976,81.47621665036779,-11.214294239029721,3124434460
fw,-89.3172912597656,-48.7828407287597,78.05137254330259,15.186038887565761,3124451127
fw,-89.2317886352539,-49.3271026611328,73.77209830764782,38.94824346507904,3124467794
fw,-88.0008087158203,-50.4631729125976,69.15074165987372,58.116398146467496,3124484461
fw,-86.8357238769531,-51.4871559143066,64.55509713819185,71.20142585667537,3124501128
fw,-85.6758270263671,-53.2683715820312,60.07631087948586,77.40115906460902,3124517795
fw,-84.5865173339843,-54.8836936950683,55.47609681926032,76.71398894016154,3124534462
fw,-83.5752029418945,-56.0676155090332,50.21901192571682,69.93231504502319,3124551129
fw,-82.6575698852539,-57.275405883789,43.57762045468521,58.50635627340491,3124567796
fw,-81.8812255859375,-58.1218719482421,34.785924785576746,44.2949375574505,3124584463
fw,-81.4151077270507,-58.3190383911132,23.2098502190857,29.257170836676057,3124601130
fw,-81.2420272827148,-58.152545928955,8.502353528887115,15.167516910467942,3124617797
fw,-81.3340835571289,-58.035415649414,-9.286946223455343,3.436995723999216,3124634464
fw,-81.7792053222656,-59.0791969299316,-29.673704882477164,-4.9215003516761895,3124651131
fw,-82.7394790649414,-59.8642311096191,-51.79007879572879,-9.228291080635751,3124667798
fw,-84.3954544067382,-59.2826957702636,-74.52293972608719,-9.081098276749648,3124684465
fw,-86.632453918457,-58.6763648986816,-96.70392966013279,-4.394735016381,3124701132
fw,-88.4517440795898,-58.5282859802246,-117.28633326072752,4.481922453005526,3124717799
fw,-86.4737472534179,-58.8370246887207,-135.4433853684314,16.683180435311765,3124734466
fw,-83.6474456787109,-59.5361022949218,-150.5648217135677,30.886858971230726,3124751133
fw,-80.6017074584961,-60.4419822692871,-162.19202110684395,45.54057937405164,3124767800
fw,-77.635871887207,-61.6424255371093,-169.9704647233705,59.18471472653979,3124784467
fw,-74.7038116455078,-63.0746383666992,-173.6782624280362,70.7603677005395,3124801134
fw,-71.5772933959961,-64.4565963745117,-173.32231613022324,79.80328553017512,3124817801
fw,-68.4030990600586,-65.8564834594726,-169.22617936966714,86.47125902276913,3124834468
fw,-65.6765747070312,-67.3181533813476,-162.01464100530401,91.40977710485909,3124851135
fw,-63.3213272094726,-68.9301605224609,-152.45031545768657,95.50734335124683,3124867802
fw,-61.1291618347168,-70.6319808959961,-141.17254607526877,99.61348847727847,3124884469
fw,-59.0339813232421,-72.3114700317382,-128.46656131786654,104.28924265639901,3124901136
fw,-57.1009445190429,-73.9648132324218,-114.1946456800054,109.64382864102471,3124917803
fw,-55.3540916442871,-75.739143371582,-97.94595641312036,115.29267627328102,3124934470
fw,-53.8201446533203,-77.7353591918945,-79.35401256804487,120.44953920387685,3124951137
fw,-52.7721824645996,-79.8382720947265,-58.44987086721065,124.13465010908678,3124967804
fw,-52.1978569030761,-81.8906860351562,-35.9007673707445,125.44616266518744,3124984471
fw,-52.1827812194824,-83.7383804321289,-13.030931823813624,123.81914557188969,3125001138
fw,-52.8253936767578,-85.2220916748046,8.391563131570653,119.1980753612293,3125017805
fw,-53.8365592956543,-86.1542739868164,26.529322437367817,112.07365934920153,3125034472
fw,-54.9295349121093,-86.1829452514648,39.885450638333346,103.3702239311942,3125051139
fw,-56.4321708679199,-85.4592514038086,47.62331964896494,94.20454653113084,3125067806
fw,-57.7769203186035,-84.5501861572265,49.71603554733574,85.5677051543025,3125084473
fw,-59.1442604064941,-83.6711120605468,46.90520359838535,78.00718789718107,3125101140
fw,-60.2345237731933,-82.7721405029296,40.498469295494054,71.39887416863748,3125117807
fw,-61.1541404724121,-81.8312454223632,32.06836295191488,64.88440635871063,3125134474
fw,-61.6042785644531,-80.8541107177734,23.13363637596716,57.005357006131014,3125151141
fw,-61.6913681030273,-79.9743041992187,14.908479248142367,46.00704394875381,3125167808
fw,-61.7392082214355,-79.4164352416992,8.188473417698065,30.238092208179715,3125184475
fw,-62.3516502380371,-79.2352523803711,3.397046878347417,8.554731181275887,3125201142
fw,-63.3638153076171,-79.4196166992187,0.7471434731281216,-19.35109885808581,3125217809
fw,-63.654426574707,-80.1001434326171,0.41139624840344463,-52.76022778771665,3125234476
fw,-63.3716239929199,-81.5761032104492,2.588014367831638,-89.9130535218305,3125251143
fw,-63.1944351196289,-83.7150344848632,7.418013567075339,-128.1958908054605,3125267810
fw,-63.27583694458,-86.5070495605468,14.810109695658662,-164.5151850797656,3125284477
fw,-63.59321975708,-89.0874252319336,24.29055622666836,-195.80171828305427,3125301144
fw,-64.4502792358398,-85.4799652099609,34.98058511832806,-219.54137862312976,3125317811
fw,-65.5742797851562,-81.3409118652343,45.73595030497704,-234.20653800636828,3125334478
fw,-66.8805313110351,-77.3591842651367,55.40713077054377,-239.4814531182616,3125351145
fw,-68.3259735107421,-73.5901565551757,63.12829145244016,-236.234719143891,3125367812
fw,-69.8279800415039,-69.7623214721679,68.53104026452976,-226.26276354845788,3125384479
fw,-71.287971496582,-66.2199325561523,71.80501920742368,-211.87579566994089,3125401146
fw,-72.7474594116211,-63.2148208618164,73.5820798315426,-195.41200222105886,3125417813
fw,-74.2285385131836,-60.4675216674804,74.68527443320434,-178.76533611224505,3125434480
fw,-75.7063751220703,-57.6789894104003,75.83302209850204,-163.01382904532176,3125451147
fw,-77.2243576049804,-55.8972663879394,77.40272489762039,-148.23470257189823,3125467814
fw,-78.8636093139648,-53.9736747741699,79.33262614484627,-133.57401678775602,3125484481
fw,-80.5957565307617,-51.8925743103027,81.18761210654904,-117.5884973604657,3125501148
fw,-82.3943939208984,-49.6979064941406,82.35470250252446,-98.79190790881418,3125517815
fw,-84.2001571655273,-47.7831535339355,82.28910948861227,-76.2438676691414,3125534482
fw,-85.7971420288086,-47.1523284912109,80.7183350146548,-49.97590345619773,3125551149
fw,-87.2180709838867,-47.3988342285156,77.73434393245974,-21.10611410296874,3125567816
fw,-88.5753631591796,-47.9782066345214,73.7514436393568,8.371891959105769,3125584483
fw,-89.8916473388671,-48.585033416748,69.35754948440024,36.01369076477592,3125601150
fw,-89.0827255249023,-49.6813621520996,65.11785245108334,59.40592249801097,3125617817
fw,-88.0143661499023,-50.6945648193359,61.39498541454718,76.58703068294135,3125634484
fw,-86.8477478027343,-52.5864143371582,58.233957199795434,86.35111120438899,3125651151
fw,-85.6867980957031,-54.4754371643066,55.33302876981704,88.41490726690273,3125667818
fw,-84.5973205566406,-56.0372352600097,52.093700070303825,83.43307950494956,3125684485
fw,-83.5810089111328,-57.3367767333984,47.7245797866518,72.85182783807734,3125701152
fw,-82.6862716674804,-58.569351196289,41.370598300542625,58.619946384288845,3125717819
fw,-82.0842819213867,-58.9788360595703,32.24711035353721,42.82238406368372,3125734486
fw,-81.7888870239257,-59.0650329589843,19.76892937547904,27.337837830440563,3125751153
fw,-81.6922760009765,-58.9884223937988,3.668709387902912,13.624021874318634,3125767820
fw,-81.8569259643554,-59.8461799621582,-15.907438206910193,2.6855375863197732,3125784487
fw,-82.451919555664,-60.9277420043945,-38.35248648823123,-4.814069746704671,3125801154
fw,-83.7145385742187,-60.7409133911132,-62.628995573313716,-8.419963237315837,3125817821
fw,-85.6706161499023,-59.9940071105957,-87.38778888891545,-7.85918895156554,3125834488
fw,-88.1127014160156,-59.6125183105468,-111.14654275849023,-3.1454955980746986,3125851155
fw,-87.3343505859375,-59.6466979980468,-132.4711964433403,5.278841553692036,3125867822
fw,-84.559829711914,-60.0578689575195,-150.11248455840268,16.497202800830507,3125884489
fw,-81.5668563842773,-60.7459869384765,-163.09518202318222,29.23782226020529,3125901156
fw,-78.4883346557617,-61.5793952941894,-170.79904984793382,42.127597709539145,3125917823
fw,-75.5076675415039,-62.7003669738769,-173.06421538052368,53.9862387059792,3125934490
fw,-72.3557968139648,-63.9446678161621,-170.2972766725608,64.0590452717818,3125951157
fw,-69.1946411132812,-65.1611328125,-163.49374414914277,72.11938404547638,3125967824
fw,-66.5872039794921,-66.3269805908203,-154.08477648087992,78.4222859452501,3125984491
fw,-64.4110870361328,-67.6484451293945,-143.58626400489115,83.53967104946302,3126001158
fw,-62.3495941162109,-69.1861114501953,-133.14537226483657,88.13849922432533,3126017825
fw,-60.3320808410644,-70.7509613037109,-123.16907512463798,92.76627283517708,3126034492
fw,-58.320068359375,-72.3046035766601,-113.21429950081868,97.6910055406419,3126051159
fw,-56.3647918701171,-73.85595703125,-102.2145381392175,102.82253015112947,3126067826
fw,-54.6340522766113,-75.5955734252929,-88.97007069287689,107.7281339185525,3126084493
fw,-53.1893005371093,-77.4453048706054,-72.71321169178333,111.74225446764615,3126101160
fw,-52.2662277221679,-79.3923416137695,-53.5273012806893,114.14965001947651,3126117827
fw,-52.0364875793457,-81.2466049194336,-32.45916581846862,114.39805309837963,3126134494
fw,-52.4981956481933,-82.872802734375,-11.29140810449901,112.28247337935257,3126151161
fw,-53.3107604980468,-84.3328247070312,7.9232056600099705,108.04706239937876,3126167828
fw,-54.11372756958,-85.4492568969726,23.381097616563743,102.36875698698691,3126184495
fw,-55.1027755737304,-85.9039459228515,33.925127475166455,96.2121477265635,3126201162
fw,-56.2640991210937,-85.6900253295898,39.22487257051368,90.5741669513886,3126217829
fw,-57.3857192993164,-85.0716094970703,39.740535791856416,86.1703621844077,3126234496
fw,-58.3527526855468,-84.2602157592773,36.530745392828344,83.1445535641292,3126251163
fw,-59.3969993591308,-83.2978286743164,30.97934437888086,80.89366926966174,3126267830
fw,-60.1643371582031,-82.1655654907226,24.507018445974804,78.07591018666342,3126284497
fw,-60.5284194946289,-80.9710464477539,18.321664094900743,72.81792259189616,3126301164
fw,-60.6819343566894,-79.9199752807617,13.254291876723542,63.07870947923235,3126317831
fw,-60.8394126892089,-79.1547470092773,9.717676379906324,47.090044714460596,3126334498
fw,-61.6327514648437,-78.7056884765625,7.7971536553647836,23.784081694357692,3126351165
fw,-62.7651634216308,-78.6327514648437,7.431325848687364,-6.872301653691272,3126367832
fw,-63.2405166625976,-79.0797500610351,8.589163857058871,-43.70518339798485,3126384499
fw,-63.2838134765625,-80.3130264282226,11.343629020062117,-84.3785437983,3126401166
fw,-63.4050216674804,-82.3479843139648,15.801110472271146,-125.68331157461793,3126417833
fw,-63.5789794921875,-85.1505889892578,21.93631514741332,-164.0445411025979,3126434500
fw,-63.883861541748,-87.9615478515625,29.44148916335495,-196.1527856909103,3126451167
fw,-64.7479095458984,-85.9898071289062,37.691373766084624,-219.569807612126,3126467834
fw,-65.9401397705078,-82.0838928222656,45.86184904252591,-233.14686705171871,3126484501
fw,-67.296157836914,-78.2424163818359,53.159126604540525,-237.14369275202674,3126501168
fw,-68.6363983154296,-74.6305389404296,59.059404605414535,-233.03304982128935,3126517835
fw,-69.9875869750976,-70.9803161621093,63.45293620482462,-223.07237997941007,3126534502
fw,-71.3368606567382,-67.4011306762695,66.63144259164787,-209.77213374613495,3126551169
fw,-72.6969909667968,-64.2987899780273,69.12865376597287,-195.380377671796,3126567836
fw,-74.1259307861328,-61.49409866333,71.4853501104099,-181.46712439697367,3126584503
fw,-75.6240158081054,-58.685806274414,74.03547193740951,-168.66522219720756,3126601170
fw,-77.2004776000976,-56.6159324645996,76.79173189963387,-156.61306586804506,3126617837
fw,-78.8880004882812,-54.5361824035644,79.46173011493153,-144.1285956839607,3126634504
fw,-80.6371078491211,-52.0462417602539,81.5733153334687,-129.6036354155161,3126651171
fw,-82.3770294189453,-49.7661781311035,82.65214037467852,-111.53854954637936,3126667838
fw,-84.0189666748046,-47.8936614990234,82.38516260014809,-89.06651193569027,3126684505
fw,-85.5553894042968,-47.1368217468261,80.71935497129871,-62.29744056247693,3126701172
fw,-87.0137786865234,-47.1673545837402,77.87418841271167,-32.37673731676003,3126717839
fw,-88.3651809692382,-47.4831733703613,74.27527107591507,-1.2719834773196674,3126734506
fw,-89.3230514526367,-48.0392227172851,70.43484330686033,28.60418105963683,3126751173
fw,-88.7648849487304,-49.0381317138671,66.81121917598345,54.80731646519032,3126767840
fw,-87.6953125,-50.0448608398437,63.67830247549471,75.22746884497298,3126784507
fw,-86.5740661621093,-51.4374923706054,61.032177073753985,88.38064386887757,3126801174
fw,-85.4370498657226,-53.8358993530273,58.55502779058672,93.61893771903432,3126817841
fw,-84.3067779541015,-55.8333740234375,55.64605460725371,91.23482395344827,3126834508
fw,-83.1986846923828,-57.2376098632812,51.515027765007225,82.41315491762505,3126851175
fw,-82.1776504516601,-58.4099693298339,45.31992914145666,69.00441605044408,3126867842
fw,-81.3701782226562,-59.0106163024902,36.32033311428017,53.161273488595484,3126884509
fw,-80.887580871582,-59.4258422851562,24.016472854048402,36.95086807637476,3126901176
fw,-80.7306213378906,-59.4951438903808,8.250473808941347,22.073304472584024,3126917843
fw,-80.8666229248046,-59.8869361877441,-10.743703777267937,9.765435686493122,3126934510
fw,-81.4271240234375,-61.2070198059082,-32.34732844288227,0.8715213360144387,3126951177
fw,-82.5578231811523,-61.5961952209472,-55.62106840530835,-4.030145470039042,3126967844
fw,-84.4377517700195,-60.8583793640136,-79.41622776514347,-4.578427826572224,3126984511
fw,-86.9180297851562,-60.333267211914,-102.50605416949833,-0.7137065145000226,3127001178
fw,-88.5442428588867,-60.3295402526855,-123.69856465830472,7.175679687846417,3127017845
fw,-86.4905548095703,-60.7514190673828,-141.90505435489328,18.183274867280993,3127034512
fw,-83.6292953491211,-61.4793319702148,-156.17675164252412,30.98448376945676,3127051179
fw,-80.5945892333984,-62.3650703430175,-165.7565854190425,44.09523830606896,3127067846
fw,-77.646499633789,-63.4700469970703,-170.18637646589548,56.19711946253883,3127084513
fw,-74.6329727172851,-64.7438583374023,-169.45616954342066,66.41812347075127,3127101180
fw,-71.4053878784179,-66.0661239624023,-164.11788659398877,74.48674930393881,3127117847
fw,-68.4371337890625,-67.4124755859375,-155.2596550722606,80.72415794279645,3127134514
fw,-65.9522628784179,-68.7767105102539,-144.27953699223232,85.88618171841118,3127151181
fw,-63.7393112182617,-70.2982788085937,-132.49708247895154,90.9033858777377,3127167848
fw,-61.6696281433105,-71.9113845825195,-120.74456148571362,96.58636420877468,3127184515
fw,-59.6425590515136,-73.5329360961914,-109.11950706855801,103.36467200572824,3127201182
fw,-57.6839523315429,-75.181411743164,-97.02455579418802,111.11805843812365,3127217849
fw,-55.9826164245605,-76.9943542480468,-83.49719984315146,119.14382215664006,3127234516
fw,-54.6148300170898,-78.8893280029296,-67.70571260209314,126.2821283015434,3127251183
fw,-53.60986328125,-80.916519165039,-49.417883481617565,131.18697286554578,3127267850
fw,-53.1255836486816,-82.9279861450195,-29.26210777487119,132.68695484490013,3127284517
fw,-53.3907470703125,-84.5958251953125,-8.684005179184151,130.1407510683344,3127301184
fw,-54.1803359985351,-85.5107040405273,10.380892470331442,123.67520807348734,3127317851
fw,-55.1194686889648,-85.3905334472656,25.99494023635473,114.21278636553384,3127334518
fw,-56.4975624084472,-84.6766738891601,36.69746773268218,103.2514350181389,3127351185
fw,-57.6587219238281,-83.8181610107421,41.831390324137274,92.4398082342805,3127367852
fw,-58.8967819213867,-82.9327621459961,41.6459359153688,83.06618129186194,3127384519
fw,-60.1894378662109,-82.0146865844726,37.18049918317726,75.61872401135282,3127401186
fw,-61.1826286315918,-81.034439086914,29.98543881395883,69.55853080577043,3127417853
fw,-61.6645050048828,-80.0031433105468,21.760572357788778,63.38044382747934,3127434520
fw,-61.8707771301269,-78.9720764160156,14.006534915676212,54.94812105519459,3127451187
fw,-61.8777923583984,-78.1054153442382,7.787816691475294,42.013064313141314,3127467854
fw,-62.3888893127441,-77.5841751098632,3.6764437041593614,22.785543035467732,3127484521
fw,-63.5571937561035,-77.5588226318359,1.8700715036740898,-3.576807106799473,3127501188
fw,-64.1351089477539,-77.9754486083984,2.3894482760098072,-36.66961251599373,3127517855
fw,-63.9975395202636,-79.0249099731445,5.221118904428235,-74.79610682218699,3127534522
fw,-63.8366088867187,-80.9153289794921,10.321672968205501,-115.19056127834999,3127551189
fw,-63.9169311523437,-83.6447372436523,17.507536548944348,-154.47164015699227,3127567856
fw,-64.2343139648437,-86.9561233520507,26.3355813454972,-189.2306563404448,3127584523
fw,-65.0194778442382,-87.8670501708984,36.07847972480587,-216.61847560800874,3127601190
fw,-66.1488494873046,-84.2129745483398,45.83185499877832,-234.79115601093784,3127617857
fw,-67.4548263549804,-80.5397186279296,54.71502458349879,-243.12035555663712,3127634524
fw,-68.9096984863281,-76.7560958862304,62.08465786335161,-242.15476687603527,3127651191
fw,-70.4328308105468,-72.9650497436523,67.67872426460369,-233.39220808090138,3127667858
fw,-71.9709701538086,-69.0876083374023,71.63712841430683,-218.94898381824288,3127684525
fw,-73.4913253784179,-65.548110961914,74.39257370962243,-201.19045927529496,3127701192
fw,-75.0102310180664,-62.5343856811523,76.47458012919414,-182.35158270451402,3127717859
fw,-76.538101196289,-60.0187797546386,78.30224847972659,-164.16949373141955,3127734526
fw,-78.1387481689453,-57.4646759033203,80.04335010026394,-147.57870424038873,3127751193
fw,-79.8843688964843,-55.8565406799316,81.58782483296127,-132.55248199216285,3127767860
fw,-81.7314376831054,-53.9680061340332,82.63559147931959,-118.1742042546541,3127784527
fw,-83.5683441162109,-51.8425407409668,82.85264262882575,-102.96947293308503,3127801194
fw,-85.2562026977539,-49.9534301757812,82.02614335707008,-85.43369390350641,3127817861
fw,-86.828125,-48.592601776123,80.15804227992022,-64.59642020547213,3127834528
fw,-88.2992324829101,-48.0159454345703,77.46953800632471,-40.43368711490453,3127851195
fw,-89.6400909423828,-47.9168624877929,74.32585533662504,-13.997033678133112,3127867862
fw,-88.9352264404296,-48.2563858032226,71.11495952178956,12.76443399054036,3127884529
fw,-87.7161254882812,-49.0333137512207,68.12026689498926,37.416604042936854,3127901196
fw,-86.4999923706054,-50.2027931213378,65.42111175753027,57.565190063067334,3127917863
fw,-85.232437133789,-51.4542007446289,62.84202413849202,71.36206348688773,3127934530
fw,-83.969123840332,-53.684585571289,59.95696945400725,77.87725128371447,3127951197
fw,-82.8208084106445,-55.1025924682617,56.14198359787654,77.25123397496297,3127967864
fw,-81.8416671752929,-55.7334289550781,50.66358137613978,70.59470323835208,3127984531
fw,-80.9661483764648,-57.0129241943359,42.7908271667683,59.67780824203625,3128001198
fw,-80.2381973266601,-57.5901489257812,31.919924040408368,46.51945303243208,3128017865
fw,-79.8085479736328,-58.0304298400878,17.696077052812807,33.00997472997567,3128034532
fw,-79.6582641601562,-58.0979843139648,0.11005621521611872,20.669956919108966,3128051199
fw,-79.8922882080078,-58.384162902832,-20.45667016545693,10.586525092042981,3128067866
fw,-80.6802978515625,-59.5322723388671,-43.258464859292324,3.4949771125565907,3128084533
fw,-82.0890731811523,-59.9680519104003,-67.28627568895737,-0.09317386961836899,3128101200
fw,-84.2132110595703,-59.4623832702636,-91.41753886660577,0.1664884367506972,3128117867
fw,-86.7951507568359,-59.113956451416,-114.56318503537527,4.381243563863034,3128134534
fw,-87.7924728393554,-59.1367683410644,-135.7538524922816,12.27925634507299,3128151201
fw,-85.7501983642578,-59.4723854064941,-154.13949050311882,23.119922426097784,3128167868
fw,-83.0400238037109,-60.1847038269043,-168.9367465471261,35.75514539690841,3128184535
fw,-80.1100997924804,-61.2623863220214,-179.40434864740965,48.84947744142866,3128201202
fw,-77.1346206665039,-62.5574111938476,-184.91463577969722,61.18091772997632,3128217869
fw,-73.9391326904296,-63.9542045593261,-185.11936816065855,71.90777404870096,3128234536
fw,-70.5738372802734,-65.3551712036132,-180.12802904864793,80.70637462929997,3128251203
fw,-67.4451446533203,-66.7049331665039,-170.58317893976493,87.7415168651973,3128267870
fw,-64.8157730102539,-68.1072845458984,-157.55500188674827,93.49754783163242,3128284537
fw,-62.3849601745605,-69.7121505737304,-142.26800450590434,98.54389739721796,3128301204
fw,-60.2339630126953,-71.4987564086914,-125.76623498591047,103.31785714765819,3128317871
fw,-58.4878273010253,-73.3365402221679,-108.6647676598728,107.98325017286703,3128334538
fw,-56.8737907409668,-75.1228637695312,-91.10112466514477,112.38709549078806,3128351205
fw,-55.3492240905761,-76.972412109375,-72.91042900507267,116.10833826116962,3128367872
fw,-54.1959266662597,-78.9015121459961,-53.94701325385968,118.5788488183788,3128384539
fw,-53.3506660461425,-80.832778930664,-34.408181364357254,119.24929255710234,3128401206
fw,-52.9949378967285,-82.6421432495117,-15.011841283898825,117.76431734605622,3128417873
fw,-53.4159049987793,-84.2116928100586,3.0584117237986046,114.10500633702152,3128434540
fw,-54.4922828674316,-85.5051651000976,18.424201852245478,108.65702896160732,3128451207
fw,-55.547752380371,-86.1632461547851,29.885011567103945,102.17228008414345,3128467874
fw,-56.7025604248046,-86.0204391479492,36.737802260604646,95.61103795292674,3128484541
fw,-57.66943359375,-85.4204635620117,38.92932422359576,89.88306221736997,3128501208
fw,-58.7060508728027,-84.5719833374023,37.01761372942746,85.54508009806146,3128517875
fw,-59.8997573852539,-83.526252746582,31.997063195960326,82.5410311257749,3128534542
fw,-60.9023780822753,-82.3396835327148,25.066190579675457,80.07053653696761,3128551209
fw,-61.4655227661132,-81.1646041870117,17.400777341768755,76.63764021527045,3128567876
fw,-61.6521987915039,-79.9772262573242,9.975608845484075,70.2828065590937,3128584543
fw,-61.4816741943359,-78.9575576782226,3.472862032696025,58.95690473872458,3128601210
fw,-61.7112464904785,-78.2145156860351,-1.6945992292587686,40.96663881384276,3128617877
fw,-62.7464561462402,-77.9775772094726,-5.256313005303319,15.406580115183964,3128634544
fw,-63.5445137023925,-78.1283493041992,-6.926745368729534,-17.5098944580358,3128651211
fw,-63.360668182373,-78.8445281982421,-6.326743893887703,-56.301495024968766,3128667878
fw,-62.9570503234863,-80.4226684570312,-3.057595987937964,-98.31201183888261,3128684545
fw,-62.7635841369628,-82.7721099853515,3.096301520690889,-140.06428938027642,3128701212
fw,-62.8675155639648,-85.9223022460937,11.949063366447904,-177.8307570190253,3128717879
fw,-63.2536125183105,-89.2807235717773,22.808169530650176,-208.30600978597752,3128734546
fw,-64.1830596923828,-85.6276702880859,34.55335771449018,-229.2183935274824,3128751213
fw,-65.3553390502929,-81.5110855102539,45.88391124016191,-239.7184303992275,3128767880
fw,-66.7220306396484,-77.7021713256836,55.648632384219866,-240.44311080562642,3128784547
fw,-68.1069793701171,-74.0878219604492,63.14129602115495,-233.2562791413909,3128801214
fw,-69.5070114135742,-70.3969802856445,68.25707591912087,-220.75845098415328,3128817881
fw,-70.9130020141601,-66.9756927490234,71.45649587467005,-205.70135319084665,3128834548
fw,-72.2997970581054,-64.0473022460937,73.55404714060771,-190.43111430064783,3128851215
fw,-73.7216567993164,-61.4072189331054,75.41084747052946,-176.4528876759404,3128867882
fw,-75.2352600097656,-58.633560180664,77.64021968084865,-164.18602571313698,3128884549
fw,-76.8265686035156,-56.4388694763183,80.42262017173778,-152.95927929290104,3128901216
fw,-78.4873962402343,-54.4049568176269,83.4809951395745,-141.26295380293567,3128917883
fw,-80.2274475097656,-51.9425506591796,86.21041806502795,-127.22192202631238,3128934550
fw,-82.1058883666992,-49.6535148620605,87.9078763458722,-109.1862640213459,3128951217
fw,-84.0099868774414,-48.0221557617187,88.02164097480237,-86.28019982851389,3128967884
fw,-85.7466049194336,-47.3942642211914,86.33868860305428,-58.74621589186233,3128984551
fw,-87.2278747558593,-47.2769584655761,83.05257163455785,-27.990490403351043,3129001218
fw,-88.498062133789,-47.5380325317382,78.69637250340747,3.657122228395689,3129017885
fw,-89.0292434692382,-48.1476211547851,73.97056157567796,33.374740534650265,3129034552
fw,-88.357177734375,-49.2323493957519,69.52577842209301,58.357131700598025,3129051219
fw,-87.3148956298828,-50.2685928344726,65.76669793446128,76.30725018412356,3129067886
fw,-86.1303176879882,-52.2275085449218,62.72801402661738,85.84038268222096,3129084553
fw,-84.8815155029296,-54.4631996154785,60.0460772986004,86.73772029939099,3129101220
fw,-83.698371887207,-55.9377250671386,57.020629926518794,79.98707473037646,3129117887
fw,-82.6063842773437,-56.9998130798339,52.74088323354427,67.57423699063348,3129134554
fw,-81.6150283813476,-57.9332199096679,46.24409061563758,52.05552495306789,3129151221
fw,-80.8750610351562,-58.2585105895996,36.67957510234319,36.02327174439276,3129167888
fw,-80.4312286376953,-58.4024429321289,23.45944218545656,21.622504302016917,3129184555
fw,-80.2543792724609,-58.0347862243652,6.382722987838295,10.262708412225695,3129201222
fw,-80.3650588989257,-58.4424819946289,-14.2811483961857,2.597136849200545,3129217889
fw,-80.9169998168945,-59.8727760314941,-37.76970534615832,-1.2678526805070227,3129234556
fw,-82.0177764892578,-60.3206405639648,-62.88807586096697,-1.4778535079447985,3129251223
fw,-83.9232025146484,-59.8177986145019,-88.16091985837768,1.7713509564483456,3129267890
fw,-86.6343154907226,-59.5021362304687,-112.05015960525935,8.245227261779329,3129284557
fw,-89.4446792602539,-59.6431121826171,-133.1780348320709,17.5408362989772,3129301224
fw,-87.0720977783203,-60.1747322082519,-150.4884920058089,28.960421691039354,3129317891
fw,-83.9448928833007,-60.9113807678222,-163.3153958480636,41.512634257767616,3129334558
fw,-80.612678527832,-61.9331932067871,-171.37930007756307,54.07117830027522,3129351225
fw,-77.4486083984375,-63.3623123168945,-174.76083006305356,65.62974807087569,3129367892
fw,-74.301399230957,-64.9628067016601,-173.8773765258735,75.547145797531,3129384559
fw,-71.0117263793945,-66.4370727539062,-169.44367956289258,83.6807153934496,3129401226
fw,-67.9038772583007,-67.8543701171875,-162.36837937142778,90.35062421851435,3129417893
fw,-65.221435546875,-69.3367385864257,-153.55614981533236,96.14526833639907,3129434560
fw,-62.7423095703125,-70.9524993896484,-143.64609539795848,101.64009554496275,3129451227
fw,-60.4241981506347,-72.6978073120117,-132.7856351071386,107.13076160187977,3129467894
fw,-58.2834320068359,-74.3956604003906,-120.56361393191128,112.47031307032499,3129484561
fw,-56.2928619384765,-76.1805725097656,-106.17823398819094,117.06310102246893,3129501228
fw,-54.4428596496582,-78.2102966308593,-88.81370065262269,120.02164100826279,3129517895
fw,-52.9539070129394,-80.3925018310546,-68.09765667165311,120.4446902420849,3129534562
fw,-52.043472290039,-82.4669113159179,-44.462456400225385,117.73305163439423,3129551229
fw,-51.6978797912597,-84.2093887329101,-19.261115845188716,111.83967488463043,3129567896
fw,-52.0655975341796,-85.4854660034179,5.420759577283368,103.36710273843728,3129584563
fw,-53.1210060119628,-86.3027572631836,27.203362359650818,93.47509181709337,3129601230
fw,-54.4429588317871,-86.6565475463867,43.959116936317045,83.62197130780218,3129617897
fw,-55.9981575012207,-86.4858169555664,54.29355985428933,75.20932191571512,3129634564
fw,-57.4452857971191,-85.9149093627929,57.822277758637064,69.2178768636214,3129651231
fw,-58.7580490112304,-85.1586380004882,55.18665724610026,65.916392120458,3129667898
fw,-59.8888053894043,-84.3067092895507,47.83784058736308,64.70606571426423,3129684565
fw,-60.9430656433105,-83.3829879760742,37.67567637689288,64.13926378991708,3129701232
fw,-61.3237876892089,-82.4361114501953,26.64834288390856,62.123119596150644,3129717899
fw,-61.3774681091308,-81.442138671875,16.411215458674615,56.28380804468796,3129734566
fw,-61.3568611145019,-80.6171188354492,8.122674742882811,44.430319375333916,3129751233
fw,-61.6142768859863,-80.1415863037109,2.4165706846362998,25.029519765433392,3129767900
fw,-62.6570472717285,-80.1106185913086,-0.4707565238935897,-2.4020698935844957,3129784567
fw,-63.2920188903808,-80.5510330200195,-0.5095429715810695,-37.07060240146034,3129801234
fw,-63.115608215332,-81.6664352416992,2.2577055937117976,-76.89775947022144,3129817901
fw,-62.9782180786132,-83.54736328125,7.717777712510257,-118.76046466110404,3129834568
fw,-62.9698219299316,-86.1967239379882,15.577264372369171,-158.96257357570337,3129851235
fw,-63.2845802307128,-88.8191604614257,25.243983049299892,-193.8666275658861,3129867902
fw,-64.2000656127929,-85.3709487915039,35.807434350871674,-220.5525058844934,3129884569
fw,-65.378921508789,-81.0555038452148,46.16347061126136,-237.33504125356586,3129901236
fw,-66.6689071655273,-77.0495300292968,55.24645703111992,-243.99717499010706,3129917903
fw,-68.0723648071289,-73.3055801391601,62.27984360322382,-241.6834547875556,3129934570
fw,-69.5335159301757,-69.5782089233398,66.95146750847269,-232.50995096681262,3129951237
fw,-70.9722290039062,-65.9288711547851,69.4533121774692,-219.020863865628,3129967904
fw,-72.4320678710937,-62.7385597229003,70.3767144897808,-203.6305222501794,3129984571
fw,-73.9026870727539,-59.5650978088378,70.50367810916767,-188.15445917481117,3130001238
fw,-75.3273468017578,-56.731273651123,70.56648460041971,-173.49602483021408,3130017905
fw,-76.731330871582,-54.9190635681152,71.05178805303224,-159.5357348618083,3130034572
fw,-78.2074279785156,-52.6843032836914,72.10376502447622,-145.2589754853482,3130051239
fw,-79.7732620239257,-50.3233375549316,73.5439456010549,-129.12606420087857,3130067906
fw,-81.3723831176757,-48.1131706237793,74.98606629912574,-109.61863493209367,3130084573
fw,-82.9431228637695,-46.1486892700195,75.99571188904893,-85.811401302686,3130101240
fw,-84.4558563232421,-45.1866455078125,76.23662335161626,-57.7796821634406,3130117907
fw,-85.8691482543945,-45.1228065490722,75.55987071447846,-26.704392818771137,3130134574
fw,-87.2416763305664,-45.8744888305664,74.01976165728517,5.341908726067657,3130151241
fw,-88.6407318115234,-46.7171630859375,71.8270809819475,35.822545920203865,3130167908
fw,-90.0,-47.5807418823242,69.26469558202295,62.21982249082534,3130184575
fw,-88.7209854125976,-48.8497505187988,66.59080266451538,82.44876371945523,3130201242
fw,-87.5432205200195,-50.4531326293945,63.94862388736577,95.14971450071756,3130217909
fw,-86.4197463989257,-52.6891403198242,61.29709524500521,99.85775386237806,3130234576
fw,-85.3204803466796,-54.6616020202636,58.376539485724145,97.0495182828308,3130251243
fw,-84.2415313720703,-56.0536575317382,54.72064492852478,88.05233235613476,3130267910
fw,-83.1920776367187,-57.6429710388183,49.7167985794093,74.8069716382301,3130284577
fw,-82.1916885375976,-58.76851272583,42.70344041474962,59.51234937105566,3130301244
fw,-81.4942779541015,-59.2070236206054,33.0829124857671,44.226071759816364,3130317911
fw,-81.1437683105468,-59.1335716247558,20.42724715523873,30.526998640147006,3130334578
fw,-80.970718383789,-58.9680137634277,4.561412491265384,19.348288357514992,3130351245
fw,-81.0861511230468,-60.1499443054199,-14.38467370698014,11.04005511826343,3130367912
fw,-81.6811981201171,-61.4368553161621,-35.96350143485398,5.615602661301825,3130384579
fw,-82.9196395874023,-61.4813537597656,-59.444177171815404,3.0292036980387804,3130401246
fw,-84.9235305786132,-61.1671638488769,-83.88851512998899,3.3171797392244216,3130417913
fw,-87.3207321166992,-60.9292564392089,-108.24176705609034,6.537302988299793,3130434580
fw,-87.9516830444336,-61.0842056274414,-131.39987052315317,12.583653457925106,3130451247
fw,-85.5579452514648,-61.4907302856445,-152.23631933098906,21.023763311876333,3130467914
fw,-82.5542068481445,-61.8736381530761,-169.61773338632685,31.07026361079909,3130484581
fw,-79.4428558349609,-62.7269897460937,-182.46947014619312,41.71275821708504,3130501248
fw,-76.3550643920898,-63.9396018981933,-189.93425395897356,51.95849222988575,3130517915
fw,-73.0036239624023,-65.1958312988281,-191.59921658190066,61.08807511859668,3130534582
fw,-69.4669189453125,-66.3912582397461,-187.69177364486296,68.82875942709252,3130551249
fw,-66.2784271240234,-67.6022872924804,-179.1157238132953,75.38111657762046,3130567916
fw,-63.499095916748,-68.9489974975586,-167.24807995678074,81.2917242609205,3130584583
fw,-61.0596313476562,-70.3968811035156,-153.53116785938914,87.21754416804428,3130601250
fw,-58.9386711120605,-71.8539047241211,-139.01190910620375,93.65619564800117,3130617917
fw,-56.9204597473144,-73.3632431030273,-124.02767434727816,100.71968859162827,3130634584
fw,-55.0407066345214,-74.9553604125976,-108.18402541815655,108.01707042526385,3130651251
fw,-53.4443588256835,-76.7507858276367,-90.64427345421382,114.68821958399035,3130667918
fw,-52.207160949707,-78.6387863159179,-70.61991117976028,119.59489323261337,3130684585
fw,-51.2616958618164,-80.6840286254882,-47.87286909182989,121.62870795755968,3130701252
fw,-50.7457389831543,-82.5555572509765,-23.039077502507908,120.05198690513437,3130717919
fw,-51.109203338623,-84.1423416137695,2.349707871910942,114.76473853654639,3130734586
fw,-52.2629280090332,-85.2504272460937,26.156821860766545,106.40283764730692,3130751253
fw,-53.709602355957,-85.673469543457,46.137398634712426,96.21933701388421,3130767920
fw,-55.2379837036132,-85.5569305419921,60.46188389215862,85.76907850946503,3130784587
fw,-56.7816581726074,-85.1111984252929,68.09850104612804,76.4823656654331,3130801254
fw,-58.3105354309082,-84.4321823120117,68.96786370263848,69.25027551545605,3130817921
fw,-59.8077583312988,-83.5487670898437,63.876776577125185,64.13710248399394,3130834588
fw,-61.1833343505859,-82.6475830078125,54.294729237830026,60.29114892237556,3130851255
fw,-62.0772628784179,-81.8350448608398,42.049692612899285,56.06805153800277,3130867922
