Label,Left_Hip_q,Right_Hip_q,Left_Hip_qd,Right_Hip_qd,SampleTimeFine
sts,-80.6398086547851,-88.3675765991211,-23.9399433135986,-6.57761335372924,277302252
sts,-80.4999084472656,-88.48974609375,-23.9019985198974,-8.63910675048828,277318919
sts,-80.3535385131836,-88.6692504882812,-25.629934310913,-13.9861583709716,277335586
sts,-80.1766967773437,-88.877082824707,-27.8633003234863,-19.3327407836914,277352253
sts,-79.955940246582,-89.0310592651367,-29.9956665039062,-21.9612426757812,277368920
sts,-79.7097396850586,-89.0616302490234,-32.1338844299316,-26.2098846435546,277385587
sts,-79.4951705932617,-88.8893508911132,-31.9751548767089,-28.1542167663574,277402254
sts,-79.26318359375,-88.5597915649414,-38.5691871643066,-27.85693359375,277418921
sts,-78.9576110839843,-88.1263351440429,-47.7830696105957,-28.9887504577636,277435588
sts,-78.4259185791015,-87.5948257446289,-64.8657913208007,-32.2040328979492,277452255
sts,-77.6768951416015,-86.9247665405273,-79.6846389770507,-40.4603385925293,277468922
sts,-76.6173095703125,-86.0353317260742,-93.1833190917968,-54.9474487304687,277485589
sts,-75.2640991210937,-84.8603515625,-95.2459869384765,-72.1525192260742,277502256
sts,-73.8282165527343,-83.3978805541992,-88.6903533935546,-87.9414825439453,277518923
sts,-72.4374465942382,-81.6973800659179,-88.9408569335937,-100.726928710937,277535590
sts,-71.1115646362304,-79.8806533813476,-96.3478012084961,-104.808937072753,277552257
sts,-69.7192077636718,-78.1969528198242,-107.411460876464,-93.3950729370117,277568924
sts,-68.1291885375976,-76.5371170043945,-118.271568298339,-89.9991149902343,277585591
sts,-66.3222045898437,-74.881965637207,-128.589630126953,-89.2503356933593,277602258
sts,-64.4139556884765,-73.0894012451171,-133.513580322265,-99.1811370849609,277618925
sts,-62.4381408691406,-71.1639709472656,-138.804779052734,-106.688522338867,277635592
sts,-60.3410949707031,-69.1812667846679,-145.113540649414,-106.215583801269,277652259
sts,-58.1204452514648,-67.2043685913086,-149.593887329101,-101.701751708984,277668926
sts,-55.7591361999511,-65.1042709350586,-154.861938476562,-107.793617248535,277685593
sts,-53.299446105957,-63.0252571105957,-157.295349121093,-109.404335021972,277702260
sts,-50.9774360656738,-61.0222549438476,-147.929077148437,-108.073013305664,277718927
sts,-48.5869140625,-59.0466651916503,-151.297485351562,-109.067428588867,277735594
sts,-46.1141166687011,-57.0792427062988,-155.01789855957,-110.502708435058,277752261
sts,-43.7477569580078,-55.0886611938476,-148.416290283203,-112.932624816894,277768928
sts,-41.4747047424316,-53.0234489440918,-140.587127685546,-116.399139404296,277785595
sts,-39.1615753173828,-50.9732360839843,-141.662216186523,-112.731079101562,277802262
sts,-36.9677124023437,-49.0728454589843,-133.559982299804,-99.9422760009765,277818929
sts,-34.7294158935546,-47.146369934082,-135.354904174804,-101.826927185058,277835596
sts,-32.5589027404785,-45.2032241821289,-130.699630737304,-105.234191894531,277852263
sts,-30.4428920745849,-43.256004333496,-126.765388488769,-107.98110961914,277868930
sts,-28.3260421752929,-41.3334236145019,-126.251304626464,-107.940200805664,277885597
sts,-26.1557426452636,-39.5080490112304,-130.056121826171,-102.398849487304,277902264
sts,-23.9813785552978,-37.7391395568847,-130.068527221679,-98.0027847290039,277918931
sts,-21.810920715332,-35.9347648620605,-128.527221679687,-102.685409545898,277935598
sts,-19.6838130950927,-33.9809799194335,-125.836143493652,-115.499877929687,277952265
sts,-17.5578136444091,-31.9982032775878,-125.526679992675,-118.611862182617,277968932
sts,-15.3854570388793,-30.1758098602294,-129.202026367187,-108.954475402832,277985599
sts,-13.1611585617065,-28.4069690704345,-132.524490356445,-104.74201965332,278002266
sts,-10.9416599273681,-26.6017570495605,-132.272583007812,-105.691284179687,278018933
sts,-8.78858661651611,-24.7136402130126,-128.45701599121,-112.423736572265,278035600
sts,-6.7532615661621,-22.8159122467041,-121.663688659667,-114.163543701171,278052267
sts,-4.77776384353637,-20.9386940002441,-117.410720825195,-110.975814819335,278068934
sts,-2.65240311622619,-19.0502300262451,-126.126243591308,-108.772941589355,278085601
sts,-0.432220220565795,-17.1152725219726,-131.408996582031,-109.160240173339,278102268
sts,1.76468729972839,-15.1433267593383,-129.41860961914,-109.336486816406,278118935
sts,3.87021231651306,-13.1987714767456,-123.247146606445,-105.370452880859,278135602
sts,5.94141960144043,-11.2882614135742,-121.701797485351,-101.85952758789,278152269
sts,7.96500205993652,-9.32383918762207,-119.476745605468,-103.176322937011,278168936
sts,10.0089654922485,-7.23740768432617,-120.72654724121,-107.462287902832,278185603
sts,12.012505531311,-4.97327804565429,-117.551925659179,-115.45548248291,278202270
sts,13.9425907135009,-2.59426736831665,-112.186309814453,-119.526412963867,278218937
sts,15.8723459243774,-0.163351014256477,-111.332260131835,-120.315597534179,278235604
sts,18.4822769165039,2.32202768325805,-150.877578735351,-122.339042663574,278252271
sts,23.4671688079834,4.8714575767517,-293.216705322265,-125.233337402343,278268938
sts,28.8393440246582,7.34161663055419,-319.856384277343,-120.729057312011,278285605
sts,32.5798568725585,9.76250267028808,-223.064727783203,-120.891853332519,278302272
sts,34.6864700317382,12.0446853637695,-124.669860839843,-118.84381866455,278318939
sts,35.929874420166,14.0686054229736,-77.3342056274414,-112.909889221191,278335606
sts,36.7111740112304,16.682970046997,-52.3097038269043,-156.210327148437,278352273
sts,37.1862831115722,19.3857326507568,-33.6722030639648,-177.981582641601,278368940
sts,37.3402557373046,20.5986137390136,-13.006326675415,-88.3622665405273,278385607
sts,37.2842674255371,20.3262538909912,0.338042855262756,10.7606868743896,278402274
sts,37.0650177001953,18.6211719512939,8.34090709686279,99.4360809326171,278418941
sts,36.7003898620605,15.4203701019287,16.9322319030761,184.038986206054,278435608
sts,36.1907119750976,13.2135381698608,25.2049293518066,119.173591613769,278452275
sts,35.3919639587402,10.5476350784301,40.3955459594726,143.460876464843,278468942
sts,33.7194213867187,7.80048418045043,88.4118270874023,140.367080688476,278485609
sts,29.6489696502685,4.78644704818725,228.29734802246,155.10594177246,278502276
sts,23.4261684417724,1.64945316314697,358.475189208984,161.609573364257,278518943
sts,17.4590282440185,-1.46316087245941,358.622314453125,160.596618652343,278535610
sts,14.694821357727,-4.46531152725219,157.671585083007,155.182144165039,278552277
sts,11.9838218688964,-7.2712173461914,155.753585815429,143.2119140625,278568944
sts,9.36959171295166,-9.99784755706787,151.90721130371,138.611907958984,278585611
sts,6.80206155776977,-12.7900609970092,150.708343505859,145.831390380859,278602278
sts,4.16745519638061,-15.4935445785522,156.411544799804,143.373916625976,278618945
sts,1.46338748931884,-18.0404529571533,162.44482421875,138.191680908203,278635612
sts,-1.24602329730987,-20.4027004241943,163.918350219726,131.27000427246,278652279
sts,-3.8824622631073,-22.6102828979492,160.516052246093,126.238136291503,278668946
sts,-6.43571996688842,-24.8028984069824,155.961135864257,127.126022338867,278685613
sts,-9.03118991851806,-27.1055316925048,158.959197998046,132.780929565429,278702280
sts,-11.6904144287109,-29.5384788513183,163.00015258789,139.542724609375,278718947
sts,-14.4984016418457,-32.0047531127929,171.777313232421,141.457427978515,278735614
sts,-17.3723773956298,-34.4076843261718,175.501678466796,136.941589355468,278752281
sts,-20.2051544189453,-36.760082244873,172.262573242187,130.708450317382,278768948
sts,-23.0561351776123,-39.1629333496093,171.98826599121,129.707809448242,278785615
sts,-25.892894744873,-41.6452293395996,170.054077148437,131.370910644531,278802282
sts,-28.7554626464843,-44.1323204040527,171.365463256835,129.754852294921,278818949
sts,-31.7573089599609,-46.5252456665039,179.936981201171,122.860557556152,278835616
sts,-34.9678955078125,-48.7758293151855,192.7529296875,115.327674865722,278852283
sts,-38.1590881347656,-50.9166831970214,191.99819946289,110.611701965332,278868950
sts,-41.142967224121,-53.0459899902343,179.175369262695,112.176536560058,278885617
sts,-43.9779167175293,-55.2385139465332,168.936309814453,117.961097717285,278902284
sts,-46.9689216613769,-57.4375457763671,177.865249633789,119.538627624511,278918951
sts,-50.1423606872558,-59.6339607238769,189.031387329101,119.74437713623,278935618
sts,-53.398567199707,-61.9144706726074,194.671524047851,124.77668762207,278952285
sts,-56.7543144226074,-64.2617416381836,200.903182983398,128.25032043457,278968952
sts,-60.1206016540527,-66.6671371459961,200.729904174804,131.36880493164,278985619
sts,-63.3955421447753,-69.0868835449218,193.943954467773,133.579803466796,279002286
sts,-66.6693649291992,-71.5161361694336,192.680374145507,137.005813598632,279018953
sts,-69.7787017822265,-74.0741729736328,182.737350463867,147.771041870117,279035620
sts,-72.7006607055664,-76.7977523803711,173.528228759765,157.268447875976,279052287
sts,-75.3076705932617,-79.4309310913086,156.643371582031,147.736999511718,279068954
sts,-77.4944992065429,-81.9077911376953,132.443572998046,135.60903930664,279085621
sts,-79.5790252685546,-84.3057098388671,126.845741271972,131.801635742187,279102288
sts,-81.614875793457,-86.620376586914,127.413368225097,129.414337158203,279118955
sts,-83.4434509277343,-88.7127609252929,125.439010620117,131.227279663085,279135622
sts,-84.7309875488281,-88.5165481567382,108.29596710205,126.00373840332,279152289
sts,-85.243423461914,-87.2985382080078,70.9612350463867,66.7136001586914,279168956
sts,-85.3185577392578,-86.6467208862304,24.8669300079345,7.9035038948059,279185623
sts,-85.3941040039062,-86.4737472534179,-4.73139762878418,-17.5235290527343,279202290
sts,-85.4485244750976,-87.1992874145507,-14.6446313858032,-26.9331684112548,279218957
sts,-85.5377502441406,-87.8943939208984,-7.47109746932983,3.53875613212585,279235624
sts,-85.7304306030273,-87.7451934814453,11.7953462600708,24.9552516937255,279252291
sts,-85.9202346801757,-87.6138610839843,25.7017421722412,6.50632619857788,279268958
sts,-85.9860458374023,-87.4537811279296,25.7568550109863,4.89962148666381,279285625
sts,-85.9140472412109,-87.0688858032226,10.7571306228637,17.6284294128417,279302292
sts,-85.7791442871093,-86.7718963623046,1.57517683506011,15.0855722427368,279318959
sts,-85.6458053588867,-86.837646484375,0.49951821565628,-0.545819759368896,279335626
sts,-85.6118469238281,-87.067626953125,3.33000826835632,-8.27018928527832,279352293
sts,-85.6232833862304,-87.2540588378906,6.90243339538574,-9.16362571716308,279368960
sts,-85.6080474853515,-87.5003280639648,11.4890527725219,-15.9725580215454,279385627
sts,-85.5172042846679,-87.6694641113281,-1.60015368461608,-12.1742572784423,279402294
sts,-85.3904495239257,-87.7537994384765,-13.4999265670776,-6.5434832572937,279418961
sts,-85.2184906005859,-87.9243469238281,-20.1115608215332,-10.047945022583,279435628
sts,-85.0353698730468,-88.1265411376953,-19.3002262115478,-11.6339855194091,279452295
sts,-84.8623352050781,-88.390396118164,-15.0812664031982,-18.8779392242431,279468962
sts,-84.6833114624023,-88.691047668457,-12.0839204788208,-24.7978439331054,279485629
sts,-84.4382400512695,-88.9580764770507,-20.6337642669677,-29.5505676269531,279502296
sts,-84.1491470336914,-89.0218200683593,-28.4500465393066,-28.8955974578857,279518963
sts,-83.7661819458007,-88.7955322265625,-37.9281539916992,-35.5182228088378,279535630
sts,-83.2302169799804,-88.2528076171875,-48.1464462280273,-41.1911735534668,279552297
sts,-82.4865798950195,-87.5600891113281,-60.6833572387695,-45.4444313049316,279568964
sts,-81.5506439208984,-86.903579711914,-72.0252456665039,-41.1135787963867,279585631
sts,-80.2929763793945,-86.2260818481445,-90.8222732543945,-39.004596710205,279602298
sts,-78.6876754760742,-85.5701293945312,-108.562294006347,-33.034984588623,279618965
sts,-76.7796249389648,-84.6707153320312,-123.697196960449,-48.3446311950683,279635632
sts,-74.4306716918945,-83.3556594848632,-147.181808471679,-77.0782318115234,279652299
sts,-71.7884368896484,-81.849624633789,-163.659286499023,-87.8877334594726,279668966
sts,-69.2211608886718,-79.911880493164,-159.781661987304,-111.434654235839,279685633
sts,-66.9156951904296,-77.5889053344726,-144.750595092773,-132.252899169921,279702300
sts,-64.8690338134765,-74.630989074707,-128.512954711914,-165.498947143554,279718967
sts,-63.2891540527343,-71.517707824707,-107.977500915527,-160.058197021484,279735634
sts,-61.3449745178222,-68.7261428833007,-133.975799560546,-127.072296142578,279752301
sts,-58.9189262390136,-66.3057861328125,-154.737228393554,-106.873840332031,279768968
sts,-56.6585845947265,-64.3236083984375,-140.128265380859,-94.8471603393554,279785635
sts,-53.6859130859375,-62.5555191040039,-184.561569213867,-100.281524658203,279802302
sts,-50.0831146240234,-60.7608985900878,-219.949172973632,-113.331146240234,279818969
sts,-46.8697967529296,-58.8518943786621,-195.244338989257,-120.462600708007,279835636
sts,-44.4268188476562,-56.5256881713867,-151.55174255371,-138.391067504882,279852303
sts,-42.3706169128418,-54.1861267089843,-130.233337402343,-130.650344848632,279868970
sts,-39.9440994262695,-51.9317665100097,-153.145080566406,-115.900688171386,279885637
sts,-37.2465362548828,-49.5956115722656,-168.515563964843,-120.492691040039,279902304
sts,-34.7067031860351,-47.4446258544921,-158.43406677246,-112.819847106933,279918971
sts,-32.3535194396972,-45.4979133605957,-146.325759887695,-107.3267288208,279935638
sts,-30.2308712005615,-43.6851730346679,-131.710739135742,-102.203796386718,279952305
sts,-27.9830646514892,-41.7348747253418,-138.202911376953,-107.307594299316,279968972
sts,-25.6394538879394,-39.5342674255371,-143.314865112304,-125.530792236328,279985639
sts,-23.4921779632568,-37.075756072998,-131.661651611328,-147.986129760742,280002306
sts,-21.4236526489257,-34.5348625183105,-126.826271057128,-154.570938110351,280018973
sts,-19.2116641998291,-32.2362442016601,-135.552520751953,-136.997467041015,280035640
sts,-16.6762428283691,-30.2924633026123,-155.69790649414,-111.041679382324,280052307
sts,-14.0726909637451,-28.5095653533935,-159.587265014648,-99.1575698852539,280068974
sts,-11.8297939300537,-26.7630596160888,-137.310546875,-97.9172668457031,280085641
sts,-9.77780246734619,-25.0194454193115,-125.989135742187,-101.385620117187,280102308
sts,-7.74598550796508,-23.2153244018554,-125.683525085449,-107.289489746093,280118975
sts,-5.62360954284668,-21.0879592895507,-131.119094848632,-127.554290771484,280135642
sts,-3.42600131034851,-18.6687850952148,-134.665374755859,-146.701538085937,280152309
sts,-1.31046473979949,-16.2467422485351,-128.566497802734,-146.781188964843,280168976
sts,0.796928584575653,-14.0474081039428,-126.186668395996,-130.658477783203,280185643
sts,2.89457440376281,-12.1161375045776,-124.54093170166,-110.490608215332,280202310
sts,5.02039051055908,-10.34375,-125.8662109375,-97.1314468383789,280218977
sts,7.09883213043212,-8.4860610961914,-121.519638061523,-101.779090881347,280235644
sts,9.20747184753418,-6.36577272415161,-120.638450622558,-115.114387512207,280252311
sts,11.4492387771606,-3.91034483909606,-125.714485168457,-129.948898315429,280268978
sts,13.7343959808349,-1.28675186634063,-125.877380371093,-137.277420043945,280285645
sts,15.9608287811279,1.34187412261962,-120.598564147949,-139.679901123046,280302312
sts,20.1775550842285,3.87760806083679,-240.280212402343,-135.896438598632,280318979
sts,25.381851196289,6.25527811050415,-304.745513916015,-128.194763183593,280335646
sts,30.2112617492675,8.33711051940918,-289.245147705078,-110.924591064453,280352313
sts,32.9181900024414,10.250431060791,-159.541641235351,-100.485481262207,280368980
sts,34.4679870605468,11.9502239227294,-90.96044921875,-90.1715927124023,280385647
sts,35.2964363098144,13.2133111953735,-49.9967956542968,-71.3634872436523,280402314
sts,35.5874481201171,13.7109231948852,-19.790283203125,-29.6353130340576,280418981
sts,35.4858703613281,13.3303613662719,1.93969798088073,19.4117240905761,280435648
sts,35.0530776977539,12.2117795944213,22.2652912139892,60.8393974304199,280452315
sts,34.1654205322265,10.4342737197875,50.0649833679199,97.3006057739257,280468982
sts,32.3654556274414,8.16425704956054,102.661392211914,121.37963104248,280485649
sts,28.7331790924072,5.41779422760009,208.435974121093,144.186767578125,280502316
sts,22.6685810089111,2.20574569702148,353.015991210937,167.915115356445,280518983
sts,16.485481262207,-1.31877326965332,352.186279296875,184.993606567382,280535650
sts,13.7052583694458,-4.83911037445068,156.492309570312,183.586196899414,280552317
sts,10.6493511199951,-8.18839073181152,178.443099975585,171.74510192871,280568984
sts,7.73743486404418,-11.3053016662597,173.500213623046,158.332321166992,280585651
sts,4.92780780792236,-14.1771326065063,170.354125976562,145.722427368164,280602318
sts,2.22960901260375,-16.90647315979,165.484222412109,140.778411865234,280618985
sts,-0.374789297580719,-19.5677375793457,161.392272949218,140.477828979492,280635652
sts,-3.06882333755493,-22.2089443206787,167.122360229492,142.266677856445,280652319
sts,-5.90978240966796,-24.8151779174804,175.956649780273,141.444259643554,280668986
sts,-8.90217590332031,-27.4098968505859,185.349548339843,141.394287109375,280685653
sts,-11.9782629013061,-29.9680843353271,190.277252197265,138.29866027832,280702320
sts,-14.9704666137695,-32.5087623596191,185.152297973632,135.803039550781,280718987
sts,-17.729808807373,-35.0012092590332,171.455688476562,132.45100402832,280735654
sts,-20.4399261474609,-37.5672721862793,168.312591552734,138.108627319335,280752321
sts,-23.3629665374755,-40.1526832580566,179.817443847656,139.293533325195,280768988
sts,-26.3991622924804,-42.6683006286621,185.317428588867,135.012496948242,280785655
sts,-29.2857418060302,-45.1290740966796,176.031707763671,132.131149291992,280802322
sts,-32.090461730957,-47.5489845275878,170.782180786132,129.256423950195,280818989
sts,-34.949462890625,-49.9527282714843,173.218322753906,128.16226196289,280835656
sts,-37.9434089660644,-52.374340057373,180.775970458984,130.946716308593,280852323
sts,-40.955696105957,-54.7911071777343,181.00486755371,133.051925659179,280868990
sts,-43.9735794067382,-57.2404899597168,180.161575317382,136.339218139648,280885657
sts,-47.0474243164062,-59.7102470397949,182.904907226562,138.012298583984,280902324
sts,-50.2291069030761,-62.1764221191406,189.837509155273,136.592102050781,280918991
sts,-53.5188903808593,-64.5968856811523,196.326629638671,132.205673217773,280935658
sts,-56.7354507446289,-66.9463653564453,189.704208374023,126.015365600585,280952325
sts,-59.9339256286621,-69.3646697998046,187.259368896484,129.560012817382,280968992
sts,-63.1520042419433,-71.8421630859375,191.032562255859,135.5908203125,280985659
sts,-66.2319183349609,-74.2646408081054,185.758361816406,132.506423950195,281002326
sts,-69.0748138427734,-76.743179321289,172.890655517578,138.863540649414,281018993
sts,-71.7630004882812,-79.1031951904296,164.664489746093,137.412979125976,281035660
sts,-74.2391281127929,-81.197639465332,151.271224975585,124.540153503417,281052327
sts,-76.2934799194336,-83.3334350585937,124.511222839355,123.941665649414,281068994
sts,-78.119270324707,-85.4902877807617,114.765022277832,119.053077697753,281085661
sts,-79.8472366333007,-87.6734237670898,116.739082336425,119.535240173339,281102328
sts,-81.3582534790039,-89.5634460449218,114.52571105957,119.301414489746,281118995
sts,-82.576301574707,-88.2694625854492,100.778442382812,100.809776306152,281135662
sts,-83.2978820800781,-87.4132843017578,66.4779205322265,50.2523193359375,281152329
sts,-83.5563659667968,-87.1351547241211,41.2048759460449,7.59927797317504,281168996
sts,-83.6741180419921,-86.6862487792968,19.3929080963134,10.872537612915,281185663
sts,-83.7439270019531,-86.5565643310546,3.86726975440979,5.32359409332275,281202330
sts,-83.8760910034179,-87.0681610107421,4.67473697662353,-16.7138290405273,281218997
sts,-84.1217727661132,-87.4059524536132,9.59654521942138,-8.84346485137939,281235664
sts,-84.3651123046875,-87.3049926757812,13.6964826583862,7.66616535186767,281252331
sts,-84.4768905639648,-87.1565551757812,17.6846694946289,7.49207830429077,281268998
sts,-84.4300765991211,-86.9040832519531,17.7452487945556,10.9286174774169,281285665
sts,-84.3438339233398,-86.5735473632812,18.1616535186767,15.1249952316284,281302332
sts,-84.2921981811523,-86.4600067138671,12.2325639724731,4.82244253158569,281318999
sts,-84.3608016967773,-86.5112609863281,2.47771549224853,-2.16305994987487,281335666
sts,-84.5086669921875,-86.5694351196289,-3.53670978546142,-1.40954554080963,281352333
sts,-84.5637588500976,-86.692756652832,-3.07255101203918,-6.24275493621826,281369000
sts,-84.5065994262695,-86.8949279785156,2.49442958831787,-12.5108423233032,281385667
sts,-84.4168624877929,-87.0544357299804,4.74328660964965,-11.5399665832519,281402334
sts,-84.3573226928711,-87.1554565429687,6.38698863983154,-8.73317909240722,281419001
sts,-84.3130798339843,-87.3216781616211,-6.93128299713134,-12.5171003341674,281435668
sts,-84.2865295410156,-87.5347900390625,-15.0705204010009,-14.6940488815307,281452335
sts,-84.2814559936523,-87.7853012084961,-11.0560388565063,-16.1442012786865,281469002
sts,-84.2752609252929,-88.1353378295898,-6.52044677734375,-23.8621978759765,281485669
sts,-84.2432022094726,-88.4753036499023,-6.5530104637146,-26.8172607421875,281502336
sts,-84.146499633789,-88.5919494628906,-12.1829967498779,-16.6772918701171,281519003
sts,-84.0397720336914,-88.5857009887695,-20.0100364685058,-15.5385694503784,281535670
sts,-83.853530883789,-88.5779800415039,-34.0744705200195,-25.5155506134033,281552337
sts,-83.5549697875976,-88.4422912597656,-43.3442268371582,-38.6667022705078,281569004
sts,-83.1018981933593,-87.8852996826171,-50.930980682373,-54.0565223693847,281585671
sts,-82.4328842163086,-87.0436248779296,-59.9012451171875,-57.7541465759277,281602338
sts,-81.6034545898437,-85.9989471435546,-68.2251663208007,-68.190071105957,281619005
sts,-80.5880661010742,-84.6842269897461,-84.5879974365234,-85.4611587524414,281635672
sts,-79.2461318969726,-83.3073654174804,-101.897117614746,-87.43701171875,281652339
sts,-77.8653869628906,-81.7499771118164,-94.473648071289,-95.9033050537109,281669006
sts,-76.4099884033203,-79.9313354492187,-89.3112487792968,-105.722969055175,281685673
sts,-74.5937194824218,-78.3570861816406,-106.305595397949,-85.2924575805664,281702340
sts,-72.3328552246093,-76.9627838134765,-131.922088623046,-70.7795944213867,281719007
sts,-69.8014526367187,-75.3095550537109,-149.279602050781,-86.9412078857421,281735674
sts,-67.4355316162109,-73.3735809326171,-147.62612915039,-107.843910217285,281752341
sts,-64.9290313720703,-71.3899154663086,-164.158462524414,-111.156097412109,281769008
sts,-62.0654907226562,-69.4211654663086,-185.165252685546,-113.085075378417,281785675
sts,-59.2548027038574,-67.4332122802734,-178.215408325195,-117.358772277832,281802342
sts,-56.4754524230957,-65.3705902099609,-175.911209106445,-118.290405273437,281819009
sts,-53.396427154541,-63.340217590332,-191.853439331054,-111.47215270996,281835676
sts,-50.4882736206054,-61.2943153381347,-178.43130493164,-112.173103332519,281852343
sts,-47.88232421875,-59.0570259094238,-160.469360351562,-122.259910583496,281869010
sts,-45.3578147888183,-56.7792930603027,-156.171325683593,-122.990562438964,281885677
sts,-42.8302993774414,-54.5232124328613,-158.82029724121,-121.2144241333,281902344
sts,-40.1826210021972,-52.2085456848144,-167.718063354492,-125.453544616699,281919011
sts,-37.5572166442871,-49.9250907897949,-165.088195800781,-126.427825927734,281935678
sts,-35.1038665771484,-47.7462997436523,-152.092376708984,-122.309661865234,281952345
sts,-32.7287292480468,-45.5569267272949,-145.223037719726,-123.262718200683,281969012
sts,-30.4045028686523,-43.4090614318847,-141.903442382812,-120.19953918457,281985679
sts,-28.0636482238769,-41.2280616760253,-143.939636230468,-121.398895263671,282002346
sts,-25.5429000854492,-38.980239868164,-155.323745727539,-126.575782775878,282019013
sts,-22.9275493621826,-36.7368621826171,-161.021072387695,-127.726722717285,282035680
sts,-20.2628631591796,-34.5026969909668,-163.261337280273,-127.192916870117,282052347
sts,-17.7701034545898,-32.2793731689453,-152.062881469726,-125.893257141113,282069014
sts,-15.3222093582153,-30.1284027099609,-148.361206054687,-117.821983337402,282085681
sts,-12.7661180496215,-27.9467735290527,-154.769104003906,-118.649513244628,282102348
sts,-10.2182111740112,-25.6228561401367,-154.562545776367,-129.308700561523,282119015
sts,-7.74807596206665,-23.2849903106689,-149.749298095703,-131.263763427734,282135682
sts,-5.33549070358276,-20.921875,-146.100891113281,-132.515686035156,282152349
sts,-2.87405705451965,-18.5579147338867,-148.634689331054,-131.369873046875,282169016
sts,-0.32304835319519,-16.264009475708,-153.591751098632,-124.498733520507,282185683
sts,2.25063180923461,-14.0030403137207,-153.671142578125,-120.382522583007,282202350
sts,4.88160991668701,-11.6328659057617,-156.959640502929,-125.638160705566,282219017
sts,7.48275423049926,-8.99058532714843,-154.17544555664,-139.27146911621,282235684
sts,10.0491075515747,-6.19074916839599,-148.79344177246,-145.182189941406,282252351
sts,12.5998773574829,-3.30384230613708,-143.246292114257,-149.293212890625,282269018
sts,16.0929374694824,-0.468395709991455,-194.782073974609,-147.006866455078,282285685
sts,22.1280994415283,2.2433271408081,-348.320983886718,-141.224853515625,282302352
sts,27.5292682647705,4.69136333465576,-318.402770996093,-124.237724304199,282319019
sts,30.5238418579101,7.05047178268432,-173.60789489746,-122.011100769042,282335686
sts,31.9051322937011,8.90843200683593,-75.215576171875,-93.6005554199218,282352353
sts,32.3529472351074,10.8299541473388,-22.0577220916748,-108.09154510498,282369020
sts,32.3648567199707,12.5796871185302,-1.52942657470703,-113.374366760253,282385687
sts,32.118553161621,12.2987909317016,11.234935760498,5.27814292907714,282402354
sts,31.6383800506591,9.94544029235839,23.7320594787597,132.846939086914,282419021
sts,30.9647922515869,6.91717433929443,33.2831344604492,180.363388061523,282435688
sts,30.0237808227539,5.63699340820312,45.2526931762695,55.4115562438964,282452355
sts,28.3845615386962,3.17519235610961,82.8456726074218,131.302047729492,282469022
sts,25.0629901885986,0.651495397090911,179.963012695312,126.031265258789,282485689
sts,19.3146724700927,-2.42630696296691,329.50552368164,163.815765380859,282502356
sts,13.0270805358886,-5.56860256195068,361.085632324218,168.81396484375,282519023
sts,10.2811555862426,-8.64909553527832,165.542129516601,169.779632568359,282535690
sts,7.88859796524047,-11.4960746765136,139.934097290039,159.668029785156,282552357
sts,5.49539756774902,-14.1173801422119,143.946792602539,149.14224243164,282569024
sts,3.17527556419372,-16.5062866210937,142.041366577148,137.123931884765,282585691
sts,0.853897094726562,-18.7373065948486,143.665100097656,127.39451599121,282602358
sts,-1.55188941955566,-20.9368839263916,149.033203125,125.449501037597,282619025
sts,-4.07852220535278,-23.1914291381835,156.137954711914,129.30711364746,282635692
sts,-6.6865210533142,-25.5653953552246,161.099746704101,137.218078613281,282652359
sts,-9.27054786682128,-28.0088996887207,160.013351440429,140.015594482421,282669026
sts,-11.8386125564575,-30.4224014282226,159.515213012695,135.603088378906,282685693
sts,-14.4768161773681,-32.8000869750976,164.147109985351,130.253860473632,282702360
sts,-17.1627941131591,-35.1505699157714,166.929702758789,124.960235595703,282719027
sts,-19.8983974456787,-37.5473976135253,169.374679565429,124.880599975585,282735694
sts,-22.6329441070556,-39.9778671264648,168.373870849609,127.248977661132,282752361
sts,-25.3682613372802,-42.3362159729003,167.824600219726,124.893836975097,282769028
sts,-28.1578369140625,-44.6028251647949,170.374145507812,120.800132751464,282785695
sts,-31.030683517456,-46.8649520874023,174.90412902832,120.840896606445,282802362
sts,-33.9759483337402,-49.1307411193847,179.027847290039,119.649864196777,282819029
sts,-37.0219612121582,-51.3970489501953,184.682800292968,118.164749145507,282835696
sts,-40.1834907531738,-53.7045059204101,190.917266845703,121.420753479003,282852363
sts,-43.3218421936035,-56.0644836425781,187.691665649414,125.714317321777,282869030
sts,-46.6748390197753,-58.4539604187011,198.85139465332,127.749069213867,282885697
sts,-50.1786003112793,-60.9222221374511,207.848815917968,131.95230102539,282902364
sts,-53.6165084838867,-63.332275390625,204.079040527343,127.901878356933,282919031
sts,-56.8745727539062,-65.7703475952148,193.599029541015,131.380187988281,282935698
sts,-60.060676574707,-68.2988052368164,189.22004699707,138.357223510742,282952365
sts,-63.1300239562988,-70.6924362182617,181.978485107421,130.19236755371,282969032
sts,-66.1203918457031,-73.0426483154296,177.43357849121,128.634063720703,282985699
sts,-69.0597610473632,-75.2924575805664,174.464385986328,124.119331359863,283002366
sts,-71.9269104003906,-77.5388031005859,171.197387695312,125.851356506347,283019033
sts,-74.6064224243164,-79.7686157226562,159.788635253906,127.264747619628,283035700
sts,-76.9344863891601,-81.8498001098632,138.66323852539,119.651893615722,283052367
sts,-78.8983535766601,-83.8377304077148,120.334892272949,115.566024780273,283069034
sts,-80.7700958251953,-85.8029708862304,122.438079833984,115.158836364746,283085701
sts,-82.5842361450195,-87.7277221679687,131.520278930664,116.159446716308,283102368
sts,-84.2039031982421,-88.938720703125,133.363616943359,114.331741333007,283119035
sts,-85.3933410644531,-87.7697143554687,128.423690795898,111.708503723144,283135702
sts,-85.6340408325195,-85.9241790771484,91.8035278320312,115.74803161621,283152369
sts,-85.4457702636718,-84.6033401489257,26.1906909942626,79.588134765625,283169036
sts,-85.3424301147461,-84.1670989990234,-24.6446170806884,23.2717857360839,283185703
sts,-85.198616027832,-84.2138595581054,-30.0181732177734,-8.91125869750976,283202370
sts,-85.1913604736328,-84.4752197265625,-10.2809591293334,-15.4407320022583,283219037
sts,-85.3973846435546,-84.9600524902343,-2.39809298515319,-23.8643760681152,283235704
sts,-85.6219024658203,-85.01953125,7.57735395431518,-4.20058870315551,283252371
sts,-85.6576995849609,-84.8097076416015,16.7231616973876,12.2281856536865,283269038
sts,-85.4440994262695,-84.6846694946289,12.4992551803588,7.71462631225585,283285705
sts,-85.1603775024414,-84.5762786865234,4.47482538223266,5.75272560119628,283302372
sts,-84.9468154907226,-84.5797882080078,-3.38551473617553,-0.745099604129791,283319039
sts,-84.8700790405273,-84.8266143798828,-4.05793571472168,-14.9314002990722,283335706
sts,-84.9323348999023,-85.1063156127929,0.71405029296875,-16.9208717346191,283352373
sts,-85.0115509033203,-85.1906280517578,2.42139410972595,-5.37664985656738,283369040
sts,-84.9786682128906,-85.1982116699218,-1.86410546302795,-0.823628544807434,283385707
sts,-84.8366622924804,-85.2958068847656,-3.01552438735961,-6.2317190170288,283402374
sts,-84.6634368896484,-85.4261093139648,-4.20768451690673,-8.38003826141357,283419041
sts,-84.5253295898437,-85.6008377075195,-7.54359722137451,-11.2134437561035,283435708
sts,-84.4205093383789,-85.8747406005859,-11.0681133270263,-17.1884059906005,283452375
sts,-84.3894729614257,-86.1499938964843,-13.0766925811767,-16.9587535858154,283469042
sts,-84.4219207763671,-86.3595504760742,-13.9016599655151,-12.9942712783813,283485709
sts,-84.4011535644531,-86.5300521850586,-16.2932891845703,-10.9287061691284,283502376
sts,-84.2772369384765,-86.7138977050781,-20.8554649353027,-11.9642829895019,283519043
sts,-84.0857009887695,-87.0403823852539,-25.9493446350097,-20.5630855560302,283535710
sts,-83.8615417480468,-87.5378875732421,-34.4509963989257,-31.3981170654296,283552377
sts,-83.6228942871093,-88.2081222534179,-44.4264373779296,-45.2871513366699,283569044
sts,-83.2852478027343,-88.6921005249023,-53.3808403015136,-40.6583404541015,283585711
sts,-82.8065338134765,-89.0359191894531,-58.5267181396484,-39.0389251708984,283602378
sts,-82.1255340576171,-89.0949630737304,-69.5524978637695,-46.6341018676757,283619045
sts,-81.12451171875,-88.4914321899414,-88.6149520874023,-57.8981018066406,283635712
sts,-79.7133636474609,-87.571907043457,-106.900352478027,-59.3984947204589,283652379
sts,-78.104866027832,-86.5573043823242,-108.093185424804,-57.6738166809082,283669046
sts,-76.4236297607421,-85.2997283935546,-102.921836853027,-67.0897903442382,283685713
sts,-74.7258071899414,-83.7781829833984,-98.3230285644531,-82.8287506103515,283702380
sts,-73.1188735961914,-82.0654602050781,-96.6535263061523,-94.4345092773437,283719047
sts,-71.796890258789,-80.2014465332031,-86.6199035644531,-101.875015258789,283735714
sts,-70.6690368652343,-78.2398834228515,-77.3492813110351,-107.605422973632,283752381
sts,-69.3184585571289,-76.1978607177734,-89.4115447998046,-111.621063232421,283769048
sts,-67.2328567504882,-74.0511779785156,-132.868911743164,-112.865020751953,283785715
sts,-64.3684692382812,-71.9128875732421,-176.660430908203,-108.792526245117,283802382
sts,-61.5192146301269,-69.7359848022461,-174.367706298828,-114.886840820312,283819049
sts,-58.4646492004394,-67.7232589721679,-188.60725402832,-111.401077270507,283835716
sts,-55.2259216308593,-65.7725753784179,-197.855361938476,-113.95124053955,283852383
sts,-52.2067527770996,-63.5725326538085,-182.410812377929,-130.805862426757,283869050
sts,-49.6072235107421,-61.218406677246,-157.862823486328,-137.824249267578,283885717
sts,-47.2610931396484,-58.774242401123,-144.98176574707,-139.39695739746,283902384
sts,-44.7129592895507,-56.4064407348632,-157.446350097656,-128.653823852539,283919051
sts,-42.0460243225097,-54.1221389770507,-163.662384033203,-120.309982299804,283935718
sts,-39.4819107055664,-51.9409751892089,-157.573593139648,-113.016632080078,283952385
sts,-37.0164108276367,-49.8775749206543,-152.371597290039,-106.380882263183,283969052
sts,-34.57027053833,-47.7522811889648,-151.644439697265,-113.679298400878,283985719
sts,-32.2377471923828,-45.7235870361328,-144.955596923828,-110.058189392089,284002386
sts,-29.8385047912597,-43.6646842956543,-148.613586425781,-112.098510742187,284019053
sts,-27.5249767303466,-41.4578895568847,-142.77505493164,-124.371833801269,284035720
sts,-25.1975078582763,-39.078742980957,-142.689270019531,-140.648300170898,284052387
sts,-22.8833255767822,-36.7716255187988,-140.772705078125,-137.369537353515,284069054
sts,-20.6500244140625,-34.7569885253906,-135.709579467773,-113.730003356933,284085721
sts,-18.3914623260498,-32.9268074035644,-137.554748535156,-96.0917816162109,284102388
sts,-16.0108318328857,-31.1129627227783,-145.358047485351,-93.7433547973632,284119055
sts,-13.4813938140869,-29.1980762481689,-154.823486328125,-105.210052490234,284135722
sts,-11.0089569091796,-27.2368564605712,-151.292846679687,-109.65404510498,284152389
sts,-8.77387714385986,-25.1923789978027,-137.47964477539,-111.531684875488,284169056
sts,-6.78819274902343,-23.0713348388671,-123.849365234375,-116.292510986328,284185723
sts,-4.80767059326171,-21.0030879974365,-125.231605529785,-115.540809631347,284202390
sts,-2.82545399665832,-19.0498313903808,-126.531784057617,-108.612915039062,284219057
sts,-0.803573012351989,-17.1526851654052,-129.981414794921,-104.124130249023,284235724
sts,1.36052823066711,-15.1578121185302,-138.84765625,-110.152183532714,284252391
sts,3.59312558174133,-13.1263103485107,-141.204162597656,-111.630081176757,284269058
sts,5.77207136154174,-10.9814271926879,-136.475357055664,-115.490989685058,284285725
sts,7.8410301208496,-8.6233901977539,-128.203170776367,-126.161003112792,284302392
sts,9.79018211364746,-6.25301074981689,-118.124969482421,-124.186210632324,284319059
sts,11.731722831726,-3.97471117973327,-113.305839538574,-113.542526245117,284335726
sts,13.792236328125,-1.64500892162323,-113.832664489746,-112.397270202636,284352393
sts,18.2112846374511,0.706556558609008,-241.128799438476,-112.489166259765,284369060
sts,22.4969463348388,2.83919405937194,-231.448669433593,-103.341896057128,284385727
sts,25.837984085083,4.40232181549072,-184.174087524414,-77.1720581054687,284402394
sts,27.6312065124511,5.32325077056884,-101.57957458496,-45.0888938903808,284419061
sts,28.3327865600585,5.6833643913269,-39.9483032226562,-16.1210002899169,284435728
sts,28.2794876098632,5.45101833343505,2.71920466423034,13.8586778640747,284452395
sts,27.6103801727294,4.66708374023437,34.8140106201171,40.0244598388671,284469062
sts,26.2707920074462,3.31733036041259,67.5278167724609,68.3813247680664,284485729
sts,23.9804229736328,1.48341810703277,113.578422546386,91.7418746948242,284502396
sts,20.2137851715087,-0.822145640850067,191.221923828125,115.726425170898,284519063
sts,15.2871227264404,-3.52371358871459,254.744171142578,138.077774047851,284535730
sts,10.8364782333374,-6.44930791854858,246.07275390625,151.892761230468,284552397
sts,8.61355781555175,-9.41064167022705,112.074470520019,156.051971435546,284569064
sts,6.16377925872802,-12.3227653503417,131.518127441406,155.896438598632,284585731
sts,3.74122929573059,-15.0166234970092,136.160079956054,144.881057739257,284602398
sts,1.31098306179046,-17.4619960784912,142.903442382812,133.867492675781,284619065
sts,-0.929846823215484,-19.7341079711914,137.352111816406,128.40623474121,284635732
sts,-3.03787088394165,-21.8895473480224,133.960556030273,124.38304901123,284652399
sts,-5.17616319656372,-23.9922828674316,138.286422729492,121.569885253906,284669066
sts,-7.37881660461425,-26.1159858703613,143.229293823242,121.491744995117,284685733
sts,-9.71737575531005,-28.3238906860351,151.49526977539,123.960678100585,284702400
sts,-12.2348308563232,-30.6164150238037,161.613388061523,126.782028198242,284719067
sts,-14.8518371582031,-32.9532966613769,166.75764465332,125.742813110351,284735734
sts,-17.5067958831787,-35.3373489379882,168.416015625,126.560554504394,284752401
sts,-20.2075252532959,-37.7446899414062,170.467987060546,126.837409973144,284769068
sts,-22.9402294158935,-40.1578178405761,171.715850830078,126.234489440917,284785735
sts,-25.7179641723632,-42.5431480407714,173.628662109375,125.006370544433,284802402
sts,-28.54150390625,-44.8485107421875,175.791564941406,120.62198638916,284819069
sts,-31.3678188323974,-47.0963897705078,174.980651855468,116.841018676757,284835736
sts,-34.1938781738281,-49.3074378967285,173.97346496582,112.849769592285,284852403
sts,-36.9610481262207,-51.4931335449218,169.073257446289,110.74365234375,284869070
sts,-39.7660102844238,-53.6853370666503,170.623382568359,112.464004516601,284885737
sts,-42.6251792907714,-55.9016647338867,173.256866455078,115.719528198242,284902404
sts,-45.5265769958496,-58.1030349731445,175.520309448242,114.942031860351,284919071
sts,-48.4623413085937,-60.4439086914062,177.265396118164,123.26390838623,284935738
sts,-51.3897743225097,-62.9178314208984,176.716583251953,133.097930908203,284952405
sts,-54.4092445373535,-65.3669052124023,182.727783203125,133.224624633789,284969072
sts,-57.4583854675293,-67.6979370117187,184.031860351562,127.590133666992,284985739
sts,-60.4434127807617,-69.97509765625,179.656036376953,124.411010742187,285002406
sts,-63.3514518737793,-72.2109222412109,174.854919433593,121.126914978027,285019073
sts,-66.2730026245117,-74.4506607055664,175.48908996582,122.563194274902,285035740
sts,-69.0099334716796,-76.5556564331054,162.472717285156,116.855247497558,285052407
sts,-71.463264465332,-78.5511169433593,145.488037109375,112.333976745605,285069074
sts,-73.6618118286132,-80.4209442138671,132.473007202148,105.45603942871,285085741
sts,-75.6695861816406,-82.1078796386718,123.064453125,95.0326156616211,285102408
sts,-77.4427642822265,-83.7177200317382,109.961807250976,92.1217422485351,285119075
sts,-78.972541809082,-85.1365127563476,97.9686126708984,79.6627960205078,285135742
sts,-80.3451385498046,-86.5559997558593,92.6737594604492,84.1917114257812,285152409
sts,-81.6423873901367,-87.8191452026367,93.7758102416992,80.4478607177734,285169076
sts,-82.7952499389648,-88.6782531738281,94.7207946777343,80.6290969848632,285185743
sts,-83.7919616699218,-88.2098693847656,100.466453552246,90.7860717773437,285202410
sts,-84.55712890625,-86.8371505737304,108.306892395019,96.6616821289062,285219077
sts,-84.8564682006836,-85.4787063598632,99.2469940185546,85.4652633666992,285235744
sts,-84.8334350585937,-84.6679992675781,58.3212699890136,48.9430274963378,285252411
sts,-84.8294906616211,-84.4247970581054,9.71371078491211,13.6192436218261,285269078
sts,-84.7637405395507,-84.4356307983398,-13.6875600814819,-2.65346097946167,285285745
sts,-84.7053604125976,-84.4769973754882,-8.01644802093505,-2.24476385116577,285302412
sts,-84.7924041748046,-84.8256225585937,5.59168148040771,-19.8386611938476,285319079
sts,-84.9364395141601,-84.8321456909179,8.49245452880859,-2.08699607849121,285335746
sts,-84.9801177978515,-84.3716506958007,9.86764907836914,26.8161315917968,285352413
sts,-84.9008102416992,-84.0492935180664,8.97380924224853,19.8597316741943,285369080
sts,-84.7258605957031,-84.0475387573242,3.90239286422729,-0.139371752738952,285385747
sts,-84.5611343383789,-84.2094573974609,0.895696520805358,-10.5198488235473,285402414
sts,-84.4645233154296,-84.3404083251953,0.455349087715148,-8.21774768829345,285419081
sts,-84.4634246826171,-84.5019912719726,0.627735376358032,-9.5253849029541,285435748
sts,-84.4747619628906,-84.6090774536132,3.41631889343261,-6.68464851379394,285452415
sts,-84.4776000976562,-84.5189208984375,1.25045692920684,5.03788757324218,285469082
sts,-84.4584350585937,-84.5228881835937,-1.44656670093536,-0.659899115562439,285485749
sts,-84.4377136230468,-84.5952835083007,-2.64360260963439,-5.03457021713256,285502416
sts,-84.3821487426757,-84.6612777709961,-1.41032540798187,-4.70143842697143,285519083
sts,-84.3458404541015,-84.7701034545898,-7.37259101867675,-6.99721574783325,285535750
sts,-84.379150390625,-84.8769226074218,-10.0238552093505,-6.94052982330322,285552417
sts,-84.4260330200195,-85.0106887817382,-8.96508598327636,-8.59763431549072,285569084
sts,-84.473518371582,-85.2343673706054,-11.8265657424926,-13.9181337356567,285585751
sts,-84.5065994262695,-85.5283203125,-13.7494459152221,-18.4232425689697,285602418
sts,-84.5158157348632,-85.873176574707,-14.9165668487548,-21.9236793518066,285619085
sts,-84.5733566284179,-86.3151779174804,-19.5730094909667,-28.1827373504638,285635752
sts,-84.7062072753906,-86.8893814086914,-29.5007591247558,-36.9253959655761,285652419
sts,-84.7373886108398,-87.5912475585937,-47.0716857910156,-47.5022773742675,285669086
sts,-84.4585723876953,-88.2728576660156,-68.2405929565429,-55.2910041809082,285685753
sts,-83.8755874633789,-88.6036682128906,-78.6331024169921,-53.9113121032714,285702420
sts,-83.1710815429687,-88.3729782104492,-78.2081069946289,-55.4967994689941,285719087
sts,-82.2648773193359,-87.7167282104492,-88.5070877075195,-56.9675521850585,285735754
sts,-81.1138763427734,-86.8796463012695,-94.5713577270507,-60.1989669799804,285752421
sts,-79.8459396362304,-85.8220520019531,-92.9651260375976,-69.5428466796875,285769088
sts,-78.4535980224609,-84.5051727294921,-94.2709503173828,-80.386848449707,285785755
sts,-76.8680191040039,-82.8546371459961,-99.7340698242187,-97.354263305664,285802422
sts,-75.1969985961914,-81.0517654418945,-101.422622680664,-104.272117614746,285819089
sts,-73.5329208374023,-79.1992797851562,-100.777458190917,-103.591964721679,285835756
sts,-71.631118774414,-77.3788681030273,-117.189315795898,-97.8797073364257,285852423
sts,-69.3372650146484,-75.5249252319336,-143.372604370117,-100.207847595214,285869090
sts,-66.6244354248046,-73.5245971679687,-169.84016418457,-106.062843322753,285885757
sts,-63.6721305847168,-71.451187133789,-183.377517700195,-108.036743164062,285902424
sts,-60.5914001464843,-69.2175979614257,-189.345275878906,-120.747375488281,285919091
sts,-57.476764678955,-66.9495697021484,-190.394119262695,-130.141159057617,285935758
sts,-54.5691528320312,-64.6673507690429,-177.279510498046,-131.20230102539,285952425
sts,-51.893211364746,-62.3884735107421,-164.070846557617,-121.646560668945,285969092
sts,-49.1710586547851,-60.1815338134765,-168.48013305664,-110.236602783203,285985759
sts,-46.3422126770019,-57.9410018920898,-176.132919311523,-115.235687255859,286002426
sts,-43.7190704345703,-55.6098251342773,-164.822784423828,-125.326210021972,286019093
sts,-41.285041809082,-53.2005081176757,-153.118927001953,-133.23941040039,286035760
sts,-38.900032043457,-50.8597831726074,-148.337020874023,-130.328948974609,286052427
sts,-36.4722328186035,-48.6531448364257,-149.469787597656,-121.934097290039,286069094
sts,-34.0241584777832,-46.4177627563476,-150.685592651367,-126.754432678222,286085761
sts,-31.4926357269287,-44.2535285949707,-156.204864501953,-124.566108703613,286102428
sts,-28.8598957061767,-42.1006355285644,-162.250701904296,-123.435340881347,286119095
sts,-26.2318229675292,-39.9355964660644,-161.87547302246,-123.72947692871,286135762
sts,-23.5418224334716,-37.6256942749023,-164.874191284179,-132.997436523437,286152429
sts,-20.8640689849853,-35.1644325256347,-162.949722290039,-141.810821533203,286169096
sts,-18.1324882507324,-32.7238273620605,-164.911087036132,-137.954376220703,286185763
sts,-15.3898725509643,-30.3895645141601,-166.379013061523,-128.797912597656,286202430
sts,-12.6191453933715,-28.092185974121,-169.553329467773,-127.127174377441,286219097
sts,-9.88548183441162,-25.7632637023925,-168.169647216796,-130.739685058593,286235764
sts,-7.24652767181396,-23.3855266571044,-161.942962646484,-133.408309936523,286252431
sts,-4.62564611434936,-20.8554210662841,-159.596282958984,-141.502548217773,286269098
sts,-1.95188558101654,-18.1901416778564,-162.321166992187,-149.175918579101,286285765
sts,0.758889019489288,-15.5787086486816,-164.533279418945,-143.817672729492,286302432
sts,3.47163701057434,-13.0685710906982,-164.476135253906,-134.125885009765,286319099
sts,6.22437524795532,-10.3693571090698,-164.798675537109,-141.38980102539,286335766
sts,9.06816864013671,-7.37447071075439,-167.062942504882,-154.082489013671,286352433
sts,11.8942718505859,-4.16519784927368,-160.931198120117,-163.163681030273,286369100
sts,14.5029745101928,-0.981283068656921,-141.355895996093,-163.730041503906,286385767
sts,20.1333351135253,1.88906359672546,-317.740142822265,-148.682830810546,286402434
sts,26.0319881439209,4.39339113235473,-343.377166748046,-124.330085754394,286419101
sts,30.0997829437255,6.67220401763916,-241.38459777832,-114.582298278808,286435768
sts,32.0536804199218,8.53749752044677,-108.560279846191,-93.0528488159179,286452435
sts,32.8610687255859,9.57655239105224,-40.3361549377441,-47.763801574707,286469102
sts,32.9688529968261,9.79776000976562,-5.86075925827026,-10.5948829650878,286485769
sts,32.6281623840332,9.21158218383789,15.3668823242187,29.4003963470459,286502436
sts,31.8152084350585,7.88133573532104,39.95849609375,70.6268310546875,286519103
sts,30.2353897094726,5.9066481590271,81.6838455200195,102.777473449707,286535770
sts,27.2858848571777,3.43172430992126,157.727478027343,123.488578796386,286552437
sts,22.0110969543457,0.532795786857605,292.695617675781,144.597015380859,286569104
sts,15.7658767700195,-2.60210442543029,342.001495361328,156.80857849121,286585771
sts,11.8889446258544,-5.84603643417358,207.723754882812,165.60791015625,286602438
sts,9.19392585754394,-8.92915153503418,144.579315185546,158.330902099609,286619105
sts,6.54783010482788,-11.8249073028564,148.078491210937,149.736892700195,286635772
sts,3.91279482841491,-14.5487747192382,151.778945922851,142.670272827148,286652439
sts,1.34936833381652,-17.1207809448242,150.690170288085,136.398178100585,286669106
sts,-1.2564525604248,-19.5617847442626,155.954757690429,129.93618774414,286685773
sts,-3.8089165687561,-21.8986778259277,155.53709411621,123.797866821289,286702440
sts,-6.34006071090698,-24.1999607086181,156.197082519531,121.404632568359,286719107
sts,-8.94323062896728,-26.5839958190917,161.947433471679,125.527076721191,286735774
sts,-11.6578474044799,-29.089973449707,169.57046508789,133.396270751953,286752441
sts,-14.368179321289,-31.6894798278808,169.859710693359,139.259887695312,286769108
sts,-17.0924358367919,-34.3077926635742,171.085128784179,139.784759521484,286785775
sts,-19.8686580657959,-36.874526977539,174.097747802734,136.268112182617,286802442
sts,-22.6731624603271,-39.3434524536132,175.774536132812,129.37678527832,286819109
sts,-25.4952793121337,-41.7792854309082,176.670135498046,127.06021118164,286835776
sts,-28.3276920318603,-44.2290687561035,176.761047363281,128.156661987304,286852443
sts,-31.2035007476806,-46.6568527221679,178.957687377929,127.468994140625,286869110
sts,-34.0301284790039,-49.0123672485351,175.417816162109,124.631309509277,286885777
sts,-36.819278717041,-51.321979522705,172.235687255859,124.856735229492,286902444
sts,-39.6489944458007,-53.506420135498,173.626281738281,119.214790344238,286919111
sts,-42.5624923706054,-55.6718940734863,177.495254516601,117.879219055175,286935778
sts,-45.6070365905761,-57.9302978515625,184.561157226562,121.029342651367,286952445
sts,-48.6450996398925,-60.2960357666015,183.52635192871,124.781585693359,286969112
sts,-51.6496391296386,-62.6525535583496,180.619934082031,123.066703796386,286985779
sts,-54.5907402038574,-64.9522323608398,175.652801513671,122.228530883789,287002446
sts,-57.5033912658691,-67.1577072143554,172.562393188476,121.511268615722,287019113
sts,-60.3489990234375,-69.2847824096679,166.880630493164,120.740943908691,287035780
sts,-63.1600914001464,-71.3856124877929,164.358535766601,120.667808532714,287052447
sts,-65.6917572021484,-73.3871307373046,147.638290405273,114.355895996093,287069114
sts,-67.959732055664,-75.2800598144531,132.419891357421,107.765663146972,287085781
sts,-70.1445617675781,-77.0268249511718,127.968063354492,99.2204284667968,287102448
sts,-72.206184387207,-78.5479202270507,120.440727233886,86.4069519042968,287119115
sts,-74.0507659912109,-79.8926315307617,107.373275756835,78.2039489746093,287135782
sts,-75.6067962646484,-81.14208984375,92.1119995117187,75.072525024414,287152449
sts,-76.9905776977539,-82.2950286865234,85.6692123413086,71.1179275512695,287169116
sts,-78.2939147949218,-83.2696456909179,83.7460098266601,60.2244491577148,287185783
sts,-79.4595260620117,-84.1392745971679,75.9607772827148,52.4993095397949,287202450
sts,-80.5312881469726,-85.0345764160156,69.5698623657226,55.2141456604003,287219117
sts,-81.5574798583984,-85.7698745727539,67.5791473388671,45.8003463745117,287235784
sts,-82.5227584838867,-86.5126037597656,67.2164535522461,51.6565933227539,287252451
sts,-83.4275283813476,-87.1813049316406,71.5563659667968,51.063377380371,287269118
sts,-84.1915435791015,-87.7242813110351,69.4979476928711,52.6842956542968,287285785
sts,-84.7458114624023,-88.002082824707,60.6659393310546,59.5577201843261,287302452
sts,-85.1398162841796,-87.7219619750976,58.2144393920898,64.010269165039,287319119
sts,-85.443618774414,-86.9372100830078,54.196849822998,71.6062088012695,287335786
sts,-85.4289398193359,-86.2489242553711,28.9187107086181,50.0616722106933,287352453
sts,-85.2631072998046,-86.106704711914,12.0633029937744,5.95847749710083,287369120
sts,-85.056282043457,-86.2686004638671,-2.19289875030517,-22.2658596038818,287385787
sts,-84.9685363769531,-86.3878936767578,-14.8198232650756,-22.7994937896728,287402454
sts,-85.0759811401367,-86.6315765380859,-14.8124780654907,-23.5826835632324,287419121
sts,-85.232063293457,-87.0409088134765,-18.7052135467529,-25.0967292785644,287435788
sts,-85.2571945190429,-87.4353256225586,-21.3581275939941,-18.7357273101806,287452455
sts,-85.1469573974609,-87.6476516723632,-20.61177444458,-9.4708194732666,287469122
sts,-84.960952758789,-87.6592407226562,-16.162540435791,-3.08992052078247,287485789
sts,-84.7948913574218,-87.5237731933593,-3.91476726531982,1.62340033054351,287502456
sts,-84.8194961547851,-87.3387603759765,13.1663961410522,5.5237226486206,287519123
sts,-84.9278945922851,-87.1514663696289,17.0539360046386,7.64433670043945,287535790
sts,-84.9362030029296,-87.0845642089843,11.9859352111816,-0.983610749244689,287552457
sts,-84.8510971069336,-87.1806869506836,-2.09137916564941,-12.5785751342773,287569124
sts,-84.7091674804687,-87.3524780273437,-18.3700904846191,-15.2126398086547,287585791
sts,-84.5799331665039,-87.5264663696289,-24.3111953735351,-15.0104236602783,287602458
sts,-84.5286178588867,-87.6365356445312,-24.5727996826171,-18.2896480560302,287619125
sts,-84.4831008911132,-87.6523208618164,-26.6261653900146,-17.4970817565917,287635792
sts,-84.3734970092773,-87.6380233764648,-28.1770572662353,-20.5450801849365,287652459
sts,-84.1203384399414,-87.5879211425781,-33.6197891235351,-24.996259689331,287669126
sts,-83.7315597534179,-87.4567108154296,-38.3956336975097,-30.3309440612792,287685793
sts,-83.2071380615234,-87.2173690795898,-45.1040687561035,-32.5030784606933,287702460
sts,-82.6036834716796,-86.817153930664,-47.7637023925781,-35.6604499816894,287719127
sts,-81.9632034301757,-86.275276184082,-50.2838897705078,-36.7970542907714,287735794
sts,-81.2942886352539,-85.6927032470703,-52.3529205322265,-37.326114654541,287752461
sts,-80.4647979736328,-85.053596496582,-61.2617225646972,-43.5587196350097,287769128
sts,-79.3918685913086,-84.3087997436523,-76.5328826904296,-51.615982055664,287785795
sts,-78.043830871582,-83.4696426391601,-90.0360031127929,-57.0911788940429,287802462
sts,-76.7196807861328,-82.3630294799804,-80.9145889282226,-70.6809997558593,287819129
sts,-75.3719711303711,-81.0242156982421,-79.4374465942382,-80.5962905883789,287835796
sts,-73.8244323730468,-79.5396041870117,-92.9037551879882,-86.5358200073242,287852463
sts,-72.25,-77.922737121582,-97.4758834838867,-92.0833129882812,287869130
sts,-70.7535705566406,-76.1929550170898,-96.2673263549804,-96.1272888183593,287885797
sts,-69.0052032470703,-74.3615646362304,-113.879730224609,-102.688690185546,287902464
sts,-66.6756210327148,-72.5382614135742,-146.165664672851,-99.0709152221679,287919131
sts,-63.9470252990722,-70.8248519897461,-165.959808349609,-88.3271255493164,287935798
sts,-61.2026290893554,-69.2013473510742,-164.105972290039,-87.1054992675781,287952465
sts,-58.5154190063476,-67.5099182128906,-160.987579345703,-94.167984008789,287969132
sts,-55.9209480285644,-65.641731262207,-155.500061035156,-104.731269836425,287985799
sts,-53.6102104187011,-63.6698493957519,-140.323898315429,-109.983154296875,288002466
sts,-51.4162712097168,-61.652286529541,-137.481811523437,-108.987831115722,288019133
sts,-49.2013893127441,-59.6317672729492,-139.871398925781,-107.929580688476,288035800
sts,-46.8694076538085,-57.5546379089355,-146.329010009765,-111.843391418457,288052467
sts,-44.5316123962402,-55.5607070922851,-145.878860473632,-107.133728027343,288069134
sts,-42.2281303405761,-53.6673049926757,-143.594467163085,-102.114196777343,288085801
sts,-39.8394470214843,-51.7703781127929,-148.205093383789,-103.227989196777,288102468
sts,-37.3863639831543,-49.7397308349609,-151.165802001953,-113.065391540527,288119135
sts,-35.0819091796875,-47.7392196655273,-141.232101440429,-111.569183349609,288135802
sts,-32.9997482299804,-45.7971725463867,-127.421798706054,-106.317352294921,288152469
sts,-31.0919876098632,-43.8475685119628,-116.998764038085,-107.089416503906,288169136
sts,-29.1514625549316,-41.9346923828125,-118.645797729492,-106.186576843261,288185803
sts,-26.9587039947509,-39.9416923522949,-133.208129882812,-113.896919250488,288202470
sts,-24.4554843902587,-37.810375213623,-151.473754882812,-123.017677307128,288219137
sts,-21.7797241210937,-35.5082397460937,-161.44725036621,-133.085159301757,288235804
sts,-19.1361045837402,-33.1659431457519,-159.425811767578,-135.787277221679,288252471
sts,-16.6830215454101,-30.9580402374267,-148.06477355957,-126.744964599609,288269138
sts,-14.3891696929931,-28.8650894165039,-138.909744262695,-119.054023742675,288285805
sts,-12.0392017364501,-26.8648777008056,-143.036682128906,-114.473625183105,288302472
sts,-9.47723197937011,-24.8783302307128,-156.842681884765,-115.208869934082,288319139
sts,-6.89571380615234,-22.7790565490722,-158.794967651367,-122.007385253906,288335806
sts,-4.45100688934326,-20.5274906158447,-149.273025512695,-128.804367065429,288352473
sts,-2.08344054222106,-18.1361408233642,-142.483245849609,-135.056427001953,288369140
sts,0.317995637655258,-15.6561870574951,-143.177001953125,-138.62059020996,288385807
sts,2.95338940620422,-13.1801881790161,-156.733291625976,-134.424438476562,288402474
sts,5.66639709472656,-10.6264104843139,-160.997909545898,-135.318969726562,288419141
sts,8.24751281738281,-7.88729763031005,-152.534866333007,-144.504638671875,288435808
sts,10.8019695281982,-4.98362874984741,-148.11506652832,-152.589141845703,288452475
sts,13.3575944900512,-2.14791846275329,-142.683029174804,-146.012084960937,288469142
sts,19.3290061950683,0.834007501602172,-342.442779541015,-153.218627929687,288485809
sts,25.3039722442626,3.74454402923584,-348.016571044921,-148.492797851562,288502476
sts,29.211404800415,6.23060607910156,-231.845718383789,-130.299819946289,288519143
sts,30.9445266723632,8.21754646301269,-100.584297180175,-105.021041870117,288535810
sts,31.5232810974121,10.2133512496948,-35.2344017028808,-112.437980651855,288552477
sts,31.6112937927246,12.445665359497,-8.80635643005371,-131.744491577148,288569144
sts,31.3318405151367,12.82564163208,11.2041187286376,-26.0413036346435,288585811
sts,30.7277030944824,10.978759765625,28.0378036499023,106.762268066406,288602478
sts,29.8839225769042,7.44835472106933,40.3970718383789,200.384994506835,288619145
sts,28.8384666442871,6.21428871154785,50.771484375,57.314151763916,288635812
sts,27.1698379516601,3.93226242065429,86.5852432250976,123.209060668945,288652479
sts,23.9093933105468,1.39780032634735,182.745422363281,127.574577331542,288669146
sts,18.2660427093505,-1.62816572189331,329.933990478515,157.965850830078,288685813
sts,12.1360282897949,-4.65603256225585,357.212036132812,157.862182617187,288702480
sts,10.233374595642,-7.57613658905029,109.525566101074,153.029891967773,288719147
sts,7.99729108810424,-10.2033910751342,136.485580444335,134.476837158203,288735814
sts,5.92976093292236,-12.6276988983154,128.587814331054,119.239624023437,288752481
sts,3.71339035034179,-14.9841938018798,137.790008544921,110.439102172851,288769148
sts,1.39138996601104,-17.3507080078125,142.869247436523,107.62198638916,288785815
sts,-1.02024126052856,-19.7441387176513,147.509384155273,107.618270874023,288802482
sts,-3.4840919971466,-22.0844535827636,150.675399780273,104.955360412597,288819149
sts,-5.97350883483886,-24.3492374420166,152.738403320312,103.877975463867,288835816
sts,-8.47976779937744,-26.6261768341064,155.152908325195,109.882064819335,288852483
sts,-10.982006072998,-28.9061775207519,156.824462890625,112.814506530761,288869150
sts,-13.4424667358398,-31.2403125762939,155.522048950195,117.422248840332,288885817
sts,-15.8867397308349,-33.6887588500976,154.455657958984,125.24560546875,288902484
sts,-18.3694324493408,-36.1844482421875,156.054107666015,128.328125,288919151
sts,-20.8477382659912,-38.6394615173339,155.160034179687,125.900497436523,288935818
sts,-23.35396194458,-41.028636932373,155.775451660156,123.135307312011,288952485
sts,-25.9615173339843,-43.3616714477539,160.963623046875,121.34300994873,288969152
sts,-28.6637363433837,-45.6481285095214,165.733459472656,119.531684875488,288985819
sts,-31.3850440979003,-47.900276184082,166.186721801757,119.300193786621,289002486
sts,-34.0560417175293,-50.076602935791,162.507354736328,115.153617858886,289019153
sts,-36.7264976501464,-52.2365684509277,161.50877380371,112.897392272949,289035820
sts,-39.3591995239257,-54.4188613891601,158.069396972656,113.9654006958,289052487
sts,-41.9266128540039,-56.6401214599609,152.927444458007,118.200164794921,289069154
sts,-44.5391120910644,-58.8942832946777,154.435836791992,122.773048400878,289085821
sts,-47.2630462646484,-61.1046333312988,159.79541015625,121.168731689453,289102488
sts,-50.0112075805664,-63.2653312683105,159.631027221679,119.303596496582,289119155
sts,-52.7648239135742,-65.4582824707031,159.945663452148,124.361000061035,289135822
sts,-55.4810600280761,-67.5922546386718,158.603652954101,121.934440612792,289152489
sts,-58.2359275817871,-69.7101364135742,160.875198364257,121.960037231445,289169156
sts,-61.0358352661132,-71.7474365234375,162.687545776367,116.714027404785,289185823
sts,-63.7174415588378,-73.7037658691406,155.186294555664,111.073265075683,289202490
sts,-66.2649154663086,-75.5754318237304,147.160537719726,106.017280578613,289219157
sts,-68.5883255004882,-77.2586593627929,134.716598510742,95.8162307739257,289235824
sts,-70.6654434204101,-78.8003311157226,120.578742980957,87.7534713745117,289252491
sts,-72.597053527832,-80.365852355957,113.863456726074,91.161865234375,289269158
sts,-74.2888717651367,-81.770278930664,100.91047668457,82.3081436157226,289285825
sts,-75.7780380249023,-82.9785995483398,89.6322174072265,71.4237747192382,289302492
sts,-77.1434326171875,-84.1967391967773,84.1625747680664,76.1386260986328,289319159
sts,-78.4918136596679,-85.4757614135742,86.0077133178711,85.4451904296875,289335826
sts,-79.8595275878906,-86.5782394409179,87.771240234375,77.1306762695312,289352493
sts,-81.1521606445312,-87.4693603515625,82.6763229370117,81.2439346313476,289369160
sts,-82.360481262207,-87.8411483764648,83.2883682250976,93.5420455932617,289385827
sts,-83.4102478027343,-87.4287643432617,81.6154632568359,80.548110961914,289402494
sts,-84.1539001464843,-86.99365234375,71.1313018798828,41.8908615112304,289419161
sts,-84.5750885009765,-86.8261489868164,48.5609512329101,8.7744083404541,289435828
sts,-84.7322158813476,-86.8489303588867,17.1615619659423,-13.3591661453247,289452495
sts,-84.6979217529296,-86.8930358886718,-6.60685920715332,-17.3681030273437,289469162
sts,-84.5810165405273,-87.195930480957,-20.2333049774169,-27.1119270324707,289485829
sts,-84.4490737915039,-87.7005004882812,-22.7348823547363,-27.2024497985839,289502496
sts,-84.3695983886718,-88.0735931396484,-19.0838356018066,-11.2421035766601,289519163
sts,-84.3931045532226,-88.0373611450195,-8.23298645019531,10.5084896087646,289535830
sts,-84.4676742553711,-87.7699813842773,0.145025506615638,15.4518690109252,289552497
sts,-84.5637969970703,-87.4422760009765,8.85022258758545,15.0881357192993,289569164
sts,-84.7152481079101,-87.1601409912109,18.3043899536132,12.0727415084838,289585831
sts,-84.8889465332031,-87.0501174926757,17.1018905639648,0.226013362407684,289602498
sts,-84.9795989990234,-87.0788650512695,9.12392616271972,-10.0852870941162,289619165
sts,-84.9035339355468,-87.1011962890625,-4.67103052139282,-8.38940525054931,289635832
sts,-84.6801376342773,-87.1279220581054,-19.0611782073974,-6.32796192169189,289652499
sts,-84.4101257324218,-87.217658996582,-23.825870513916,-8.97418594360351,289669166
sts,-84.1661529541015,-87.3463516235351,-23.4021968841552,-10.2246074676513,289685833
sts,-83.9711761474609,-87.4600219726562,-20.9470901489257,-11.9410181045532,289702500
sts,-83.8244171142578,-87.5220413208007,-18.7405548095703,-9.9691457748413,289719167
sts,-83.686897277832,-87.5528793334961,-18.4592380523681,-14.2017431259155,289735834
sts,-83.5241317749023,-87.5196685791015,-18.6102638244628,-21.4563198089599,289752501
sts,-83.3033828735351,-87.3994750976562,-18.498342514038,-27.5021095275878,289769168
sts,-83.0144500732421,-87.1752014160156,-18.9583568572998,-33.2493476867675,289785835
sts,-82.6210021972656,-86.838134765625,-24.0256633758544,-35.5735740661621,289802502
sts,-81.9650268554687,-86.396743774414,-43.0989761352539,-37.3971481323242,289819169
sts,-81.1229400634765,-85.8913955688476,-56.9821395874023,-37.1001281738281,289835836
sts,-80.0864715576171,-85.3478088378906,-71.4903182983398,-37.8514709472656,289852503
sts,-78.7332687377929,-84.7133865356445,-91.1463775634765,-45.6723670959472,289869170
sts,-77.0385131835937,-84.0031204223632,-110.683952331542,-51.7495651245117,289885837
sts,-74.9921875,-83.1448822021484,-129.380279541015,-61.4695053100585,289902504
sts,-72.6451568603515,-81.9728775024414,-143.007110595703,-80.2758560180664,289919171
sts,-70.1895523071289,-80.4862823486328,-145.707870483398,-95.9994049072265,289935838
sts,-67.9291152954101,-78.6462097167968,-133.571365356445,-113.251480102539,289952505
sts,-65.9408493041992,-76.5377960205078,-120.165428161621,-122.610458374023,289969172
sts,-64.2687835693359,-74.2432403564453,-105.336585998535,-123.444480895996,289985839
sts,-62.5309753417968,-71.8468780517578,-109.528930664062,-115.344589233398,290002506
sts,-60.4079437255859,-69.4163970947265,-131.767349243164,-107.55906677246,290019173
sts,-57.6758117675781,-67.0463104248046,-165.703811645507,-111.840499877929,290035840
sts,-54.4271774291992,-64.9827651977539,-195.548767089843,-112.229850769042,290052507
sts,-51.3205795288085,-63.1065559387207,-188.377319335937,-113.654083251953,290069174
sts,-48.8558769226074,-61.2533950805664,-150.264068603515,-113.056114196777,290085841
sts,-46.6448364257812,-59.3567276000976,-135.523239135742,-111.498222351074,290102508
sts,-44.5347938537597,-57.2398071289062,-129.186416625976,-119.819961547851,290119175
sts,-42.2661895751953,-55.0962562561035,-138.854461669921,-119.476890563964,290135842
sts,-39.6481437683105,-52.9671249389648,-160.317062377929,-119.230430603027,290152509
sts,-37.1306571960449,-50.8557510375976,-154.795318603515,-120.578903198242,290169176
sts,-34.9872093200683,-48.8604202270507,-132.899291992187,-111.975151062011,290185843
sts,-33.0224151611328,-46.982135772705,-121.53677368164,-100.196968078613,290202510
sts,-31.1453189849853,-45.2319450378418,-116.066665649414,-86.2048187255859,290219177
sts,-29.1352481842041,-43.3976211547851,-124.587532043457,-89.5074615478515,290235844
sts,-26.8273944854736,-41.342716217041,-142.261398315429,-108.16909790039,290252511
sts,-24.4493045806884,-38.994457244873,-146.178527832031,-137.421157836914,290269178
sts,-22.1232566833496,-36.4652404785156,-143.401245117187,-154.430465698242,290285845
sts,-19.8603496551513,-34.0176010131835,-140.311965942382,-147.620346069335,290302512
sts,-17.6230583190917,-31.8519840240478,-138.587081909179,-124.447525024414,290319179
sts,-15.3036251068115,-29.8822956085205,-142.460388183593,-107.810363769531,290335846
sts,-12.8659772872924,-27.9609985351562,-149.253509521484,-104.395484924316,290352513
sts,-10.3643503189086,-26.017915725708,-153.788009643554,-106.547813415527,290369180
sts,-7.93386602401733,-23.9883804321289,-149.423126220703,-109.766052246093,290385847
sts,-5.53153133392334,-21.7130680084228,-146.867630004882,-123.282974243164,290402514
sts,-3.17646813392639,-19.2017383575439,-143.127716064453,-140.658096313476,290419181
sts,-0.836462795734405,-16.6173038482666,-140.940887451171,-146.916641235351,290435848
sts,1.63847148418426,-14.1310558319091,-148.435989379882,-137.558898925781,290452515
sts,4.18943452835083,-11.7544889450073,-152.99282836914,-127.028884887695,290469182
sts,6.66895294189453,-9.39807415008545,-148.155090332031,-124.370613098144,290485849
sts,9.11109924316406,-7.01397275924682,-144.453643798828,-123.199386596679,290502516
sts,11.5837650299072,-4.40597486495971,-142.759445190429,-133.053466796875,290519183
sts,14.1599502563476,-1.44954466819763,-142.684646606445,-148.920501708984,290535850
sts,19.8270721435546,1.72847342491149,-319.584442138671,-159.041458129882,290552517
sts,25.5072917938232,4.87290811538696,-325.665466308593,-156.495452880859,290569184
sts,29.4038219451904,7.68901538848876,-228.556335449218,-142.101501464843,290585851
sts,31.6855449676513,10.0822343826293,-139.224731445312,-126.673263549804,290602518
sts,32.7882385253906,13.0658330917358,-72.4977569580078,-177.059173583984,290619185
sts,33.2887573242187,17.2730712890625,-36.4471740722656,-262.32241821289,290635852
sts,33.4026336669921,19.8788585662841,-11.4583683013916,-166.55744934082,290652519
sts,33.2636260986328,20.6951904296875,4.51791095733642,-50.4131240844726,290669186
sts,32.8467369079589,19.5027523040771,20.977159500122,74.0903244018554,290685853
sts,32.2405128479003,16.2298679351806,30.6558628082275,194.297485351562,290702520
sts,31.4919605255126,11.3174982070922,36.6748580932617,286.732696533203,290719187
sts,30.4741973876953,8.52944278717041,46.9724235534668,187.800109863281,290735854
sts,28.8180465698242,5.96972227096557,78.5441741943359,139.702667236328,290752521
sts,25.3625583648681,2.89964604377746,184.960296630859,165.816940307617,290769188
sts,19.4863014221191,-0.415946811437606,336.88720703125,180.924240112304,290785855
sts,13.1597242355346,-3.56153035163879,361.676177978515,170.093994140625,290802522
sts,10.9804439544677,-6.52443981170654,128.119873046875,161.619338989257,290819189
sts,8.55530643463134,-9.1852912902832,143.967346191406,142.689559936523,290835856
sts,6.15102052688598,-11.6551542282104,147.929275512695,131.361022949218,290852523
sts,3.61395263671875,-14.0564279556274,157.998001098632,124.595001220703,290869190
sts,1.06020581722259,-16.487657546997,159.62825012207,125.75919342041,290885857
sts,-1.4588154554367,-18.885175704956,158.804718017578,122.77195739746,290902524
sts,-3.93330836296081,-21.2573413848876,157.111511230468,119.146583557128,290919191
sts,-6.38429021835327,-23.6215858459472,156.398895263671,115.479499816894,290935858
sts,-8.7900104522705,-25.9907341003417,154.004318237304,113.672889709472,290952525
sts,-11.2128582000732,-28.3574981689453,155.360885620117,113.13687133789,290969192
sts,-13.728157043457,-30.7887268066406,160.959869384765,119.272766113281,290985859
sts,-16.3147659301757,-33.2860870361328,164.945083618164,126.668701171875,291002526
sts,-18.9575901031494,-35.7901153564453,168.330154418945,129.027862548828,291019193
sts,-21.5649223327636,-38.1468048095703,165.974914550781,121.135345458984,291035860
sts,-24.158935546875,-40.4732208251953,164.19204711914,120.840293884277,291052527
sts,-26.7498302459716,-42.8171501159668,162.225173950195,123.524261474609,291069194
sts,-29.3634796142578,-45.1037139892578,161.549041748046,121.046936035156,291085861
sts,-32.0439147949218,-47.3870048522949,163.38475036621,122.431663513183,291102528
sts,-34.8370857238769,-49.7145729064941,168.241271972656,126.096115112304,291119195
sts,-37.6506118774414,-52.1246681213378,167.948150634765,129.632553100585,291135862
sts,-40.447582244873,-54.5369644165039,165.596115112304,127.480171203613,291152529
sts,-43.3190155029296,-56.8648719787597,169.577896118164,120.962867736816,291169196
sts,-46.2629318237304,-59.135082244873,173.555053710937,117.972793579101,291185863
sts,-49.193016052246,-61.3902206420898,172.724624633789,118.352043151855,291202530
sts,-52.1329154968261,-63.6210746765136,173.348770141601,117.613456726074,291219197
sts,-55.0335884094238,-65.8711318969726,170.845077514648,120.693176269531,291235864
sts,-57.9119529724121,-68.0809326171875,169.88427734375,119.067794799804,291252531
sts,-60.822582244873,-70.2039337158203,171.899139404296,114.348831176757,291269198
sts,-63.6334037780761,-72.3164367675781,165.602416992187,116.75511932373,291285865
sts,-66.4674301147461,-74.4079971313476,166.362121582031,118.98429107666,291302532
sts,-69.3278121948242,-76.4620742797851,168.847396850585,119.811492919921,291319199
sts,-72.0898818969726,-78.430923461914,163.747283935546,118.014183044433,291335866
sts,-74.6950302124023,-80.3387374877929,154.885528564453,116.016815185546,291352533
sts,-77.1241607666015,-82.011489868164,147.239974975585,100.945045471191,291369200
sts,-79.3571319580078,-83.5291290283203,138.388534545898,90.3616714477539,291385867
sts,-81.3272399902343,-85.0983963012695,126.199195861816,95.6150512695312,291402534
sts,-82.9979553222656,-86.6128616333007,115.450637817382,95.2709503173828,291419201
sts,-84.3079071044921,-87.8993225097656,114.439140319824,97.4095764160156,291435868
sts,-84.9623107910156,-88.2218322753906,105.126358032226,99.2695159912109,291452535
sts,-84.9883499145507,-87.28271484375,83.9638595581054,93.1538467407226,291469202
sts,-84.8085403442382,-86.2194900512695,45.6467781066894,69.5447921752929,291485869
sts,-84.6362609863281,-85.6832122802734,1.00431323051452,27.6095962524414,291502536
sts,-84.5309829711914,-85.7029953002929,-28.741262435913,-13.4364776611328,291519203
sts,-84.6435775756836,-86.0160140991211,-32.3828811645507,-34.1117973327636,291535870
sts,-84.9226837158203,-86.4572372436523,-16.155532836914,-38.2831764221191,291552537
sts,-85.2277145385742,-87.2024993896484,-5.77202367782592,-48.5609397888183,291569204
sts,-85.3753890991211,-87.9376831054687,2.70837116241455,-38.363109588623,291585871
sts,-85.2742004394531,-88.2222671508789,5.80743551254272,-5.43175649642944,291602538
sts,-85.0374221801757,-87.8485107421875,5.43042564392089,27.0284252166748,291619205
sts,-84.817153930664,-87.2443771362304,6.26577615737915,27.6219520568847,291635872
sts,-84.7314376831054,-86.7720870971679,1.61044895648956,18.955768585205,291652539
sts,-84.7762222290039,-86.6014328002929,-0.92021644115448,5.30980682373046,291669206
sts,-84.8779220581054,-86.7240371704101,-4.37788772583007,-7.9100022315979,291685873
sts,-84.9434432983398,-86.8832855224609,-4.95754671096801,-2.52615666389465,291702540
sts,-84.9672470092773,-87.0807418823242,-8.20919513702392,-1.41764819622039,291719207
sts,-84.9555053710937,-87.2786865234375,-11.2126159667968,-6.34684181213378,291735874
sts,-84.9110336303711,-87.518325805664,-16.9204063415527,-17.8625431060791,291752541
sts,-84.8230895996093,-87.6723327636718,-20.6090087890625,-21.9592056274414,291769208
sts,-84.6913070678711,-87.6832885742187,-24.0872745513916,-11.4339551925659,291785875
sts,-84.5546798706054,-87.7613983154296,-23.3077945709228,-9.81721973419189,291802542
sts,-84.4433898925781,-87.9051971435546,-19.3042640686035,-12.3621759414672,291819209
sts,-84.2893447875976,-88.0495681762695,-20.6203746795654,-17.9879817962646,291835876
sts,-84.0361633300781,-88.1208038330078,-26.3064975738525,-23.5212116241455,291852543
sts,-83.7204055786132,-88.0439529418945,-31.8008460998535,-27.5892219543457,291869210
sts,-83.3497924804687,-87.8637542724609,-36.3275337219238,-27.0198783874511,291885877
sts,-83.0010910034179,-87.6564102172851,-36.6667594909668,-28.0403423309326,291902544
sts,-82.5703811645507,-87.350112915039,-44.2473030090332,-34.1020927429199,291919211
sts,-81.9705581665039,-86.8336868286132,-52.3475151062011,-43.866413116455,291935878
sts,-81.1988677978515,-86.0769424438476,-57.8542098999023,-54.7852935791015,291952545
sts,-80.2963943481445,-85.1264114379882,-60.080093383789,-64.4941253662109,291969212
sts,-79.2864532470703,-83.9844131469726,-64.7616271972656,-73.1955490112304,291985879
sts,-78.2064590454101,-82.6677322387695,-70.836067199707,-78.9196472167968,292002546
sts,-76.9700393676757,-81.3745651245117,-81.4137878417968,-71.7592010498046,292019213
sts,-75.2641067504882,-80.0525665283203,-107.520446777343,-69.6942138671875,292035880
sts,-73.3038558959961,-78.6405868530273,-121.598571777343,-73.7867355346679,292052547
sts,-71.2144622802734,-77.1750030517578,-128.140213012695,-79.4259033203125,292069214
sts,-69.0016021728515,-75.5693435668945,-136.107696533203,-91.8915405273437,292085881
sts,-66.6980514526367,-73.6489181518554,-142.633865356445,-113.624359130859,292102548
sts,-64.4597244262695,-71.6147079467773,-138.692092895507,-120.660118103027,292119215
sts,-62.2541160583496,-69.6323623657226,-137.806579589843,-114.511657714843,292135882
sts,-59.7140426635742,-67.7849426269531,-157.039764404296,-103.2265625,292152549
sts,-56.8488159179687,-65.8503189086914,-172.916275024414,-109.328147888183,292169216
sts,-53.9342193603515,-63.8633270263671,-173.779190063476,-115.773635864257,292185883
sts,-51.0906600952148,-61.8553352355957,-171.753936767578,-117.679389953613,292202550
sts,-48.5434226989746,-59.9800720214843,-157.430389404296,-105.153450012207,292219217
sts,-46.1235389709472,-58.0456466674804,-150.671630859375,-103.279640197753,292235884
sts,-43.7466506958007,-55.9682083129882,-147.693161010742,-107.955574035644,292252551
sts,-41.3294982910156,-53.824348449707,-150.125274658203,-109.635795593261,292269218
sts,-38.9293708801269,-51.6921958923339,-149.492126464843,-108.091148376464,292285885
sts,-36.4921569824218,-49.6633911132812,-151.298034667968,-101.198783874511,292302552
sts,-34.2216682434082,-47.7311172485351,-140.610610961914,-97.9227523803711,292319219
sts,-32.0380325317382,-45.7698745727539,-135.04702758789,-104.814102172851,292335886
sts,-29.8315620422363,-43.655174255371,-136.400833129882,-119.35863494873,292352553
sts,-27.5027446746826,-41.4847106933593,-143.827438354492,-125.201957702636,292369220
sts,-25.1322212219238,-39.3580169677734,-145.897888183593,-121.749000549316,292385887
sts,-22.8771800994873,-37.2944984436035,-138.535888671875,-115.515182495117,292402554
sts,-20.6601486206054,-35.346824645996,-135.920486450195,-107.414810180664,292419221
sts,-18.410846710205,-33.4724655151367,-137.574996948242,-102.933921813964,292435888
sts,-16.1478042602539,-31.5801792144775,-137.876556396484,-104.142265319824,292452555
sts,-13.8946228027343,-29.6120471954345,-137.358764648437,-108.855247497558,292469222
sts,-11.603702545166,-27.5165672302246,-140.38621520996,-117.050773620605,292485889
sts,-9.31541156768798,-25.346866607666,-140.828659057617,-122.222862243652,292502556
sts,-7.09545183181762,-23.0964927673339,-136.661437988281,-127.648803710937,292519223
sts,-4.93132591247558,-20.7534656524658,-132.65185546875,-134.361785888671,292535890
sts,-2.7207281589508,-18.4241523742675,-134.778228759765,-131.113098144531,292552557
sts,-0.424681156873703,-16.1731567382812,-139.403289794921,-123.19310760498,292569224
sts,2.01704621315002,-13.9655485153198,-147.981658935546,-117.83689880371,292585891
sts,4.52252054214477,-11.7471017837524,-152.155044555664,-117.867034912109,292602558
sts,7.0206618309021,-9.37021160125732,-151.108459472656,-128.091522216796,292619225
sts,9.47126865386962,-6.77182722091674,-146.269714355468,-139.357711791992,292635892
sts,11.9402322769165,-4.11121320724487,-143.438720703125,-138.455947875976,292652559
sts,14.5422039031982,-1.47550427913665,-145.780563354492,-132.338577270507,292669226
sts,18.5485668182373,1.19660651683807,-218.886444091796,-133.050384521484,292685893
sts,24.8341102600097,3.91763997077941,-347.478210449218,-135.143600463867,292702560
sts,30.3332080841064,6.4977536201477,-313.731506347656,-127.367073059082,292719227
sts,33.3092651367187,8.85337543487548,-170.287704467773,-116.425384521484,292735894
sts,34.7652626037597,10.7878885269165,-81.7661361694336,-99.5070495605468,292752561
sts,35.3918571472168,14.5502805709838,-37.9651374816894,-226.068740844726,292769228
sts,35.6086921691894,16.9447574615478,-17.3178672790527,-161.603866577148,292785895
sts,35.4622001647949,17.3473720550537,3.87133002281188,-41.4844055175781,292802562
sts,35.0411415100097,15.7027177810668,19.7627353668212,91.7458343505859,292819229
sts,34.4008026123046,12.0308923721313,32.1131744384765,213.556900024414,292835896
sts,33.6288681030273,8.46123695373535,37.4750900268554,213.78286743164,292852563
sts,32.5399360656738,7.31844282150268,53.1774406433105,45.4832229614257,292869230
sts,30.4437885284423,4.7911958694458,111.822624206542,140.952728271484,292885897
sts,26.1356143951416,2.3183000087738,246.401535034179,131.412567138671,292902564
sts,19.8995037078857,-0.657454371452331,365.564666748046,171.578887939453,292919231
sts,14.3832550048828,-3.62013983726501,334.774719238281,174.516418457031,292935898
sts,12.7971830368042,-6.44014501571655,97.4622421264648,169.820648193359,292952565
sts,10.3580617904663,-8.95491790771484,149.777191162109,150.467453002929,292969232
sts,7.99990081787109,-11.2955179214477,144.205703735351,138.197341918945,292985899
sts,5.52958965301513,-13.5843381881713,150.529891967773,133.605606079101,293002566
sts,3.11811757087707,-15.9005575180053,146.903427124023,132.951995849609,293019233
sts,0.729585528373718,-18.2103157043457,146.20018005371,128.78466796875,293035900
sts,-1.68761801719665,-20.4594764709472,148.814849853515,122.364112854003,293052567
sts,-4.22202062606811,-22.741771697998,156.645416259765,124.541519165039,293069234
sts,-6.82086086273193,-25.1233177185058,160.487411499023,131.085739135742,293085901
sts,-9.39969158172607,-27.5626316070556,158.99266052246,131.693939208984,293102568
sts,-11.9766416549682,-29.9279289245605,158.627960205078,124.376930236816,293119235
sts,-14.5409641265869,-32.2242813110351,157.501281738281,121.525131225585,293135902
sts,-17.1769123077392,-34.5611686706543,161.113571166992,126.107589721679,293152569
sts,-19.8960227966308,-36.914451599121,165.734573364257,125.786293029785,293169236
sts,-22.6394519805908,-39.1761207580566,167.132415771484,118.046287536621,293185903
sts,-25.4076557159423,-41.4160575866699,168.128128051757,116.90200805664,293202570
sts,-28.1734657287597,-43.6303787231445,167.481887817382,115.566078186035,293219237
sts,-30.9057636260986,-45.811424255371,165.854034423828,113.675338745117,293235904
sts,-33.5883407592773,-47.9387245178222,163.120956420898,109.962524414062,293252571
sts,-36.4566688537597,-50.0459289550781,174.757110595703,108.944366455078,293269238
sts,-39.3739204406738,-52.2138710021972,177.222900390625,113.370063781738,293285905
sts,-42.2109947204589,-54.4401092529296,171.651336669921,117.886276245117,293302572
sts,-45.0409698486328,-56.6290168762207,169.934280395507,116.812301635742,293319239
sts,-47.9065284729003,-58.7616004943847,170.010162353515,113.96516418457,293335906
sts,-50.633991241455,-60.8769721984863,159.887985229492,113.547912597656,293352573
sts,-53.2050094604492,-62.9107627868652,150.162155151367,109.024368286132,293369240
sts,-55.7085533142089,-64.9480819702148,147.174667358398,110.564575195312,293385907
sts,-58.2577590942382,-67.0486526489257,150.211517333984,114.829849243164,293402574
sts,-60.8556900024414,-69.0903167724609,152.500534057617,108.843467712402,293419241
sts,-63.4923667907714,-70.9356002807617,154.354339599609,96.3109512329101,293435908
sts,-66.107177734375,-72.7320022583007,154.758834838867,97.3680038452148,293452575
sts,-68.4772567749023,-74.5125427246093,141.419357299804,101.593101501464,293469242
sts,-70.6866912841796,-76.2431716918945,133.062637329101,102.392036437988,293485909
sts,-72.7097702026367,-77.9584884643554,123.173286437988,104.883697509765,293502576
sts,-74.6415710449218,-79.5750045776367,119.606437683105,100.03987121582,293519243
sts,-76.4291610717773,-81.1772842407226,112.125175476074,100.166564941406,293535910
sts,-78.1173934936523,-82.8035354614257,106.367736816406,104.711441040039,293552577
sts,-80.0439071655273,-84.3209381103515,123.399337768554,103.973686218261,293569244
sts,-82.1492767333984,-85.5233306884765,141.188430786132,97.8203964233398,293585911
sts,-84.0102157592773,-86.2276840209961,142.162979125976,102.580856323242,293602578
sts,-84.7169113159179,-86.2286224365234,80.5028610229492,115.169860839843,293619245
sts,-84.2687911987304,-85.5108337402343,-13.682237625122,103.891662597656,293635912
sts,-83.3695755004882,-84.9861679077148,-55.5375823974609,22.7456340789794,293652579
sts,-82.6772384643554,-85.1045532226562,-53.8832969665527,-50.3562202453613,293669246
sts,-82.5551834106445,-85.3763580322265,-19.1110782623291,-35.4826469421386,293685913
sts,-82.7070388793945,-85.6615371704101,4.17912101745605,-8.45015907287597,293702580
sts,-82.8202285766601,-85.6729660034179,15.9737615585327,-11.4387445449829,293719247
sts,-82.8942794799804,-85.8464965820312,19.7283401489257,-51.9040489196777,293735914
sts,-83.1129684448242,-86.1066055297851,19.504373550415,-11.9626522064208,293752581
sts,-83.3687438964843,-86.1986312866211,11.3766155242919,26.6068744659423,293769248
sts,-83.4927825927734,-85.919563293457,7.85754346847534,41.9871215820312,293785915
sts,-83.4292602539062,-85.4352874755859,0.688208520412445,45.4672660827636,293802582
sts,-83.2953338623046,-84.9966812133789,-7.24384593963623,36.2846755981445,293819249
sts,-83.2378692626953,-84.8802185058593,-4.37475204467773,8.60154819488525,293835916
sts,-83.295539855957,-85.1273803710937,5.66435813903808,-17.7194480895996,293852583
sts,-83.4571685791015,-85.5552062988281,12.5121374130249,-29.0469608306884,293869250
sts,-83.5909118652343,-86.0025253295898,6.99324798583984,-30.8015995025634,293885917
sts,-83.6999206542968,-86.3896789550781,1.80214178562164,-32.0961380004882,293902584
sts,-83.7923355102539,-86.6814651489257,-2.05301308631896,-26.2243137359619,293919251
sts,-83.868293762207,-86.8877563476562,-3.53729844093322,-12.9549598693847,293935918
sts,-83.889778137207,-87.0236282348632,-10.3856763839721,-2.87146687507629,293952585
sts,-83.8189620971679,-87.1149978637695,-20.848913192749,3.64450311660766,293969252
sts,-83.5818557739257,-87.2114028930664,-33.3746490478515,4.594491481781,293985919
sts,-83.2017364501953,-87.3780364990234,-40.5343933105468,-0.398566961288452,294002586
sts,-82.7146301269531,-87.6405868530273,-43.6749420166015,-15.3104276657104,294019253
sts,-82.2138977050781,-87.8637542724609,-36.0777778625488,-29.4624004364013,294035920
sts,-81.7683029174804,-87.8122482299804,-28.0993347167968,-41.6172561645507,294052587
sts,-81.3740692138671,-87.4081420898437,-25.7701587677001,-46.5608139038085,294069254
sts,-80.9261093139648,-86.7539367675781,-31.1055660247802,-51.1647491455078,294085921
sts,-80.301040649414,-85.8951644897461,-43.8455200195312,-56.5568962097168,294102588
sts,-79.4239120483398,-84.9370880126953,-60.8045921325683,-56.9126510620117,294119255
sts,-78.384162902832,-83.7576675415039,-70.8227462768554,-67.8576507568359,294135922
sts,-77.2356948852539,-82.2758483886718,-75.6201171875,-87.0389785766601,294152589
sts,-75.8412933349609,-80.571044921875,-91.0031051635742,-100.977722167968,294169256
sts,-74.2972640991211,-78.7221221923828,-100.225143432617,-108.51749420166,294185923
sts,-72.5909194946289,-76.8479232788086,-109.509971618652,-108.844543457031,294202590
sts,-70.4137420654296,-74.9662704467773,-139.465545654296,-107.823112487792,294219257
sts,-67.6046676635742,-73.1439743041992,-174.339599609375,-104.588264465332,294235924
sts,-64.1351089477539,-71.4268569946289,-201.63638305664,-100.431121826171,294252591
sts,-60.9978675842285,-69.7781753540039,-173.800582885742,-99.0814743041992,294269258
sts,-58.3639259338378,-68.0855560302734,-148.563522338867,-103.092956542968,294285925
sts,-55.6329917907714,-66.2854766845703,-160.333206176757,-107.355278015136,294302592
sts,-53.0949363708496,-64.4655151367187,-151.447296142578,-100.538734436035,294319259
sts,-50.5674171447753,-62.6050567626953,-154.061325073242,-86.7429885864257,294335926
sts,-48.1546783447265,-60.5124855041503,-149.363235473632,-87.82861328125,294352593
sts,-45.8679962158203,-58.2721710205078,-145.833938598632,-98.2501983642578,294369260
sts,-43.5831756591796,-55.986026763916,-147.782516479492,-110.949150085449,294385927
sts,-41.2975044250488,-53.8748931884765,-148.703308105468,-109.510162353515,294402594
sts,-38.9425354003906,-51.7450447082519,-153.620361328125,-118.043632507324,294419261
sts,-36.4952354431152,-49.4883880615234,-158.590499877929,-130.793991088867,294435928
sts,-34.1729087829589,-47.2383041381835,-149.074951171875,-129.813858032226,294452595
sts,-31.9812850952148,-45.0631103515625,-138.012649536132,-123.345458984375,294469262
sts,-29.9475116729736,-42.9296073913574,-125.367782592773,-121.983245849609,294485929
sts,-27.9108276367187,-40.8414993286132,-122.018295288085,-120.433280944824,294502596
sts,-25.841962814331,-38.8570976257324,-122.386161804199,-110.005706787109,294519263
sts,-23.7282066345214,-37.0549507141113,-126.663848876953,-92.4111328125,294535930
sts,-21.5123329162597,-35.4933967590332,-134.430358886718,-69.7023544311523,294552597
sts,-19.1909427642822,-33.9156036376953,-141.605926513671,-68.3620147705078,294569264
sts,-16.8062057495117,-32.0710220336914,-145.803146362304,-92.9955444335937,294585931
sts,-14.4499940872192,-29.8905029296875,-144.618591308593,-126.021743774414,294602598
sts,-12.243577003479,-27.4393901824951,-136.63931274414,-149.283386230468,294619265
sts,-10.1573848724365,-24.9465770721435,-129.7275390625,-152.724136352539,294635932
sts,-8.07124710083007,-22.5353527069091,-129.297058105468,-145.17495727539,294652599
sts,-5.82550764083862,-20.320234298706,-138.300979614257,-129.017517089843,294669266
sts,-3.44916820526123,-18.301061630249,-145.403045654296,-114.105148315429,294685933
sts,-1.02827739715576,-16.3728046417236,-147.800033569335,-104.934173583984,294702600
sts,1.42112171649932,-14.4114036560058,-149.434753417968,-104.142196655273,294719267
sts,3.84561252593994,-12.2652187347412,-147.843872070312,-113.330299377441,294735934
sts,6.17511892318725,-9.80746555328369,-141.511627197265,-130.797668457031,294752601
sts,8.51031398773193,-7.04660892486572,-140.038940429687,-146.323577880859,294769268
sts,11.0226764678955,-3.99208378791809,-147.233123779296,-158.282424926757,294785935
sts,13.5716638565063,-0.746328473091125,-141.001327514648,-163.35627746582,294802602
sts,19.4460544586181,2.51539063453674,-326.135162353515,-160.65803527832,294819269
sts,25.7309188842773,5.91229963302612,-357.906616210937,-170.776168823242,294835936
sts,30.1705608367919,8.89010429382324,-261.892608642578,-143.346496582031,294852603
sts,32.5304985046386,12.0340690612792,-142.192016601562,-162.369995117187,294869270
sts,33.6865806579589,16.6313591003417,-65.4766845703125,-263.156311035156,294885937
sts,34.4600715637207,22.0476284027099,-44.152545928955,-335.728973388671,294902604
sts,34.9352912902832,26.0436611175537,-29.5340824127197,-255.177474975585,294919271
sts,35.0509948730468,28.2126064300537,-12.3329992294311,-140.748260498046,294935938
sts,34.7737960815429,28.4545364379882,5.95183277130126,-19.6671066284179,294952605
sts,34.2506790161132,26.8889560699462,16.2970390319824,90.350845336914,294969272
sts,33.6121711730957,23.0034275054931,21.3866157531738,228.951721191406,294985939
sts,32.8569412231445,16.8299331665039,27.4787406921386,355.144073486328,295002606
sts,31.7841529846191,11.7397546768188,43.55224609375,323.418090820312,295019273
sts,29.8574409484863,9.22097873687744,92.2903823852539,129.97119140625,295035940
sts,26.0195579528808,6.06212997436523,211.090530395507,169.464645385742,295052607
sts,20.1919975280761,2.97345042228698,338.656951904296,159.450698852539,295069274
sts,14.1520986557006,-0.210913300514221,345.702606201171,167.095260620117,295085941
sts,12.3514919281005,-3.24514818191528,108.678932189941,160.416473388671,295102608
sts,10.0022163391113,-6.02792263031005,143.2646484375,145.775939941406,295119275
sts,7.80683803558349,-8.60142612457275,136.391998291015,131.861038208007,295135942
sts,5.45402956008911,-11.0505266189575,146.729309082031,122.516304016113,295152609
sts,3.10019850730896,-13.4356727600097,146.520065307617,118.34992980957,295169276
sts,0.791170239448547,-15.7906055450439,143.604034423828,118.485000610351,295185943
sts,-1.46881973743438,-18.0960350036621,141.431015014648,117.90234375,295202610
sts,-3.72688388824462,-20.3571338653564,141.479705810546,115.918640136718,295219277
sts,-6.08384275436401,-22.6317291259765,147.008819580078,117.185310363769,295235944
sts,-8.52362918853759,-24.9661388397216,151.61196899414,121.301979064941,295252611
sts,-10.936574935913,-27.3394775390625,150.034545898437,124.037742614746,295269278
sts,-13.3128004074096,-29.730504989624,147.477294921875,126.146392822265,295285945
sts,-15.6446914672851,-32.1078643798828,144.143234252929,126.694778442382,295302612
sts,-18.0941486358642,-34.4437294006347,149.99055480957,126.151557922363,295319279
sts,-20.6845893859863,-36.7555236816406,157.560989379882,127.057472229003,295335946
sts,-23.2976837158203,-39.0768203735351,159.06201171875,127.728378295898,295352613
sts,-25.8641014099121,-41.3624610900878,156.897171020507,123.299926757812,295369280
sts,-28.4406948089599,-43.5464630126953,157.703536987304,116.313957214355,295385947
sts,-31.0657730102539,-45.7589950561523,160.261108398437,119.005271911621,295402614
sts,-33.8387565612793,-48.0156173706054,168.243392944335,122.73705291748,295419281
sts,-36.692527770996,-50.2673530578613,171.678359985351,121.022140502929,295435948
sts,-39.6028099060058,-52.5092010498046,173.916458129882,118.942543029785,295452615
sts,-42.5554656982421,-54.788589477539,175.314346313476,121.876274108886,295469282
sts,-45.541877746582,-57.1578292846679,176.317138671875,128.558731079101,295485949
sts,-48.5134735107421,-59.48193359375,174.463439941406,125.694305419921,295502616
sts,-51.4329986572265,-61.6761016845703,170.313674926757,117.539085388183,295519283
sts,-54.3611679077148,-63.8278045654296,170.389602661132,116.454627990722,295535950
sts,-57.2120780944824,-66.0087127685546,165.562210083007,121.940299987792,295552617
sts,-60.0675735473632,-68.1802291870117,168.249618530273,124.948547363281,295569284
sts,-62.9268341064453,-70.2355117797851,173.065444946289,122.775764465332,295585951
sts,-65.6255722045898,-72.2063980102539,164.943969726562,122.97053527832,295602618
sts,-68.0364227294921,-74.2239913940429,149.975006103515,130.732559204101,295619285
sts,-70.1680297851562,-76.2023849487304,135.343978881835,129.174331665039,295635952
sts,-72.1190109252929,-78.0571365356445,122.22858428955,118.251190185546,295652619
sts,-73.8773727416992,-79.7134628295898,106.872985839843,95.2681655883789,295669286
sts,-75.7208480834961,-81.3937225341796,112.476615905761,85.8627700805664,295685953
sts,-77.6194839477539,-82.9064331054687,122.619819641113,72.7267837524414,295702620
sts,-79.3915634155273,-84.615478515625,124.108612060546,98.2269515991211,295719287
sts,-80.8164596557617,-86.5443038940429,116.945541381835,142.219039916992,295735954
sts,-81.8975601196289,-87.3020935058593,112.28588104248,158.08609008789,295752621
sts,-82.5791854858398,-86.5758285522461,98.0840682983398,85.6826629638671,295769288
sts,-83.032974243164,-85.6458053588867,77.3619079589843,44.2776565551757,295785955
sts,-83.3664398193359,-84.2844085693359,31.4319667816162,63.7183761596679,295802622
sts,-83.4084320068359,-84.6513366699218,14.5739641189575,-51.561466217041,295819289
sts,-83.3970489501953,-85.3539657592773,-6.70107698440551,-41.9657478332519,295835956
sts,-83.5817718505859,-85.0747146606445,-21.4695034027099,51.064468383789,295852623
sts,-83.7822799682617,-85.2746200561523,5.88011980056762,-12.784384727478,295869290
sts,-83.6338195800781,-85.2785186767578,36.7239913940429,6.11921548843383,295885957
sts,-83.2754135131836,-84.5717620849609,24.5330238342285,45.9976043701171,295902624
sts,-83.0681991577148,-84.0144424438476,6.17986059188842,33.5311431884765,295919291
sts,-83.1686706542968,-83.9250411987304,-5.87935924530029,7.36746025085449,295935958
sts,-83.4302139282226,-84.0210571289062,-1.60029911994934,-6.46321153640747,295952625
sts,-83.5754470825195,-83.9856262207031,2.89782428741455,4.49967384338378,295969292
sts,-83.5790481567382,-84.1852416992187,5.31169652938842,-8.75132083892822,295985959
sts,-83.4908447265625,-84.5831527709961,5.64400148391723,-23.631196975708,296002626
sts,-83.3530349731445,-84.7595520019531,2.1667046546936,-12.9369554519653,296019293
sts,-83.2495727539062,-84.627571105957,-0.00537866959348321,4.20100164413452,296035960
sts,-83.2798233032226,-84.5470962524414,-1.96978330612182,-0.0718820765614509,296052627
sts,-83.3948516845703,-84.6621932983398,-2.07606387138366,-11.782109260559,296069294
sts,-83.5074386596679,-84.8927001953125,-2.77355003356933,-15.8562107086181,296085961
sts,-83.572151184082,-85.1691665649414,-6.42435121536254,-14.7511405944824,296102628
sts,-83.5876388549804,-85.5773010253906,-8.97064304351806,-22.4980335235595,296119295
sts,-83.6244354248046,-86.0746917724609,-10.2249011993408,-32.0853843688964,296135962
sts,-83.6998291015625,-86.4945755004882,-18.5321540832519,-32.7336349487304,296152629
sts,-83.7332763671875,-86.7580413818359,-26.7495536804199,-26.1428470611572,296169296
sts,-83.6650085449218,-86.8980865478515,-30.0825061798095,-20.5623817443847,296185963
sts,-83.4954299926757,-86.9212036132812,-35.3917961120605,-15.1265401840209,296202630
sts,-83.2601776123046,-86.9159317016601,-39.1616325378418,-2.14651632308959,296219297
sts,-83.0057754516601,-87.0279006958007,-37.6369094848632,1.47213816642761,296235964
sts,-82.7383956909179,-87.3018722534179,-38.5042610168457,-10.4602937698364,296252631
sts,-82.3496322631836,-87.6075592041015,-48.5922317504882,-30.3870067596435,296269298
sts,-81.6970443725586,-87.6383514404296,-60.8631591796875,-49.9294281005859,296285965
sts,-80.8141937255859,-87.1327667236328,-69.7698974609375,-64.7132568359375,296302632
sts,-79.7153396606445,-86.2521057128906,-79.2618255615234,-66.424331665039,296319299
sts,-78.3212661743164,-85.1574172973632,-93.9902114868164,-66.7859268188476,296335966
sts,-76.6707611083984,-84.0075607299804,-107.287239074707,-63.096996307373,296352633
sts,-74.9460754394531,-82.8288192749023,-110.79507446289,-66.67529296875,296369300
sts,-73.2896499633789,-81.4850234985351,-110.013397216796,-80.2369079589843,296385967
sts,-71.6103286743164,-79.9520416259765,-111.16487121582,-92.0730743408203,296402634
sts,-70.0070343017578,-78.3697509765625,-103.809463500976,-95.3976211547851,296419301
sts,-68.48779296875,-76.4956436157226,-100.087821960449,-109.981063842773,296435968
sts,-66.9617080688476,-74.1750335693359,-104.967704772949,-131.679275512695,296452635
sts,-64.9585800170898,-71.4702377319336,-131.92039489746,-147.804077148437,296469302
sts,-62.3539924621582,-68.778076171875,-163.908370971679,-142.022552490234,296485969
sts,-59.2201805114746,-66.2176818847656,-192.044601440429,-139.856338500976,296502636
sts,-55.7203865051269,-64.1062774658203,-210.861007690429,-125.130363464355,296519303
sts,-52.2775726318359,-62.2690315246582,-206.933242797851,-113.931121826171,296535970
sts,-49.4512672424316,-60.5472526550293,-170.407028198242,-102.877861022949,296552637
sts,-46.9255714416503,-58.7264595031738,-155.018234252929,-100.337951660156,296569304
sts,-44.5545196533203,-56.6222763061523,-144.882827758789,-111.866981506347,296585971
sts,-42.2340507507324,-54.2470092773437,-140.132598876953,-126.321060180664,296602638
sts,-39.9850273132324,-51.9087219238281,-137.262817382812,-123.110198974609,296619305
sts,-37.5463027954101,-49.7349243164062,-149.819305419921,-114.143348693847,296635972
sts,-35.0722122192382,-47.7253532409668,-152.466217041015,-107.561332702636,296652639
sts,-32.5761528015136,-45.7528762817382,-153.918273925781,-107.255058288574,296669306
sts,-30.1373291015625,-43.6157722473144,-150.99055480957,-119.06672668457,296685973
sts,-27.7248878479003,-41.3672943115234,-149.57713317871,-126.406684875488,296702640
sts,-25.3302555084228,-39.0939979553222,-148.045684814453,-129.735046386718,296719307
sts,-23.0594062805175,-36.814525604248,-139.616271972656,-131.858840942382,296735974
sts,-20.9494533538818,-34.6311492919921,-128.126342773437,-123.418800354003,296752641
sts,-18.6239509582519,-32.5761604309082,-140.423278808593,-109.714889526367,296769308
sts,-15.8699445724487,-30.6686897277832,-167.169021606445,-96.4083709716796,296785975
sts,-13.0140199661254,-28.6219882965087,-174.873062133789,-108.80728149414,296802642
sts,-10.4622535705566,-26.4133586883544,-157.613479614257,-125.1890335083,296819309
sts,-8.19361209869384,-24.1231575012207,-140.289901733398,-132.648742675781,296835976
sts,-6.07965612411499,-21.6694087982177,-129.313827514648,-141.487548828125,296852643
sts,-3.84241867065429,-19.1170921325683,-134.920303344726,-143.577316284179,296869310
sts,-1.40461957454681,-16.6666278839111,-146.777618408203,-134.909042358398,296885977
sts,1.17776811122894,-14.4328813552856,-154.591491699218,-118.710548400878,296902644
sts,3.90650701522827,-12.0671834945678,-161.946472167968,-121.979080200195,296919311
sts,6.65353345870971,-9.39996337890625,-160.82925415039,-137.736236572265,296935978
sts,9.22873497009277,-6.51810312271118,-148.680404663085,-149.470596313476,296952645
sts,11.7060546875,-3.4149158000946,-139.983932495117,-162.157394409179,296969312
sts,16.6091003417968,-0.0571567453444004,-278.384674072265,-173.965377807617,296985979
sts,23.1209506988525,3.21102952957153,-381.088775634765,-169.342712402343,297002646
sts,28.411714553833,5.91497755050659,-323.346435546875,-139.188812255859,297019313
sts,31.1247768402099,8.6488676071167,-166.785064697265,-148.014068603515,297035980
sts,32.3702049255371,14.2591085433959,-72.0149917602539,-338.371429443359,297052647
sts,32.9249687194824,19.0679416656494,-29.5237998962402,-302.034454345703,297069314
sts,33.0908241271972,22.6463909149169,-12.463168144226,-228.722290039062,297085981
sts,33.0123062133789,24.424970626831,-5.12125349044799,-118.454727172851,297102648
sts,32.7100296020507,24.1386547088623,6.34778022766113,9.72819900512695,297119315
sts,32.2597274780273,21.743200302124,16.269920349121,141.988815307617,297135982
sts,31.7789211273193,16.9412155151367,19.2739734649658,286.226531982421,297152649
sts,31.2020359039306,10.5451726913452,24.662088394165,369.678680419921,297169316
sts,30.3124713897705,7.24531030654907,41.551414489746,226.340896606445,297185983
sts,28.482608795166,4.90833473205566,94.9290390014648,127.802032470703,297202650
sts,24.3062953948974,1.95309853553771,237.290969848632,163.568756103515,297219317
sts,18.080415725708,-1.13433110713958,370.643615722656,170.30532836914,297235984
sts,12.3726549148559,-4.27420473098754,339.291534423828,173.223220825195,297252651
sts,10.5317516326904,-7.20888900756835,113.086608886718,162.791549682617,297269318
sts,8.1265115737915,-9.75183296203613,149.973114013671,138.61473083496,297285985
sts,5.82945346832275,-12.0600538253784,145.270278930664,123.121185302734,297302652
sts,3.60427331924438,-14.3265933990478,141.325378417968,118.060516357421,297319319
sts,1.45616519451141,-16.643850326538,136.217834472656,121.057838439941,297335986
sts,-0.742958784103393,-18.9583930969238,138.984741210937,121.728851318359,297352653
sts,-3.08541750907897,-21.2049484252929,147.217559814453,116.881637573242,297369320
sts,-5.50725555419921,-23.4163475036621,152.208419799804,113.916549682617,297385987
sts,-7.92733526229858,-25.6328983306884,152.643310546875,114.159126281738,297402654
sts,-10.2996797561645,-27.8517780303955,150.488403320312,113.491928100585,297419321
sts,-12.6506786346435,-30.083152770996,149.486541748046,111.642921447753,297435988
sts,-15.0412588119506,-32.3426818847656,151.366607666015,111.354110717773,297452655
sts,-17.459243774414,-34.6933670043945,152.483703613281,119.63410949707,297469322
sts,-19.9067935943603,-37.0775108337402,153.727279663085,127.020179748535,297485989
sts,-22.4287433624267,-39.3862419128418,157.309906005859,125.739524841308,297502656
sts,-25.0179023742675,-41.634895324707,160.325439453125,120.863449096679,297519323
sts,-27.6675186157226,-43.8720664978027,163.667739868164,118.038528442382,297535990
sts,-30.3438091278076,-46.1253547668457,165.043395996093,118.047157287597,297552657
sts,-33.0882606506347,-48.3901672363281,168.718841552734,119.219680786132,297569324
sts,-35.9272003173828,-50.6004791259765,173.675659179687,117.608963012695,297585991
sts,-38.8352470397949,-52.8175506591796,176.534942626953,119.790481567382,297602658
sts,-41.7831764221191,-55.1322631835937,177.660385131835,126.898567199707,297619325
sts,-44.7266693115234,-57.5805587768554,175.492843627929,136.8798828125,297635992
sts,-47.5743713378906,-60.1891288757324,168.144180297851,147.68472290039,297652659
sts,-50.360912322998,-62.7703742980957,164.25389099121,145.163742065429,297669326
sts,-53.0707283020019,-65.1008834838867,159.928314208984,128.201538085937,297685993
sts,-55.730541229248,-67.1767349243164,157.355804443359,113.210227966308,297702660
sts,-58.3926048278808,-69.1203002929687,158.734252929687,107.531753540039,297719327
sts,-60.9452667236328,-71.0490264892578,153.221435546875,109.114295959472,297735994
sts,-63.3139953613281,-73.0017623901367,141.762390136718,111.239151000976,297752661
sts,-65.7043914794921,-74.8797378540039,144.50341796875,108.727508544921,297769328
sts,-67.9859924316406,-76.7261276245117,141.611679077148,110.323356628417,297785995
sts,-70.2480239868164,-78.5900802612304,146.058532714843,113.18399810791,297802662
sts,-72.6018142700195,-80.5345306396484,151.803756713867,121.303344726562,297819329
sts,-74.9221649169921,-82.4933700561523,147.737243652343,131.666152954101,297835996
sts,-77.2740936279296,-84.3413314819336,155.324676513671,137.034744262695,297852663
sts,-79.7689743041992,-85.946533203125,177.94660949707,140.394241333007,297869330
sts,-81.9582443237304,-86.6915130615234,185.370529174804,134.560440063476,297885997
sts,-83.034439086914,-85.8619003295898,144.392044067382,141.898605346679,297902664
sts,-83.0654296875,-83.7042465209961,47.1806182861328,140.800552368164,297919331
sts,-82.782974243164,-82.6246719360351,-28.0434379577636,33.0423355102539,297935998
sts,-82.5595932006836,-83.2792053222656,-46.6574668884277,-71.3464202880859,297952665
sts,-82.5864105224609,-83.7275848388671,-17.9043636322021,-24.6937980651855,297969332
sts,-82.8282165527343,-84.4109268188476,-4.85321712493896,-27.1466426849365,297985999
sts,-83.1155319213867,-85.6193008422851,11.4745502471923,-90.6859054565429,298002666
sts,-83.279182434082,-86.0875854492187,41.489387512207,-45.526439666748,298019333
sts,-83.2687454223632,-85.4080810546875,45.3178024291992,67.0132904052734,298036000
sts,-83.1899490356445,-84.6747970581054,27.3529605865478,48.5283050537109,298052667
sts,-83.1040344238281,-84.2655715942382,-1.72132718563079,24.2084293365478,298069334
sts,-83.0573959350586,-83.6745452880859,-22.6231079101562,43.4703178405761,298086001
sts,-83.0757293701171,-83.4691925048828,-19.4877605438232,12.1269960403442,298102668
sts,-83.1427917480468,-83.7409515380859,-1.95042049884796,-19.8275623321533,298119335
sts,-83.1795043945312,-84.1892471313476,9.37520885467529,-29.1892776489257,298136002
sts,-83.1481399536132,-84.6469421386718,12.0776615142822,-32.0085945129394,298152669
sts,-83.1225128173828,-84.9684982299804,11.0544710159301,-26.19820022583,298169336
sts,-83.1102905273437,-85.0452804565429,-0.438477575778961,-9.23466205596923,298186003
sts,-83.1076736450195,-84.9409255981445,-11.3203144073486,4.86201429367065,298202670
sts,-83.0616073608398,-84.8365478515625,-13.2588424682617,5.93625259399414,298219337
sts,-82.9950332641601,-84.775650024414,-6.93975019454956,4.15363645553588,298236004
sts,-82.9681549072265,-84.7325134277343,-1.36935746669769,7.01018190383911,298252671
sts,-82.9790115356445,-84.8971557617187,-0.42830866575241,-6.55306196212768,298269338
sts,-83.0058288574218,-85.2701416015625,-1.50447905063629,-22.5144138336181,298286005
sts,-83.0411376953125,-85.6888885498046,-3.49054217338562,-28.1923103332519,298302672
sts,-83.1051635742187,-86.053352355957,-6.63094091415405,-25.1129283905029,298319339
sts,-83.212158203125,-86.3335037231445,-16.3888092041015,-16.4900512695312,298336006
sts,-83.286392211914,-86.5462265014648,-31.2501163482666,-9.1652545928955,298352673
sts,-83.2466964721679,-86.7320556640625,-41.4055519104003,-5.900230884552,298369340
sts,-83.061782836914,-86.9274444580078,-47.6881370544433,-6.9955186843872,298386007
sts,-82.7051544189453,-87.1835327148437,-51.7654609680175,-18.8195819854736,298402674
sts,-82.2154769897461,-87.467658996582,-51.1911735534668,-33.276195526123,298419341
sts,-81.6147308349609,-87.6231536865234,-52.7938537597656,-39.7313728332519,298436008
sts,-80.9143142700195,-87.545051574707,-53.5153617858886,-40.3273162841796,298452675
sts,-80.0832290649414,-87.2239990234375,-60.6725158691406,-41.985595703125,298469342
sts,-79.1460342407226,-86.5979766845703,-70.0413208007812,-52.8401298522949,298486009
sts,-78.1927795410156,-85.5437698364257,-68.4625625610351,-70.7981033325195,298502676
sts,-77.1136703491211,-84.1251068115234,-71.7486190795898,-83.2611694335937,298519343
sts,-75.8649291992187,-82.7245483398437,-79.2524032592773,-78.7741470336914,298536010
sts,-74.2473373413086,-81.3000869750976,-104.354057312011,-84.1376190185546,298552677
sts,-72.3134994506836,-79.7783432006836,-127.415557861328,-93.5848007202148,298569344
sts,-70.3861770629882,-78.1354217529296,-128.460647583007,-100.410171508789,298586011
sts,-68.5033721923828,-76.3655319213867,-127.180229187011,-106.233970642089,298602678
sts,-66.5648803710937,-74.5039367675781,-129.439361572265,-106.96427154541,298619345
sts,-64.6894836425781,-72.5892868041992,-124.475646972656,-102.92073059082,298636012
sts,-62.669921875,-70.5899658203125,-130.502655029296,-102.617050170898,298652679
sts,-60.31591796875,-68.606460571289,-141.944458007812,-98.9266586303711,298669346
sts,-57.6109580993652,-66.6906509399414,-154.688583374023,-92.8270492553711,298686013
sts,-54.6696434020996,-64.7415084838867,-166.95068359375,-95.1289596557617,298702680
sts,-51.937644958496,-62.7250900268554,-159.287796020507,-109.587425231933,298719347
sts,-49.6117095947265,-60.5860481262207,-141.63247680664,-129.61326599121,298736014
sts,-47.5118675231933,-58.401798248291,-132.028656005859,-135.700744628906,298752681
sts,-45.3619651794433,-56.3330192565918,-135.698944091796,-124.197853088378,298769348
sts,-42.9534301757812,-54.3413734436035,-152.631225585937,-114.641815185546,298786015
sts,-40.2231521606445,-52.2482986450195,-172.595947265625,-115.65379333496,298802682
sts,-37.4947776794433,-50.1103363037109,-172.000396728515,-111.374633789062,298819349
sts,-35.1008262634277,-48.0336303710937,-150.50276184082,-101.004295349121,298836016
sts,-32.9340782165527,-46.0016174316406,-133.748992919921,-97.0871353149414,298852683
sts,-30.7931022644042,-44.0513916015625,-130.172912597656,-94.6895751953125,298869350
sts,-28.5703392028808,-42.0265808105468,-135.365951538085,-102.543838500976,298886017
sts,-26.1422824859619,-39.7186012268066,-147.938598632812,-124.530044555664,298902684
sts,-23.4330730438232,-37.0983810424804,-164.033111572265,-151.449584960937,298919351
sts,-20.619550704956,-34.3719596862793,-170.64778137207,-161.841445922851,298936018
sts,-17.8124465942382,-31.8979129791259,-171.990036010742,-143.107284545898,298952685
sts,-15.296495437622,-29.7981376647949,-156.839569091796,-116.656051635742,298969352
sts,-13.1230287551879,-27.8628997802734,-137.423080444335,-108.307792663574,298986019
sts,-10.9374170303344,-25.8565979003906,-137.503173828125,-117.600692749023,299002686
sts,-8.652512550354,-23.7688694000244,-141.033828735351,-125.177795410156,299019353
sts,-6.19509601593017,-21.5870323181152,-149.116958618164,-127.211196899414,299036020
sts,-3.6300504207611,-19.24951171875,-154.764251708984,-132.396759033203,299052687
sts,-0.97847294807434,-16.7095508575439,-160.286392211914,-143.950042724609,299069354
sts,1.67273426055908,-13.9927558898925,-159.502822875976,-154.040176391601,299086021
sts,4.33884859085083,-11.231294631958,-159.46011352539,-150.268035888671,299102688
sts,7.07307004928588,-8.42590618133545,-162.307327270507,-145.842300415039,299119355
sts,9.91093826293945,-5.48619651794433,-165.797378540039,-150.423995971679,299136022
sts,12.7524509429931,-2.31946206092834,-161.996932983398,-163.250076293945,299152689
sts,16.3988304138183,1.02947926521301,-206.681640625,-172.744735717773,299169356
sts,23.4877433776855,4.47740411758422,-416.712646484375,-178.768203735351,299186023
sts,29.6600971221923,7.51637411117553,-368.763732910156,-154.381790161132,299202690
sts,32.7491645812988,10.3368339538574,-178.423309326171,-145.454162597656,299219357
sts,34.1218566894531,14.0649938583374,-77.1394729614257,-206.140594482421,299236024
sts,34.604019165039,18.7859439849853,-28.1816425323486,-284.342376708984,299252691
sts,34.5297622680664,21.8695583343505,3.04083132743835,-197.645751953125,299269358
sts,34.1853332519531,22.9247779846191,15.6869831085205,-71.8208084106445,299286025
sts,33.6214904785156,21.7489643096923,25.1886100769042,74.2801361083984,299302692
sts,32.8544692993164,18.3494186401367,34.8901443481445,215.193862915039,299319359
sts,31.9582748413085,13.0607299804687,40.0909004211425,321.658020019531,299336026
sts,30.9513092041015,9.3774185180664,43.3156433105468,233.833770751953,299352693
sts,29.7335205078125,7.69775390625,50.7104530334472,80.5296325683593,299369360
sts,27.7454490661621,4.92086172103881,93.8628540039062,152.131271362304,299386027
sts,23.6536846160888,2.00366783142089,221.878921508789,158.772537231445,299402694
sts,17.4418449401855,-1.05909132957458,358.083312988281,170.244003295898,299419361
sts,11.1119718551635,-4.00201416015625,367.393920898437,163.119583129882,299436028
sts,9.23776817321777,-6.72624349594116,117.155448913574,149.952926635742,299452695
sts,6.8313021659851,-9.24415016174316,145.999710083007,139.155395507812,299469362
sts,4.69556331634521,-11.5701713562011,132.138870239257,127.874122619628,299486029
sts,2.45206546783447,-13.744607925415,139.537475585937,116.316253662109,299502696
sts,0.160790547728538,-15.8830413818359,141.927505493164,110.651672363281,299519363
sts,-2.10113263130188,-18.1179122924804,140.230880737304,113.26316833496,299536030
sts,-4.36266136169433,-20.44677734375,140.435501098632,116.683280944824,299552697
sts,-6.66861629486084,-22.8393249511718,142.929382324218,118.612892150878,299569364
sts,-9.00736808776855,-25.2177429199218,144.728439331054,116.456939697265,299586031
sts,-11.3920059204101,-27.5959892272949,147.754699707031,113.446701049804,299602698
sts,-13.7743806838989,-30.0397834777832,147.842483520507,114.925239562988,299619365
sts,-16.2021789550781,-32.5259056091308,150.313583374023,117.739501953125,299636032
sts,-18.6885890960693,-34.9932327270507,153.812545776367,118.990226745605,299652699
sts,-21.2174358367919,-37.415412902832,157.162658691406,120.332740783691,299669366
sts,-23.7462844848632,-39.7702407836914,158.071472167968,119.17495727539,299686033
sts,-26.2602195739746,-42.1340293884277,157.222274780273,121.921173095703,299702700
sts,-28.7834281921386,-44.5256843566894,156.833663940429,125.620460510253,299719367
sts,-31.4008426666259,-46.9205245971679,161.348541259765,128.003784179687,299736034
sts,-34.1285858154296,-49.2166175842285,166.803192138671,123.424240112304,299752701
sts,-36.9078788757324,-51.5119667053222,168.988632202148,124.909683227539,299769368
sts,-39.7136268615722,-53.7358093261718,170.019592285156,118.297676086425,299786035
sts,-42.5600891113281,-55.955955505371,171.972290039062,116.497291564941,299802702
sts,-45.3925857543945,-58.2479095458984,171.449508666992,122.518157958984,299819369
sts,-48.1585540771484,-60.5298118591308,166.407318115234,125.533538818359,299836036
sts,-50.8431777954101,-62.8402557373046,158.81477355957,130.511413574218,299852703
sts,-53.4311599731445,-65.1375732421875,150.053649902343,130.347076416015,299869370
sts,-56.1030578613281,-67.3178024291992,154.104064941406,122.497848510742,299886037
sts,-58.7995834350585,-69.3594207763671,155.781616210937,113.466018676757,299902704
sts,-61.4247245788574,-71.3575897216796,153.629562377929,111.484169006347,299919371
sts,-63.9152717590332,-73.374267578125,148.289733886718,113.202362060546,299936038
sts,-66.2547607421875,-75.429458618164,140.051513671875,115.263023376464,299952705
sts,-68.5212631225586,-77.3350677490234,136.698608398437,107.215560913085,299969372
sts,-70.6998214721679,-79.2860336303711,130.804122924804,115.244606018066,299986039
sts,-72.6802673339843,-80.9800109863281,117.309623718261,101.995414733886,300002706
sts,-74.4552230834961,-82.5320816040039,107.103866577148,95.9863128662109,300019373
sts,-76.1981048583984,-84.0052185058593,108.516441345214,97.6828308105468,300036040
sts,-77.9754791259765,-85.4065475463867,115.483093261718,105.772438049316,300052707
sts,-79.7128677368164,-86.5437927246093,120.647521972656,114.698356628417,300069374
sts,-81.3780059814453,-86.8352890014648,123.709411621093,120.367111206054,300086041
sts,-82.9220733642578,-86.1102752685546,126.25772857666,105.437835693359,300102708
sts,-83.9006271362304,-85.468147277832,113.307296752929,51.5276145935058,300119375
sts,-84.030647277832,-85.3900680541992,48.6065139770507,-15.9550094604492,300136042
sts,-83.7979660034179,-85.5969619750976,-23.5188236236572,-52.0247001647949,300152709
sts,-83.4530029296875,-86.0520629882812,-46.2181930541992,-63.5271949768066,300169376
sts,-83.2138442993164,-86.6594161987304,-41.6871910095214,-51.6831588745117,300186043
sts,-83.2088088989257,-87.1678009033203,-28.000597000122,-8.92086410522461,300202710
sts,-83.3297653198242,-87.3572845458984,-16.2581634521484,24.2696018218994,300219377
sts,-83.5135421752929,-87.1185989379882,5.53124284744262,27.9590549468994,300236044
sts,-83.6343460083007,-86.69482421875,28.821964263916,29.8813400268554,300252711
sts,-83.5488586425781,-86.3181533813476,40.0468444824218,24.0264167785644,300269378
sts,-83.344009399414,-86.2656631469726,30.9656219482421,-0.655596554279327,300286045
sts,-83.2008438110351,-86.5539474487304,9.21527004241943,-25.0933666229248,300302712
sts,-83.1628112792968,-86.8760147094726,-10.5539140701293,-25.888277053833,300319379
sts,-83.1681518554687,-87.1224136352539,-22.4336395263671,-17.0603485107421,300336046
sts,-83.1114807128906,-87.2886276245117,-31.9621200561523,-12.1862049102783,300352713
sts,-82.9579772949218,-87.3900070190429,-32.6007804870605,-12.7733707427978,300369380
sts,-82.7637786865234,-87.3767700195312,-26.082872390747,-13.4800405502319,300386047
sts,-82.498550415039,-87.2657012939453,-21.6337203979492,-8.20243549346923,300402714
sts,-82.2593994140625,-87.2048797607421,-13.6725444793701,-10.0667285919189,300419381
sts,-82.1073760986328,-87.1822052001953,-7.45619916915893,-20.2074756622314,300436048
sts,-81.9618301391601,-87.0466003417968,-8.61707973480224,-26.0735073089599,300452715
sts,-81.7273025512695,-86.7996749877929,-17.6451683044433,-26.4292392730712,300469382
sts,-81.3411102294921,-86.4635467529296,-29.5230827331542,-28.8834533691406,300486049
sts,-80.8590927124023,-86.0724029541015,-40.0936088562011,-32.9452209472656,300502716
sts,-80.3167953491211,-85.6731033325195,-49.4149627685546,-34.4739189147949,300519383
sts,-79.6512069702148,-85.2401275634765,-57.5231170654296,-37.2388534545898,300536050
sts,-78.837776184082,-84.6664505004882,-64.0727615356445,-44.8110580444335,300552717
sts,-77.8374633789062,-83.9125366210937,-73.7056350708007,-51.5778274536132,300569384
sts,-76.6126480102539,-83.0913009643554,-85.6929473876953,-52.8795738220214,300586051
sts,-75.2618408203125,-82.1888275146484,-90.6880493164062,-57.8003730773925,300602718
sts,-73.9443359375,-81.151382446289,-86.8886642456054,-64.5387420654296,300619385
sts,-72.5917587280273,-79.9693984985351,-91.0589370727539,-71.8746337890625,300636052
sts,-71.0931930541992,-78.5802001953125,-100.100517272949,-84.4896011352539,300652719
sts,-69.4508438110351,-76.8677215576171,-106.315368652343,-102.380096435546,300669386
sts,-67.4667434692382,-74.9556732177734,-119.383117675781,-110.81664276123,300686053
sts,-65.302131652832,-73.0282516479492,-126.161148071289,-107.260841369628,300702720
sts,-63.0472793579101,-70.9975433349609,-135.127487182617,-110.408302307128,300719387
sts,-60.4624557495117,-68.9849090576171,-157.823425292968,-109.617027282714,300736054
sts,-57.6368713378906,-67.0061340332031,-170.006149291992,-112.117477416992,300752721
sts,-54.8818359375,-65.0195236206054,-164.493270874023,-114.391281127929,300769388
sts,-52.1852874755859,-63.0905799865722,-161.73989868164,-108.238647460937,300786055
sts,-49.4641227722168,-61.2156867980957,-164.721725463867,-102.058052062988,300802722
sts,-46.7487716674804,-59.2420082092285,-163.54963684082,-105.918815612792,300819389
sts,-44.1774215698242,-57.150146484375,-156.403411865234,-108.80630493164,300836056
sts,-41.797435760498,-55.0092163085937,-148.018661499023,-108.88011932373,300852723
sts,-39.4105148315429,-52.8363914489746,-150.194061279296,-110.383750915527,300869390
sts,-37.0484924316406,-50.7113227844238,-149.468170166015,-109.287757873535,300886057
sts,-34.6941680908203,-48.5827903747558,-148.060577392578,-114.169601440429,300902724
sts,-32.4452857971191,-46.5412864685058,-140.492111206054,-111.141090393066,300919391
sts,-30.3231315612792,-44.5598678588867,-132.011627197265,-107.164993286132,300936058
sts,-28.2023258209228,-42.6637306213378,-131.328216552734,-101.419738769531,300952725
sts,-26.1729202270507,-40.7636337280273,-124.843673706054,-103.536529541015,300969392
