Label,Left_Hip_q,Right_Hip_q,Left_Hip_qd,Right_Hip_qd,SampleTimeFine
sq,-8.17123565673828,-9.36871490478516,0.0557899475097656,-10.6115341186523,114386129
sq,-8.17034301757812,-9.53849945068359,-2.61878967285156,-13.7248039245606,114402796
sq,-8.21224365234375,-9.75809631347656,-4.08315658569336,-12.5012397766113,114419463
sq,-8.27757415771484,-9.95811614990234,-5.2342414855957,-10.5137825012207,114436130
sq,-8.36132202148437,-10.1263366699219,-5.26571273803711,-8.02755355834961,114452797
sq,-8.44557342529297,-10.2547775268555,-3.6778450012207,-5.52511215209961,114469464
sq,-8.5044189453125,-10.3431793212891,-2.44045257568359,-3.7994384765625,114486131
sq,-8.54346618652344,-10.4039703369141,-1.45244598388672,-2.90775299072266,114502798
sq,-8.56670532226562,-10.4504943847656,-1.10721588134766,-2.41708755493164,114519465
sq,-8.58442077636719,-10.4891677856445,-0.790119171142578,-1.87110900878906,114536132
sq,-8.59706268310547,-10.5191055297852,-0.891208648681641,-1.23977661132812,114552799
sq,-8.61132202148437,-10.5389419555664,-1.30081176757812,-0.657081604003906,114569466
sq,-8.63213500976562,-10.5494552612305,-2.03657150268555,-0.647544860839844,114586133
sq,-8.66472015380859,-10.5598159790039,-2.4714469909668,-0.932693481445312,114602800
sq,-8.70426330566406,-10.574739074707,-2.73990631103516,-1.33419036865234,114619467
sq,-8.74810180664062,-10.5960861206055,-2.54678726196289,-1.56116485595703,114636134
sq,-8.78885040283203,-10.6210647583008,-2.01892852783203,-1.71756744384766,114652801
sq,-8.82115325927734,-10.6485458374023,-1.93405151367187,-1.35660171508789,114669468
sq,-8.85209808349609,-10.6702514648437,-1.80864334106445,-1.10483169555664,114686135
sq,-8.88103637695312,-10.6879287719727,-1.85394287109375,-0.917911529541016,114702802
sq,-8.91069946289062,-10.7026153564453,-1.85346603393555,-0.5645751953125,114719469
sq,-8.94035491943359,-10.7116485595703,-1.5101432800293,-0.272750854492187,114736136
sq,-8.96451721191406,-10.7160125732422,-1.38759613037109,-0.133991241455078,114752803
sq,-8.98671875,-10.7181564331055,-1.44481658935547,-0.306606292724609,114769470
sq,-9.00983581542969,-10.7230621337891,-1.75380706787109,-0.639915466308594,114786137
sq,-9.03789672851562,-10.73330078125,-1.72519683837891,-0.739097595214844,114802804
sq,-9.06549987792969,-10.7451263427734,-1.61218643188477,-0.398635864257812,114819471
sq,-9.09129486083984,-10.7515045166016,-1.46484375,0.0591278076171875,114836138
sq,-9.11473236083984,-10.7505584716797,-1.53732299804687,0.370025634765625,114852805
sq,-9.13932952880859,-10.7446380615234,-1.30414962768555,0.378131866455078,114869472
sq,-9.16019592285156,-10.7385879516602,-1.15966796875,0.439643859863281,114886139
sq,-9.17875061035156,-10.7315536499023,-1.34992599487305,0.181674957275391,114902806
sq,-9.20034942626953,-10.7286468505859,-1.15966796875,-0.0505447387695313,114919473
sq,-9.21890411376953,-10.7294555664062,-1.17206573486328,0.0424385070800781,114936140
sq,-9.23765716552734,-10.728776550293,-1.1906623840332,0.184059143066406,114952807
sq,-9.25670776367187,-10.7258316040039,-1.68514251708984,-0.234603881835937,114969474
sq,-9.28367004394531,-10.7295852661133,-2.41756439208984,-0.926494598388672,114986141
sq,-9.32235107421875,-10.7444091796875,-2.53772735595703,-0.769138336181641,115002808
sq,-9.36295471191406,-10.7567153930664,-2.24542617797852,-0.118255615234375,115019475
sq,-9.39888153076172,-10.7586074829102,-2.05516815185547,0.329017639160156,115036142
sq,-9.43176422119141,-10.7533432006836,-1.80673599243164,0.0867843627929687,115052809
sq,-9.46067199707031,-10.7519546508789,-1.44100189208984,0.269412994384766,115069476
sq,-9.48372802734375,-10.7476440429687,-0.755786895751953,0.759601593017578,115086143
sq,-9.49582061767578,-10.7354904174805,0.51116943359375,0.849246978759766,115102810
sq,-9.48764190673828,-10.7219024658203,1.09481811523437,0.54931640625,115119477
sq,-9.47012481689453,-10.7131134033203,1.76048278808594,0.203132629394531,115136144
sq,-9.44195709228516,-10.70986328125,1.55353546142578,-0.200748443603516,115152811
sq,-9.41710052490234,-10.7130752563477,1.35660171508789,-0.311374664306641,115169478
sq,-9.39539489746094,-10.7180572509766,1.5106201171875,-0.304222106933594,115186145
sq,-9.37122497558594,-10.7229248046875,1.29222869873047,0.0109672546386719,115202812
sq,-9.35054931640625,-10.7227493286133,0.943183898925781,0.448703765869141,115219479
sq,-9.33545837402344,-10.7155700683594,0.682830810546875,0.973701477050781,115236146
sq,-9.32453308105469,-10.6999908447266,0.529766082763672,1.35946273803711,115252813
sq,-9.31605682373047,-10.678239440918,0.399589538574219,1.60026550292969,115269480
sq,-9.30966339111328,-10.6526351928711,0.346183776855469,1.32894515991211,115286147
sq,-9.30412445068359,-10.6313720703125,0.520706176757812,1.02901458740234,115302814
sq,-9.29579315185547,-10.6149078369141,0.529766082763672,-0.925064086914062,115319481
sq,-9.28731689453125,-10.6297088623047,0.350475311279297,-2.32410430908203,115336148
sq,-9.28170928955078,-10.66689453125,-0.174999237060547,-2.90536880493164,115352815
sq,-9.28450927734375,-10.7133804321289,-1.86491012573242,-3.570556640625,115369482
sq,-9.31434783935547,-10.7705093383789,-3.71742248535156,-3.66640090942383,115386149
sq,-9.37382659912109,-10.8291717529297,-5.87940216064453,-1.30176544189453,115402816
sq,-9.46789703369141,-10.85,-8.10623168945312,1.72185897827148,115419483
sq,-9.59759674072266,-10.8224502563477,-10.1070404052734,5.48839569091797,115436150
sq,-9.75930938720703,-10.734635925293,-11.2895965576172,9.51290130615234,115452817
sq,-9.93994293212891,-10.5824295043945,-11.4841461181641,11.8908882141113,115469484
sq,-10.1236892700195,-10.3921752929687,-11.1842155456543,11.5342140197754,115486151
sq,-10.30263671875,-10.2076278686523,-10.8070373535156,13.4549140930176,115502818
sq,-10.4755493164062,-9.99234924316406,-7.81869888305664,22.3736763000488,115519485
sq,-10.6006484985352,-9.63437042236328,-0.487327575683594,37.6114845275879,115536152
sq,-10.6084457397461,-9.03258666992187,12.4912261962891,55.269718170166,115552819
sq,-10.4085861206055,-8.14827117919922,26.4348983764648,68.8529014587402,115569486
sq,-9.98562774658203,-7.04662475585937,40.9603118896484,69.7598457336426,115586153
sq,-9.33026275634766,-5.93046722412109,47.217845916748,55.753231048584,115602820
sq,-8.57477722167969,-5.03841552734375,49.4036674499512,39.5288467407227,115619487
sq,-7.78431854248047,-4.40595397949219,46.6403961181641,45.8126068115234,115636154
sq,-7.03807220458984,-3.67295227050781,32.1388244628906,37.1298789978027,115652821
sq,-6.52385101318359,-3.07887420654297,26.8425941467285,31.7802429199219,115669488
sq,-6.09436950683594,-2.57039031982422,19.7744369506836,50.023078918457,115686155
sq,-5.777978515625,-1.77002105712891,18.1818008422852,65.3433799743652,115702822
sq,-5.48706970214844,-0.724526977539062,25.3000259399414,54.3584823608398,115719489
sq,-5.08226928710937,0.145208740234375,36.2939834594727,47.9292869567871,115736156
sq,-4.50156555175781,0.912077331542969,48.2840538024902,36.6697311401367,115752823
sq,-3.72902069091797,1.49879302978516,64.3067359924316,38.477897644043,115769490
sq,-2.70011291503906,2.11443939208984,80.8000564575195,45.3076362609863,115786157
sq,-1.40731201171875,2.83936157226562,97.649097442627,36.1771583557129,115802824
sq,0.155073547363282,3.41819610595703,111.534595489502,23.0474472045898,115819491
sq,1.93962707519531,3.78695526123047,119.029521942139,31.8756103515625,115836158
sq,3.84409942626953,4.29696502685547,114.61877822876,90.855598449707,115852825
sq,5.67799987792969,5.75065460205078,110.304355621338,131.394863128662,115869492
sq,7.44286956787109,7.85297241210938,95.1590538024902,123.539924621582,115886159
sq,8.96541442871094,9.82961120605469,75.0093460083008,48.8500595092773,115902826
sq,10.1655639648438,10.6112121582031,66.0605430603027,106.070280075073,115919493
sq,11.2225326538086,12.3083366394043,69.8738098144531,103.497505187988,115936160
sq,12.3405136108398,13.9642967224121,91.808557510376,134.410858154297,115952827
sq,13.8094505310059,16.1148704528809,118.351459503174,131.994724273682,115969494
sq,15.7030738830566,18.2267860412598,125.408649444579,135.895252227783,115986161
sq,17.7096122741699,20.4011100769043,135.587930679322,148.121356964111,116002828
sq,19.8790191650391,22.7710517883301,124.719381332397,163.657665252685,116019495
sq,21.8745292663574,25.389574432373,111.693620681763,142.820358276367,116036162
sq,23.6616271972656,27.6747001647949,114.848375320435,137.385845184326,116052829
sq,25.4992012023926,29.8728736877441,126.69849395752,153.094530105591,116069496
sq,27.5263771057129,32.3223861694336,116.24026298523,158.739566802978,116086163
sq,29.3862213134766,34.8622192382812,150.45976638794,167.148113250732,116102830
sq,31.7935775756836,37.536589050293,166.625499725342,170.793533325196,116119497
sq,34.4595855712891,40.2692855834961,162.405252456665,166.549921035766,116136164
sq,37.0580696105957,42.9340843200684,187.737703323363,162.206530570984,116152831
sq,40.0618728637695,45.5293888092041,208.470344543458,195.57797908783,116169498
sq,43.3973983764648,48.6586364746094,314.020156860351,366.202473640442,116186165
sq,48.4217208862305,54.5178760528564,304.983377456665,324.981808662415,116202832
sq,53.3014549255371,59.7175849914551,281.815052032471,295.972287654877,116219499
sq,57.8104957580566,64.4531415939331,289.186954498291,280.371248722076,116236166
sq,62.4374870300293,68.9390815734863,306.708574295044,267.724670469761,116252833
sq,67.34482421875,73.2226763010025,223.065763711929,248.060829937458,116269500
sq,70.9138764381409,77.1916495800018,189.125895500183,42.1210080385208,116286167
sq,73.9398907661438,77.8655857086182,163.892395794392,25.5086272954941,116302834
sq,76.5621690988541,78.2737237453461,165.675289928913,59.9137097597122,116319501
sq,79.2129737377167,79.2323431015015,134.800866246223,109.262108802795,116336168
sq,81.3697875976563,80.9805368423462,140.009999275207,131.728768348694,116352835
sq,83.6099475860596,83.0881971359253,104.828417301178,107.889056205749,116369502
sq,85.2872022628784,84.8144220352173,103.560566902161,88.9946818351746,116386169
sq,86.944171333313,86.2383369445801,95.7502126693726,62.7323389053345,116402836
sq,88.476174736023,87.2420543670654,76.7125487327576,63.9402270317078,116419503
sq,89.7035755157471,88.2650979995728,61.8053674697876,53.7204146385193,116436170
sq,90.6924613952637,89.1246246337891,58.1017136573792,45.5191731452942,116452837
sq,91.6220888137817,89.8529314041138,45.8351373672485,33.0104231834412,116469504
sq,92.3554510116577,90.3810981750488,26.5699625015259,18.1925296783447,116486171
sq,92.7805704116821,90.6721786499023,12.8008723258972,8.73440504074097,116502838
sq,92.9853843688965,90.8119291305542,9.70304012298584,2.46793031692505,116519505
sq,93.1406330108643,90.851416015625,5.31697273254395,-8.23354721069336,116536172
sq,93.225704574585,90.7196792602539,-5.62441349029541,-25.2493023872375,116552839
sq,93.1357139587402,90.3156904220581,-22.1742391586304,-44.6912050247192,116569506
sq,92.7809261322022,89.6006311416626,-39.3901467323303,-60.9261393547058,116586173
sq,92.1506837844849,88.6258129119873,-61.1993074417114,-83.7708711624146,116602840
sq,91.1714948654175,87.2854789733887,-89.1746878623962,-109.160423278809,116619507
sq,89.7446998596191,85.5389122009277,-110.113680362701,-115.968644618988,116636174
sq,87.9828809738159,83.6834138870239,-117.386758327484,-98.33824634552,116652841
sq,86.1046928405762,82.1100019454956,-157.665640115738,-58.9064061641693,116669508
sq,83.5820425987244,81.1674994468689,-198.791235685349,-248.15146625042,116686175
sq,80.4013828277588,77.1970759868622,-245.163630694151,-216.895215213299,116702842
sq,76.4787647366524,73.7267525434494,-223.485518246889,-221.220217645168,116719509
sq,72.9029964447022,70.1872290611267,-214.058637619019,-209.143787622452,116736176
sq,69.4780582427979,66.8409284591675,-192.606031894684,-234.799504280091,116752843
sq,66.3963617324829,63.084136390686,-169.862270355225,-240.738391876221,116769510
sq,63.6785654067993,59.2323221206665,-189.718306064606,-224.35849905014,116786177
sq,60.6430725097656,55.6425861358643,-219.555854797363,-195.144534111023,116802844
sq,57.1301788330078,52.5202735900879,-140.45512676239,-152.95135974884,116819511
sq,54.8828968048096,50.0730518341064,-134.423971176147,-147.913932800293,116836178
sq,52.7321132659912,47.7064289093018,-140.529870986939,-142.924308776855,116852845
sq,50.4836353302002,45.4196399688721,-145.57147026062,-112.980723381042,116869512
sq,48.1544918060303,43.6119483947754,-143.523693084717,-120.165348052978,116886179
sq,45.8581127166748,41.6893028259277,-134.04905796051,-138.20481300354,116902846
sq,43.7133277893066,39.4780258178711,-141.746282577515,-152.217388153076,116919513
sq,41.4453872680664,37.0425476074219,-138.351440429687,-147.63641357422,116936180
sq,39.2317642211914,34.6803649902344,-135.420799255371,-130.662441253662,116952847
sq,37.0650314331055,32.5897659301758,-144.647359848022,-128.041505813599,116969514
sq,34.7506736755371,30.5411018371582,-140.576601028443,-132.078886032104,116986181
sq,32.501448059082,28.4278396606445,-140.056133270264,-136.578321456909,117002848
sq,30.2605499267578,26.242586517334,-147.387981414795,-143.039464950562,117019515
sq,27.9023422241211,23.953955078125,-143.279314041137,-164.94083404541,117036182
sq,25.6098731994629,21.3149017333984,-143.052816390992,-146.184921264649,117052849
sq,23.321028137207,18.9759429931641,-138.004779815673,-136.438131332397,117069516
sq,21.1129516601562,16.7929328918457,-140.018939971924,-136.124849319458,117086183
sq,18.8726486206055,14.6149353027344,-140.246391296387,-127.453565597534,117102850
sq,16.6287063598633,12.5756782531738,-135.64372062683,-116.755723953247,117119517
sq,14.458406829834,10.7075866699219,-145.1575756073,-117.878437042236,117136184
sq,12.1358856201172,8.82153167724609,-134.161472320557,-117.114067077637,117152851
sq,9.98930206298828,6.94770660400391,-150.1145362854,-98.7381935119629,117169518
sq,7.58746948242188,5.3678955078125,-139.559745788574,-85.4191780090332,117186185
sq,5.35451354980469,4.00118865966797,-122.003078460693,-114.930152893066,117202852
sq,3.40246429443359,2.16230621337891,-134.462833404541,-87.7895355224609,117219519
sq,1.25105895996094,0.757673645019532,-172.692775726318,-60.3828430175781,117236186
sq,-1.51202545166016,-0.208451843261718,-103.785037994385,-57.0807456970215,117252853
sq,-3.17258605957031,-1.12174377441406,-64.0215873718262,-58.6948394775391,117269520
sq,-4.19693145751953,-2.06086120605469,-41.7399406433105,-75.225830078125,117286187
sq,-4.8647705078125,-3.26447448730469,-55.4900169372559,-67.1472549438477,117302854
sq,-5.75261077880859,-4.33883056640625,-40.919303894043,-29.4837951660156,117319521
sq,-6.40731964111328,-4.8105712890625,-51.3381958007813,1.79338455200195,117336188
sq,-7.22873077392578,-4.78187713623047,-37.6672744750977,2.93159484863281,117352855
sq,-7.83140716552734,-4.73497161865234,0.692367553710937,-16.6125297546387,117369522
sq,-7.82032928466797,-5.00077209472656,23.9615440368652,-11.4398002624512,117386189
sq,-7.43694458007812,-5.18380889892578,2.17103958129883,-8.89301300048828,117402856
sq,-7.40220794677734,-5.32609710693359,-4.67538833618164,-12.2194290161133,117419523
sq,-7.47701416015625,-5.52160797119141,-21.5067863464356,-12.9361152648926,117436190
sq,-7.82112274169922,-5.72858581542969,-13.7710571289062,-8.97216796875,117452857
sq,-8.04145965576172,-5.87214050292969,-19.5446014404297,-3.77750396728516,117469524
sq,-8.35417327880859,-5.93258056640625,-14.040470123291,0.648021697998047,117486191
sq,-8.57882080078125,-5.92221221923828,-2.33364105224609,-0.761032104492187,117502858
sq,-8.61615905761719,-5.93438873291016,-1.61170959472656,-8.52203369140625,117519525
sq,-8.64194641113281,-6.07074127197266,3.509521484375,-4.71639633178711,117536192
sq,-8.58579406738281,-6.14620361328125,3.79133224487305,1.43146514892578,117552859
sq,-8.52513275146484,-6.12330017089844,4.10890579223633,2.80237197875977,117569526
sq,-8.45939025878906,-6.07846221923828,6.29568099975586,2.49624252319336,117586193
sq,-8.35865936279297,-6.03852233886719,5.16605377197266,-2.68125534057617,117602860
sq,-8.27600250244141,-6.08142242431641,9.60302352905273,-5.48601150512695,117619527
sq,-8.12235412597656,-6.16919860839844,21.3079452514648,-0.756263732910156,117636194
sq,-7.78142700195312,-6.181298828125,35.8109474182129,5.54704666137695,117652861
sq,-7.20845184326172,-6.09254608154297,49.2315292358398,7.09247589111328,117669528
sq,-6.42074737548828,-5.97906646728516,64.4288063049316,12.5751495361328,117686195
sq,-5.38988647460937,-5.77786407470703,81.9664001464844,18.0025100708008,117702862
sq,-4.07842407226562,-5.48982391357422,98.3028411865234,21.5072631835938,117719529
sq,-2.50557861328125,-5.14570770263672,114.466190338135,34.5473289489746,117736196
sq,-0.674119567871093,-4.59295043945312,133.990287780762,67.0199394226074,117752863
sq,1.46972503662109,-3.52063140869141,114.964008331299,94.5606231689453,117769530
sq,3.30914916992187,-2.00766143798828,112.173080444336,113.748550415039,117786197
sq,5.10391845703125,-0.187684631347656,129.911422729492,130.861759185791,117802864
sq,7.18250122070313,1.906103515625,143.110752105713,151.065349578857,117819531
sq,9.47227325439453,4.32314910888672,153.651237487793,160.228252410889,117836198
sq,11.9306930541992,6.88680114746094,160.0341796875,143.542766571045,117852865
sq,14.4912399291992,9.18348541259766,157.721996307373,99.8897552490234,117869532
sq,17.0147918701172,10.781721496582,174.653530120849,92.4038887023921,117886199
sq,19.8092483520508,12.2601837158203,144.350051879883,123.341321945191,117902866
sq,22.1188491821289,14.2336448669434,128.350257873535,182.391166687012,117919533
sq,24.1724533081055,17.1519035339355,159.035921096802,196.944952011108,117936200
sq,26.7170280456543,20.3030227661133,157.628774642944,166.844844818116,117952867
sq,29.2390884399414,22.9725402832031,164.10493850708,140.434980392456,117969534
sq,31.8647674560547,25.2194999694824,177.908658981323,153.208494186401,117986201
sq,34.7113059997559,27.6708358764648,179.646730422974,169.490098953247,118002868
sq,37.5856536865234,30.3826774597168,162.224054336548,162.427186965943,118019535
sq,40.1812385559082,32.9815124511719,163.627624511719,147.394657135009,118036202
sq,42.7992805480957,35.339826965332,152.540802955627,145.848751068116,118052869
sq,45.2399333953857,37.6734069824219,185.2867603302,140.210628509521,118069536
sq,48.2045215606689,39.9167770385742,147.706031799317,149.242639541626,118086203
sq,50.567818069458,42.3046592712402,133.2688331604,161.553263664245,118102870
sq,52.7001194000244,44.8895114898682,124.476313591004,236.443400382996,118119537
sq,54.6917404174805,48.6726058959961,205.699682235718,367.281079292297,118136204
sq,57.982935333252,54.5491031646729,300.681948661804,339.886367321014,118152871
sq,62.7938465118408,59.9872850418091,248.477160930634,288.03312778473,118169538
sq,66.769481086731,64.5958150863648,227.119147777557,203.355848789215,118186205
sq,70.4033874511719,67.8495086669922,170.745119452477,174.680382013321,118202872
sq,73.1353093624115,70.6443947792053,148.364864289761,207.427997142076,118219539
sq,75.5091471910477,73.9632427334786,166.168354451656,37.1685400605202,118236206
sq,78.1678408622742,74.5579393744469,140.298828482628,61.5461766719818,118252873
sq,80.4126221179962,75.5426782011986,115.525111556053,103.122774511576,118269540
sq,82.2610239028931,77.1926425933838,106.046259403229,146.99324965477,118286207
sq,83.9577640533447,79.5445345878601,99.6134281158447,79.4268548488617,118302874
sq,85.5515789031982,80.8153642654419,99.8496413230896,66.9162273406982,118319541
sq,87.1491731643677,81.8860239028931,95.0474739074707,68.8877105712891,118336208
sq,88.6699327468872,82.9882272720337,62.3733401298523,55.4012656211853,118352875
sq,89.6679061889648,83.8746475219727,46.7577576637268,39.5583510398865,118369542
sq,90.4160303115845,84.5075811386108,39.6600365638733,29.7637581825256,118386209
sq,91.0505908966065,84.9838012695313,28.3915400505066,21.9178199768066,118402876
sq,91.5048555374146,85.3344863891602,16.5696144104004,10.6850266456604,118419543
sq,91.769969367981,85.5054468154907,6.82717561721802,-5.81806898117065,118436210
sq,91.8792041778565,85.412357711792,0.58215856552124,-12.862503528595,118452877
sq,91.8885187149048,85.2065576553345,-5.8930516242981,-17.4265503883362,118469544
sq,91.794229888916,84.9277328491211,-21.7579007148743,-30.2888751029968,118486211
sq,91.446103477478,84.4431108474732,-37.7603769302368,-47.6429462432861,118502878
sq,90.8419374465942,83.6808237075806,-67.4520134925842,-58.1808984279633,118519545
sq,89.7627052307129,82.7499293327332,-92.8040742874146,-71.2052285671234,118536212
sq,88.2778400421143,81.6106456756592,-130.133748054504,-108.72009396553,118552879
sq,86.1957000732422,79.8711241722107,-143.599629402161,-105.552271008492,118569546
sq,83.8981060028076,78.1822878360748,-166.035622358322,-90.9499675035477,118586213
sq,81.2415360450745,76.7270883560181,-161.391176283359,-201.924003660679,118602880
sq,78.6592772245407,73.4963042974472,-183.018185198307,-215.657226741314,118619547
sq,75.7309862613678,70.0457886695862,-178.040012717247,-215.6021296978,118636214
sq,72.8823460578919,66.5961545944214,-180.238664150238,-217.288970947266,118652881
sq,69.998527431488,63.1195310592651,-193.848758935928,-227.812707424164,118669548
sq,66.8969472885132,59.4745277404785,-221.451580524445,-246.579647064209,118686215
sq,63.3537220001221,55.5292533874512,-213.084816932678,-258.913278579712,118702882
sq,59.9443649291992,51.3866409301758,-129.731774330139,-260.238170623779,118719549
sq,57.868656539917,47.2228302001953,-147.128701210022,-179.210901260376,118736216
sq,55.5145973205566,44.3554557800293,-140.309810638428,-156.655788421631,118752883
sq,53.2696403503418,41.8489631652832,-137.951493263245,-134.03034210205,118769550
sq,51.0624164581299,39.7044776916504,-145.482659339905,-139.41502571106,118786217
sq,48.7346939086914,37.4738372802734,-159.477591514587,-144.948720932007,118802884
sq,46.183052444458,35.1546577453613,-143.909573554993,-152.798652648926,118819551
sq,43.8804992675781,32.7098793029785,-132.657051086426,-155.821800231934,118836218
sq,41.7579864501953,30.2167304992676,-150.610446929931,-146.469116210937,118852885
sq,39.3482192993164,27.8732246398926,-153.577566146851,-133.6829662323,118869552
sq,36.8909782409668,25.7342971801758,-147.377729415894,-135.487079620361,118886219
sq,34.5329345703125,23.56650390625,-156.818151473999,-139.059543609619,118902886
sq,32.0238441467285,21.3415512084961,-146.314382553101,-147.482156753541,118919553
sq,29.6828140258789,18.9818367004394,-145.23720741272,-133.036375045776,118936220
sq,27.3590187072754,16.853254699707,-145.785570144653,-121.176481246948,118952887
sq,25.0264495849609,14.9144309997559,-140.190839767456,-110.555171966553,118969554
sq,22.7833961486816,13.145548248291,-137.39538192749,-107.82527923584,118986221
sq,20.5850700378418,11.4203437805176,-134.919881820679,-113.196611404419,119002888
sq,18.4263519287109,9.60919799804688,-135.461807250977,-104.668140411377,119019555
sq,16.2589630126953,7.93450775146484,-132.068634033203,-89.785099029541,119036222
sq,14.1458648681641,6.49794616699219,-170.537948608398,-98.0648994445801,119052889
sq,11.4172576904297,4.92890777587891,-155.676364898682,-91.5665626525879,119069556
sq,8.92643585205078,3.4638427734375,-134.156703948975,-112.466335296631,119086223
sq,6.77992858886719,1.66438140869141,-140.20824432373,-94.5968627929687,119102890
sq,4.5365966796875,0.150831604003907,-130.167484283447,-70.2619552612305,119119557
sq,2.45391693115234,-0.973359680175781,-100.692749023437,-67.2574043273926,119136224
sq,0.842832946777344,-2.04947814941406,-135.823726654053,-48.8815307617188,119152891
sq,-1.3303466796875,-2.83158264160156,-102.50186920166,-50.5914688110352,119169558
sq,-2.97037658691406,-3.64104614257812,-115.657806396484,-51.7983436584473,119186225
sq,-4.82090148925781,-4.46981964111328,-114.809036254883,-32.8154563903809,119202892
sq,-6.65784606933594,-4.99486694335937,-98.4525680541992,-15.1138305664062,119219559
sq,-8.23308715820312,-5.23668823242187,-58.6166381835938,-1.94358825683594,119236226
sq,-9.17095336914062,-5.26778564453125,-26.188850402832,-4.44936752319336,119252893
sq,-9.58997497558594,-5.33897552490234,-3.8151741027832,-3.23152542114258,119269560
sq,-9.65101776123047,-5.39067993164062,7.88450241088867,0.818729400634766,119286227
sq,-9.52486572265625,-5.37758026123047,15.6159400939941,-1.15299224853516,119302894
sq,-9.27501068115234,-5.39602813720703,13.9384269714356,-3.6320686340332,119319561
sq,-9.05199584960937,-5.45414123535156,19.1864967346191,-0.650882720947266,119336228
sq,-8.74501190185547,-5.46455535888672,32.4792861938477,8.00275802612305,119352895
sq,-8.22534332275391,-5.33651123046875,57.0411682128906,14.894962310791,119369562
sq,-7.31268463134766,-5.09819183349609,70.286750793457,23.2744216918945,119386229
sq,-6.18809661865234,-4.72580108642578,73.540210723877,29.0474891662598,119402896
sq,-5.01145324707031,-4.26104125976562,74.0270614624023,29.2429924011231,119419563
sq,-3.82702026367187,-3.79315338134766,67.7824020385742,26.7882347106934,119436230
sq,-2.74250183105469,-3.36454162597656,75.1132965087891,21.0542678833008,119452897
sq,-1.54068908691406,-3.02767333984375,81.6588401794434,29.8886299133301,119469564
sq,-0.234147644042968,-2.54945526123047,67.1076774597168,44.9347496032715,119486231
sq,0.8395751953125,-1.83049926757813,61.8801116943359,58.1874847412109,119502898
sq,1.82965698242187,-0.89949951171875,58.772087097168,51.4063835144043,119519565
sq,2.77001037597656,-0.0769973754882809,54.1896820068359,49.649715423584,119536232
sq,3.63704528808594,0.717398071289063,66.6327476501465,62.9925727844238,119552899
sq,4.70316925048828,1.72527923583984,82.3373794555664,63.2500648498535,119569566
sq,6.02056732177734,2.7372802734375,92.5164222717285,44.8050498962402,119586233
sq,7.500830078125,3.45416107177734,87.7199172973633,33.3108901977539,119602900
sq,8.90434875488281,3.98713531494141,82.2291374206543,45.9771156311035,119619567
sq,10.2200149536133,4.72276916503906,99.8601913452148,67.4819946289062,119636234
sq,11.8177780151367,5.80248107910156,131.09540939331,86.4830017089844,119652901
sq,13.9153045654297,7.18620910644531,121.413946151733,104.127407073975,119669568
sq,15.8579277038574,8.85224761962891,128.814458847046,117.202281951904,119686235
sq,17.9189590454102,10.7274841308594,138.018131256103,135.78200340271,119702902
sq,20.1272491455078,12.8999961853027,118.870973587037,139.597177505493,119719569
sq,22.0291847229004,15.1335510253906,150.07472038269,138.452053070068,119736236
sq,24.4303802490234,17.3487838745117,178.619623184204,145.26343345642,119752903
sq,27.2882942199707,19.6729988098144,179.553508758544,168.275117874146,119769570
sq,30.1611503601074,22.3654006958008,161.558151245118,169.944286346435,119786237
sq,32.7460807800293,25.0845092773437,169.787168502808,158.799886703491,119802904
sq,35.4626754760742,27.6253074645996,167.656421661377,162.447690963745,119819571
sq,38.1451782226562,30.2244705200195,171.644449234009,151.38554573059,119836238
sq,40.8914894104004,32.646639251709,179.169416427612,168.08271408081,119852905
sq,43.7582000732422,35.3359626770019,161.562323570251,157.257556915284,119869572
sq,46.3431972503662,37.8520835876465,174.840092658997,138.235092163086,119886239
sq,49.1406387329101,40.0638450622559,175.273537635803,145.136594772339,119902906
sq,51.945015335083,42.3860305786133,149.6821641922,146.717309951782,119919573
sq,54.3399299621582,44.7335075378418,129.551291465759,138.283252716065,119936240
sq,56.4127506256104,46.9460395812988,202.407717704773,324.698328971863,119952907
sq,59.6512741088867,52.1412128448486,313.375234603882,359.38811302185,119969574
sq,64.6652778625488,57.8914226531982,221.296429634094,382.341384887696,119986241
sq,68.2060207366943,64.0088848114014,273.662954568863,299.487292766571,120002908
sq,72.5846280097961,68.8006814956665,268.425387330353,194.766223430633,120019575
sq,76.8794342070818,71.9169410705566,180.559235624969,21.2468653917313,120036242
sq,79.7683819770813,72.2568909168243,108.971983194351,77.6639059185982,120052909
sq,81.5119337081909,73.4995134115219,89.053750038147,111.846314743161,120069576
sq,82.9367937088013,75.2890544474125,101.036638021469,122.728755697608,120086243
sq,84.5533799171448,77.2527145385742,81.1091959476471,81.5674811601639,120102910
sq,85.8511270523071,78.5577942371368,59.3113899230957,65.1548951864243,120119577
sq,86.8001092910767,79.6002725601196,36.8148684501648,52.4141490459442,120136244
sq,87.3891471862793,80.4388989448547,39.1872525215149,39.1674935817719,120152911
sq,88.0161432266235,81.0655788421631,24.0595936775207,33.0659747123718,120169578
sq,88.4010967254639,81.594634437561,13.4392380714417,2.24959850311279,120186245
sq,88.6161245346069,81.6306280136108,11.0610723495483,-10.5879306793213,120202912
sq,88.7931016921997,81.4612211227417,7.85183906555176,-10.50665974617,120219579
sq,88.9187311172485,81.293114566803,0.135362148284912,-11.7081999778748,120236246
sq,88.9208969116211,81.105783367157,-9.052574634552,-21.3050246238708,120252913
sq,88.7760557174683,80.7649029731751,-19.45960521698,-41.9155657291412,120269580
sq,88.4647020339966,80.0942539215088,-41.3147807121277,-69.5838928222656,120286247
sq,87.8036655426025,78.9809116363525,-73.9671587944031,-105.213269591331,120302914
sq,86.6201910018921,77.2974993228912,-96.0487723350525,-139.326218515635,120319581
sq,85.0834106445313,75.0682798266411,-116.948336362839,-140.421580523252,120336248
sq,83.2122372627258,72.821534538269,-138.767659664154,-80.9604078531265,120352915
sq,80.9919547080994,71.526168012619,-177.840501070023,-13.3093744516373,120369582
sq,78.146506690979,71.3132180213928,-233.226671814918,-102.947413921356,120386249
sq,74.4148799419403,69.6660593986511,-224.616631865501,-244.359523057938,120402916
sq,70.8210138320923,65.7563070297241,-193.036556243897,-492.938697338105,120419583
sq,67.7324289321899,57.8692878723145,-220.564365386963,-326.736569404602,120436250
sq,64.2033990859985,52.6415027618408,-223.236739635468,-335.78622341156,120452917
sq,60.6316112518311,47.2689231872559,-182.136654853821,-273.423075675964,120469584
sq,57.7174247741699,42.8941539764404,-144.637584686279,-137.854218482971,120486251
sq,55.4032234191895,40.6884864807129,-137.637495994568,-126.099824905396,120502918
sq,53.2010234832764,38.6708892822265,-153.923869132996,-131.752252578735,120519585
sq,50.7382415771484,36.5628532409668,-185.284614562988,-155.879020690918,120536252
sq,47.7736877441406,34.0687889099121,-150.83646774292,-163.948059082031,120552919
sq,45.3603042602539,31.4456199645996,-151.488065719604,-160.614013671875,120569586
sq,42.9364952087402,28.8757957458496,-166.107892990112,-148.125171661377,120586253
sq,40.2787689208984,26.5057929992676,-171.987295150757,-141.561508178711,120602920
sq,37.5269721984863,24.2408088684082,-164.166450500488,-152.377843856811,120619587
sq,34.9003089904785,21.8027633666992,-170.923233032227,-135.156154632568,120636254
sq,32.1655372619629,19.6402648925781,-148.408889770508,-135.797262191773,120652921
sq,29.7909950256348,17.4675086975098,-152.132272720337,-151.902675628662,120669588
sq,27.3568786621094,15.0370658874512,-145.390033721923,-153.984785079956,120686255
sq,25.0306381225586,12.5733093261719,-152.270793914795,-130.039691925049,120702922
sq,22.5943054199219,10.4926742553711,-144.927024841309,-103.218078613281,120719589
sq,20.2754730224609,8.84118499755859,-136.646270751953,-101.885795593262,120736256
sq,18.0891326904297,7.21101226806641,-146.65412902832,-107.107162475586,120752923
sq,15.7426666259766,5.49729766845703,-156.376123428345,-112.345218658447,120769590
sq,13.2406486511231,3.69977416992187,-167.719125747681,-115.250110626221,120786257
sq,10.5571426391602,1.85577239990234,-171.710968017578,-84.2738151550293,120802924
sq,7.80976715087891,0.507391357421875,-183.67862701416,-74.1987228393555,120819591
sq,4.87090911865234,-0.679788208007812,-136.454105377197,-119.888782501221,120836258
sq,2.68764343261719,-2.59800872802734,-129.168510437012,-50.9495735168457,120852925
sq,0.620947265625,-3.41320190429687,-116.207599639893,-61.7480278015137,120869592
sq,-1.23837432861328,-4.40117034912109,-118.752002716064,-59.4897270202637,120886259
sq,-3.13840637207031,-5.35300598144531,-108.368873596191,-45.384407043457,120902926
sq,-4.87230834960937,-6.07915649414062,-131.945610046387,-23.0526924133301,120919593
sq,-6.98343811035156,-6.44799957275391,-105.425357818604,-16.0222053527832,120936260
sq,-8.67024383544922,-6.70435485839844,-73.8253593444824,-6.49070739746094,120952927
sq,-9.85144958496094,-6.80820617675781,-36.4513397216797,3.41367721557617,120969594
sq,-10.4346710205078,-6.75358734130859,7.93266296386719,3.81374359130859,120986261
sq,-10.3077484130859,-6.69256744384766,27.7371406555176,-4.48799133300781,121002928
sq,-9.86395416259766,-6.76437530517578,36.3602638244629,-8.82244110107422,121019595
sq,-9.28218994140625,-6.90553436279297,46.9512939453125,-9.96017456054687,121036262
sq,-8.53096923828125,-7.06489715576172,53.2722473144531,-7.87639617919922,121052929
sq,-7.67861328125,-7.19091949462891,55.0427436828613,3.25822830200195,121069596
sq,-6.79792938232422,-7.13878784179687,60.7953071594238,16.4027214050293,121086263
sq,-5.82520446777344,-6.87634429931641,64.8517608642578,25.9561538696289,121102930
sq,-4.78757629394531,-6.46104583740234,58.7477684020996,23.5128402709961,121119597
sq,-3.84761199951172,-6.08484039306641,37.3148918151855,5.49221038818359,121136264
sq,-3.25057373046875,-5.99696502685547,25.5050659179688,-4.55141067504883,121152931
sq,-2.84249267578125,-6.06978759765625,20.296573638916,3.23343276977539,121169598
sq,-2.51774749755859,-6.01805267333984,26.0071754455566,14.9168968200684,121186265
sq,-2.10163269042969,-5.77938232421875,42.8295135498047,10.983943939209,121202932
sq,-1.41636047363281,-5.60363922119141,65.8330917358398,11.1885070800781,121219599
sq,-0.363031005859375,-5.42462310791016,87.3026847839355,27.6927947998047,121236266
sq,1.03381195068359,-4.98153839111328,84.2251777648926,48.2378005981445,121252933
sq,2.38141479492187,-4.20973358154297,105.194568634033,64.7139549255371,121269600
sq,4.06452789306641,-3.17431030273437,109.305381774902,77.6615142822266,121286267
sq,5.81341400146484,-1.93172607421875,93.1158065795898,103.051662445068,121302934
sq,7.30326690673828,-0.282899475097656,98.0496406555176,113.580703735352,121319601
sq,8.87206115722656,1.53439178466797,129.669189453125,107.419967651367,121336268
sq,10.9467681884766,3.25311126708984,144.335985183716,108.778953552246,121352935
sq,13.256143951416,4.99357452392578,140.397548675537,95.7598686218262,121369602
sq,15.5025047302246,6.525732421875,155.897855758666,98.6385345458984,121386269
sq,17.9968704223633,8.10394897460938,170.311689376832,124.786853790283,121402936
sq,20.7218574523926,10.1005386352539,143.292665481567,142.986297607422,121419603
sq,23.0145401000977,12.3883193969727,166.249990463257,180.25803565979,121436270
sq,25.6745399475098,15.2724479675293,170.417070388794,203.305244445801,121452937
sq,28.4012130737305,18.5253318786621,184.225082397461,196.835041046143,121469604
sq,31.3488143920898,21.6746925354004,192.289829254151,128.289461135864,121486271
sq,34.4254516601562,23.7273239135742,173.041582107544,136.617422103882,121502938
sq,37.194116973877,25.9132026672363,177.188158035278,167.518377304077,121519605
sq,40.0291275024414,28.5934967041016,172.501802444458,175.373792648316,121536272
sq,42.7891563415527,31.3994773864746,165.413856506348,176.044464111328,121552939
sq,45.4357780456543,34.2161888122559,174.536585807801,151.77845954895,121569606
sq,48.2283634185791,36.644644165039,169.251680374146,142.070055007935,121586273
sq,50.9363903045654,38.917765045166,160.389184951782,142.85683631897,121602940
sq,53.5026172637939,41.2034744262695,143.101930618286,154.025435447693,121619607
sq,55.7922481536865,43.6678813934326,133.406758308411,177.665114402771,121636274
sq,57.9267562866211,46.510523223877,181.745290756226,343.371748924255,121652941
sq,60.8346809387207,52.004471206665,257.640659809113,350.489735603333,121669608
sq,64.9569314956665,57.6123069763184,213.470876216888,339.019179344177,121686275
sq,68.3724655151367,63.0366138458252,258.064270019531,281.873583793641,121702942
sq,72.5014938354492,67.5465911865234,278.221314540133,208.59968662262,121719609
sq,76.9530348680914,70.8841861724854,214.372063288465,171.8520373106,121736276
sq,80.3829878807068,73.633818769455,119.503110647201,9.29491221904755,121752943
sq,82.295037651062,73.7825373649597,83.8574469089508,72.2488036844879,121769610
sq,83.6367568016052,74.9385182239115,109.436362981796,117.970688035712,121786277
sq,85.387738609314,76.8260492324829,102.074325084686,119.6418851614,121802944
sq,87.020927810669,78.7403193950653,89.6108746528625,96.2092131376266,121819611
sq,88.4547018051148,80.2796668052673,76.1638879776001,77.089250087738,121836278
sq,89.6733240127564,81.5130948066711,56.732177734375,67.9574906826019,121852945
sq,90.5810388565064,82.6004146575928,47.8585362434387,50.8598685264587,121869612
sq,91.3467754364014,83.4141725540161,40.3298139572144,35.2853536605835,121886279
sq,91.9920524597168,83.9787382125855,29.9731492996216,20.305871963501,121902946
sq,92.4716228485107,84.3036321640015,10.3361010551453,12.054979801178,121919613
sq,92.6370004653931,84.4965118408203,1.60390138626099,5.17183542251587,121936280
sq,92.6626628875732,84.5792612075806,-7.77411460876465,-5.29336929321289,121952947
sq,92.538277053833,84.4945672988892,-20.3182697296143,-21.8755006790161,121969614
sq,92.2131847381592,84.1445592880249,-30.0174951553345,-51.8018007278442,121986281
sq,91.7329048156738,83.3157304763794,-45.2855229377747,-89.8801684379578,122002948
sq,91.0083364486694,81.8776477813721,-79.338550567627,-119.835555553436,122019615
sq,89.7389196395874,79.9602788925171,-117.332935333252,-128.173023462296,122036282
sq,87.8615926742554,77.9095105171204,-114.151775836945,-82.8798785805702,122052949
sq,86.0351642608643,76.5834324598312,-118.973284959793,-98.2600222341716,122069616
sq,84.1315917015076,75.0112721040845,-152.06441283226,-225.578845012933,122086283
sq,81.6985610961914,71.4020105838776,-195.105515420437,-223.321035504341,122102950
sq,78.5768728494644,67.8288740158081,-157.527729868889,-227.1808385849,122119617
sq,76.0564291715622,64.1939805984497,-205.928586423397,-234.940826892853,122136284
sq,72.7615717887878,60.4349273681641,-206.987589597702,-249.289870262146,122152951
sq,69.4497703552246,56.4462894439697,-225.688338279724,-265.580415725708,122169618
sq,65.838756942749,52.1970027923584,-237.230777740479,-201.76887512207,122186285
sq,62.0430644989014,48.9687007904053,-124.168395996094,-145.77853679657,122202952
sq,60.0563701629639,46.6362442016601,-129.408478736877,-144.782304763794,122219619
sq,57.9858345031738,44.3197273254395,-130.316972732544,-132.270336151123,122236286
sq,55.9007629394531,42.2034019470215,-147.091865539551,-146.384716033936,122252953
sq,53.5472930908203,39.8612464904785,-143.633842468262,-152.043342590332,122269620
sq,51.2491516113281,37.4285530090332,-137.608051300049,-148.494482040405,122286287
sq,49.0474227905273,35.0526412963867,-149.208903312684,-136.018037796021,122302954
sq,46.6600803375244,32.8763526916504,-148.545145988464,-122.646570205688,122319621
sq,44.283358001709,30.9140075683594,-157.581090927124,-122.046232223512,122336288
sq,41.762060546875,28.9612678527832,-154.65521812439,-153.671026229858,122352955
sq,39.2875770568848,26.5025314331055,-162.830829620361,-153.327226638794,122369622
sq,36.682283782959,24.0492958068848,-147.929668426514,-151.231527328491,122386289
sq,34.3154090881348,21.6295913696289,-154.80637550354,-152.553558349609,122402956
sq,31.8385070800781,19.1887344360352,-155.372142791748,-136.990070343017,122419623
sq,29.3525527954102,16.9968933105469,-150.279760360718,-136.448860168458,122436290
sq,26.9480766296387,14.8137115478516,-150.12502670288,-132.547378540039,122452957
sq,24.5460762023926,12.6929534912109,-153.586387634277,-123.147010803223,122469624
sq,22.0886940002441,10.7226013183594,-156.222343444824,-114.245414733887,122486291
sq,19.589136505127,8.89467468261719,-165.780544281006,-94.5682525634766,122502958
sq,16.9366477966309,7.38158264160156,-169.904947280884,-97.630500793457,122519625
sq,14.2181686401367,5.81949462890625,-157.338619232178,-124.650955200195,122536292
sq,11.7007507324219,3.82507934570312,-177.864074707031,-77.4521827697754,122552959
sq,8.85492553710938,2.58584442138672,-157.236576080322,-70.9586143493652,122569626
sq,6.33914031982422,1.45050659179687,-105.397701263428,-87.0122909545898,122586293
sq,4.65277709960938,0.0583099365234379,-122.808933258057,-71.2471008300781,122602960
sq,2.68783416748047,-1.08164367675781,-76.3354301452637,-60.5559349060059,122619627
sq,1.46646728515625,-2.05053863525391,-89.6377563476562,-46.5402603149414,122636294
sq,0.0322631835937504,-2.79518280029297,-56.7965507507324,-33.1501960754395,122652961
sq,-0.876481628417968,-3.3255859375,-78.4425735473633,-25.3157615661621,122669628
sq,-2.13156280517578,-3.73063812255859,-55.8595657348633,-12.753963470459,122686295
sq,-3.02531585693359,-3.93470153808594,-56.485652923584,-16.6416168212891,122702962
sq,-3.92908630371094,-4.20096740722656,-37.1890068054199,-24.233341217041,122719629
sq,-4.52411041259766,-4.58870086669922,-13.5555267333984,-17.4579620361328,122736296
sq,-4.74099884033203,-4.86802825927734,0.854969024658203,-7.65514373779297,122752963
sq,-4.7273193359375,-4.99051055908203,5.22661209106445,-2.26736068725586,122769630
sq,-4.64369354248047,-5.02678833007812,11.7778778076172,-0.956535339355469,122786297
sq,-4.45524749755859,-5.04209289550781,8.78381729125977,-6.66952133178711,122802964
sq,-4.31470642089844,-5.14880523681641,13.552188873291,-10.8108520507812,122819631
sq,-4.09787139892578,-5.32177886962891,26.3600349426269,-7.49588012695312,122836298
sq,-3.67611083984375,-5.44171295166016,35.8161926269531,-6.37102127075195,122852965
sq,-3.1030517578125,-5.54364929199219,37.7702713012695,-3.64112854003906,122869632
sq,-2.49872741699219,-5.60190734863281,36.8475914001465,3.14092636108398,122886299
sq,-1.90916595458984,-5.55165252685547,37.9104614257813,7.96842575073242,122902966
sq,-1.30259857177734,-5.42415771484375,44.3038940429688,14.8100852966309,122919633
sq,-0.593736267089843,-5.18719635009766,56.8232536315918,25.6562232971191,122936300
sq,0.315435791015625,-4.77669677734375,69.1127777099609,31.2342643737793,122952967
sq,1.421240234375,-4.27694854736328,86.4858627319336,36.0546112060547,122969634
sq,2.80501403808594,-3.70007476806641,87.0761871337891,53.6198616027832,122986301
sq,4.19823303222656,-2.84215698242187,106.89115524292,72.725772857666,123002968
sq,5.90849151611328,-1.67854461669922,107.522010803223,69.9152946472168,123019635
sq,7.62884368896484,-0.55989990234375,84.1588973999023,70.4283714294434,123036302
sq,8.97538604736328,0.566954040527344,92.2055244445801,85.5846405029297,123052969
sq,10.4506744384766,1.93630828857422,117.715358734131,110.703945159912,123069636
sq,12.3341201782227,3.70757141113281,125.192403793335,120.944499969482,123086303
sq,14.337198638916,5.64268341064453,155.744075775146,120.45431137085,123102970
sq,16.8291038513184,7.56995239257813,134.502410888672,120.789051055908,123119637
sq,18.9811424255371,9.50257720947266,130.945682525635,150.425910949707,123136304
sq,21.0762733459473,11.909391784668,152.040481567383,157.105207443237,123152971
sq,23.5089210510254,14.4230751037598,157.495498657227,157.82117843628,123169638
sq,26.028849029541,16.9482139587402,176.040887832641,173.535108566284,123186305
sq,28.8455032348633,19.7247756958008,175.945758819581,194.910049438477,123202972
sq,31.6606353759766,22.8433364868164,163.473606109619,185.300827026367,123219639
sq,34.2762130737305,25.8081497192383,176.821708679199,164.458274841309,123236306
sq,37.1053604125976,28.4394821166992,193.752288818359,147.235155105591,123252973
sq,40.2053970336914,30.7952445983887,178.181886672974,152.223587036133,123269640
sq,43.056307220459,33.2308219909668,167.99259185791,184.271097183228,123286307
sq,45.7441886901856,36.1791595458984,159.904599189758,194.875240325928,123302974
sq,48.3026622772217,39.2971633911133,159.706473350525,169.878005981445,123319641
sq,50.8579658508301,42.0152114868164,158.772230148315,126.876950263977,123336308
sq,53.3983215332031,44.04524269104,167.407512664795,116.154432296753,123352975
sq,56.0768417358398,45.9037136077881,154.94954586029,130.559206008911,123369642
sq,58.5560344696045,47.9926609039307,144.276976585388,251.382231712341,123386309
sq,60.8644660949707,52.0147766113281,293.072283267975,308.735609054565,123402976
sq,65.5536226272583,56.9545463562012,207.720220088959,326.31254196167,123419643
sq,68.8771461486816,62.1755470275879,210.632234811783,320.942550897599,123436310
sq,72.2472619056702,67.3106278419495,276.599433273077,256.962701678276,123452977
sq,76.6728528380394,71.4220310688019,256.386402994394,205.54013364017,123469644
sq,80.7750352859497,74.7106732070446,172.240614891052,20.115832798183,123486311
sq,83.5308851242065,75.0325265318155,112.349033355713,58.0999022349715,123502978
sq,85.328469657898,75.9621249675751,107.004463672638,109.964117407799,123519645
sq,87.0405410766602,77.7215508460999,81.6181898117065,103.668361902237,123536312
sq,88.3464321136475,79.3802446365357,75.7112503051758,89.8041427135468,123552979
sq,89.5578121185303,80.8171109199524,75.1240849494934,67.0522153377533,123569646
sq,90.7597974777222,81.8899463653565,49.8863458633423,43.5400903224945,123586313
sq,91.5579790115357,82.5865878105164,35.5694890022278,7.75438547134399,123602980
sq,92.1270908355713,82.7106579780579,27.7422070503235,10.4006826877594,123619647
sq,92.5709661483765,82.877068901062,13.7995481491089,7.29846954345703,123636314
sq,92.7917589187622,82.9938444137573,1.5837550163269,0.756025314331055,123652981
sq,92.8170989990234,83.0059408187866,-7.16114044189453,0.565111637115479,123669648
sq,92.7025207519531,83.0149826049805,-16.2481665611267,-0.393986701965332,123686315
sq,92.4425500869751,83.008678817749,-26.4825820922852,-28.0759036540985,123702982
sq,92.0188287734985,82.5594643592835,-42.5859093666077,-57.4886202812195,123719649
sq,91.3374542236328,81.6396464347839,-71.4001655578613,-85.3709578514099,123736316
sq,90.195051574707,80.2737111091614,-118.488907814026,-102.564796805382,123752983
sq,88.2992290496826,78.6326743602753,-146.175384521484,-105.309501290321,123769650
sq,85.9604228973389,76.9477223396301,-140.799760818481,-63.0423501133919,123786317
sq,83.7076267242432,75.9390447378159,-139.928966760635,-93.9038190990686,123802984
sq,81.468763256073,74.4365836322308,-169.882237911224,-254.131240770221,123819651
sq,78.7506474494934,70.3704837799072,-197.855837643146,-247.492253780365,123836318
sq,75.5849540472031,66.4106077194214,-197.431795299053,-236.289024353028,123852985
sq,72.4260453224182,62.6299833297729,-182.785391807556,-243.713319301605,123869652
sq,69.5014790534973,58.7305702209473,-201.560169458389,-252.924561500549,123886319
sq,66.2765163421631,54.6837772369385,-204.490900039673,-273.415446281433,123902986
sq,63.0046619415283,50.3091300964356,-163.10453414917,-212.324976921081,123919653
sq,60.3949893951416,46.9119304656982,-128.95679473877,-136.138439178467,123936320
sq,58.3316806793213,44.7337154388428,-133.789658546448,-155.157208442688,123952987
sq,56.1910461425781,42.2512001037598,-140.835762023926,-141.273736953735,123969654
sq,53.9376739501953,39.9908203125,-151.280045509338,-142.430543899536,123986321
sq,51.5171932220459,37.7119316101074,-148.913741111755,-142.640829086304,124002988
sq,49.1345733642578,35.4296783447265,-152.676582336426,-140.152692794799,124019655
sq,46.691748046875,33.1872352600098,-141.715288162231,-147.19033241272,124036322
sq,44.4243034362793,30.8321899414062,-166.159391403198,-146.155595779419,124052989
sq,41.7657531738281,28.4937004089355,-162.897825241088,-137.633800506592,124069656
sq,39.1593879699707,26.2915596008301,-159.923791885376,-136.719465255737,124086323
sq,36.6006072998047,24.1040481567383,-157.40156173706,-143.688201904297,124102990
sq,34.0821823120117,21.8050369262695,-157.426595687866,-155.115365982056,124119657
sq,31.5633567810059,19.3231910705566,-148.253679275513,-140.381813049316,124136324
sq,29.1912979125977,17.0770820617676,-142.65513420105,-136.093378067017,124152991
sq,26.9088157653809,14.8995880126953,-141.39723777771,-124.399423599243,124169658
sq,24.6464599609375,12.9091972351074,-137.635231018066,-127.076387405395,124186325
sq,22.4442962646484,10.8759750366211,-121.718645095825,-117.358207702637,124202992
sq,20.4967979431152,8.99824371337891,-126.997470855713,-94.7155952453613,124219659
sq,18.4648384094238,7.48279418945313,-124.352931976318,-91.5350914001465,124236326
sq,16.4751914978027,6.01823272705078,-155.049562454223,-86.6618156433105,124252993
sq,13.9943984985352,4.63164367675781,-150.129318237305,-88.1600379943848,124269660
sq,11.5923294067383,3.22108306884766,-125.739574432373,-125.917911529541,124286327
sq,9.58049621582031,1.206396484375,-160.074234008789,-67.2464370727539,124302994
sq,7.01930847167969,0.130453491210938,-147.77660369873,-95.5352783203125,124319661
sq,4.6548828125,-1.39811096191406,-121.88720703125,-101.57299041748,124336328
sq,2.7046875,-3.02327880859375,-100.709438323975,-68.3145523071289,124352995
sq,1.09333648681641,-4.11631164550781,-97.6366996765137,-71.4716911315918,124369662
sq,-0.468850708007812,-5.25985870361328,-118.215084075928,-62.5839233398438,124386329
sq,-2.36029205322266,-6.26120147705078,-97.9790687561035,-33.5879325866699,124402996
sq,-3.92795715332031,-6.7986083984375,-100.135326385498,-12.0625495910644,124419663
sq,-5.53012237548828,-6.99160919189453,-89.8499488830566,-12.5465393066406,124436330
sq,-6.96772155761719,-7.19235382080078,-78.3395767211914,-17.5437927246094,124452997
sq,-8.22115478515625,-7.47305450439453,-43.4484481811523,-16.3688659667969,124469664
sq,-8.91632995605469,-7.73495635986328,-24.7831344604492,-13.0300521850586,124486331
sq,-9.31286010742187,-7.94343719482422,-11.8136405944824,-10.9496116638184,124502998
sq,-9.50187835693359,-8.11863098144531,-3.99589538574219,-12.1884346008301,124519665
sq,-9.56581268310547,-8.31364593505859,3.50046157836914,-11.53564453125,124536332
sq,-9.50980529785156,-8.49821624755859,7.91215896606445,-6.88266754150391,124552999
sq,-9.38321075439453,-8.60833892822266,8.18824768066406,-2.40135192871094,124569666
sq,-9.25219879150391,-8.64676055908203,5.24759292602539,1.76763534545898,124586333
sq,-9.1682373046875,-8.61847839355469,2.22635269165039,6.79445266723633,124603000
sq,-9.13261566162109,-8.50976715087891,-3.3721923828125,11.0020637512207,124619667
sq,-9.18657073974609,-8.33373413085937,-8.22591781616211,11.927604675293,124636334
sq,-9.31818542480469,-8.14289245605469,-11.3825798034668,8.53872299194336,124653001
sq,-9.50030670166016,-8.00627288818359,-12.4444961547852,3.51953506469727,124669668
sq,-9.69941864013672,-7.94996032714844,-8.0718994140625,-1.30176544189453,124686335
sq,-9.82856903076172,-7.97078857421875,-3.53574752807617,-4.54139709472656,124703002
sq,-9.88514099121094,-8.04345092773437,-2.04563140869141,-6.65044784545898,124719669
sq,-9.91787109375,-8.14985809326172,-1.47199630737305,-6.01387023925781,124736336
sq,-9.94142303466797,-8.24608001708984,-2.41279602050781,-3.73649597167969,124753003
sq,-9.98002777099609,-8.30586395263672,-4.26578521728516,-2.52437591552734,124769670
sq,-10.0482803344727,-8.34625396728516,-5.46646118164062,-2.26593017578125,124786337
sq,-10.1357437133789,-8.38250885009766,-8.90254974365234,-1.03616714477539,124803004
sq,-10.2781845092773,-8.39908752441406,-11.4374160766602,1.55830383300781,124819671
sq,-10.4611831665039,-8.37415466308594,-10.8685493469238,3.631591796875,124836338
sq,-10.6350799560547,-8.31604919433594,-8.74900817871094,4.89044189453125,124853005
sq,-10.7750640869141,-8.23780212402344,-4.68349456787109,4.38404083251953,124869672
