Label,Left_Hip_q,Right_Hip_q,Left_Hip_qd,Right_Hip_qd,SampleTimeFine
sq,-9.153466796875,-10.85,-3.77798080444336,1.34611129760742,154315532
sq,-9.21391448974609,-10.8284622192383,-3.51905822753906,1.05047225952148,154332199
sq,-9.27021942138672,-10.8116546630859,-5.44071197509766,0.745773315429687,154348866
sq,-9.35727081298828,-10.7997222900391,-3.46755981445312,0.700473785400391,154365533
sq,-9.41275177001953,-10.7885147094727,-1.52587890625,1.21974945068359,154382200
sq,-9.43716583251953,-10.7689987182617,-0.883102416992187,1.67942047119141,154398867
sq,-9.45129547119141,-10.7421279907227,0.0619888305664063,1.7547607421875,154415534
sq,-9.45030364990234,-10.7140518188477,0.454902648925781,1.70469284057617,154432201
sq,-9.44302520751953,-10.6867767333984,0.656604766845703,1.46818161010742,154448868
sq,-9.43251953125,-10.6632858276367,0.500202178955078,1.56259536743164,154465535
sq,-9.42451629638672,-10.6382843017578,0.416278839111328,1.68800354003906,154482202
sq,-9.41785583496094,-10.6112762451172,0.781536102294922,1.92785263061523,154498869
sq,-9.40535125732422,-10.5804306030273,0.0128746032714844,1.79529190063477,154515536
sq,-9.40514526367187,-10.5517059326172,-0.409603118896484,1.62792205810547,154532203
sq,-9.41169891357422,-10.5256591796875,-0.458717346191406,1.61266326904297,154548870
sq,-9.41903839111328,-10.4998565673828,-0.433921813964844,1.32226943969727,154565537
sq,-9.42598114013672,-10.4787002563477,-0.381946563720703,1.22308731079102,154582204
sq,-9.43209228515625,-10.459130859375,-0.259876251220703,1.44433975219727,154598871
sq,-9.43625030517578,-10.4360214233398,-0.158786773681641,1.27506256103516,154615538
sq,-9.43879089355469,-10.4156204223633,-0.374794006347656,1.10244750976562,154632205
sq,-9.44478759765625,-10.397981262207,-0.801563262939453,1.39713287353516,154648872
sq,-9.45761260986328,-10.3756271362305,-1.04570388793945,1.50585174560547,154665539
sq,-9.47434387207031,-10.3515335083008,-0.765323638916016,1.64318084716797,154682206
sq,-9.48658905029297,-10.3252426147461,-1.0838508605957,1.66940689086914,154698873
sq,-9.5039306640625,-10.2985321044922,-0.46539306640625,1.54781341552734,154715540
sq,-9.511376953125,-10.2737670898437,-0.367164611816406,1.66893005371094,154732207
sq,-9.51725158691406,-10.2470642089844,-0.417709350585937,1.76095962524414,154748874
sq,-9.52393493652344,-10.2188888549805,-0.925540924072266,1.26838684082031,154765541
sq,-9.53874359130859,-10.1985946655273,-1.58500671386719,1.34468078613281,154782208
sq,-9.56410369873047,-10.1770797729492,-2.17866897583008,1.63173675537109,154798875
sq,-9.59896240234375,-10.1509719848633,-1.59788131713867,1.90544128417969,154815542
sq,-9.62452850341797,-10.1204849243164,-0.819206237792969,1.49726867675781,154832209
sq,-9.63763580322266,-10.0965286254883,-0.722885131835937,0.388145446777344,154848876
sq,-9.64920196533203,-10.0903182983398,-0.597476959228516,-0.340938568115234,154865543
sq,-9.65876159667969,-10.0957733154297,-0.628471374511719,0.226497650146484,154882210
sq,-9.66881713867187,-10.0921493530273,-0.717639923095703,1.03950500488281,154898877
sq,-9.68029937744141,-10.0755172729492,-0.987529754638672,1.70564651489258,154915544
sq,-9.69609985351562,-10.0482269287109,-0.783920288085937,1.86729431152344,154932211
sq,-9.708642578125,-10.0183502197266,-1.01375579833984,1.91926956176758,154948878
sq,-9.72486267089844,-9.98764190673828,-0.807762145996094,1.74474716186523,154965545
sq,-9.73778686523437,-9.95972595214844,-0.628948211669922,0.247955322265625,154982212
sq,-9.74785003662109,-9.95575866699219,-0.695705413818359,-0.341892242431641,154998879
sq,-9.75898132324219,-9.96122894287109,-0.5035400390625,-0.0576972961425781,155015546
sq,-9.76703796386719,-9.96215209960937,-0.550746917724609,0.844955444335937,155032213
sq,-9.77584991455078,-9.9486328125,-0.628471374511719,2.47907638549805,155048880
sq,-9.78590545654297,-9.90896759033203,-0.848770141601562,2.73752212524414,155065547
sq,-9.79948577880859,-9.86516723632812,-0.893592834472656,1.42765045166016,155082214
sq,-9.81378326416016,-9.84232482910156,-1.37233734130859,0.252246856689453,155098881
sq,-9.83574066162109,-9.83828887939453,-0.948905944824219,0.0247955322265625,155115548
sq,-9.85092315673828,-9.83789215087891,-0.913619995117187,0.0247955322265625,155132215
sq,-9.86554107666016,-9.83749542236328,-0.662803649902344,0.471115112304687,155148882
sq,-9.87614593505859,-9.82995758056641,-0.576019287109375,0.0348091125488281,155165549
sq,-9.88536224365234,-9.82940063476562,-0.026702880859375,-0.0472068786621094,155182216
sq,-9.88578948974609,-9.83015594482422,0.618457794189453,0.734329223632812,155198883
sq,-9.87589416503906,-9.81840667724609,0.636577606201172,0.649452209472656,155215550
sq,-9.86570892333984,-9.80801544189453,0.654697418212891,-0.292778015136719,155232217
sq,-9.85523376464844,-9.81269989013672,1.03378295898437,-0.553607940673828,155248884
sq,-9.83869323730469,-9.8215576171875,1.8620491027832,-0.72479248046875,155265551
sq,-9.80890045166016,-9.833154296875,2.62594223022461,-0.51116943359375,155282218
sq,-9.76688537597656,-9.8413330078125,2.5181770324707,-0.683307647705078,155298885
sq,-9.72659454345703,-9.85226593017578,1.61886215209961,-0.898361206054687,155315552
sq,-9.70069274902344,-9.86663970947266,0.379085540771484,-1.25741958618164,155332219
sq,-9.69462738037109,-9.88675842285156,-0.729560852050781,-1.66654586791992,155348886
sq,-9.70630035400391,-9.91342315673828,-1.22880935668945,-0.115394592285156,155365553
sq,-9.72596130371094,-9.91526947021484,-2.56729125976562,4.56428527832031,155382220
sq,-9.76703796386719,-9.84224090576172,-4.84466552734375,6.23798370361328,155398887
sq,-9.84455261230469,-9.74243316650391,-5.91945648193359,7.10058212280273,155415554
sq,-9.93926391601562,-9.62882385253906,-1.0523796081543,8.57162475585937,155432221
sq,-9.95610198974609,-9.49167785644531,16.4346694946289,15.7432556152344,155448888
sq,-9.69314727783203,-9.23978576660156,41.5482521057129,28.9855003356934,155465555
sq,-9.02837524414062,-8.77601776123047,68.3798789978027,44.156551361084,155482222
sq,-7.93429718017578,-8.06951293945312,93.7514305114746,58.8974952697754,155498889
sq,-6.43427429199219,-7.12715301513672,119.101524353027,66.8210983276367,155515556
sq,-4.52864990234375,-6.05801544189453,134.088516235352,75.1919746398926,155532223
sq,-2.38323364257812,-4.85494384765625,150.854110717773,76.2720108032227,155548890
sq,0.0304321289062504,-3.63459167480469,167.444705963135,124.856472015381,155565557
sq,2.70954742431641,-1.63688812255859,147.336006164551,79.9627304077148,155582224
sq,5.06692352294922,-0.357484436035156,121.509552001953,55.9659004211426,155598891
sq,7.01107635498047,0.537969970703125,93.5139656066895,113.5573387146,155615558
sq,8.5072998046875,2.35488739013672,95.6377983093262,117.852687835693,155632225
sq,10.0375045776367,4.24053039550781,121.150493621826,148.209571838379,155648892
sq,11.9759124755859,6.61188354492188,155.56812286377,173.501968383789,155665559
sq,14.4650024414063,9.3879150390625,166.093111038207,169.885158538818,155682226
sq,17.1224922180176,12.1060775756836,195.908308029175,131.694078445435,155698893
sq,20.2570251464844,14.2131828308106,195.681095123291,116.104364395141,155715560
sq,23.387922668457,16.0708526611328,196.13242149353,144.70624923706,155732227
sq,26.5260414123535,18.3861526489258,185.24169921875,160.797357559205,155748894
sq,29.4899085998535,20.958910369873,177.422285079956,196.524620056152,155765561
sq,32.3286651611328,24.1033042907715,178.334712982178,207.854986190796,155782228
sq,35.1820205688476,27.4289840698242,177.994966506958,211.966514587402,155798895
sq,38.029940032959,30.8204483032227,177.859306335449,188.166856765747,155815562
sq,40.8756889343262,33.8311180114746,181.556224822998,164.450168609619,155832229
sq,43.7805885314941,36.4623207092285,181.034207344055,169.185400009156,155848896
sq,46.677135848999,39.169287109375,176.379323005676,151.516199111938,155865563
sq,49.4992050170898,41.593546295166,172.726631164551,154.131054878236,155882230
sq,52.2628311157226,44.0596431732178,180.430173873901,173.944354057312,155898897
sq,55.1497138977051,46.8427528381348,179.126024246216,194.500088691711,155915564
sq,58.0157302856445,49.9547542572021,242.420971393585,366.80281162262,155932231
sq,61.8944658279419,55.8235992431641,242.70784854889,375.164031982422,155948898
sq,65.7777914047241,61.8262237548828,187.423467636108,270.870208740235,155965565
sq,68.7765668869019,66.1601470947266,236.058712005615,198.555886745453,155982232
sq,72.5535062789917,69.3370412826538,238.429740071297,238.402172923088,155998899
sq,76.3683821201325,73.1514760494232,196.674324572086,264.569848775864,156015566
sq,79.5151713132858,77.384593629837,158.26890617609,132.405772805214,156032233
sq,82.0474738121033,79.5030859947205,125.210076570511,91.2396311759949,156048900
sq,84.0508350372315,80.9629200935364,113.463401794434,100.444972515106,156065567
sq,85.8662494659424,82.5700396537781,112.447321414947,108.689576387405,156082234
sq,87.6654066085815,84.3090728759766,104.555189609528,100.053131580353,156098901
sq,89.338289642334,85.9099229812622,97.7228283882141,77.7906775474548,156115568
sq,90.9018548965454,87.1545738220215,85.4747891426086,65.2317404747009,156132235
sq,92.2694515228272,88.1982816696167,69.6335434913635,52.4110198020935,156148902
sq,93.383588218689,89.0368579864502,49.845278263092,32.2644710540771,156165569
sq,94.1811126708984,89.5530895233154,27.5923013687134,13.782262802124,156182236
sq,94.6225894927979,89.7736057281494,9.14633274078369,1.24663114547729,156198903
sq,94.7689308166504,89.7935518264771,-3.35788726806641,-9.43219661712646,156215570
sq,94.7152046203613,89.642636680603,-16.7930126190186,-18.7388062477112,156232237
sq,94.446516418457,89.3428157806397,-27.6471376419067,-30.6320190429688,156248904
sq,94.0041622161865,88.8527034759522,-40.8689975738525,-49.0097403526306,156265571
sq,93.3502582550049,88.0685476303101,-59.5523715019226,-69.7822570800781,156282238
sq,92.3974203109741,86.9520315170288,-84.057092666626,-92.6814079284668,156298905
sq,91.0525068283081,85.4691289901733,-97.7174043655396,-55.5329918861389,156315572
sq,89.4890283584595,84.5806011199951,-102.955460548401,-99.8718440532684,156332239
sq,87.8417409896851,82.9826516151428,-109.698176383972,-147.976934909821,156348906
sq,86.0865701675415,80.6150206565857,-136.255353689194,-222.06250578165,156365573
sq,83.9064845085144,77.0620205640793,-168.523520231247,-253.053106367588,156382240
sq,81.2101081848145,73.0131708621979,-153.077613562346,-237.301185727119,156398907
sq,78.7608663678169,69.216351890564,-205.556143075228,-220.728278160095,156415574
sq,75.4719680786133,65.6846994400024,-211.41916513443,-221.859097480774,156432241
sq,72.0892614364624,62.1349538803101,-230.974912643433,-225.979387760162,156448908
sq,68.3936628341675,58.5192836761475,-262.435376644135,-231.115341186523,156465575
sq,64.1946968078613,54.8214382171631,-212.429165840149,-166.997194290161,156482242
sq,60.7958301544189,52.1494831085205,-146.546244621277,-151.042938232422,156498909
sq,58.4510902404785,49.7327960968017,-135.915994644165,-136.935472488403,156515576
sq,56.2764343261719,47.5418285369873,-135.458707809448,-126.305103302002,156532243
sq,54.1090950012207,45.5209468841553,-152.238965034485,-132.785677909851,156548910
sq,51.6732715606689,43.3963760375976,-154.992938041687,-135.940790176392,156565577
sq,49.193384552002,41.2213233947754,-144.895195960999,-135.552167892456,156582244
sq,46.875061416626,39.0524887084961,-148.265480995178,-131.006717681884,156598911
sq,44.5028137207031,36.9563812255859,-165.810823440552,-127.14695930481,156615578
sq,41.8498405456543,34.922029876709,-177.91223526001,-136.371612548828,156632245
sq,39.0032447814941,32.7400840759277,-178.286552429199,-150.095701217651,156648912
sq,36.150659942627,30.3385528564453,-177.91748046875,-160.699367523193,156665579
sq,33.303980255127,27.7673629760742,-180.691957473755,-163.396835327148,156682246
sq,30.4129089355469,25.1530136108398,-175.209283828735,-162.823915481568,156698913
sq,27.6095603942871,22.5478309631348,-156.213760375977,-162.269353866577,156715580
sq,25.1101402282715,19.9515213012695,-145.551919937134,-155.552625656128,156732247
sq,22.7813095092773,17.4626792907715,-148.371696472168,-135.336637496948,156748914
sq,20.4073623657227,15.2972930908203,-161.906480789185,-125.910758972168,156765581
sq,17.8168586730957,13.2827209472656,-198.747158050537,-120.397806167602,156782248
sq,14.6369041442871,11.356356048584,-206.726312637329,-127.460718154907,156798915
sq,11.3292831420898,9.31698455810547,-200.019836425781,-184.591293334961,156815582
sq,8.12896575927734,6.36352386474609,-171.348094940185,-158.682346343994,156832249
sq,5.38739624023438,3.82460632324219,-143.005847930908,-175.755500793457,156848916
sq,3.09930267333984,1.01251831054687,-189.171314239502,-124.839305877686,156865583
sq,0.0725616455078129,-0.984910583496093,-118.875026702881,-47.3036766052246,156882250
sq,-1.82943878173828,-1.74176940917969,-132.465839385986,-79.8578262329102,156898917
sq,-3.94889221191406,-3.01949462890625,-105.27229309082,-66.1234855651855,156915584
sq,-5.63324890136719,-4.07747039794922,-56.3273429870605,-62.9963874816895,156932251
sq,-6.53448638916016,-5.08541259765625,-2.43234634399414,-52.5178909301758,156948918
sq,-6.57340393066406,-5.92569885253906,-0.0848770141601562,-31.6066741943359,156965585
sq,-6.57476196289062,-6.43140563964844,-1.17254257202148,-11.2943649291992,156982252
sq,-6.59352264404297,-6.61211547851562,0.561714172363281,7.29036331176758,156998919
sq,-6.58453521728516,-6.49546966552734,6.87360763549805,9.95111465454102,157015586
sq,-6.47455749511719,-6.33625183105469,13.486385345459,8.44478607177734,157032253
sq,-6.25877532958984,-6.20113525390625,18.9676284790039,17.5209045410156,157048920
sq,-5.95529327392578,-5.92080078125,26.2408256530762,20.540714263916,157065587
sq,-5.53544006347656,-5.59214935302734,35.789966583252,19.8359489440918,157082254
sq,-4.96280059814453,-5.27477416992187,44.1656112670898,18.5971260070801,157098921
sq,-4.25615081787109,-4.97722015380859,55.4070472717285,26.8268585205078,157115588
sq,-3.36963806152344,-4.54799041748047,62.8032684326172,34.0209007263184,157132255
sq,-2.36478576660156,-4.00365600585937,81.517219543457,35.4142189025879,157148922
sq,-1.06051025390625,-3.43702850341797,96.8413352966309,61.823844909668,157165589
sq,0.488951110839844,-2.44784698486328,120.12243270874,101.713180541992,157182256
sq,2.41091003417969,-0.820436096191406,143.755435943603,113.202095031738,157198923
sq,4.71099700927734,0.990797424316407,150.185585021973,110.190391540527,157215590
sq,7.11396636962891,2.75384368896484,148.116111755371,104.611396789551,157232257
sq,9.48382415771484,4.42762603759766,128.979682922363,102.675437927246,157248924
sq,11.5474990844727,6.07043304443359,138.50212097168,124.965190887451,157265591
sq,13.7635330200195,8.06987609863281,154.553651809693,128.781795501709,157282258
sq,16.2363914489746,10.1303848266602,147.43947982788,130.402803421021,157298925
sq,18.5954231262207,12.2168296813965,159.357070922851,134.686231613159,157315592
sq,21.1451362609863,14.371809387207,165.911674499512,156.281948089599,157332259
sq,23.7997230529785,16.8723205566406,172.325849533081,143.098831176758,157348926
sq,26.5569366455078,19.1619018554687,173.068046569825,177.613496780396,157365593
sq,29.326025390625,22.0037178039551,173.396587371825,186.602830886841,157382260
sq,32.1003707885742,24.9893630981445,165.327787399292,160.130500793457,157398927
sq,34.7456153869629,27.5514511108398,183.192491531372,165.152072906494,157415594
sq,37.6766952514648,30.1938842773437,198.939085006714,199.748277664185,157432261
sq,40.8597206115723,33.3898567199707,209.652423858643,191.230773925781,157448928
sq,44.2141593933106,36.4495491027832,194.145917892456,183.649301528931,157465595
sq,47.3204940795898,39.3879379272461,184.661149978638,218.724012374878,157482262
sq,50.2750724792481,42.8875221252441,178.316950798035,177.577376365662,157498929
sq,53.1281436920166,45.7287601470947,174.700736999512,169.729351997375,157515596
sq,55.9233554840088,48.4444297790527,175.58479309082,298.348426818848,157532263
sq,58.7327121734619,53.2180046081543,279.394924640656,348.454833030701,157548930
sq,63.2030309677124,58.7932819366455,244.957983493805,314.664542675018,157565597
sq,67.1223587036133,63.8279146194458,256.525605916977,236.087530851365,157582264
sq,71.2267683982849,67.6053151130676,262.668401002884,257.099837064743,157598931
sq,75.4294628143311,71.7189125061035,213.740915060043,254.374641925097,157615598
sq,78.8493174552918,75.7889067769051,138.449877500534,176.679816097021,157632265
sq,81.0645154953003,78.6157838344574,123.600423336029,115.802392363548,157648932
sq,83.0421222686768,80.4686221122742,134.631752967835,102.36182808876,157665599
sq,85.1962303161621,82.1064113616943,130.119383335113,116.562724113464,157682266
sq,87.2781404495239,83.9714149475098,99.682629108429,88.6751413345337,157698933
sq,88.8730625152588,85.3902172088623,83.4379196166992,76.5626430511475,157715600
sq,90.208069229126,86.6152194976807,61.5419149398804,62.3297691345215,157732267
sq,91.1927398681641,87.612495803833,36.8614196777344,38.2512211799622,157748934
sq,91.7825225830078,88.2245153427124,16.9683694839478,17.2744989395142,157765601
sq,92.054016494751,88.5009073257446,0.280380249023437,2.47561931610107,157782268
sq,92.0585025787354,88.5405172348023,-10.1510882377624,-9.27859544754028,157798935
sq,91.8960851669312,88.3920597076416,-21.4825868606567,-20.0502276420593,157815602
sq,91.5523637771607,88.0712560653687,-36.0626578330994,-24.2164134979248,157832269
sq,90.9753612518311,87.6837934494019,-55.8347105979919,-32.0307612419128,157848936
sq,90.0820058822632,87.1713012695313,-77.8748393058777,-48.3805537223816,157865603
sq,88.8360084533691,86.3972124099732,-98.946213722229,-56.0652613639831,157882270
sq,87.2528690338135,85.5001682281494,-103.695422410965,-60.4631304740906,157898937
sq,85.593742275238,84.532758140564,-94.93488073349,-103.92951965332,157915604
sq,84.0747841835022,82.8698858261108,-108.8005900383,-192.442774772644,157932271
sq,82.3339747428894,79.7908014297485,-152.981027960777,-219.890147447586,157948938
sq,79.886278295517,76.2725590705872,-191.655088216066,-235.974878072739,157965605
sq,76.8197968840599,72.4969610214233,-225.248571485281,-241.702854633331,157982272
sq,73.2158197402954,68.62971534729,-224.375665187836,-264.902114868164,157998939
sq,69.62580909729,64.3912815093994,-200.932741165161,-267.20005273819,158015606
sq,66.4108852386475,60.1160806655884,-184.780716896058,-260.635673999786,158032273
sq,63.4543937683106,55.9459098815918,-210.833787918091,-247.780084609985,158048940
sq,60.0810531616211,51.981428527832,-148.937106132507,-187.254190444946,158065607
sq,57.698059463501,48.9853614807129,-153.964877128601,-161.626935005188,158082274
sq,55.2346214294434,46.3993305206299,-161.264896392822,-133.923530578613,158098941
sq,52.6543830871582,44.2565540313721,-164.608597755432,-122.346520423889,158115608
sq,50.0206455230713,42.2990097045898,-155.817270278931,-116.389513015747,158132275
sq,47.5275691986084,40.4367774963379,-154.500126838684,-135.708332061768,158148942
sq,45.0555671691895,38.2654441833496,-158.0970287323,-142.189741134644,158165609
sq,42.5260147094726,35.9904083251953,-166.019439697266,-144.665718078613,158182276
sq,39.8697036743164,33.6757568359375,-165.099620819092,-141.274213790894,158198943
sq,37.2281097412109,31.4153694152832,-175.220251083374,-129.985094070435,158215610
sq,34.424585723877,29.3356079101562,-163.661479949951,-147.403001785278,158232277
sq,31.8060020446777,26.9771598815918,-166.90731048584,-161.570072174073,158248944
sq,29.1354850769043,24.3920387268066,-161.656856536865,-161.136627197266,158265611
sq,26.5489753723145,21.8138526916504,-147.026062011719,-158.769130706787,158282278
sq,24.196558380127,19.2735466003418,-142.492294311524,-145.473957061768,158298945
sq,21.9166816711426,16.9459632873535,-148.771524429321,-128.605604171752,158315612
sq,19.5363372802734,14.8882736206055,-172.09529876709,-124.207496643067,158332279
sq,16.7828125,12.9009536743164,-188.19522857666,-89.8327827453613,158348946
sq,13.7716888427734,11.4636291503906,-200.728893280029,-133.020401000976,158365613
sq,10.560026550293,9.335302734375,-176.572322845459,-167.691230773926,158382280
sq,7.73486938476563,6.65224304199219,-156.006813049316,-141.649723052978,158398947
sq,5.23876037597656,4.38584747314453,-127.132892608643,-131.370544433594,158415614
sq,3.20463409423828,2.28391876220703,-107.38468170166,-139.684200286865,158432281
sq,1.48647918701172,0.0489715576171879,-108.474731445312,-33.7624549865723,158448948
sq,-0.249116516113281,-0.491227722167968,-130.276203155518,-82.0846557617187,158465615
sq,-2.33353576660156,-1.80458221435547,-148.924827575684,-78.0949592590332,158482282
sq,-4.7163330078125,-3.0541015625,-116.90616607666,-78.0715942382812,158498949
sq,-6.58683166503906,-4.3032470703125,-66.612720489502,-75.6840705871582,158515616
sq,-7.65263519287109,-5.51419219970703,-59.4148635864258,-66.0591125488281,158532283
sq,-8.60327301025391,-6.57113800048828,-69.3788528442383,-50.2820014953613,158548950
sq,-9.71333465576172,-7.37565002441406,-50.1394271850586,-22.7723121643066,158565617
sq,-10.5155654907227,-7.74000701904297,-18.6729431152344,-0.297069549560547,158582284
sq,-10.8143325805664,-7.74476013183594,-2.22921371459961,4.61959838867187,158598951
sq,-10.85,-7.67084655761719,0.651836395263672,2.07805633544922,158615618
sq,-10.8395706176758,-7.63759765625,-0.303268432617187,-5.91754913330078,158632285
sq,-10.8444229125977,-7.73227844238281,6.22701644897461,-9.60159301757812,158648952
sq,-10.7447906494141,-7.88590393066406,16.6687965393066,-13.3919715881348,158665619
sq,-10.4780899047852,-8.10017547607422,31.4168930053711,-13.0128860473633,158682286
sq,-9.97541961669922,-8.30838165283203,43.7674522399902,0.454902648925781,158698953
sq,-9.27514038085937,-8.30110321044922,57.3492050170898,14.2683982849121,158715620
sq,-8.35755310058594,-8.07280883789062,72.9355812072754,36.9219779968262,158732287
sq,-7.19058380126953,-7.48205718994141,84.2719078063965,52.9356002807617,158748954
sq,-5.84223327636719,-6.63508758544922,96.5046882629395,68.9511299133301,158765621
sq,-4.29815826416016,-5.53186950683594,106.962203979492,82.8619003295898,158782288
sq,-2.58676300048828,-4.2060791015625,115.69881439209,107.621192932129,158798955
sq,-0.735581970214843,-2.48414001464844,119.877338409424,117.959022521973,158815622
sq,1.18245544433594,-0.596795654296875,124.686717987061,108.579635620117,158832289
sq,3.17744293212891,1.140478515625,109.087467193604,95.7303047180176,158848956
sq,4.92284240722656,2.67216339111328,104.824542999268,106.414318084717,158865623
sq,6.60003509521484,4.37479248046875,124.00484085083,116.813182830811,158882290
sq,8.58411254882813,6.24380340576172,144.713401794434,101.557731628418,158898957
sq,10.8995269775391,7.86872711181641,180.743455886841,102.725982666016,158915624
sq,13.7914222717285,9.51234283447266,201.961517333984,146.267890930176,158932291
sq,17.0228065490723,11.8526290893555,203.004360198975,165.130615234375,158948958
sq,20.2708763122559,14.4947189331055,194.800615310668,130.877971649169,158965625
sq,23.3876861572266,16.5887664794922,163.270473480225,199.974298477173,158982292
sq,26.0000137329102,19.788355255127,158.515691757202,214.100360870361,158998959
sq,28.5362648010254,23.2139610290527,171.267986297608,190.443277359008,159015626
sq,31.2765525817871,26.2610534667969,186.776638031005,186.028480529785,159032293
sq,34.2649787902832,29.2375091552734,189.643144607544,190.399646759034,159048960
sq,37.2992691040039,32.283903503418,184.94725227356,180.757284164429,159065627
sq,40.2584251403809,35.1760200500488,191.630840301513,172.75333404541,159082294
sq,43.3245185852051,37.9400733947754,186.659932136536,176.656246185303,159098961
sq,46.3110774993896,40.7665733337402,189.853310585021,164.007902145386,159115628
sq,49.34873046875,43.3906997680664,188.434958457947,168.544411659241,159132295
sq,52.3636898040771,46.0874103546143,171.58830165863,172.912359237671,159148962
sq,55.1091026306152,48.854008102417,190.360307693481,282.044291496277,159165629
sq,58.1548675537109,53.3667167663574,278.64396572113,336.611270904541,159182296
sq,62.613171005249,58.7524971008301,223.71780872345,330.180287361145,159198963
sq,66.1926559448242,64.0353816986084,257.51581788063,237.973481416702,159215630
sq,70.3129090309143,67.8429574012756,277.409240603447,188.274383544922,159232297
sq,74.7514568805695,70.8553475379944,236.50760948658,198.437497019768,159248964
sq,78.5355786323547,74.0303474903107,169.170156121254,191.803567111492,159265631
sq,81.2423011302948,77.0992045640945,118.193075060844,118.085838854313,159282298
sq,83.1333903312683,78.9885779857636,123.151868581772,85.0298255681992,159298965
sq,85.1038202285767,80.3490551948547,125.811874866486,100.804150104523,159315632
sq,87.1168102264404,81.9619215965271,92.6549434661865,81.0243189334869,159332299
sq,88.5992893218994,83.2583106994629,76.9878029823303,68.0572986602783,159348966
sq,89.8310941696167,84.3472274780273,66.5042996406555,51.8383979797363,159365633
sq,90.8951629638672,85.1766418457031,46.9166040420532,31.6762924194336,159382300
sq,91.64582862854,85.6834625244141,22.081732749939,16.1231160163879,159398967
sq,91.9991363525391,85.9414323806763,4.93943691253662,9.32562351226807,159415634
sq,92.0781673431397,86.0906423568726,-1.89107656478882,-2.02131271362305,159432301
sq,92.047910118103,86.0583013534546,-5.96737861633301,-18.7455415725708,159448968
sq,91.9524320602417,85.7583726882935,-17.7311897277832,-36.7047190666199,159465635
sq,91.6687330245972,85.1710971832275,-40.0651097297669,-50.2067804336548,159482302
sq,91.0276912689209,84.3677886962891,-70.1452493667603,-60.8325004577637,159498969
sq,89.9053672790527,83.3944686889648,-86.3858461380005,-67.4385726451874,159515636
sq,88.5231937408447,82.3154515266419,-94.8185324668884,-63.3774101734161,159532303
sq,87.0060972213745,81.3014129638672,-109.689950942993,-150.665611028671,159548970
sq,85.2510580062866,78.8907631874085,-129.210770130157,-190.859340131283,159565637
sq,83.1836856842041,75.8370137453079,-154.399052262306,-247.862212359905,159582304
sq,80.7133008480072,71.8712183475494,-184.165332000703,-217.174574732781,159598971
sq,77.766655535996,68.396425151825,-169.786941725761,-195.303589105606,159615638
sq,75.0500644683838,65.2715677261353,-257.044583559036,-196.765184402466,159632305
sq,70.9373511314392,62.1233247756958,-205.69035410881,-259.366095066071,159648972
sq,67.6463054656982,57.9734672546387,-222.887098789215,-287.684679031372,159665639
sq,64.0801118850708,53.3705123901367,-175.26251077652,-240.231394767761,159682306
sq,61.2759117126465,49.5268100738525,-115.436911582947,-147.140383720398,159698973
sq,59.4289211273193,47.1725639343262,-125.668168067932,-150.185108184815,159715640
sq,57.4182304382324,44.7696022033691,-138.022661209106,-113.173961639404,159732307
sq,55.2098678588867,42.9588188171387,-151.64589881897,-100.591659545898,159748974
sq,52.7835334777832,41.3493522644043,-156.993985176086,-106.4031124115,159765641
sq,50.2716297149658,39.6469024658203,-156.583189964294,-121.273279190063,159782308
sq,47.7662986755371,37.7065299987793,-157.661437988281,-134.191751480103,159798975
sq,45.2437156677246,35.5594619750976,-156.311511993409,-147.096157073974,159815642
sq,42.7427314758301,33.2059234619141,-163.866996765136,-142.300367355347,159832309
sq,40.1208595275879,30.9291175842285,-166.45860671997,-135.598182678222,159848976
sq,37.4575218200684,28.759546661377,-163.98572921753,-138.59748840332,159865643
sq,34.8337501525879,26.5419868469238,-178.387641906739,-140.08641242981,159882310
sq,31.9795478820801,24.3006042480469,-171.36526107788,-148.797988891601,159898977
sq,29.237703704834,21.9198364257812,-166.900396347045,-143.379211425781,159915644
sq,26.5672973632813,19.6257690429687,-180.771350860597,-142.662286758423,159932311
sq,23.6749557495117,17.343172454834,-159.160614013672,-161.846876144409,159948978
sq,21.128385925293,14.7536224365234,-120.712995529174,-181.028604507445,159965645
sq,19.1969779968262,11.8571647644043,-144.346952438354,-156.362771987915,159982312
sq,16.8874267578125,9.35536041259766,-113.445758819581,-147.026538848877,159998979
sq,15.0722946166992,7.00293579101563,-136.201858520507,-114.413738250732,160015646
sq,12.8930648803711,5.17231597900391,-137.342929840088,-112.403392791748,160032313
sq,10.6955780029297,3.37386169433594,-148.820877075195,-132.553100585937,160048980
sq,8.31444396972656,1.25301208496094,-138.009548187256,-99.6866226196289,160065647
sq,6.10629119873047,-0.341973876953125,-132.207870483398,-86.2550735473633,160082314
sq,3.99096527099609,-1.72205505371094,-140.103340148926,-97.7334976196289,160098981
sq,1.74931182861328,-3.285791015625,-130.515575408935,-99.6222496032715,160115648
sq,-0.338937377929687,-4.87974700927734,-141.793727874756,-70.0798034667969,160132315
sq,-2.60763702392578,-6.00102386474609,-140.458583831787,-47.968864440918,160148982
sq,-4.85497436523437,-6.76852569580078,-96.5404510498047,-16.7880058288574,160165649
sq,-6.39962158203125,-7.0371337890625,-45.020580291748,8.16154479980469,160182316
sq,-7.11995086669922,-6.90654907226562,-3.34405899047852,5.6757926940918,160198983
sq,-7.17345581054687,-6.81573638916016,-0.179767608642578,4.26340103149414,160215650
sq,-7.17633209228516,-6.74752197265625,21.5082168579102,-1.01947784423828,160232317
sq,-6.83220062255859,-6.76383361816406,12.9485130310059,-9.57202911376953,160248984
sq,-6.6250244140625,-6.91698608398437,7.06148147583008,-10.9977722167969,160265651
sq,-6.51204071044922,-7.09295043945312,9.71889495849609,-12.7906799316406,160282318
sq,-6.35653839111328,-7.29760131835937,6.90937042236328,-0.242710113525391,160298985
sq,-6.24598846435547,-7.30148468017578,19.1068649291992,25.0349044799805,160315652
sq,-5.94027862548828,-6.90092620849609,35.8071327209473,43.5910224914551,160332319
sq,-5.36736450195312,-6.20346984863281,59.8893165588379,54.1081428527832,160348986
sq,-4.40913543701172,-5.33773956298828,77.7955055236816,59.2532157897949,160365653
sq,-3.16440734863281,-4.38968811035156,89.3363952636719,76.0469436645508,160382320
sq,-1.73502502441406,-3.17293701171875,110.692024230957,102.779388427734,160398987
sq,0.0360473632812504,-1.528466796875,136.459350585937,111.044406890869,160415654
sq,2.21939697265625,0.248243713378907,162.85228729248,99.8735427856445,160432321
sq,4.82503356933594,1.84622039794922,216.78876876831,97.9232788085937,160448988
sq,8.29365386962891,3.41299285888672,207.427501678467,83.226203918457,160465655
sq,11.6124938964844,4.74461212158203,185.758352279663,66.9078826904297,160482322
sq,14.584627532959,5.81513824462891,179.39019203186,92.1998023986816,160498989
sq,17.4548706054687,7.29033508300781,192.599296569824,86.2069129943848,160515656
sq,20.5364593505859,8.66964569091797,161.762952804566,85.0706100463867,160532323
sq,23.124666595459,10.0307754516602,133.315086364746,146.308898925781,160548990
sq,25.2577079772949,12.3717178344726,151.065349578857,210.062742233277,160565657
sq,27.6747535705566,15.7327217102051,151.114225387573,198.467969894409,160582324
sq,30.0925811767578,18.9082092285156,167.614936828613,151.423692703247,160598991
sq,32.7744201660156,21.3309883117676,202.458143234253,116.016864776611,160615658
sq,36.0137504577637,23.1872581481934,210.542917251587,123.255491256714,160632325
sq,39.3824371337891,25.1593460083008,207.631349563599,186.699628829956,160648992
sq,42.7045387268066,28.1465400695801,196.743488311768,214.404821395874,160665659
sq,45.8524345397949,31.5770172119141,163.34056854248,222.614049911499,160682326
sq,48.4658836364746,35.1388420104981,155.519962310791,187.166213989257,160698993
sq,50.9542030334473,38.1335014343262,159.764289855957,118.816614151001,160715660
sq,53.5104316711426,40.0345672607422,166.184902191162,57.3067665100093,160732327
sq,56.1693901062012,40.9514755249023,200.795412063599,241.000652313232,160748994
sq,59.3821166992187,44.8074859619141,312.927722930909,329.766273498535,160765661
sq,64.3889602661133,50.0837463378906,247.282087802887,307.886362075806,160782328
sq,68.3454736709595,55.0099281311035,259.171277284622,274.30933713913,160798995
sq,72.4922141075134,59.3988775253296,283.511005342007,251.908719539642,160815662
sq,77.0283901929855,63.4294170379639,204.393170773983,256.251096725464,160832329
sq,80.2986809253693,67.5294345855713,126.775965094566,228.13007235527,160848996
sq,82.3270963668823,71.1795157432556,113.845825195312,193.896669894457,160865663
sq,84.1486295700073,74.2818624615669,121.778607368469,123.980533331633,160882330
sq,86.0970872879028,76.2655509948731,124.485671520233,91.3985073566437,160898997
sq,88.0888580322266,77.7279271125794,96.7838168144226,94.1760540008545,160915664
sq,89.6373991012573,79.234743976593,79.943060874939,78.3512592315674,160932331
sq,90.9164880752564,80.4883641242981,65.4330849647522,52.5724291801453,160948998
sq,91.9634174346924,81.3295229911804,47.824501991272,34.3988537788391,160965665
sq,92.7286094665527,81.8799046516419,25.6375074386597,18.3867812156677,160982332
sq,93.1388095855713,82.1740931510925,8.04466009140015,5.22422790527344,160998999
sq,93.2675241470337,82.2576807975769,0.575065612792969,-5.23284077644348,161015666
sq,93.2767251968384,82.1739553451538,-8.58449935913086,-12.8014087677002,161032333
sq,93.1393732070923,81.9691328048706,-18.4929370880127,-21.6858685016632,161049000
sq,92.8434862136841,81.622158908844,-26.3740420341492,-32.5601100921631,161065667
sq,92.4215015411377,81.1011971473694,-44.3040728569031,-53.130716085434,161082334
sq,91.7126363754273,80.2511056900024,-63.8771057128906,-57.1897029876709,161099001
sq,90.690602684021,79.3360704421997,-72.6597905158997,-105.016514658928,161115668
sq,89.5280460357666,77.6558062076569,-90.6428098678589,-190.147425979376,161132335
sq,88.0777610778809,74.6134473919869,-131.811738014221,-223.266530781984,161149002
sq,85.9687732696533,71.0411828994751,-188.322514295578,-235.019207000732,161165669
sq,82.9556130409241,67.2808755874634,-212.460525333881,-227.651476860047,161182336
sq,79.556244635582,63.6384519577026,-235.464550554752,-227.463364601135,161199003
sq,75.7888118267059,59.9990381240845,-236.947908997536,-213.12552690506,161215670
sq,71.9976452827454,56.5890296936035,-239.131480455399,-208.652019500732,161232337
sq,68.171541595459,53.2505973815918,-201.941132545471,-216.354966163635,161249004
sq,64.9404834747315,49.7889179229736,-167.66905784607,-178.168892860413,161265671
sq,62.2577785491943,46.938215637207,-146.792531013489,-168.416261672973,161282338
sq,59.9090980529785,44.2435554504395,-143.349289894104,-157.813787460328,161299005
sq,57.6155094146729,41.7185348510742,-144.366979598999,-138.720989227295,161315672
sq,55.3056377410889,39.4989990234375,-148.115634918213,-125.257015228272,161332339
sq,52.9357875823975,37.4948867797851,-157.048463821411,-130.841493606567,161349006
sq,50.4230121612549,35.4014228820801,-158.165335655212,-146.099805831909,161365673
sq,47.8923667907715,33.0638259887695,-166.201591491699,-159.889459609986,161382340
sq,45.2331413269043,30.5055946350098,-175.365447998047,-157.90057182312,161399007
sq,42.4272941589356,27.9791854858398,-186.004161834717,-156.292676925659,161415674
sq,39.4512275695801,25.4785026550293,-188.819885253906,-156.236410140992,161432341
sq,36.4301094055176,22.9787200927734,-186.672449111938,-153.548002243042,161449008
sq,33.4433502197266,20.5219520568848,-186.316251754761,-162.444353103637,161465675
sq,30.4622901916504,17.9228424072266,-174.98254776001,-160.709142684936,161482342
sq,27.6625694274902,15.3514961242676,-170.706510543823,-155.354261398315,161499009
sq,24.9312652587891,12.8658279418945,-169.969320297241,-153.144836425781,161515676
sq,22.2117561340332,10.415510559082,-178.22527885437,-140.659809112549,161532343
sq,19.3601516723633,8.16495361328125,-171.209335327148,-126.247882843018,161549010
sq,16.6208023071289,6.14498748779297,-157.149076461792,-96.6486930847168,161565677
sq,14.1064170837402,4.5986083984375,-154.280424118042,-107.528209686279,161582344
sq,11.6379302978516,2.87815704345703,-152.453899383545,-133.847713470459,161599011
sq,9.19866790771484,0.736593627929688,-147.793292999268,-143.839359283447,161615678
sq,6.83397521972656,-1.56483612060547,-121.554374694824,-134.94062423706,161632345
sq,4.88910522460938,-3.72388610839844,-114.2897605896,-100.799560546875,161649012
sq,3.06046905517578,-5.33667907714844,-123.974800109863,-65.1535987854004,161665679
sq,1.07687225341797,-6.37913665771484,-146.997928619385,-56.4775466918945,161682346
sq,-1.27509460449219,-7.28277740478516,-142.868041992187,-28.5663604736328,161699013
sq,-3.56098327636719,-7.73983917236328,-131.999015808105,0.316143035888672,161715680
sq,-5.67296752929687,-7.73478088378906,-117.269992828369,12.8016471862793,161732347
sq,-7.54928741455078,-7.52995452880859,-82.7298164367676,3.01361083984375,161749014
sq,-8.87296447753906,-7.48173675537109,-36.2739562988281,-2.25973129272461,161765681
sq,-9.45334777832031,-7.51789245605469,5.4779052734375,-12.1850967407227,161782348
sq,-9.36570129394531,-7.71285400390625,35.2377891540527,-21.0986137390137,161799015
sq,-8.80189666748047,-8.05043182373047,43.7426567077637,-25.0873565673828,161815682
sq,-8.10201416015625,-8.45182952880859,42.6898002624512,-22.2687721252441,161832349
sq,-7.41897735595703,-8.8081298828125,49.0102767944336,-14.2755508422852,161849016
sq,-6.63481292724609,-9.03653869628906,58.2637786865234,-6.53219223022461,161865683
sq,-5.70259246826172,-9.14105377197266,65.831184387207,4.50706481933594,161882350
sq,-4.64929351806641,-9.06894073486328,81.3207626342773,20.0080871582031,161899017
sq,-3.34816131591797,-8.74881134033203,103.450298309326,34.66796875,161915684
sq,-1.69295654296875,-8.19412384033203,118.284225463867,48.7713813781738,161932351
sq,0.199591064453125,-7.41378173828125,125.564575195312,76.5953063964844,161949018
sq,2.20862426757812,-6.1882568359375,130.889415740967,68.0675506591797,161965685
sq,4.30285491943359,-5.09917602539062,141.53528213501,72.1182823181152,161982352
sq,6.56741943359375,-3.94528350830078,145.806789398193,75.4165649414062,161999019
sq,8.90032806396484,-2.73861846923828,144.182682037353,91.4669036865234,162015686
sq,11.2072509765625,-1.27514801025391,144.625663757324,123.292922973633,162032353
sq,13.5212615966797,0.697538757324219,155.762195587158,141.037940979004,162049020
sq,16.0134567260742,2.95414581298828,153.425931930542,150.216102600098,162065687
sq,18.4682716369629,5.35760345458984,159.701108932495,160.937309265137,162082354
sq,21.0234893798828,7.93260040283203,163.511753082275,180.052280426025,162099021
sq,23.6396774291992,10.8134368896484,165.184497833253,174.096822738647,162115688
sq,26.2826293945313,13.5989860534668,181.398868560791,153.061628341675,162132355
sq,29.1850112915039,16.0479721069336,204.896688461304,110.013246536255,162149022
sq,32.4633583068848,17.8081840515137,205.168962478637,161.942958831787,162165689
sq,35.746061706543,20.3992713928223,170.30143737793,194.656372070312,162182356
sq,38.4708847045898,23.5137733459473,151.312589645386,191.277503967286,162199023
sq,40.891886138916,26.5742134094238,163.515329360962,173.87580871582,162215690
sq,43.5081314086914,29.356226348877,177.116513252258,192.0485496521,162232357
sq,46.3419956207275,32.4290031433106,183.624505996704,194.979667663574,162249024
sq,49.2799877166748,35.5486778259277,183.660626411438,189.608812332153,162265691
sq,52.2185577392578,38.5824188232422,185.67943572998,155.990362167359,162282358
sq,55.1894287109375,41.0782646179199,165.416359901428,146.38352394104,162299025
sq,57.8360904693604,43.4204010009766,162.510633468628,271.318078041077,162315692
sq,60.4362606048584,47.7614902496338,224.954903125763,320.129632949829,162332359
sq,64.0355390548706,52.8835643768311,243.02327632904,284.752249717712,162349026
sq,67.9239114761353,57.4396003723145,302.508175373077,258.640706539154,162365693
sq,72.7640422821045,61.5778516769409,274.843968451023,244.679689407349,162382360
sq,77.1615457773209,65.4927267074585,192.396022379398,277.949541807175,162399027
sq,80.2398821353912,69.9399193763733,132.890298962593,240.810692310333,162415694
sq,82.3661269187927,73.7928904533386,113.415777683258,160.051949322224,162432361
sq,84.1807793617249,76.3537216424942,142.672091722488,101.37365013361,162449028
sq,86.4635328292847,77.975700044632,134.185254573822,85.98892390728,162465695
sq,88.6104969024658,79.3515228271484,111.141264438629,90.7250642776489,162482362
sq,90.3887571334839,80.8031238555908,89.2860889434814,81.9239914417267,162499029
sq,91.8173345565796,82.1139077186585,74.9802589416504,66.5069818496704,162515696
sq,93.017018699646,83.1780194282532,50.9139895439148,41.9107377529144,162532363
sq,93.8316425323486,83.8485912322998,29.5791625976563,19.0558433532715,162549030
sq,94.3049091339111,84.1534847259522,11.6585493087769,6.591796875,162565697
sq,94.4914459228516,84.2589534759522,2.113938331604,-4.7340989112854,162582364
sq,94.5252689361572,84.1832078933716,-4.57203388214111,-15.1163339614868,162599031
sq,94.452116394043,83.9413465499878,-16.7573690414429,-26.7627239227295,162615698
sq,94.1839984893799,83.5131429672241,-32.3941707611084,-34.2748165130615,162632365
sq,93.6656917572022,82.9647459030151,-56.4548969268799,-48.4689176082611,162649032
sq,92.7624134063721,82.189243221283,-85.2118730545044,-55.8482706546783,162665699
sq,91.3990234375,81.2956708908081,-95.1301455497742,-86.1763060092926,162682366
sq,89.8769411087036,79.9168499946594,-88.0261659622192,-134.876891970634,162699033
sq,88.4685224533081,77.7588197231293,-97.2689390182495,-175.682278349996,162715700
sq,86.9122194290161,74.9479032695293,-130.781799554825,-214.20737914741,162732367
sq,84.8197106361389,71.5205852031708,-154.643833637237,-203.349784016609,162749034
sq,82.3454092979431,68.266988658905,-176.828101277351,-189.26802277565,162765701
sq,79.5161596775055,65.2387002944946,-189.169690012932,-177.395462989808,162782368
sq,76.4894446372986,62.4003728866577,-191.091924905777,-181.628346443176,162799035
sq,73.4319738388062,59.4943193435669,-194.002151489258,-196.85024023056,162815702
sq,70.327939414978,56.3447154998779,-185.263097286224,-230.936050415039,162832369
sq,67.3637298583984,52.6497386932373,-139.519691467285,-213.908076286316,162849036
sq,65.1314147949219,49.2272094726562,-122.416138648987,-147.617816925049,162865703
sq,63.1727565765381,46.8653244018555,-113.518595695496,-112.305402755737,162882370
sq,61.3564590454101,45.0684379577637,-121.548414230347,-106.691241264343,162899037
sq,59.4116844177246,43.3613780975342,-134.941458702087,-126.022696495056,162915704
sq,57.2526210784912,41.3450149536133,-140.242099761963,-152.261972427368,162932371
sq,55.0087474822998,38.9088233947754,-141.320109367371,-150.523662567139,162949038
sq,52.7476257324219,36.5004447937012,-146.151423454285,-131.58130645752,162965705
sq,50.4092029571533,34.3951438903809,-157.780885696411,-127.998113632203,162982372
sq,47.8847087860107,32.3471740722656,-167.714476585388,-147.207736968994,162999039
sq,45.2012771606445,29.9918502807617,-177.196979522705,-164.21914100647,163015706
sq,42.3661254882813,27.3643440246582,-184.094429016114,-172.83320426941,163032373
sq,39.4206146240234,24.5990127563477,-186.493873596191,-169.772863388061,163049040
sq,36.4367126464844,21.8826469421387,-187.871694564819,-189.886569976807,163065707
sq,33.4307655334473,18.8444618225098,-190.771341323853,-158.358812332153,163082374
sq,30.3784240722656,16.3107208251953,-186.997652053833,-150.427103042602,163099041
sq,27.3864616394043,13.9038871765137,-178.582668304443,-138.581991195679,163115708
sq,24.5291389465332,11.6865753173828,-157.951354980469,-120.62406539917,163132375
sq,22.0019172668457,9.75659027099609,-154.775857925415,-108.565807342529,163149042
sq,19.5255035400391,8.01953735351563,-149.969577789307,-99.9178886413574,163165709
sq,17.1259902954102,6.42085113525391,-148.879766464233,-77.7392387390137,163182376
sq,14.7439140319824,5.17702331542969,-145.231962203979,-106.303215026855,163199043
sq,12.4202026367188,3.476171875,-154.862403869629,-112.279891967773,163215710
sq,9.94240417480469,1.67969360351562,-147.122383117676,-121.071815490723,163232377
sq,7.58844604492188,-0.257455444335937,-143.984317779541,-103.328704833984,163249044
sq,5.28469696044922,-1.91071472167969,-139.424324035645,-83.6954116821289,163265711
sq,3.05390777587891,-3.24984130859375,-137.538433074951,-77.1126747131348,163282378
sq,0.853292846679688,-4.48364410400391,-137.32385635376,-60.091495513916,163299045
sq,-1.34388885498047,-5.44510803222656,-128.343105316162,-56.8265914916992,163315712
sq,-3.39737854003906,-6.35433349609375,-113.648414611816,-60.4391098022461,163332379
sq,-5.21575317382812,-7.32135925292969,-99.8830795288086,-59.5517158508301,163349046
sq,-6.81388244628906,-8.27418670654297,-68.3012008666992,-29.477596282959,163365713
sq,-7.90670166015625,-8.74582824707031,-25.6314277648926,6.92176818847656,163382380
sq,-8.31680450439453,-8.63507995605469,7.39526748657227,16.5567398071289,163399047
sq,-8.19848022460937,-8.37017211914062,20.6294059753418,13.0209922790527,163415714
sq,-7.86840972900391,-8.16183624267578,17.0278549194336,4.04739379882812,163432381
sq,-7.59596405029297,-8.09707794189453,9.09709930419922,-2.64739990234375,163449048
sq,-7.45041046142578,-8.13943634033203,-3.92961502075195,-10.7669830322266,163465715
sq,-7.51328430175781,-8.31170806884766,-7.68041610717773,-6.25514984130859,163482382
sq,-7.63617095947266,-8.41179046630859,-5.27095794677734,-3.03983688354492,163499049
sq,-7.72050628662109,-8.46042785644531,-2.11572647094727,2.62117385864258,163515716
sq,-7.75435791015625,-8.41848907470703,-1.48630142211914,8.17441940307617,163532383
sq,-7.77813873291016,-8.28769836425781,-4.00495529174805,12.4301910400391,163549050
sq,-7.84221801757812,-8.08881530761719,-7.74669647216797,10.3154182434082,163565717
sq,-7.96616516113281,-7.92376861572266,-9.77087020874023,7.07626342773437,163582384
sq,-8.12249908447266,-7.81054840087891,-9.17291641235352,5.16271591186523,163599051
sq,-8.26926574707031,-7.72794494628906,-7.79485702514648,2.30026245117187,163615718
sq,-8.39398345947266,-7.69114074707031,-6.4549446105957,-1.02519989013672,163632385
