Label,Left_Hip_q,Right_Hip_q,Left_Hip_qd,Right_Hip_qd,SampleTimeFine
sw,-77.4364547729492,-72.8727951049804,120.617614746093,-214.065536499023,3515496506
sw,-79.0716400146484,-69.2532272338867,99.5644149780273,-201.415115356445,3515513173
sw,-80.5412368774414,-65.9571228027343,91.1163711547851,-193.876403808593,3515529840
sw,-82.1497268676757,-62.7868576049804,104.7578125,-199.869369506835,3515546507
sw,-83.9505615234375,-60.1508827209472,131.512054443359,-171.955810546875,3515563174
sw,-85.3547668457031,-57.5651550292968,145.784698486328,-166.256805419921,3515579841
sw,-85.662612915039,-55.5039176940918,160.262802124023,-130.402938842773,3515596508
sw,-84.7435684204101,-54.162425994873,139.467681884765,-86.2478485107421,3515613175
sw,-84.1363296508789,-53.313850402832,56.065818786621,-56.281021118164,3515629842
sw,-84.3406143188476,-52.9724578857421,-8.68741035461425,-26.3772506713867,3515646509
sw,-84.7904205322265,-52.9850883483886,-25.212230682373,-5.54414224624633,3515663176
sw,-84.9953155517578,-53.2733306884765,-9.57284259796142,13.6664524078369,3515679843
sw,-84.8052978515625,-53.6103935241699,20.4076061248779,19.22287940979,3515696510
sw,-84.1862182617187,-53.9074325561523,52.6315650939941,19.362865447998,3515713177
sw,-82.9542160034179,-54.0146446228027,90.5363388061523,7.88459634780883,3515729844
sw,-81.2240753173828,-54.0148658752441,117.199958801269,-1.93002367019653,3515746511
sw,-79.9258117675781,-54.1607589721679,84.9343948364257,4.07951402664184,3515763178
sw,-79.2503967285156,-54.9658660888671,38.2960052490234,45.4885673522949,3515779845
sw,-78.802734375,-56.5631484985351,20.1259994506835,98.0347061157226,3515796512
sw,-78.1508102416992,-58.268814086914,35.8711509704589,105.971389770507,3515813179
sw,-77.2923965454101,-59.6640396118164,54.1919174194335,85.067886352539,3515829846
sw,-76.3568496704101,-60.6369171142578,61.5942230224609,54.1017112731933,3515846513
sw,-75.6417465209961,-61.7481498718261,46.8256912231445,62.6934127807617,3515863180
sw,-75.2134170532226,-62.8244361877441,26.7178230285644,65.1249313354492,3515879847
sw,-75.0355834960937,-64.0042724609375,9.25345802307128,73.4394912719726,3515896514
sw,-75.095344543457,-65.1931762695312,-6.61170864105224,72.4228057861328,3515913181
sw,-75.5322952270507,-66.606086730957,-29.75754737854,86.3532180786132,3515929848
sw,-76.43603515625,-68.1698760986328,-58.0673599243164,99.0604248046875,3515946515
sw,-77.7005081176757,-69.3580703735351,-79.3427124023437,87.8239517211914,3515963182
sw,-79.1984100341796,-70.0773544311523,-92.1269989013671,68.6793899536132,3515979849
sw,-80.8639984130859,-70.6528015136718,-101.638931274414,45.191608428955,3515996516
sw,-83.0746841430664,-71.6224594116211,-136.580627441406,53.0332260131835,3516013183
sw,-85.9186477661132,-73.0291213989257,-186.732635498046,79.3930740356445,3516029850
sw,-87.8292160034179,-74.6886901855468,-214.312911987304,99.7701568603515,3516046517
sw,-85.460334777832,-76.5021667480468,-236.536422729492,115.120323181152,3516063184
sw,-81.4378051757812,-78.1263198852539,-259.194915771484,114.21467590332,3516079851
sw,-75.8603820800781,-79.5636444091796,-339.21548461914,106.852813720703,3516096518
sw,-70.9923629760742,-80.3976974487304,-293.152709960937,44.3599205017089,3516113185
sw,-68.3601150512695,-80.8118133544921,-158.744750976562,-6.69458293914794,3516129852
sw,-65.8851165771484,-81.289436340332,-149.415710449218,-3.04338145256042,3516146519
sw,-63.6069641113281,-81.9068450927734,-137.887908935546,22.7449417114257,3516163186
sw,-62.0407943725585,-82.5955200195312,-95.3200149536132,43.7072372436523,3516179853
sw,-60.8532791137695,-83.2992630004882,-72.6247100830078,59.1815338134765,3516196520
sw,-59.7164115905761,-84.0614852905273,-70.1820907592773,69.9511947631836,3516213187
sw,-58.6600761413574,-84.7887268066406,-66.091796875,59.696189880371,3516229854
sw,-57.9297370910644,-85.4440460205078,-46.380012512207,40.1028022766113,3516246521
sw,-57.2556762695312,-86.0806350708007,-42.1082038879394,36.4226570129394,3516263188
sw,-56.8648033142089,-86.5972824096679,-23.8513431549072,40.2895431518554,3516279855
sw,-56.5461845397949,-86.8434066772461,-19.9498443603515,44.1019783020019,3516296522
sw,-56.0948257446289,-86.7553253173828,-29.3689231872558,47.7204360961914,3516313189
sw,-55.7626495361328,-86.4432296752929,-23.5722866058349,44.8128929138183,3516329856
sw,-55.8324546813964,-86.1194992065429,0.984330177307128,38.4064559936523,3516346523
sw,-56.7585144042968,-85.8759765625,54.8529205322265,31.3640480041503,3516363190
sw,-57.8561897277832,-85.6893920898437,67.5749740600586,27.7848148345947,3516379857
sw,-59.2217292785644,-85.5495300292968,83.7171859741211,25.1392955780029,3516396524
sw,-60.9585494995117,-85.4569244384765,103.516296386718,21.0737991333007,3516413191
sw,-63.2525329589843,-85.5228958129882,133.946029663085,7.63197088241577,3516429858
sw,-66.0318298339843,-85.8193817138671,161.981414794921,-10.3709554672241,3516446525
sw,-68.9896697998046,-86.4251098632812,173.655822753906,-34.0608177185058,3516463192
sw,-71.3647232055664,-87.3249740600586,140.38313293457,-64.1367111206054,3516479859
sw,-72.33544921875,-88.0298995971679,56.8821105957031,-118.129348754882,3516496526
sw,-72.9650115966796,-86.3273620605468,35.8906631469726,-170.184738159179,3516513193
sw,-73.8501586914062,-83.5707168579101,52.5164031982421,-180.44937133789,3516529860
sw,-75.5039138793945,-80.7986297607421,100.526412963867,-172.036865234375,3516546527
sw,-77.4230041503906,-78.0171432495117,115.070877075195,-168.401336669921,3516563194
sw,-79.4851303100586,-74.8950729370117,123.729454040527,-182.470474243164,3516579861
sw,-81.2754898071289,-71.4160003662109,111.414337158203,-195.292938232421,3516596528
sw,-82.6718521118164,-68.0070571899414,93.1070785522461,-186.725601196289,3516613195
sw,-84.0752029418945,-64.7248001098632,102.6782913208,-190.251647949218,3516629862
sw,-85.4345169067382,-61.8436546325683,125.995010375976,-179.705169677734,3516646529
sw,-86.02783203125,-59.5913314819335,150.138290405273,-145.819396972656,3516663196
sw,-84.7957229614257,-57.6525840759277,192.425109863281,-126.031951904296,3516679863
sw,-82.6068649291992,-55.6397590637207,170.381973266601,-127.780570983886,3516696530
sw,-81.4373703002929,-54.1404838562011,76.8703384399414,-95.0579681396484,3516713197
sw,-81.5441818237304,-53.3428268432617,-6.52726507186889,-55.0262069702148,3516729864
sw,-82.5104904174804,-53.14693069458,-58.8393211364746,-19.7023181915283,3516746531
sw,-83.2124557495117,-52.9741287231445,-41.3552322387695,-15.2461061477661,3516763198
sw,-83.0466995239257,-52.7977790832519,14.6786603927612,-10.7896652221679,3516779865
sw,-81.9119186401367,-52.4583854675293,75.8698043823242,-15.8986110687255,3516796532
sw,-80.00830078125,-51.8853874206543,120.822196960449,-29.9744873046875,3516813199
sw,-78.1129837036132,-51.3128509521484,119.140518188476,-35.3912048339843,3516829866
sw,-77.0205917358398,-51.3168334960937,68.2118377685546,-5.23880290985107,3516846533
sw,-76.6340026855468,-52.3391952514648,20.6908817291259,59.1826934814453,3516863200
sw,-76.4345321655273,-53.934642791748,6.92466449737548,98.4344787597656,3516879867
sw,-76.0998153686523,-55.4783134460449,17.9078502655029,96.8153305053711,3516896534
sw,-75.4965515136718,-56.7079963684082,39.1779403686523,76.4379959106445,3516913201
sw,-74.649299621582,-57.9310836791992,56.0939483642578,71.5788803100586,3516929868
sw,-73.8766555786132,-59.6823387145996,50.096923828125,100.530822753906,3516946535
sw,-73.364028930664,-61.8449401855468,31.7539520263671,127.01985168457,3516963202
sw,-73.0640411376953,-64.184944152832,17.019660949707,144.665557861328,3516979869
sw,-72.9529495239257,-66.855239868164,5.32374572753906,168.939010620117,3516996536
sw,-73.0829772949218,-68.2074966430664,-8.15038871765136,89.4372329711914,3517013203
sw,-73.7129440307617,-68.749885559082,-37.0966682434082,47.6194915771484,3517029870
sw,-75.298957824707,-68.8347015380859,-96.0820999145507,2.53842520713806,3517046537
sw,-77.8409347534179,-69.0415649414062,-158.748641967773,7.52614784240722,3517063204
sw,-80.9563674926757,-69.6477279663086,-202.338714599609,36.1938667297363,3517079871
sw,-84.2857437133789,-70.8229064941406,-229.993911743164,71.763671875,3517096538
sw,-86.9002914428711,-72.5592727661132,-240.26838684082,105.01244354248,3517113205
sw,-86.1355819702148,-74.3770217895507,-228.214157104492,110.125419616699,3517129872
sw,-83.1020355224609,-76.1714553833007,-218.680603027343,113.779136657714,3517146539
sw,-78.9637069702148,-78.1323165893554,-254.996353149414,123.936637878417,3517163206
sw,-74.5136032104492,-80.4354858398437,-268.410278320312,134.767776489257,3517179873
sw,-71.0720596313476,-83.0799255371093,-205.995223999023,148.566497802734,3517196540
sw,-67.227310180664,-84.9136199951171,-229.076187133789,102.67333984375,3517213207
sw,-63.5751152038574,-85.2516632080078,-218.044784545898,17.5808029174804,3517229874
sw,-61.1993904113769,-84.515625,-142.044479370117,-38.6577835083007,3517246541
sw,-60.0074958801269,-83.7250289916992,-72.2546463012695,-26.4727096557617,3517263208
sw,-59.9008483886718,-83.5868072509765,-7.78962612152099,31.2098598480224,3517279875
sw,-59.9395904541015,-84.1033554077148,1.1983904838562,86.1054763793945,3517296542
sw,-59.7021255493164,-84.8541030883789,-14.3127698898315,97.7660827636718,3517313209
sw,-59.3549041748046,-85.5304260253906,-20.3027648925781,59.4285888671875,3517329876
sw,-58.9559936523437,-86.02783203125,-24.5844116210937,24.105276107788,3517346543
sw,-58.8046493530273,-86.2825393676757,-11.2205162048339,6.21562528610229,3517363210
sw,-58.8924942016601,-86.3734512329101,2.96120738983154,12.3295440673828,3517379877
sw,-59.3880157470703,-86.21240234375,27.7410430908203,27.7637290954589,3517396544
sw,-60.1874847412109,-85.8669662475586,46.5812606811523,41.1408996582031,3517413211
sw,-61.3096847534179,-85.3422164916992,67.4408416748046,55.7590255737304,3517429878
sw,-62.8435859680175,-84.6755676269531,93.8311462402343,56.3967742919921,3517446545
sw,-64.2981338500976,-84.0815887451171,89.0924072265625,40.1948852539062,3517463212
sw,-65.8566284179687,-83.7436370849609,92.5620040893554,21.2025985717773,3517479879
sw,-67.9479370117187,-83.7437057495117,122.418426513671,6.92721271514892,3517496546
sw,-71.0450210571289,-84.136962890625,182.024200439453,-13.1905288696289,3517513213
sw,-73.3988342285156,-84.9977874755859,139.499069213867,-46.8134956359863,3517529880
sw,-74.3968505859375,-86.5274047851562,59.7189331054687,-110.477890014648,3517546547
sw,-74.6554641723632,-87.2746658325195,12.5928297042846,-188.929748535156,3517563214
sw,-75.0569229125976,-84.3014755249023,21.2855472564697,-251.400039672851,3517579881
sw,-76.0780715942382,-79.7248611450195,61.1140747070312,-289.032806396484,3517596548
sw,-77.6470718383789,-74.8990097045898,93.6761169433593,-287.626861572265,3517613215
sw,-79.5690078735351,-70.6448898315429,113.612121582031,-243.807052612304,3517629882
sw,-81.167984008789,-67.3352127075195,95.3684387207031,-178.721008300781,3517646549
sw,-82.2690887451171,-65.2051162719726,68.5981369018554,-111.737998962402,3517663216
sw,-83.3373870849609,-63.3103218078613,72.5625228881836,-112.132026672363,3517679883
sw,-84.7490539550781,-61.1363677978515,112.137954711914,-137.897918701171,3517696550
sw,-85.7621002197265,-58.4734497070312,130.483932495117,-170.916763305664,3517713217
sw,-85.7118911743164,-56.1426887512207,150.922531127929,-148.272476196289,3517729884
sw,-84.474868774414,-54.8022270202636,151.364944458007,-86.1985626220703,3517746551
sw,-82.9382019042968,-53.896686553955,128.198669433593,-58.2260055541992,3517763218
sw,-81.8509292602539,-53.3995666503906,75.8527526855468,-32.5221672058105,3517779885
sw,-81.3834991455078,-53.2405014038085,23.5570774078369,-12.1918573379516,3517796552
sw,-81.3146591186523,-53.507209777832,-5.15011596679687,13.4894113540649,3517813219
sw,-81.3188018798828,-54.1952056884765,-3.7762382030487,41.6713943481445,3517829886
sw,-81.0422134399414,-54.7387504577636,25.1161766052246,34.1526641845703,3517846553
sw,-80.153823852539,-54.7340011596679,67.4252014160156,-0.962961494922637,3517863220
sw,-78.7561569213867,-54.402244567871,94.8963851928711,-21.6293621063232,3517879887
sw,-77.2826232910156,-54.220344543457,94.0819549560546,-12.4050931930542,3517896554
sw,-75.9444198608398,-54.6486511230468,82.0507659912109,26.5504055023193,3517913221
sw,-75.1622695922851,-55.6519165039062,44.9241104125976,64.5047988891601,3517929888
sw,-74.7014999389648,-56.9079055786132,23.9299144744873,81.4839859008789,3517946555
sw,-74.1610565185546,-57.9276885986328,30.3696956634521,64.2619323730468,3517963222
sw,-73.5563430786132,-58.40571975708,38.0237503051757,27.3627243041992,3517979889
sw,-72.9518051147461,-58.9071922302246,40.1016540527343,29.3621807098388,3517996556
sw,-72.5269927978515,-59.5196838378906,28.5189552307128,39.6676712036132,3518013223
sw,-72.2832107543945,-60.45698928833,15.2789440155029,66.7379913330078,3518029890
sw,-72.1667175292968,-61.7645263671875,5.30824613571167,89.9071960449218,3518046557
sw,-72.1481246948242,-63.5422210693359,-1.98997008800506,108.128028869628,3518063224
sw,-72.3729858398437,-65.8016815185546,-15.6494426727294,132.11474609375,3518079891
sw,-72.8892745971679,-67.4558639526367,-30.9699077606201,96.8227996826171,3518096558
sw,-73.7880172729492,-68.5552825927734,-52.6467399597168,73.7977066040039,3518113225
sw,-75.2162857055664,-69.0221862792968,-84.936050415039,32.0641708374023,3518129892
sw,-77.1723556518554,-69.495361328125,-118.183227539062,28.5485973358154,3518146559
sw,-79.6969909667968,-70.3664779663086,-153.501983642578,50.343276977539,3518163226
sw,-82.7458572387695,-71.5742111206054,-186.987518310546,71.6491775512695,3518179893
sw,-86.0239868164062,-73.089485168457,-206.009475708007,90.781867980957,3518196560
sw,-88.6423187255859,-74.7023162841796,-213.357955932617,97.7550582885742,3518213227
sw,-86.2531509399414,-76.3431320190429,-220.767105102539,107.023857116699,3518229894
sw,-82.5534973144531,-78.385383605957,-228.124969482421,144.584747314453,3518246561
sw,-78.104263305664,-80.6786346435546,-268.236907958984,166.608779907226,3518263228
sw,-73.3773651123046,-82.7223052978515,-284.313323974609,137.626846313476,3518279895
sw,-69.6993789672851,-84.2128372192382,-220.349670410156,65.5934524536132,3518296562
sw,-66.3201904296875,-84.9205932617187,-201.866455078125,-7.43965721130371,3518313229
sw,-63.7705039978027,-84.8232803344726,-152.764007568359,-34.0807418823242,3518329896
sw,-62.4268646240234,-84.5432815551757,-81.4128875732421,-9.9935302734375,3518346563
sw,-61.7997703552246,-84.5149536132812,-38.9067840576171,29.7877559661865,3518363230
sw,-61.47212600708,-84.839126586914,-21.0108089447021,64.2969360351562,3518379897
sw,-60.7580184936523,-85.4161071777343,-44.0503311157226,68.7929611206054,3518396564
sw,-59.7062759399414,-86.1653900146484,-63.9553642272949,62.713623046875,3518413231
sw,-58.7481384277343,-86.7455673217773,-58.2248764038085,45.3337860107421,3518429898
sw,-58.0897140502929,-87.2323303222656,-40.2595672607421,23.549446105957,3518446565
sw,-58.0395545959472,-87.6220016479492,-4.00202512741088,17.0200862884521,3518463232
sw,-58.3563728332519,-87.7150115966796,17.4394073486328,24.7798671722412,3518479899
sw,-58.8429145812988,-87.3398666381836,26.5015048980712,40.1754913330078,3518496566
sw,-59.8179702758789,-86.6224060058593,55.5688858032226,47.349380493164,3518513233
sw,-61.24068069458,-85.8718948364257,83.7942657470703,41.1164016723632,3518529900
sw,-63.1237754821777,-85.3268051147461,112.328727722167,27.0960235595703,3518546567
sw,-65.0498580932617,-85.1033096313476,114.606956481933,12.5696907043457,3518563234
sw,-67.0814819335937,-85.1130447387695,120.45433807373,4.04137182235717,3518579901
sw,-69.4340286254882,-85.3096923828125,138.893646240234,-9.05358505249023,3518596568
sw,-71.2263107299804,-85.8017120361328,105.696983337402,-35.5172042846679,3518613235
sw,-72.1974945068359,-86.6863708496093,56.6736679077148,-81.2059249877929,3518629902
sw,-73.0288467407226,-87.2471466064453,48.6782073974609,-135.543853759765,3518646569
sw,-74.1815490722656,-85.8396682739257,68.7246780395507,-176.9775390625,3518663236
sw,-75.8165740966796,-83.0703506469726,97.8938217163086,-198.101257324218,3518679903
sw,-77.5967025756836,-79.8090667724609,106.494522094726,-202.575149536132,3518696570
sw,-79.5100326538086,-76.3375091552734,115.478416442871,-199.731719970703,3518713237
sw,-81.2477951049804,-72.957893371582,108.525016784667,-180.050247192382,3518729904
sw,-82.7434005737304,-70.1509323120117,98.668960571289,-136.847244262695,3518746571
sw,-84.1886367797851,-67.7562866210937,104.382064819335,-124.533012390136,3518763238
sw,-85.6890716552734,-65.3666458129882,147.305053710937,-146.85432434082,3518779905
sw,-85.8361358642578,-63.055248260498,203.364273071289,-152.766159057617,3518796572
sw,-83.4057846069336,-60.6815452575683,231.303161621093,-158.199249267578,3518813239
sw,-80.5916366577148,-58.205696105957,191.960128784179,-161.865097045898,3518829906
sw,-79.1255874633789,-56.3578186035156,90.7127227783203,-120.528732299804,3518846573
sw,-79.5485763549804,-55.1749610900878,-35.1668014526367,-80.9072875976562,3518863240
sw,-80.989517211914,-54.6665992736816,-101.043716430664,-39.6723022460937,3518879907
sw,-81.8460922241211,-54.7271156311035,-60.6073913574218,-0.89778196811676,3518896574
sw,-81.7831726074218,-55.0357704162597,10.7627744674682,21.7001876831054,3518913241
sw,-80.6031799316406,-55.2259178161621,83.9906539916992,20.4850254058837,3518929908
sw,-78.6076583862304,-55.1008834838867,130.291915893554,0.0473133698105812,3518946575
sw,-76.5655364990234,-55.0057868957519,126.86262512207,-4.39601325988769,3518963242
sw,-75.5656509399414,-55.1784973144531,60.2263755798339,7.54357242584228,3518979909
sw,-75.3560943603515,-55.6086769104003,9.18999099731445,23.1121940612792,3518996576
sw,-74.9779281616211,-56.55517578125,18.4742679595947,56.9131393432617,3519013243
sw,-74.1030120849609,-58.1352462768554,51.1557502746582,99.7536163330078,3519029910
sw,-72.9014205932617,-59.7898635864257,74.7187728881836,107.420913696289,3519046577
sw,-71.8493576049804,-61.0502128601074,68.0230712890625,80.5302810668945,3519063244
sw,-71.2487487792968,-62.2533569335937,39.7228355407714,71.2567901611328,3519079911
sw,-71.0894470214843,-63.4601097106933,10.7849016189575,72.0645675659179,3519096578
sw,-71.0795059204101,-64.466064453125,0.038502350449562,62.7507095336914,3519113245
sw,-70.927131652832,-65.4339065551757,8.38620948791503,61.7875328063964,3519129912
sw,-70.4452819824218,-66.3677368164062,28.7029380798339,58.307632446289,3519146579
sw,-69.8426132202148,-67.3756561279296,36.6637306213378,65.1315231323242,3519163246
sw,-69.6638412475586,-68.4213562011718,11.1962366104125,74.1339797973632,3519179913
sw,-70.2401351928711,-69.287841796875,-34.9452896118164,65.6577682495117,3519196580
sw,-71.5913543701171,-70.1427612304687,-82.2363586425781,57.3781585693359,3519213247
sw,-73.5495452880859,-71.1131515502929,-119.391159057617,54.3352012634277,3519229914
sw,-76.0529022216796,-72.3635711669921,-152.519180297851,70.6823196411132,3519246581
sw,-79.0768280029296,-74.0241317749023,-184.129913330078,105.778488159179,3519263248
sw,-82.5838623046875,-75.8534927368164,-213.136581420898,129.022628784179,3519279915
sw,-86.0952529907226,-77.2965621948242,-212.081329345703,113.51123046875,3519296582
sw,-89.2683181762695,-78.4350891113281,-210.839218139648,89.6749420166015,3519313249
sw,-86.4166870117187,-79.4474792480468,-224.332427978515,72.0623626708984,3519329916
sw,-82.0515670776367,-80.1140747070312,-262.252685546875,40.2674446105957,3519346583
sw,-76.6273498535156,-80.4916763305664,-327.183715820312,9.05953025817871,3519363250
sw,-72.2339172363281,-80.9388961791992,-265.267456054687,9.38618373870849,3519379917
sw,-69.2206726074218,-81.6414031982421,-181.50698852539,27.0856685638427,3519396584
sw,-66.8538284301757,-82.5107727050781,-142.087936401367,45.9120864868164,3519413251
sw,-65.024658203125,-83.2536697387695,-110.256759643554,44.5081672668457,3519429918
sw,-63.3192481994628,-83.7980270385742,-103.2568359375,31.7115230560302,3519446585
sw,-61.6653518676757,-84.2850875854492,-100.378425598144,24.7700576782226,3519463252
sw,-60.4025382995605,-84.8392333984375,-77.0490951538086,26.45263671875,3519479919
sw,-59.4012603759765,-85.482177734375,-61.1630554199218,33.1979446411132,3519496586
sw,-58.6556243896484,-86.1288528442382,-45.2129554748535,39.2298927307128,3519513253
sw,-58.226016998291,-86.6052322387695,-25.6665458679199,41.4364356994628,3519529920
sw,-58.2498130798339,-86.7805252075195,1.49165415763854,41.2735977172851,3519546587
sw,-58.7126083374023,-86.6986770629882,27.1707344055175,38.6261940002441,3519563254
sw,-59.67138671875,-86.5061569213867,56.0426712036132,35.0480003356933,3519579921
sw,-60.9364204406738,-86.2729034423828,74.3975296020507,34.0076942443847,3519596588
sw,-62.0255546569824,-86.0302047729492,64.9795455932617,33.8150939941406,3519613255
sw,-63.5714607238769,-85.8616104125976,93.4989318847656,26.0186824798584,3519629922
sw,-65.4279403686523,-85.7613677978515,112.291633605957,17.890302658081,3519646589
sw,-67.3978576660156,-85.7357559204101,118.350173950195,8.92164611816406,3519663256
sw,-69.3889083862304,-85.8904876708984,118.009689331054,-7.57393646240234,3519679923
sw,-71.3776779174804,-86.4164733886718,117.423698425292,-38.4024391174316,3519696590
sw,-73.0241088867187,-87.3106613159179,98.1331558227539,-83.6766281127929,3519713257
sw,-74.2975082397461,-87.4107131958007,74.747444152832,-143.829864501953,3519729924
sw,-75.0517044067382,-85.0234680175781,40.074478149414,-195.572708129882,3519746591
sw,-76.1723175048828,-81.4780197143554,61.5844573974609,-226.161834716796,3519763258
sw,-77.5894165039062,-77.6731262207031,82.231216430664,-231.102920532226,3519779925
sw,-79.3737411499023,-73.7500228881836,106.037216186523,-233.747467041015,3519796592
sw,-81.2023239135742,-70.101448059082,108.912384033203,-214.299163818359,3519813259
sw,-82.8235092163086,-66.8714828491211,97.0079956054687,-186.754409790039,3519829926
sw,-84.38671875,-63.9766082763671,96.0281753540039,-168.741836547851,3519846593
sw,-86.3346786499023,-61.3264999389648,132.102966308593,-159.408782958984,3519863260
sw,-87.7242813110351,-59.1034927368164,160.97834777832,-136.394790649414,3519879927
sw,-86.337776184082,-57.1221122741699,174.447845458984,-122.79541015625,3519896594
sw,-84.5824584960937,-55.2072982788085,112.558616638183,-118.547698974609,3519913261
sw,-84.0135192871093,-53.5796203613281,22.7148056030273,-101.120223999023,3519929928
sw,-84.3826370239257,-52.5811462402343,-40.7758064270019,-63.205825805664,3519946595
sw,-84.8679809570312,-52.3268890380859,-40.1064987182617,-17.4728202819824,3519963262
sw,-84.8740997314453,-52.6433639526367,8.50267505645752,19.7597637176513,3519979929
sw,-84.2198867797851,-53.3394050598144,56.8327484130859,46.1226234436035,3519996596
sw,-82.9718322753906,-53.9438171386718,87.5926208496093,42.4551086425781,3520013263
sw,-81.4967041015625,-54.1123085021972,94.3591232299804,14.325532913208,3520029930
sw,-80.307258605957,-53.9888687133789,72.7180938720703,-7.89970064163208,3520046597
sw,-79.3371047973632,-53.8744239807128,56.608341217041,-9.45095062255859,3520063264
sw,-78.4379119873046,-54.1526718139648,51.0703735351562,15.7618770599365,3520079931
sw,-77.5148620605468,-55.2039070129394,54.2958602905273,65.9607696533203,3520096598
sw,-76.6302032470703,-56.9925079345703,54.0680847167968,115.513595581054,3520113265
sw,-75.7254867553711,-58.8904113769531,56.2202796936035,126.255104064941,3520129932
sw,-74.7188262939453,-60.1262779235839,62.4294395446777,84.7796020507812,3520146599
sw,-73.7150115966796,-60.9336471557617,61.5585823059082,52.0421485900878,3520163266
sw,-72.9496994018554,-61.914566040039,46.1995429992675,60.8405532836914,3520179933
sw,-72.5413055419921,-62.9814834594726,23.8529014587402,65.9958114624023,3520196600
sw,-72.4467391967773,-64.1632995605468,4.35054302215576,75.1045684814453,3520213267
sw,-72.4322052001953,-65.2992706298828,-0.455380976200103,73.9247512817382,3520229934
sw,-72.5550537109375,-66.5401611328125,-8.38794612884521,80.9774703979492,3520246601
sw,-73.0546188354492,-67.7257385253906,-30.7061920166015,77.8097381591796,3520263268
sw,-73.9180679321289,-68.9048843383789,-52.4013633728027,81.9741592407226,3520279935
sw,-75.0932006835937,-69.7755050659179,-71.313003540039,63.7180824279785,3520296602
sw,-76.5951232910156,-70.476692199707,-91.4699935913086,47.2876548767089,3520313269
sw,-78.5032501220703,-71.4344100952148,-116.568969726562,62.9449806213378,3520329936
sw,-80.91796875,-72.6961288452148,-147.654388427734,84.2178115844726,3520346603
sw,-83.9089889526367,-74.0940856933593,-182.994979858398,95.8587417602539,3520363270
sw,-87.2189178466796,-75.5286178588867,-204.683715820312,95.1506118774414,3520379937
sw,-88.67529296875,-76.8531494140625,-219.603225708007,83.1123275756836,3520396604
sw,-85.0967941284179,-78.1253204345703,-227.686813354492,80.3794326782226,3520413271
sw,-80.8021774291992,-79.1296920776367,-257.646789550781,60.3075447082519,3520429938
sw,-75.7099533081054,-79.834602355957,-306.800354003906,32.1517829895019,3520446605
sw,-72.1564788818359,-80.4744491577148,-215.353546142578,18.1908473968505,3520463272
sw,-69.2742156982421,-81.3050689697265,-175.681640625,28.2401332855224,3520479939
sw,-66.7084503173828,-82.3053207397461,-156.805114746093,43.914867401123,3520496606
sw,-64.8557586669921,-83.1881408691406,-113.519355773925,46.4321212768554,3520513273
sw,-63.5845947265625,-83.8196868896484,-78.4877166748046,38.7983856201171,3520529940
sw,-62.5015525817871,-84.3560409545898,-67.5450973510742,37.816177368164,3520546607
sw,-61.5507621765136,-84.8982315063476,-60.0919075012207,41.11474609375,3520563274
sw,-60.8980407714843,-85.4909362792968,-41.5329284667968,43.8075561523437,3520579941
sw,-60.284423828125,-86.0958557128906,-37.7381134033203,41.7192726135253,3520596608
sw,-59.7458915710449,-86.5986633300781,-32.4529151916503,38.7560119628906,3520613275
sw,-59.3863296508789,-86.8889465332031,-22.3213386535644,37.2545928955078,3520629942
sw,-59.1649894714355,-86.9193038940429,-15.1350708007812,38.3007354736328,3520646609
sw,-59.0129661560058,-86.7441787719726,-12.1540575027465,38.8884239196777,3520663276
sw,-58.9967918395996,-86.4987640380859,-4.48357534408569,36.162368774414,3520679943
sw,-59.0341873168945,-86.2802200317382,-0.0260609630495309,32.9734916687011,3520696610
sw,-59.1359558105468,-86.0890426635742,5.73053503036499,32.7957954406738,3520713277
sw,-59.3886604309082,-85.8948745727539,15.6858148574829,32.6397857666015,3520729944
sw,-59.9527015686035,-85.6572494506836,33.8453712463378,30.4741840362548,3520746611
sw,-60.9992179870605,-85.3948287963867,61.6894073486328,25.7422943115234,3520763278
sw,-62.4361190795898,-85.1892013549804,85.0179901123046,17.1346588134765,3520779945
sw,-64.1566696166992,-85.1724090576171,101.954048156738,2.27937960624694,3520796612
sw,-66.1277694702148,-85.3874740600586,116.10693359375,-14.2207584381103,3520813279
sw,-68.3412780761718,-85.7769165039062,129.971817016601,-26.0965156555175,3520829946
sw,-70.8499679565429,-86.3769073486328,148.624938964843,-42.5910110473632,3520846613
sw,-72.8523559570312,-87.1782531738281,119.67236328125,-68.5767517089843,3520863280
sw,-74.2589874267578,-87.6852264404296,84.3218536376953,-108.204071044921,3520879947
sw,-75.3721084594726,-86.6678085327148,67.213264465332,-129.392684936523,3520896614
sw,-76.4631195068359,-84.8800277709961,66.5593643188476,-129.384170532226,3520913281
sw,-77.9012985229492,-82.986587524414,87.66455078125,-122.923614501953,3520929948
sw,-79.6423721313476,-80.9237976074218,107.046844482421,-126.492698669433,3520946615
sw,-81.4664993286132,-78.5419006347656,116.115524291992,-139.473434448242,3520963282
sw,-83.120376586914,-75.6766128540039,108.540077209472,-163.03857421875,3520979949
sw,-84.5851058959961,-72.5456314086914,95.0127716064453,-176.528564453125,3520996616
sw,-86.0013427734375,-69.4519653320312,99.940803527832,-177.523834228515,3521013283
sw,-86.9065475463867,-66.5663681030273,136.60301208496,-173.508346557617,3521029950
sw,-85.5348587036132,-63.9307556152343,187.816528320312,-166.449874877929,3521046617
sw,-83.231201171875,-61.7153778076171,157.740798950195,-142.232269287109,3521063284
sw,-81.7925033569336,-59.6393890380859,75.2793960571289,-133.536636352539,3521079951
sw,-81.2901840209961,-57.6876335144043,14.6440382003784,-125.784461975097,3521096618
sw,-81.7116012573242,-56.2199668884277,-39.7062225341796,-96.0030136108398,3521113285
sw,-82.2536163330078,-55.7088966369628,-30.8394451141357,-37.4694137573242,3521129952
sw,-82.3913269042968,-55.7678146362304,8.92769050598144,-0.75798749923706,3521146619
sw,-81.7110824584961,-55.9359512329101,56.6569786071777,8.29738903045654,3521163286
sw,-80.2859268188476,-56.0184516906738,93.0491409301757,6.86798429489135,3521179953
sw,-78.6696472167968,-55.9030075073242,99.2137680053711,-3.35429883003234,3521196620
sw,-77.4302978515625,-55.9229774475097,73.5699081420898,2.37318062782287,3521213287
sw,-76.6426620483398,-56.29150390625,44.0682754516601,20.8330268859863,3521229954
sw,-76.0081481933593,-56.9051856994628,35.359088897705,33.0439834594726,3521246621
sw,-75.3339004516601,-58.0671005249023,41.3079566955566,64.8517608642578,3521263288
sw,-74.5741653442382,-59.803539276123,50.058422088623,104.756645202636,3521279955
sw,-73.7614822387695,-61.4372444152832,54.176284790039,103.205162048339,3521296622
sw,-72.9501800537109,-62.6591987609863,52.6634483337402,74.3279495239257,3521313289
sw,-72.2459411621093,-63.9344100952148,43.5506782531738,72.5073776245117,3521329956
sw,-71.66943359375,-64.9625167846679,33.4705619812011,56.4909591674804,3521346623
sw,-71.311050415039,-65.9227905273437,19.0733623504638,53.9455757141113,3521363290
sw,-71.2339096069336,-66.974609375,2.64812970161438,62.0933876037597,3521379957
sw,-71.4681396484375,-67.7748260498046,-14.5231952667236,49.9599723815918,3521396624
sw,-71.7432250976562,-68.6210098266601,-16.1091995239257,55.7852058410644,3521413291
sw,-71.7770309448242,-69.6965179443359,-2.13522124290466,74.6033859252929,3521429958
sw,-71.8321380615234,-70.5230407714843,-4.10599565505981,65.6936569213867,3521446625
sw,-72.252326965332,-71.2470550537109,-25.861494064331,52.908462524414,3521463292
sw,-73.4141540527343,-72.1268234252929,-70.527114868164,50.1496963500976,3521479959
sw,-75.50048828125,-73.3990402221679,-127.052452087402,71.2624130249023,3521496626
sw,-78.3619079589843,-75.0347518920898,-174.762634277343,102.904869079589,3521513293
sw,-81.7727127075195,-76.6959915161132,-207.686264038085,113.991889953613,3521529960
sw,-85.4351654052734,-77.8636016845703,-219.188186645507,82.0527801513671,3521546627
sw,-89.1100082397461,-78.7579803466796,-213.128189086914,58.7345581054687,3521563294
sw,-87.2002639770507,-79.6272964477539,-212.573623657226,53.3721542358398,3521579961
sw,-83.3220901489257,-80.3137588500976,-223.842193603515,39.0664405822753,3521596628
sw,-79.0480117797851,-80.7621765136718,-255.337768554687,17.1517791748046,3521613295
sw,-74.919563293457,-81.4054565429687,-253.30532836914,20.0733337402343,3521629962
sw,-71.2566375732421,-82.3174514770507,-226.848983764648,35.9193878173828,3521646629
sw,-68.4309616088867,-83.1138458251953,-176.123718261718,34.4323348999023,3521663296
sw,-66.3446731567382,-83.6771850585937,-132.27424621582,27.8571071624755,3521679963
sw,-64.7765045166015,-84.1091766357421,-99.7891998291015,20.4753971099853,3521696630
sw,-63.6293449401855,-84.5738983154296,-72.9416122436523,24.3509635925292,3521713297
sw,-62.5997009277343,-85.1540222167968,-65.6384506225586,35.5117149353027,3521729964
sw,-61.8872261047363,-85.7712249755859,-46.1963424682617,38.7475128173828,3521746631
sw,-61.1885795593261,-86.3688659667968,-44.2875366210937,37.3420295715332,3521763298
sw,-60.463752746582,-86.9169540405273,-44.9718208312988,36.1250686645507,3521779965
sw,-59.8501968383789,-87.4113235473632,-38.4778022766113,38.1512718200683,3521796632
sw,-59.387840270996,-87.7582473754882,-29.9980716705322,37.4300346374511,3521813299
sw,-59.0191116333007,-87.8757019042968,-25.1305828094482,35.0966873168945,3521829966
sw,-58.7256813049316,-87.7706832885742,-21.2518672943115,31.9814453125,3521846633
sw,-58.6099853515625,-87.5398712158203,-10.5335235595703,33.4337921142578,3521863300
sw,-58.6976509094238,-87.2318267822265,2.4012234210968,39.1818389892578,3521879967
sw,-58.9293479919433,-86.8726959228515,12.2586917877197,40.9124031066894,3521896634
sw,-59.1041069030761,-86.4995498657226,9.74397468566894,38.4324493408203,3521913301
sw,-59.3227272033691,-86.0975646972656,13.2186346054077,36.2422676086425,3521929968
sw,-59.7915992736816,-85.5843505859375,28.3424530029296,38.4697761535644,3521946635
sw,-60.7362365722656,-85.0442199707031,56.5651016235351,36.3437004089355,3521963302
sw,-62.3890647888183,-84.762580871582,98.3950500488281,19.7075691223144,3521979969
sw,-64.8638687133789,-84.607666015625,145.70588684082,11.9543390274047,3521996636
sw,-67.6920700073242,-84.49853515625,165.098266601562,6.37830066680908,3522013303
sw,-70.9275512695312,-84.5436782836914,189.621673583984,-8.30008316040039,3522029970
sw,-73.7990646362304,-85.0016632080078,170.299224853515,-42.043716430664,3522046637
sw,-75.8544158935546,-85.8597183227539,122.521751403808,-81.6429138183593,3522063304
sw,-77.1760482788086,-86.6817092895507,77.3154602050781,-106.854759216308,3522079971
sw,-78.493423461914,-86.879524230957,76.1882400512695,-124.261909484863,3522096638
sw,-80.2522048950195,-85.7492294311523,103.724975585937,-144.138748168945,3522113305
sw,-82.4574127197265,-83.4091796875,131.169830322265,-167.679077148437,3522129972
sw,-84.8352508544921,-80.3096771240234,141.716522216796,-193.376174926757,3522146639
sw,-87.0064392089843,-76.8561630249023,130.106719970703,-205.892913818359,3522163306
sw,-88.9046096801757,-73.4155197143554,118.7847366333,-201.329925537109,3522179973
sw,-88.8424224853515,-70.2452774047851,109.493217468261,-184.628356933593,3522196640
sw,-87.6913223266601,-67.0135192871093,64.2274627685546,-195.27359008789,3522213307
sw,-87.1638641357421,-64.0173797607421,16.0740947723388,-186.037033081054,3522229974
sw,-86.8303451538086,-61.4010734558105,6.50770854949951,-164.198410034179,3522246641
sw,-86.4360809326171,-59.2710151672363,20.8331623077392,-134.217376708984,3522263308
sw,-85.8990783691406,-57.4558868408203,36.9753913879394,-112.937103271484,3522279975
sw,-85.1884307861328,-56.2090225219726,49.9512710571289,-75.9405899047851,3522296642
sw,-84.0856018066406,-55.4230918884277,72.4853515625,-47.0246543884277,3522313309
sw,-82.9274597167968,-54.7432212829589,70.4098052978515,-41.6779518127441,3522329976
sw,-82.0825958251953,-54.2349281311035,45.7267684936523,-31.3494071960449,3522346643
sw,-81.377944946289,-54.1489944458007,35.193489074707,-4.00315332412719,3522363310
sw,-80.6243667602539,-54.477741241455,42.1347694396972,23.52241897583,3522379977
sw,-79.7413024902343,-55.1328125,55.1066284179687,42.9523773193359,3522396644
sw,-78.7003173828125,-55.9345512390136,66.3475265502929,48.3798675537109,3522413311
sw,-77.667236328125,-57.1619033813476,65.4465942382812,72.0377655029296,3522429978
sw,-76.7858581542968,-59.1420631408691,54.9012641906738,117.95230102539,3522446645
sw,-76.0340499877929,-61.0976943969726,45.5995330810546,115.756134033203,3522463312
sw,-75.3655090332031,-62.7545700073242,39.530158996582,97.3262863159179,3522479979
sw,-74.8117065429687,-64.1310729980468,31.9809646606445,82.4798965454101,3522496646
sw,-74.4420166015625,-65.5051498413086,21.0302543640136,88.3284530639648,3522513313
sw,-74.5042724609375,-66.987564086914,-4.73256874084472,97.9585266113281,3522529980
sw,-75.2589950561523,-68.1434326171875,-46.7165489196777,77.0827941894531,3522546647
sw,-77.0122909545898,-68.5581893920898,-107.621711730957,39.4744644165039,3522563314
sw,-79.9664993286132,-68.8179779052734,-183.357589721679,21.7053165435791,3522579981
sw,-83.7083587646484,-69.2076644897461,-243.815185546875,18.769058227539,3522596648
sw,-86.925910949707,-69.8994140625,-280.554595947265,38.8581466674804,3522613315
sw,-85.4228591918945,-71.0397644042968,-279.447814941406,68.9802017211914,3522629982
sw,-81.959732055664,-72.5672073364257,-244.694992065429,91.5646362304687,3522646649
sw,-77.6471328735351,-74.0856704711914,-274.870025634765,84.3245773315429,3522663316
sw,-73.2162017822265,-75.6028900146484,-272.231262207031,77.1018600463867,3522679983
sw,-70.3349609375,-77.826057434082,-174.048767089843,117.543174743652,3522696650
sw,-67.5061721801757,-80.4415740966796,-168.803298950195,147.287612915039,3522713317
sw,-64.5960311889648,-82.2316131591796,-172.482498168945,111.540176391601,3522729984
sw,-62.1094779968261,-82.763671875,-147.947113037109,35.9255752563476,3522746651
sw,-60.4507522583007,-82.2908020019531,-99.8424530029296,-30.2105693817138,3522763318
sw,-59.811767578125,-81.74462890625,-39.5972862243652,-30.3645687103271,3522779985
sw,-59.8422813415527,-81.9854583740234,0.998098194599151,22.7798500061035,3522796652
sw,-59.8272743225097,-82.9586715698242,-0.703791916370391,68.2040176391601,3522813319
sw,-59.4347915649414,-84.0336990356445,-22.7313480377197,69.8385925292968,3522829986
sw,-58.7910041809082,-84.8485870361328,-38.20796585083,46.3157691955566,3522846653
sw,-58.0257759094238,-85.4824752807617,-46.6243286132812,35.3701286315918,3522863320
sw,-57.3687896728515,-86.0088958740234,-40.7319793701171,28.4844741821289,3522879987
sw,-57.0251083374023,-86.4847564697265,-21.5988101959228,29.3529300689697,3522896654
sw,-56.9770431518554,-86.937141418457,-3.48072814941406,36.7054824829101,3522913321
sw,-57.1148681640625,-87.2799072265625,7.89009809494018,42.0421180725097,3522929988
sw,-57.5440025329589,-87.4032440185546,25.6374053955078,44.7876319885253,3522946655
sw,-58.2825164794921,-87.2960739135742,45.0736236572265,48.7850265502929,3522963322
sw,-59.3379173278808,-87.0279006958007,64.921272277832,50.3947563171386,3522979989
sw,-60.4715118408203,-86.6337280273437,70.2666702270507,50.6824417114257,3522996656
sw,-61.7281494140625,-86.0887908935546,77.1984939575195,51.8072967529296,3523013323
sw,-63.1029167175293,-85.539680480957,83.8146667480468,44.3080749511718,3523029990
sw,-64.7327651977539,-85.093521118164,98.8336029052734,33.8429145812988,3523046657
sw,-66.4914474487304,-84.7485733032226,104.342041015625,26.1849994659423,3523063324
sw,-68.5512466430664,-84.4873275756836,120.52033996582,19.6118278503417,3523079991
sw,-71.1360244750976,-84.3433532714843,150.409530639648,9.79694843292236,3523096658
sw,-74.039192199707,-84.4054260253906,170.223281860351,-6.55875015258789,3523113325
sw,-76.6712341308593,-84.7177658081054,156.15525817871,-27.466941833496,3523129992
sw,-78.3704605102539,-85.0284652709961,101.648620605468,-33.4200057983398,3523146659
sw,-79.5931777954101,-85.3021392822265,71.0992355346679,-35.1201705932617,3523163326
sw,-81.1398696899414,-85.5803985595703,88.5148162841796,-39.1040115356445,3523179993
sw,-83.0472030639648,-85.9061431884765,111.504524230957,-55.287483215332,3523196660
sw,-84.9823379516601,-86.0692672729492,114.571144104003,-75.3764572143554,3523213327
sw,-86.5696640014648,-85.6760940551757,93.4096755981445,-100.487731933593,3523229994
sw,-87.5333557128906,-84.4232482910156,55.6052207946777,-124.728164672851,3523246661
sw,-88.2116241455078,-82.373062133789,38.7216911315918,-151.947814941406,3523263328
sw,-88.8150177001953,-79.7329864501953,35.1968345642089,-173.444747924804,3523279995
sw,-89.3113021850586,-76.728401184082,43.5576362609863,-184.715576171875,3523296662
sw,-88.8666763305664,-73.4717712402343,69.2566452026367,-195.691619873046,3523313329
sw,-87.4522476196289,-70.2219314575195,95.9068145751953,-199.667449951171,3523329996
sw,-86.1493377685546,-67.1103820800781,79.0540161132812,-202.396667480468,3523346663
sw,-85.2876892089843,-64.3361358642578,47.95112991333,-185.587158203125,3523363330
sw,-84.6597747802734,-62.1802520751953,30.7328147888183,-145.945907592773,3523379997
sw,-83.920654296875,-60.4862632751464,37.9271697998046,-112.576850891113,3523396664
sw,-83.2736434936523,-58.6352500915527,33.8897628784179,-121.815658569335,3523413331
sw,-82.5339202880859,-56.6730728149414,42.0431327819824,-126.437705993652,3523429998
sw,-81.8204345703125,-55.3624801635742,43.4858856201171,-83.8649749755859,3523446665
sw,-81.1157608032226,-54.6126403808593,43.6605758666992,-48.5057907104492,3523463332
sw,-80.2844467163086,-54.1503868103027,50.3861351013183,-28.9356079101562,3523479999
sw,-79.4018096923828,-54.0509796142578,52.589054107666,-3.99116778373718,3523496666
sw,-78.5199890136718,-54.3718681335449,52.4722061157226,21.9149131774902,3523513333
sw,-77.5987396240234,-55.1882781982421,55.4092254638671,48.8473854064941,3523530000
sw,-76.7134017944336,-56.1954879760742,53.7483139038085,57.2548065185546,3523546667
sw,-75.8971099853515,-57.7173309326171,49.7586441040039,88.1131362915039,3523563334
sw,-75.0878677368164,-59.6840095520019,48.888931274414,113.109725952148,3523580001
sw,-74.3028182983398,-61.4650764465332,47.0208129882812,99.6991195678711,3523596668
sw,-73.7846755981445,-63.0815505981445,30.8136367797851,89.034797668457,3523613335
sw,-73.7204284667968,-64.8419418334961,3.63817238807678,103.922805786132,3523630002
sw,-73.9187850952148,-66.4929580688476,-12.0533246994018,105.063674926757,3523646669
sw,-74.3191528320312,-67.7741775512695,-24.1214599609375,87.0241622924804,3523663336
sw,-75.0138397216796,-68.2329177856445,-41.9022407531738,44.1322441101074,3523680003
sw,-76.4802551269531,-68.6110305786132,-89.0987854003906,34.481330871582,3523696670
sw,-79.0840759277343,-69.0048065185546,-160.408920288085,20.5466575622558,3523713337
sw,-82.4376602172851,-69.4980087280273,-213.718139648437,26.4648761749267,3523730004
sw,-85.8561782836914,-70.4601898193359,-235.083038330078,55.0530471801757,3523746671
sw,-87.7615737915039,-71.820083618164,-231.308670043945,79.8981704711914,3523763338
sw,-85.5936203002929,-73.3217544555664,-219.841751098632,89.4235687255859,3523780005
sw,-82.3475265502929,-74.5994644165039,-206.570205688476,74.2527847290039,3523796672
sw,-78.7444152832031,-75.7875900268554,-215.786987304687,66.7589874267578,3523813339
sw,-74.7098922729492,-77.0024490356445,-241.692749023437,63.5046119689941,3523830006
sw,-71.428840637207,-78.75244140625,-198.923095703125,91.0392990112304,3523846673
sw,-68.382339477539,-81.1325531005859,-185.717514038085,134.820861816406,3523863340
sw,-65.3231201171875,-83.6430969238281,-186.121871948242,159.088394165039,3523880007
sw,-62.8249015808105,-85.2806777954101,-152.213790893554,122.904571533203,3523896674
sw,-61.0734367370605,-85.7279968261718,-107.767539978027,43.2102661132812,3523913341
sw,-60.2905158996582,-85.4355850219726,-50.1376571655273,-17.4880294799804,3523930008
sw,-60.2524604797363,-84.9367446899414,-5.11576318740844,-30.3829631805419,3523946675
sw,-60.5577774047851,-84.9462280273437,16.8570098876953,11.782335281372,3523963342
sw,-60.6954193115234,-85.6066207885742,8.42056941986084,59.4308013916015,3523980009
sw,-60.438980102539,-86.4455490112304,-14.9594411849975,76.4987487792968,3523996676
sw,-60.0193061828613,-86.9175186157226,-25.4720134735107,68.3666687011718,3524013343
sw,-59.6116790771484,-86.9144744873046,-26.1136684417724,42.9729576110839,3524030010
sw,-59.361701965332,-86.8356018066406,-17.8393592834472,18.0080490112304,3524046677
sw,-59.4418869018554,-86.8297271728515,1.97431123256683,12.8574781417846,3524063344
sw,-59.865852355957,-86.7291183471679,24.004934310913,27.6086540222167,3524080011
sw,-60.3304138183593,-86.2858581542968,27.8147373199462,46.6419639587402,3524096678
sw,-60.671287536621,-85.625747680664,20.9370708465576,50.3818168640136,3524113345
sw,-61.2207489013671,-85.0082550048828,33.4697151184082,42.1153411865234,3524130012
sw,-62.0460319519043,-84.5318069458007,48.9710464477539,33.5639915466308,3524146679
sw,-63.1228523254394,-84.2308883666992,62.9703407287597,26.3125343322753,3524163346
sw,-64.7117843627929,-84.0300827026367,93.3937301635742,21.4487953186035,3524180013
sw,-66.8003997802734,-83.919204711914,123.255134582519,12.066873550415,3524196680
sw,-69.1866149902343,-83.9124374389648,140.32859802246,0.665424406528472,3524213347
sw,-71.6209182739257,-84.2307815551757,143.121597290039,-23.518590927124,3524230014
sw,-73.2032394409179,-85.1863555908203,93.6364364624023,-70.3493957519531,3524246681
sw,-73.9908447265625,-86.5304489135742,45.7623252868652,-119.677772521972,3524263348
sw,-74.3288650512695,-86.9534835815429,17.4507980346679,-165.702850341796,3524280015
sw,-75.1271438598632,-85.2813415527343,45.7341690063476,-170.560852050781,3524296682
sw,-76.4058151245117,-83.1488571166992,75.8410339355468,-147.149780273437,3524313349
sw,-78.1104965209961,-81.1011734008789,102.352653503417,-128.148315429687,3524330016
sw,-79.8998184204101,-78.7641983032226,110.147674560546,-142.768203735351,3524346683
sw,-81.3636474609375,-75.8863677978515,93.3619689941406,-170.94432067871,3524363350
sw,-82.723388671875,-72.5121612548828,87.9659729003906,-198.592193603515,3524380017
sw,-84.2793960571289,-68.8884201049804,104.271827697753,-214.068954467773,3524396684
sw,-85.9624557495117,-65.6260223388671,135.602722167968,-197.329269409179,3524413351
sw,-86.6253128051757,-62.6161499023437,181.043914794921,-186.443618774414,3524430018
sw,-84.9914779663086,-60.3938255310058,183.231399536132,-138.202011108398,3524446685
sw,-83.1480331420898,-58.3362426757812,134.951538085937,-128.126327514648,3524463352
sw,-81.8806610107421,-56.1942520141601,80.1788482666015,-133.762023925781,3524480019
sw,-81.5970458984375,-54.2297897338867,13.3357973098754,-124.3173828125,3524496686
sw,-82.0157394409179,-53.2170906066894,-29.8590087890625,-67.540657043457,3524513353
sw,-82.2942657470703,-53.288272857666,-17.8440017700195,-1.24919831752777,3524530020
sw,-82.1601104736328,-53.9197463989257,11.7499980926513,34.8800354003906,3524546687
sw,-81.2062759399414,-54.7019348144531,65.6031723022461,47.8381309509277,3524563354
sw,-79.6451416015625,-55.225486755371,101.736808776855,39.0118179321289,3524580021
sw,-78.1410369873046,-55.325870513916,94.6692581176757,13.0886421203613,3524596688
sw,-77.0232009887695,-55.6405181884765,66.8188705444336,19.1151580810546,3524613355
sw,-76.2615051269531,-56.5982971191406,43.4831809997558,54.9755172729492,3524630022
sw,-75.7627029418945,-58.1317749023437,29.6438274383544,90.6520919799804,3524646689
sw,-75.3020248413086,-59.7302017211914,29.5486316680908,92.7864608764648,3524663356
sw,-74.7901306152343,-61.1612586975097,33.2656288146972,79.803108215332,3524680023
sw,-74.0816421508789,-62.390037536621,45.0375633239746,69.8925476074218,3524696690
sw,-73.2591857910156,-63.5322761535644,51.0904083251953,71.6245727539062,3524713357
sw,-72.5022048950195,-64.6994018554687,46.0188064575195,78.7804260253906,3524730024
sw,-72.029914855957,-65.920051574707,27.8323879241943,78.3634872436523,3524746691
sw,-72.0342941284179,-67.6028900146484,-1.65593779087066,99.4745407104492,3524763358
sw,-72.4607162475586,-69.20166015625,-26.9452610015869,94.1108932495117,3524780025
sw,-73.2996139526367,-70.2446365356445,-51.4345512390136,71.9576950073242,3524796692
sw,-74.7096328735351,-70.8835296630859,-86.8368072509765,49.1797943115234,3524813359
sw,-76.7319869995117,-71.3993530273437,-126.466087341308,32.1555976867675,3524830026
sw,-79.3555297851562,-72.1873168945312,-167.231887817382,40.8582878112793,3524846693
sw,-82.2316589355468,-73.3877563476562,-188.396789550781,62.2448005676269,3524863360
sw,-85.1009979248046,-75.1817474365234,-199.012481689453,102.195289611816,3524880027
sw,-87.2231521606445,-77.2562026977539,-206.483978271484,123.8955078125,3524896694
sw,-86.2123489379882,-79.419448852539,-208.782089233398,135.413024902343,3524913361
sw,-83.1499786376953,-81.5601959228515,-216.905822753906,144.566421508789,3524930028
sw,-79.0410385131836,-83.0961303710937,-255.603652954101,103.431915283203,3524946695
sw,-74.1116256713867,-83.5707168579101,-296.716064453125,10.656602859497,3524963362
sw,-70.6691665649414,-83.3513565063476,-204.996063232421,-32.8318405151367,3524980029
sw,-68.5078659057617,-82.9899444580078,-128.374938964843,-23.1428642272949,3524996696
sw,-67.0627822875976,-83.0053253173828,-86.4747772216796,12.6959114074707,3525013363
sw,-66.0591659545898,-83.5143051147461,-61.0266189575195,37.4929008483886,3525030030
sw,-65.0681686401367,-84.3694610595703,-60.6609382629394,52.4031295776367,3525046697
sw,-63.8995132446289,-85.0619201660156,-71.4066314697265,43.217227935791,3525063364
sw,-62.6973609924316,-85.3866653442382,-73.3546829223632,19.6366233825683,3525080031
sw,-61.7514610290527,-85.6117095947265,-58.0772438049316,6.49948120117187,3525096698
sw,-61.1892013549804,-85.9521408081054,-35.0234031677246,15.4351549148559,3525113365
sw,-60.836326599121,-86.4150466918945,-22.3600559234619,34.9009094238281,3525130032
sw,-60.5216255187988,-86.7899017333984,-20.6233959197998,50.6324005126953,3525146699
sw,-60.3520240783691,-86.817153930664,-12.5020294189453,54.2576179504394,3525163366
sw,-60.1650962829589,-86.5652160644531,-13.209599494934,48.2747230529785,3525180033
sw,-60.0607833862304,-86.2692337036132,-7.16804456710815,44.30611038208,3525196700
sw,-60.0331230163574,-86.0024261474609,-1.41743457317352,42.8984069824218,3525213367
sw,-60.1451568603515,-85.6865692138671,7.22033643722534,43.8677673339843,3525230034
sw,-60.3808937072753,-85.2739562988281,14.0352125167846,44.6566658020019,3525246701
sw,-60.8248901367187,-84.861343383789,26.2903804779052,40.5821266174316,3525263368
sw,-61.7318725585937,-84.5931777954101,54.4524383544921,30.9275741577148,3525280035
sw,-62.8638725280761,-84.3785552978515,68.4474105834961,26.360216140747,3525296702
sw,-64.1646499633789,-84.1622619628906,78.3536834716796,21.8676853179931,3525313369
sw,-65.9012756347656,-83.9963912963867,103.311225891113,14.8600616455078,3525330036
sw,-68.0068817138671,-83.9593124389648,123.598793029785,4.825119972229,3525346703
sw,-70.6739349365234,-84.1806564331054,157.197723388671,-13.2956018447875,3525363370
sw,-72.776382446289,-84.9465789794921,124.661582946777,-52.045913696289,3525380037
sw,-74.1566314697265,-86.3728561401367,81.6101837158203,-106.548164367675,3525396704
sw,-74.8628540039062,-87.5777969360351,39.4810600280761,-150.824279785156,3525413371
sw,-75.7612380981445,-86.400276184082,50.9733695983886,-179.568389892578,3525430038
sw,-77.0346755981445,-83.5373458862304,75.2223052978515,-197.23094177246,3525446705
sw,-78.7436981201171,-80.1098022460937,102.574493408203,-207.195434570312,3525463372
sw,-80.6868362426757,-76.4686126708984,116.576469421386,-209.110809326171,3525480039
sw,-82.3944549560546,-73.0114517211914,102.391540527343,-192.351379394531,3525496706
sw,-83.9458236694336,-70.2562179565429,95.690200805664,-152.663696289062,3525513373
sw,-85.5454330444336,-67.8561782836914,111.508361816406,-145.839233398437,3525530040
sw,-86.8255386352539,-65.4635772705078,163.983505249023,-153.49624633789,3525546707
sw,-85.5905151367187,-63.2213172912597,202.596466064453,-143.687622070312,3525563374
sw,-83.1678695678711,-60.8570823669433,184.614852905273,-149.844696044921,3525580041
sw,-81.9023818969726,-58.4352416992187,84.8803405761718,-151.261154174804,3525596708
sw,-81.819953918457,-56.6080589294433,-0.822489142417907,-114.291313171386,3525613375
sw,-82.4937133789062,-55.63720703125,-52.6311912536621,-62.5241584777832,3525630042
sw,-82.9559783935546,-55.246971130371,-32.2117462158203,-25.9275302886962,3525646709
sw,-82.686408996582,-55.2480201721191,25.6228122711181,1.3404084444046,3525663376
sw,-81.6126937866211,-55.3022117614746,78.7038192749023,8.00860691070556,3525680043
sw,-79.9609909057617,-55.2175979614257,108.554656982421,0.799559712409973,3525696710
sw,-78.4401473999023,-55.0835571289062,94.8345718383789,-4.45655012130737,3525713377
sw,-77.3491744995117,-55.0687789916992,64.5655364990234,-0.377838522195816,3525730044
sw,-76.6707305908203,-55.2694549560546,37.3849449157714,11.5533370971679,3525746711
sw,-76.1685333251953,-55.9490051269531,26.3979873657226,41.6904220581054,3525763378
sw,-75.3986206054687,-57.433536529541,45.6308670043945,93.0274810791015,3525780045
sw,-74.3077697753906,-59.1134910583496,68.1488952636718,107.362014770507,3525796712
sw,-73.1034851074218,-60.3342857360839,76.2848205566406,77.7011795043945,3525813379
sw,-72.1261825561523,-61.2327919006347,62.2559661865234,54.5845909118652,3525830046
sw,-71.5285491943359,-62.3531990051269,37.550724029541,67.8501434326171,3525846713
sw,-71.2056503295898,-63.7977600097656,19.1134490966796,90.8567428588867,3525863380
sw,-71.0350875854492,-65.3974380493164,9.62836551666259,100.789741516113,3525880047
sw,-71.1527862548828,-67.1521377563476,-7.67240095138549,106.997024536132,3525896714
sw,-71.9805755615234,-68.0595550537109,-50.8275108337402,54.1688499450683,3525913381
sw,-73.9456405639648,-68.6666717529296,-120.393409729003,40.5295715332031,3525930048
sw,-76.9959030151367,-68.7928695678711,-188.689361572265,1.42261445522308,3525946715
sw,-80.3726348876953,-69.0793228149414,-212.94253540039,11.0277376174926,3525963382
sw,-83.9542541503906,-69.7384338378906,-230.888839721679,33.6297492980957,3525980049
sw,-87.2810592651367,-70.9661865234375,-236.689086914062,68.7475662231445,3525996716
sw,-86.7516479492187,-72.6023330688476,-249.810272216796,91.8051452636718,3526013383
sw,-82.7873001098632,-74.3796691894531,-259.202697753906,99.8063201904296,3526030050
sw,-78.1816482543945,-76.0284042358398,-279.073516845703,94.126838684082,3526046717
sw,-73.2488174438476,-78.0161514282226,-296.992584228515,113.12986755371,3526063384
sw,-69.6456069946289,-80.5528411865234,-216.067718505859,141.3466796875,3526080051
sw,-66.6277694702148,-83.3493194580078,-179.538345336914,158.23533630371,3526096718
sw,-63.528507232666,-85.5724258422851,-184.895751953125,133.992034912109,3526113385
sw,-60.590705871582,-86.4411392211914,-176.77912902832,61.1983985900878,3526130052
sw,-58.7632598876953,-86.0891418457031,-110.953964233398,-7.74310827255249,3526146719
sw,-58.4134941101074,-85.6141204833984,-22.5787315368652,-9.68200397491455,3526163386
sw,-58.7747840881347,-85.8026885986328,20.3849277496337,35.981201171875,3526180053
sw,-58.7436447143554,-86.6663360595703,-2.22403216361999,79.5299072265625,3526196720
sw,-58.1304359436035,-87.4185104370117,-36.141975402832,80.7585067749023,3526213387
sw,-57.3487892150878,-87.4138870239257,-46.7109298706054,63.0733680725097,3526230054
sw,-56.6618766784668,-87.0693588256836,-41.6627655029296,37.7722015380859,3526246721
sw,-56.0200386047363,-86.8299179077148,-39.6708259582519,29.309585571289,3526263388
sw,-55.6288948059082,-86.5606613159179,-25.6929969787597,36.482421875,3526280055
sw,-55.7471008300781,-86.0565338134765,4.18761014938354,47.3126945495605,3526296722
sw,-56.253116607666,-85.2174606323242,28.4814643859863,57.6282539367675,3526313389
sw,-57.0656661987304,-84.2712860107421,48.9944496154785,57.6898612976074,3526330056
sw,-58.1962585449218,-83.5369262695312,69.5744552612304,44.0576705932617,3526346723
sw,-59.6325569152832,-82.9737091064453,87.677131652832,35.7482833862304,3526363390
sw,-61.2817344665527,-82.6811752319336,99.3417358398437,19.7089672088623,3526380057
sw,-63.3842658996582,-82.8261947631836,124.739418029785,-8.44586944580078,3526396724
sw,-65.8462600708007,-83.3804397583007,144.119567871093,-34.4900894165039,3526413391
sw,-68.5555725097656,-84.3093185424804,158.68650817871,-57.6185188293457,3526430058
sw,-70.5265197753906,-85.718521118164,115.964538574218,-89.5982360839843,3526446725
sw,-71.6323165893554,-87.4484100341796,64.4587936401367,-124.590370178222,3526463392
sw,-72.6770629882812,-88.0056076049804,59.7377586364746,-153.142105102539,3526480059
sw,-74.3764419555664,-85.9353866577148,99.1728744506836,-169.712997436523,3526496726
sw,-76.3820419311523,-83.2071380615234,118.876098632812,-172.219039916992,3526513393
sw,-78.4944839477539,-80.264289855957,126.008850097656,-175.03318786621,3526530060
sw,-80.5864791870117,-77.1746368408203,125.540000915527,-176.119903564453,3526546727
sw,-82.2683563232421,-73.8435668945312,102.664558410644,-181.700424194335,3526563394
sw,-83.6422042846679,-70.4147415161132,86.5398483276367,-183.705520629882,3526580061
sw,-85.1348190307617,-67.222412109375,99.0675888061523,-181.601211547851,3526596728
sw,-86.7463455200195,-64.1991271972656,130.624069213867,-189.569732666015,3526613395
sw,-87.2396926879882,-61.6054382324218,134.931228637695,-169.770355224609,3526630062
sw,-86.424560546875,-59.6153602600097,95.8059539794921,-133.515991210937,3526646729
sw,-85.8825378417968,-57.6514625549316,28.0080661773681,-131.523361206054,3526663396
sw,-85.7503814697265,-56.0813026428222,-5.09194755554199,-105.871253967285,3526680063
sw,-85.7533340454101,-55.1346206665039,1.11673390865325,-65.2267837524414,3526696730
sw,-85.3240432739257,-54.6920852661132,44.3927268981933,-31.5452671051025,3526713397
sw,-84.312255859375,-54.2893104553222,77.4134368896484,-26.4816818237304,3526730064
sw,-82.984130859375,-53.8327598571777,88.6163864135742,-27.4151630401611,3526746731
sw,-81.7422943115234,-53.2443008422851,77.3016510009765,-35.4495887756347,3526763398
sw,-80.6560287475586,-52.7760543823242,66.3756332397461,-30.5881004333496,3526780065
sw,-79.7130813598632,-52.5347137451171,58.0134773254394,-18.9755859375,3526796732
sw,-78.8920364379882,-52.6157608032226,50.5593299865722,0.421886503696441,3526813399
sw,-78.0564804077148,-53.5085105895996,52.1083984375,51.7773780822753,3526830066
sw,-77.1237182617187,-55.1554260253906,59.1049041748046,101.741462707519,3526846733
sw,-76.0878067016601,-56.9064712524414,65.2871170043945,111.23062133789,3526863400
sw,-75.0315933227539,-58.0571022033691,65.6277236938476,71.1478805541992,3526880067
sw,-74.0803298950195,-59.1759185791015,58.7850074768066,66.2976684570312,3526896734
sw,-73.3161087036132,-60.5326423645019,47.1308097839355,83.0621948242187,3526913401
sw,-72.846206665039,-62.1272926330566,28.2464942932128,99.3352127075195,3526930068
sw,-72.7650909423828,-63.8210716247558,3.61198687553405,105.880668640136,3526946735
sw,-72.9615325927734,-65.3567886352539,-12.9350757598876,93.2137069702148,3526963402
sw,-73.4053268432617,-66.7726364135742,-27.6586856842041,85.9998550415039,3526980069
sw,-74.1393203735351,-67.6790313720703,-45.9308929443359,63.7732734680175,3526996736
sw,-75.3637161254882,-68.3298416137695,-76.8196640014648,51.7918663024902,3527013403
sw,-77.1335906982421,-68.9457702636718,-112.330863952636,37.472785949707,3527030070
sw,-79.2843933105468,-69.7652435302734,-139.457107543945,44.7369422912597,3527046737
sw,-81.7885971069336,-71.1113128662109,-166.115295410156,71.2184143066406,3527063404
sw,-84.5064544677734,-73.0133056640625,-187.852676391601,106.434341430664,3527080071
sw,-86.8109512329101,-75.1708602905273,-202.124328613281,126.643661499023,3527096738
sw,-86.3864822387695,-77.3309249877929,-214.020065307617,133.390930175781,3527113405
sw,-83.2479400634765,-79.5250701904296,-233.454284667968,147.873413085937,3527130072
sw,-78.9021453857421,-81.3251571655273,-272.3876953125,131.248062133789,3527146739
sw,-73.3560791015625,-82.3006896972656,-334.483947753906,58.7301216125488,3527163406
sw,-69.9809951782226,-82.5764617919921,-201.064300537109,-7.85904216766357,3527180073
sw,-68.0400772094726,-82.6888427734375,-115.739700317382,-15.6930313110351,3527196740
sw,-66.4217910766601,-83.1138458251953,-97.1346664428711,21.9651203155517,3527213407
sw,-65.0567321777343,-83.7710647583007,-82.7865524291992,45.1644744873046,3527230074
sw,-63.9923439025878,-84.5267868041992,-65.3254241943359,55.072410583496,3527246741
sw,-62.9045600891113,-85.2222213745117,-66.6480484008789,53.9383468627929,3527263408
sw,-61.7732772827148,-85.8116149902343,-69.0962219238281,48.506492614746,3527280075
sw,-60.788963317871,-86.3329696655273,-60.4062347412109,32.9565849304199,3527296742
sw,-59.9973716735839,-86.9185943603515,-48.5662040710449,28.512107849121,3527313409
sw,-59.4082145690918,-87.4312057495117,-35.6746520996093,34.5374908447265,3527330076
sw,-58.9835052490234,-87.6318969726562,-25.6799392700195,43.6187095642089,3527346743
sw,-58.4038619995117,-87.3996276855468,-35.3999290466308,48.3066291809082,3527363410
sw,-57.9834442138671,-86.9390640258789,-26.554573059082,44.1099777221679,3527380077
sw,-57.9387130737304,-86.4948501586914,-4.11736965179443,36.3089141845703,3527396744
sw,-58.5280494689941,-86.0914993286132,34.8941650390625,34.3475952148437,3527413411
sw,-59.570499420166,-85.7193374633789,63.603099822998,34.0772552490234,3527430078
sw,-60.5758438110351,-85.3498306274414,61.8545303344726,32.6696815490722,3527446745
sw,-61.8151473999023,-84.9161987304687,75.1359634399414,32.6113891601562,3527463412
sw,-63.2610702514648,-84.5779800415039,84.6259155273437,23.7057132720947,3527480079
sw,-65.1125869750976,-84.5450134277343,106.923995971679,3.50679874420166,3527496746
sw,-67.4077606201171,-84.9826126098632,133.637069702148,-27.9366760253906,3527513413
sw,-69.3583908081054,-86.0427932739257,114.759170532226,-71.7173233032226,3527530080
sw,-70.9281997680664,-87.6788940429687,92.8903884887695,-134.638473510742,3527546747
sw,-72.2661514282226,-87.0942459106445,78.6148529052734,-200.441452026367,3527563414
sw,-73.4753952026367,-83.5582885742187,70.5513763427734,-240.362472534179,3527580081
sw,-75.0543670654296,-79.4029235839843,93.2958297729492,-254.467498779296,3527596748
sw,-76.8569641113281,-75.1475448608398,107.113372802734,-250.880752563476,3527613415
sw,-78.7465667724609,-71.1483459472656,112.272918701171,-224.902313232421,3527630082
sw,-80.4099044799804,-68.0556640625,98.9756469726562,-162.962188720703,3527646749
sw,-81.7836990356445,-65.5780563354492,82.8428726196289,-135.410568237304,3527663416
sw,-83.3699874877929,-63.4430389404296,101.320205688476,-129.536178588867,3527680083
sw,-85.0403823852539,-61.3987960815429,122.357803344726,-132.272735595703,3527696750
sw,-86.2251968383789,-58.8228683471679,133.172149658203,-167.651641845703,3527713417
sw,-86.2570724487304,-56.6222610473632,147.63117980957,-141.119476318359,3527730084
sw,-85.0160293579101,-55.475528717041,144.666366577148,-74.5809173583984,3527746751
sw,-83.7399749755859,-54.6000671386718,100.901863098144,-56.938190460205,3527763418
sw,-83.20361328125,-54.0665092468261,37.20556640625,-34.7774505615234,3527780085
sw,-83.2438430786132,-53.8399124145507,-3.5323371887207,-15.4809551239013,3527796752
sw,-83.2584915161132,-53.8699569702148,-2.28754019737243,0.604664504528045,3527813419
sw,-82.8614425659179,-54.19038772583,28.5455379486084,20.0145854949951,3527830086
sw,-81.8998184204101,-54.5864868164062,67.7460708618164,26.2613887786865,3527846753
sw,-80.3616180419921,-54.8524284362793,101.896743774414,18.5834274291992,3527863420
sw,-78.781265258789,-54.9065818786621,102.202018737792,5.29945087432861,3527880087
sw,-77.4796142578125,-55.1545639038085,81.5174255371093,16.3261528015136,3527896754
sw,-76.4528884887695,-56.1566772460937,60.2964172363281,63.297077178955,3527913421
sw,-75.6654434204101,-57.9420127868652,43.1781616210937,114.202438354492,3527930088
sw,-74.8301696777343,-59.9747428894043,47.9371490478515,133.579711914062,3527946755
sw,-73.9727554321289,-61.3783226013183,53.1961669921875,90.5430679321289,3527963422
sw,-73.1636123657226,-62.3339195251464,52.3377342224121,53.447093963623,3527980089
sw,-72.6026306152343,-63.327781677246,36.4288139343261,52.6572647094726,3527996756
sw,-72.4231262207031,-64.0148468017578,11.069052696228,38.0194129943847,3528013423
sw,-72.5787277221679,-64.8318252563476,-10.8480339050292,52.9217720031738,3528030090
sw,-72.8874435424804,-66.0054016113281,-20.6200447082519,79.2177124023437,3528046757
sw,-72.910903930664,-67.2674026489257,-3.06879019737243,84.4023971557617,3528063424
sw,-72.6746139526367,-68.469367980957,13.1481981277465,81.3049697875976,3528080091
sw,-72.7354125976562,-69.2166213989257,-4.23693180084228,52.5778045654296,3528096758
sw,-73.6023788452148,-69.8581771850586,-53.8149375915527,40.3041267395019,3528113425
sw,-75.4962158203125,-70.8915710449218,-118.125022888183,59.1989288330078,3528130092
sw,-78.2671279907226,-72.3029479980468,-173.260543823242,80.1715698242187,3528146759
sw,-81.6139755249023,-73.9762725830078,-211.163208007812,99.4587860107421,3528163426
sw,-85.2303848266601,-75.5999526977539,-234.864227294921,99.3433609008789,3528180093
sw,-87.9313354492187,-77.0560226440429,-225.570556640625,90.5300064086914,3528196760
sw,-86.3596572875976,-78.5143585205078,-217.853515625,94.0136337280273,3528213427
sw,-82.8746490478515,-79.9737167358398,-222.635025024414,93.6719055175781,3528230094
sw,-78.3428192138671,-81.169075012207,-274.163757324218,64.0863037109375,3528246761
sw,-74.5894775390625,-82.0306091308593,-226.149719238281,31.8473052978515,3528263428
sw,-71.4236679077148,-82.5522384643554,-190.688095092773,15.6129674911499,3528280095
sw,-68.4149169921875,-82.890640258789,-180.88377380371,17.1821384429931,3528296762
sw,-66.1319580078125,-83.2478866577148,-137.396682739257,27.7872562408447,3528313429
sw,-64.965217590332,-83.7242736816406,-71.0376205444336,36.7701263427734,3528330096
sw,-64.084846496582,-84.3807830810546,-54.0875587463378,44.2183837890625,3528346763
sw,-63.1210784912109,-85.1369552612304,-59.1511726379394,44.8036651611328,3528363430
sw,-62.0491905212402,-85.8723220825195,-65.5752792358398,41.8146171569824,3528380097
sw,-60.8869972229003,-86.5288696289062,-70.7027130126953,38.7435646057128,3528396764
sw,-60.0475463867187,-87.0663528442382,-50.8930931091308,35.0626602172851,3528413431
sw,-59.6496620178222,-87.4213180541992,-24.1703739166259,34.0484008789062,3528430098
sw,-59.4442901611328,-87.5416259765625,-12.909854888916,33.6265754699707,3528446765
sw,-59.3729362487793,-87.4516296386718,-5.58210611343383,38.0612297058105,3528463432
sw,-59.2453346252441,-87.1856155395507,-9.96679592132568,42.0625839233398,3528480099
sw,-59.5320930480957,-86.7830200195312,15.4061250686645,44.1403846740722,3528496766
sw,-60.1181182861328,-86.3625030517578,35.0931320190429,41.478515625,3528513433
sw,-60.6697006225585,-86.0313873291015,34.0997505187988,33.245979309082,3528530100
sw,-61.486270904541,-85.7381439208984,50.494285583496,27.6856613159179,3528546767
sw,-62.6315460205078,-85.3564071655273,69.0252685546875,30.0867004394531,3528563434
sw,-64.4708557128906,-84.9661178588867,108.631561279296,28.3503131866455,3528580101
sw,-66.883804321289,-84.717544555664,140.688385009765,17.4946765899658,3528596768
sw,-69.3918838500976,-84.680435180664,145.629516601562,1.72033512592315,3528613435
sw,-71.3786087036132,-85.0347366333007,116.86449432373,-26.8252334594726,3528630102
sw,-72.8003616333007,-86.0794906616211,84.3931655883789,-80.2535247802734,3528646769
sw,-73.8643569946289,-87.4547042846679,61.4512252807617,-141.018722534179,3528663436
sw,-75.0745697021484,-86.8330612182617,69.4960174560546,-182.283294677734,3528680103
sw,-76.7006072998046,-84.0050506591796,96.1621551513671,-206.563568115234,3528696770
sw,-78.6491394042968,-80.4530944824218,116.877037048339,-219.517974853515,3528713437
sw,-80.6716079711914,-76.5864715576171,121.435440063476,-225.010681152343,3528730104
sw,-82.434829711914,-72.9877243041992,106.852935791015,-199.005508422851,3528746771
sw,-83.9340209960937,-70.1374893188476,94.2334594726562,-151.8544921875,3528763438
sw,-85.4587783813476,-67.7037200927734,108.101669311523,-142.52537536621,3528780105
sw,-86.833625793457,-65.423225402832,162.651870727539,-145.399856567382,3528796772
sw,-85.9144744873046,-63.0211944580078,189.458541870117,-155.332931518554,3528813439
sw,-83.6747283935546,-60.3304595947265,176.534957885742,-171.91096496582,3528830106
sw,-82.2003936767578,-57.7674713134765,97.9445495605468,-162.12010192871,3528846773
sw,-82.007583618164,-56.1410598754882,7.80331707000732,-103.5386428833,3528863440
sw,-82.7175369262695,-55.1654739379882,-50.8657608032226,-64.7791213989257,3528880107
sw,-83.1134796142578,-54.7555122375488,-27.4857082366943,-27.6143722534179,3528896774
sw,-82.6041030883789,-54.5625228881835,36.8761558532714,-10.2444715499877,3528913441
sw,-81.2848587036132,-54.3750267028808,88.9245376586914,-6.74839878082275,3528930108
sw,-79.5545654296875,-53.9835815429687,111.029678344726,-19.4092540740966,3528946775
sw,-77.9157409667968,-53.51953125,101.385025024414,-26.8987731933593,3528963442
sw,-76.6979675292968,-53.3015174865722,72.3073577880859,-14.9903678894042,3528980109
sw,-76.0092697143554,-53.4055290222168,38.4099426269531,4.70773935317993,3528996776
sw,-75.461441040039,-53.8423881530761,30.6731986999511,26.5146884918212,3529013443
sw,-74.841323852539,-54.8019638061523,36.56494140625,59.6806030273437,3529030110
sw,-74.0697174072265,-56.4831466674804,46.7717933654785,106.172302246093,3529046777
sw,-73.1926116943359,-58.3044776916503,53.2837791442871,116.824676513671,3529063444
sw,-72.3692398071289,-59.9039077758789,49.6663055419921,102.331733703613,3529080111
sw,-71.7312393188476,-61.4337196350097,38.2383117675781,94.6591186523437,3529096778
sw,-71.4158325195312,-63.010929107666,18.7121963500976,97.9521942138671,3529113445
sw,-71.4191970825195,-64.5771102905273,-0.948323309421539,96.3345642089843,3529130112
sw,-71.7902069091796,-65.9762573242187,-23.4704875946044,88.0288162231445,3529146779
sw,-72.8303833007812,-66.9986190795898,-63.9554862976074,66.0583038330078,3529163446
sw,-74.6273040771484,-67.7604751586914,-109.822891235351,57.5387992858886,3529180113
sw,-77.158950805664,-68.3146667480468,-155.505981445312,37.2450332641601,3529196780
sw,-80.0275650024414,-68.9959945678711,-178.79832458496,36.2255668640136,3529213447
sw,-83.0402145385742,-70.041259765625,-193.533889770507,58.269115447998,3529230114
sw,-86.0226593017578,-71.6162948608398,-209.530853271484,91.147720336914,3529246781
sw,-87.42724609375,-73.7853240966796,-224.202758789062,130.889404296875,3529263448
sw,-84.8399581909179,-76.2347412109375,-235.611862182617,153.822845458984,3529280115
sw,-80.8258590698242,-78.6944274902343,-258.298034667968,161.384933471679,3529296782
sw,-75.1529312133789,-80.5974884033203,-343.71353149414,127.474647521972,3529313449
sw,-70.3498458862304,-81.6121292114257,-287.62466430664,57.69429397583,3529330116
sw,-67.1648025512695,-81.7773208618164,-189.430541992187,-15.7992162704467,3529346783
sw,-64.3690872192382,-81.6416625976562,-166.461593627929,-32.3237915039062,3529363450
sw,-62.5886459350585,-81.8722534179687,-106.806312561035,7.13171005249023,3529380117
sw,-61.7754898071289,-82.5639114379882,-49.7933807373046,49.5989952087402,3529396784
sw,-61.2582054138183,-83.4006729125976,-32.376220703125,66.5641479492187,3529413451
sw,-60.4980392456054,-84.1965103149414,-46.7953948974609,63.9645805358886,3529430118
sw,-59.3415794372558,-85.0101776123046,-70.5681457519531,53.9864082336425,3529446785
sw,-58.2724838256835,-85.7673797607421,-65.4703292846679,33.3576622009277,3529463452
sw,-57.5269470214843,-86.554458618164,-45.6074981689453,23.6450729370117,3529480119
sw,-57.2587623596191,-87.3166427612304,-15.8998708724975,29.7722625732421,3529496786
sw,-57.0044822692871,-87.9127807617187,-15.1408081054687,43.6584091186523,3529513453
sw,-56.822280883789,-88.035171508789,-11.8482656478881,55.3292732238769,3529530120
sw,-56.6790695190429,-87.568359375,-10.3428001403808,56.3022308349609,3529546787
sw,-56.7005310058593,-86.9599227905273,-0.294789761304855,49.1015472412109,3529563454
sw,-57.2593307495117,-86.497200012207,33.4456787109375,41.1342391967773,3529580121
sw,-58.1280097961425,-86.1248092651367,53.4695358276367,39.0354499816894,3529596788
sw,-59.4386100769043,-85.6998519897461,80.531379699707,40.4670867919921,3529613455
sw,-60.8173370361328,-85.2643051147461,83.0586318969726,35.554271697998,3529630122
sw,-62.4875450134277,-84.9216766357421,97.8487548828125,25.5598793029785,3529646789
sw,-64.5756530761718,-84.8376846313476,121.173950195312,7.52025699615478,3529663456
sw,-67.0569915771484,-85.1156921386718,145.027557373046,-16.0788879394531,3529680123
sw,-69.6448287963867,-85.8946380615234,153.192337036132,-49.3209533691406,3529696790
sw,-71.5746002197265,-87.4098052978515,115.320571899414,-104.57347869873,3529713457
sw,-72.7976531982421,-88.2978515625,71.0487442016601,-167.878326416015,3529730124
sw,-74.0384902954101,-85.4618377685546,70.2116470336914,-214.908309936523,3529746791
sw,-75.7526168823242,-81.7996520996093,100.654098510742,-225.548370361328,3529763458
sw,-77.6396865844726,-78.3176193237304,112.903244018554,-207.746810913085,3529780125
sw,-79.5702514648437,-75.0020370483398,115.347923278808,-194.449569702148,3529796792
sw,-81.2719268798828,-71.6422958374023,102.955772399902,-192.572479248046,3529813459
sw,-82.7128829956054,-68.7192916870117,90.3398361206054,-162.21922302246,3529830126
sw,-84.3814468383789,-65.8461837768554,108.411071777343,-164.716812133789,3529846793
sw,-86.2920761108398,-63.0092620849609,148.195831298828,-173.097503662109,3529863460
sw,-87.019287109375,-60.4762458801269,160.950897216796,-160.855834960937,3529880127
sw,-85.8187255859375,-58.091796875,136.330108642578,-152.957412719726,3529896794
sw,-85.0487213134765,-55.9702568054199,45.3241539001464,-134.819732666015,3529913461
sw,-84.9306716918945,-54.3376998901367,-8.84124755859375,-104.663223266601,3529930128
sw,-85.0861434936523,-53.2207336425781,-22.6981868743896,-72.2796020507812,3529946795
sw,-84.9706039428711,-52.477668762207,12.6516313552856,-47.1316184997558,3529963462
sw,-84.3009567260742,-51.8883209228515,57.9531364440918,-35.5339622497558,3529980129
sw,-83.1531829833984,-51.4019432067871,85.0174102783203,-29.3584098815917,3529996796
sw,-81.8617782592773,-50.99658203125,85.7028274536132,-25.8592185974121,3530013463
sw,-80.6176147460937,-50.7052154541015,78.4486923217773,-19.9405441284179,3530030130
sw,-79.6175765991211,-50.6019020080566,61.3771514892578,-8.430513381958,3530046797
sw,-78.8649826049804,-50.8383827209472,45.0096244812011,12.7841672897338,3530063464
sw,-78.1866683959961,-51.5384101867675,40.9883766174316,41.6693458557128,3530080131
sw,-77.4065399169921,-52.7711639404296,48.5106010437011,75.4482879638671,3530096798
sw,-76.5416717529296,-54.2735290527343,54.4266242980957,93.9181365966796,3530113465
sw,-75.7075805664062,-55.8028030395507,52.3793220520019,96.6671524047851,3530130132
sw,-74.9903259277343,-57.2507057189941,44.4001159667968,91.8153228759765,3530146799
sw,-74.4221572875976,-58.8683357238769,35.1974067687988,100.540382385253,3530163466
sw,-73.9452667236328,-60.8360328674316,29.4801006317138,119.13419342041,3530180133
sw,-73.5503692626953,-63.0535049438476,24.3693199157714,133.05142211914,3530196800
sw,-73.1700668334961,-65.01513671875,23.191535949707,118.335266113281,3530213467
sw,-72.9070892333984,-66.3805618286132,15.7293825149536,85.7163162231445,3530230134
sw,-72.9624710083007,-67.5698623657226,-3.83337712287902,77.7136306762695,3530246801
sw,-73.4779663085937,-68.7388687133789,-32.019416809082,83.1720199584961,3530263468
sw,-74.5677719116211,-69.6941833496093,-67.8108596801757,71.3643112182617,3530280135
sw,-76.2541198730468,-70.3821487426757,-105.675651550292,44.6104469299316,3530296802
sw,-78.4019775390625,-71.34765625,-135.795989990234,54.6775703430175,3530313469
sw,-80.864990234375,-72.7192840576171,-157.11277770996,75.6207962036132,3530330136
sw,-83.5804824829101,-74.5249633789062,-175.383819580078,103.485054016113,3530346803
sw,-86.3144302368164,-76.4373397827148,-191.534454345703,117.011840820312,3530363470
sw,-87.5391616821289,-78.3288803100586,-201.86262512207,124.291221618652,3530380137
sw,-85.0876998901367,-79.9368667602539,-221.506042480468,112.812896728515,3530396804
sw,-80.8616714477539,-81.1835708618164,-268.181854248046,93.752944946289,3530413471
sw,-74.7075958251953,-81.9204177856445,-371.515838623046,49.3001480102539,3530430138
sw,-70.4825439453125,-82.2527618408203,-253.702865600585,6.12261772155761,3530446805
sw,-68.2488021850586,-82.6262664794921,-134.40625,5.01918125152587,3530463472
sw,-66.4276580810546,-83.3942642211914,-109.866386413574,38.7428932189941,3530480139
sw,-64.828384399414,-84.211181640625,-96.862319946289,48.9187774658203,3530496806
sw,-63.3979530334472,-84.7809143066406,-86.9329681396484,42.0026473999023,3530513473
sw,-62.0798645019531,-85.1424789428711,-80.3737564086914,33.8501472473144,3530530140
sw,-60.977554321289,-85.504165649414,-67.6672897338867,28.4412078857421,3530546807
sw,-60.0989646911621,-85.9430541992187,-54.3908309936523,25.417682647705,3530563474
sw,-59.4204063415527,-86.4713668823242,-42.0357627868652,27.5654926300048,3530580141
sw,-58.9434127807617,-87.0094528198242,-29.3894634246826,35.129524230957,3530596808
sw,-58.5702934265136,-87.365966796875,-22.8129806518554,42.6538734436035,3530613475
sw,-58.2796401977539,-87.330093383789,-17.9949722290039,45.9687194824218,3530630142
sw,-58.1968307495117,-86.9304428100586,-6.1427583694458,50.9302635192871,3530646809
sw,-58.1495399475097,-86.4032135009765,-4.68729829788208,49.4906005859375,3530663476
sw,-58.8484649658203,-85.93798828125,40.2380294799804,41.8550872802734,3530680143
sw,-60.2700767517089,-85.5056915283203,84.8480911254882,40.6262702941894,3530696810
sw,-61.8737564086914,-85.0967559814453,96.7967300415039,39.1584129333496,3530713477
sw,-64.0478820800781,-84.8084640502929,130.825485229492,26.6872787475585,3530730144
sw,-66.4338150024414,-84.7384719848632,142.307327270507,6.39509010314941,3530746811
sw,-69.0347824096679,-84.9105377197265,154.385650634765,-14.6114349365234,3530763478
sw,-70.6336898803711,-85.3897247314453,95.3371963500976,-39.5628585815429,3530780145
sw,-71.8476181030273,-86.4438400268554,71.2510833740234,-87.1454925537109,3530796812
sw,-73.0528793334961,-87.4910278320312,68.8037719726562,-140.647689819335,3530813479
sw,-74.5739440917968,-86.3607864379882,89.650276184082,-176.424163818359,3530830146
sw,-76.6535720825195,-83.7365264892578,125.352485656738,-184.446151733398,3530846813
sw,-78.9090194702148,-80.5719146728515,135.351257324218,-194.622344970703,3530863480
sw,-81.2866134643554,-77.1295318603515,142.216979980468,-201.787628173828,3530880147
sw,-83.3880844116211,-73.7857131958007,127.561256408691,-188.001571655273,3530896814
sw,-85.0043258666992,-70.8910217285156,106.205650329589,-155.776565551757,3530913481
sw,-86.3345718383789,-68.5475311279296,116.862144470214,-126.760063171386,3530930148
sw,-86.6188125610351,-66.0780181884765,182.358047485351,-149.977157592773,3530946815
sw,-84.034683227539,-63.4554443359375,238.575286865234,-167.909439086914,3530963482
sw,-81.8558959960937,-60.6829605102539,141.86604309082,-176.796920776367,3530980149
sw,-81.5272521972656,-58.3403892517089,11.9186534881591,-148.358520507812,3530996816
sw,-82.1660919189453,-56.9227905273437,-46.6259651184082,-93.5860519409179,3531013483
sw,-82.8640899658203,-55.9841041564941,-45.105857849121,-64.3542861938476,3531030150
sw,-82.9399795532226,-55.5686836242675,0.775948822498321,-28.3693618774414,3531046817
sw,-82.1801147460937,-55.5828590393066,53.2482604980468,4.10608530044555,3531063484
sw,-80.535415649414,-55.6716766357421,106.513603210449,13.1579065322875,3531080151
sw,-78.6220169067382,-55.6230545043945,121.264984130859,2.07543230056762,3531096818
sw,-77.3383102416992,-55.7942810058593,77.9489364624023,10.4018287658691,3531113485
sw,-76.7548904418945,-56.2583198547363,30.4006671905517,26.5946292877197,3531130152
sw,-76.3463439941406,-56.9411354064941,19.2438354492187,41.0893402099609,3531146819
sw,-75.7254638671875,-57.8866539001464,37.2334327697753,56.7227210998535,3531163486
sw,-74.8752899169921,-59.5506591796875,55.3709335327148,99.6791076660156,3531180153
sw,-73.9001922607421,-61.4390830993652,63.9507904052734,114.980415344238,3531196820
sw,-73.0866622924804,-63.1034278869628,52.4104232788085,101.849792480468,3531213487
sw,-72.6753997802734,-64.4109497070312,25.5094718933105,75.4524230957031,3531230154
sw,-72.6567611694336,-65.3255996704101,0.00711393309757113,50.9868011474609,3531246821
sw,-72.6545944213867,-66.0615310668945,-1.22930765151977,45.0043563842773,3531263488
sw,-72.3556060791015,-67.0583267211914,17.5021991729736,65.2281875610351,3531280155
sw,-71.8694152832031,-68.3103408813476,29.2923183441162,83.6662445068359,3531296822
sw,-71.6117858886718,-69.4762344360351,15.5569238662719,80.42529296875,3531313489
sw,-71.9656829833984,-70.2727813720703,-22.2404727935791,65.9456939697265,3531330156
sw,-73.183349609375,-70.9122924804687,-75.7111129760742,53.7996444702148,3531346823
sw,-75.4545440673828,-71.820930480957,-141.200973510742,57.5820350646972,3531363490
sw,-78.4604263305664,-73.0972290039062,-188.881286621093,74.4545059204101,3531380157
sw,-81.9520645141601,-74.697639465332,-221.835632324218,99.2483901977539,3531396824
sw,-85.5258712768554,-76.5232315063476,-233.270385742187,124.035789489746,3531413491
sw,-87.9147567749023,-78.2208557128906,-224.612991333007,119.276535034179,3531430158
sw,-85.8508377075195,-79.4647598266601,-225.405624389648,87.9793090820312,3531446825
sw,-81.5349960327148,-80.4134750366211,-271.376007080078,65.8931655883789,3531463492
sw,-75.3891983032226,-80.6205368041992,-370.467193603515,18.0500774383544,3531480159
sw,-70.4329833984375,-80.5440063476562,-297.860412597656,1.25389170646667,3531496826
sw,-67.613296508789,-80.9180374145507,-169.825119018554,13.6002950668334,3531513493
sw,-65.4654388427734,-81.8466186523437,-129.445861816406,39.6350746154785,3531530160
sw,-63.583625793457,-82.7554092407226,-113.723289489746,44.3599128723144,3531546827
sw,-62.0599250793457,-83.3547134399414,-92.6237030029296,34.4620132446289,3531563494
sw,-60.5421676635742,-83.7842330932617,-92.3634872436523,26.6456222534179,3531580161
sw,-59.0018806457519,-84.2549514770507,-94.1215744018554,22.1543292999267,3531596828
sw,-57.8212547302246,-84.8140106201171,-72.4639053344726,24.4820156097412,3531613495
sw,-57.2478370666503,-85.423843383789,-35.7867584228515,32.326732635498,3531630162
sw,-56.9471130371093,-85.9574127197265,-19.258316040039,36.9150505065918,3531646829
sw,-56.849609375,-86.3211364746093,-6.83503103256225,38.3886337280273,3531663496
sw,-57.1048698425293,-86.495132446289,14.2714462280273,41.5365562438964,3531680163
sw,-57.5013465881347,-86.4891662597656,22.8108959197998,45.7284088134765,3531696830
sw,-58.0142211914062,-86.3390579223632,29.839973449707,47.319709777832,3531713497
sw,-59.1044692993164,-86.0962600708007,64.4775161743164,43.5133972167968,3531730164
sw,-60.6855278015136,-85.7919692993164,94.4544448852539,40.3401107788085,3531746831
sw,-62.6940956115722,-85.3933792114257,120.479141235351,40.6759223937988,3531763498
sw,-64.8577728271484,-84.933609008789,129.609497070312,39.0890617370605,3531780165
sw,-67.052001953125,-84.5546493530273,130.139328002929,29.3477001190185,3531796832
sw,-69.3992691040039,-84.3330307006836,138.12449645996,15.3185892105102,3531813499
sw,-71.8336029052734,-84.4243774414062,143.218215942382,-7.87767457962036,3531830166
sw,-73.4791183471679,-85.091323852539,97.6023559570312,-50.9384689331054,3531846833
sw,-74.6810073852539,-86.3375091552734,70.4712219238281,-111.832366943359,3531863500
sw,-75.6047134399414,-86.8196182250976,52.215476989746,-175.822875976562,3531880167
sw,-77.0325164794921,-84.3751068115234,84.8060302734375,-227.565887451171,3531896834
sw,-78.8052368164062,-80.3733673095703,108.397331237792,-259.127502441406,3531913501
sw,-80.8176574707031,-76.0416412353515,123.620895385742,-260.529754638671,3531930168
sw,-82.7700805664062,-72.0092544555664,122.741821289062,-234.590286254882,3531946835
sw,-84.2320480346679,-68.6667938232421,100.568710327148,-187.332946777343,3531963502
sw,-85.3585205078125,-65.7655029296875,94.8952713012695,-162.912643432617,3531980169
sw,-86.2919235229492,-63.5718002319335,144.034194946289,-129.997985839843,3531996836
sw,-85.5571517944336,-61.5086936950683,173.672531127929,-130.394439697265,3532013503
sw,-83.6101531982421,-59.0563774108886,164.122131347656,-158.387725830078,3532030170
sw,-81.9833755493164,-56.3487701416015,106.417213439941,-173.152938842773,3532046837
sw,-81.5634155273437,-54.4625434875488,22.102294921875,-121.574729919433,3532063504
sw,-82.1668701171875,-53.3889923095703,-48.3596649169921,-71.2301864624023,3532080171
sw,-82.7542724609375,-52.9216690063476,-46.5919532775878,-31.6786708831787,3532096838
sw,-82.6439056396484,-52.7844543457031,8.53964614868164,-7.42370891571044,3532113505
sw,-81.7809524536132,-52.6381378173828,62.3133583068847,-5.33420324325561,3532130172
sw,-80.3064498901367,-52.3003196716308,99.1478652954101,-17.4836368560791,3532146839
sw,-78.7199630737304,-51.9434585571289,100.009307861328,-20.9805126190185,3532163506
sw,-77.6126708984375,-51.8994712829589,67.153823852539,-4.05937004089355,3532180173
sw,-77.084358215332,-52.2268829345703,30.3312282562255,18.3983516693115,3532196840
sw,-76.7594833374023,-52.8525657653808,17.520580291748,37.33056640625,3532213507
sw,-76.2165985107421,-53.9894714355468,31.7138843536376,68.6647262573242,3532230174
sw,-75.313850402832,-55.7900695800781,55.7385864257812,110.901885986328,3532246841
sw,-74.2210235595703,-57.6431083679199,68.2591018676757,115.486175537109,3532263508
sw,-73.2412185668945,-59.0615539550781,61.5491905212402,86.7118377685546,3532280175
sw,-72.5298156738281,-60.4600105285644,45.16064453125,81.0160751342773,3532296842
sw,-72.0293884277343,-62.1486511230468,31.430513381958,96.915542602539,3532313509
sw,-71.5755996704101,-63.9132995605468,27.1767082214355,104.830612182617,3532330176
sw,-71.130859375,-65.5776748657226,26.064805984497,105.357208251953,3532346843
sw,-70.8369903564453,-66.9769058227539,17.5313835144042,89.5753097534179,3532363510
sw,-70.8669509887695,-67.9749145507812,-1.50392699241638,64.3250579833984,3532380177
sw,-71.3939590454101,-68.7787857055664,-31.7382736206054,61.32857131958,3532396844
sw,-72.6440124511718,-69.2475814819336,-76.3164672851562,34.5866889953613,3532413511
sw,-74.636604309082,-69.8312911987304,-123.466339111328,35.7975769042968,3532430178
sw,-77.3110656738281,-70.7723617553711,-168.632369995117,54.3748207092285,3532446845
sw,-80.4514465332031,-72.1363983154296,-200.5068359375,77.3094406127929,3532463512
sw,-83.9630432128906,-74.0136108398437,-227.704269409179,108.28514099121,3532480179
sw,-87.1766586303711,-76.0273132324218,-226.883499145507,117.803443908691,3532496846
sw,-87.1836013793945,-77.9224319458007,-225.800323486328,115.051734924316,3532513513
sw,-83.600341796875,-79.7256317138671,-240.084350585937,112.43211364746,3532530180
sw,-78.3760528564453,-81.4200210571289,-316.105438232421,107.255012512207,3532546847
sw,-73.0452270507812,-82.7889251708984,-320.216491699218,76.1524810791015,3532563514
sw,-69.6738739013671,-83.5775527954101,-201.828750610351,29.7748260498046,3532580181
sw,-66.9095458984375,-83.7792510986328,-164.906982421875,-2.46463942527771,3532596848
sw,-64.794448852539,-83.9955673217773,-126.422729492187,11.3244018554687,3532613515
sw,-63.5229797363281,-84.4362030029296,-76.9705429077148,34.8493690490722,3532630182
sw,-62.602237701416,-85.1020736694336,-56.461555480957,54.2743110656738,3532646849
sw,-61.5560226440429,-85.851448059082,-64.0358963012695,53.6884040832519,3532663516
sw,-60.3220062255859,-86.6084671020507,-75.3224105834961,41.3660812377929,3532680183
sw,-59.067455291748,-87.3052139282226,-76.6916275024414,29.3934535980224,3532696850
sw,-58.1514129638671,-87.9058532714843,-56.1138000488281,28.4875411987304,3532713517
sw,-57.6959609985351,-88.3189086914062,-28.1814670562744,36.6024169921875,3532730184
sw,-57.4805145263671,-88.3139114379882,-14.0373249053955,44.9893913269043,3532746851
sw,-57.5382804870605,-87.8573532104492,1.81334888935089,49.6239585876464,3532763518
sw,-57.7270164489746,-87.2095031738281,9.1113109588623,47.7548446655273,3532780185
sw,-58.1059837341308,-86.5932006835937,20.6209774017334,42.2557258605957,3532796852
sw,-59.1442222595214,-86.0629959106445,61.1355743408203,39.4048156738281,3532813519
sw,-60.3370323181152,-85.5397644042968,71.5270385742187,41.1422004699707,3532830186
sw,-61.7927093505859,-84.9983749389648,87.6579895019531,40.4745407104492,3532846853
sw,-63.1622161865234,-84.493911743164,81.4804153442382,34.1966896057128,3532863520
sw,-64.8427505493164,-84.1672592163086,98.5570526123046,20.2440299987792,3532880187
sw,-66.8490600585937,-84.1502456665039,117.879501342773,-0.368041694164276,3532896854
sw,-69.0234756469726,-84.4623565673828,128.681503295898,-22.2058677673339,3532913521
sw,-70.8661880493164,-85.207763671875,109.271110534667,-51.8078575134277,3532930188
sw,-72.4471893310546,-86.5914764404296,93.5310821533203,-98.9439010620117,3532946855
sw,-73.7867202758789,-88.0694351196289,79.3302383422851,-153.80696105957,3532963522
sw,-74.9646224975586,-86.552131652832,70.6372604370117,-195.528823852539,3532980189
sw,-76.315559387207,-83.192398071289,83.0353698730468,-218.242645263671,3532996856
sw,-77.8245697021484,-79.2986755371093,94.7615356445312,-232.976776123046,3533013523
sw,-79.527961730957,-75.513801574707,107.372833251953,-216.739929199218,3533030190
sw,-81.1951141357421,-72.0012512207031,105.546058654785,-193.413177490234,3533046857
sw,-82.6558609008789,-69.0206604003906,93.0762557983398,-157.348922729492,3533063524
sw,-83.9293670654296,-66.1450424194336,88.3553237915039,-160.095993041992,3533080191
sw,-85.3074798583984,-63.2550926208496,126.384864807128,-175.577743530273,3533096858
sw,-85.7658538818359,-60.6946067810058,164.782562255859,-161.609451293945,3533113525
sw,-84.4551162719726,-58.3803100585937,177.901382446289,-148.322463989257,3533130192
sw,-82.4670867919921,-56.3407669067382,153.545379638671,-129.99365234375,3533146859
sw,-81.0913543701171,-54.6960220336914,89.0968017578125,-104.645385742187,3533163526
sw,-80.7415237426757,-53.383445739746,12.6738214492797,-86.020393371582,3533180193
sw,-81.1538925170898,-52.6617889404296,-41.2094192504882,-50.1443977355957,3533196860
sw,-81.4195404052734,-52.5457954406738,-23.7068576812744,-9.57923221588134,3533213527
sw,-81.2790374755859,-52.8982238769531,15.0049419403076,22.9480171203613,3533230194
sw,-80.5690231323242,-53.2524108886718,56.5700035095214,24.8225955963134,3533246861
sw,-79.3983001708984,-53.2854232788085,82.9867172241211,4.51628828048706,3533263528
sw,-78.1317062377929,-53.0116310119628,83.2901000976562,-17.3566532135009,3533280195
sw,-77.0970153808593,-52.9410018920898,64.9640045166015,-7.67147064208984,3533296862
sw,-76.3872299194336,-53.4150352478027,41.0047607421875,25.1625862121582,3533313529
sw,-75.7777481079101,-54.7117881774902,32.9539337158203,77.8015670776367,3533330196
sw,-75.0475540161132,-56.4202880859375,42.6506118774414,105.455955505371,3533346863
sw,-74.1662445068359,-57.7591667175293,56.8084259033203,81.964729309082,3533363530
sw,-73.2601623535156,-58.7244300842285,61.8594245910644,53.8015937805175,3533380197
sw,-72.4776000976562,-59.8818740844726,54.598949432373,63.8953399658203,3533396864
sw,-71.909683227539,-61.2837371826171,39.1336936950683,82.4409027099609,3533413531
sw,-71.5818557739257,-62.8547401428222,21.0865650177001,97.8975296020507,3533430198
sw,-71.4514694213867,-64.424446105957,6.59591913223266,98.1070022583007,3533446865
sw,-71.6295623779296,-65.9855194091796,-12.5259046554565,93.4345169067382,3533463532
sw,-72.2846298217773,-67.0372619628906,-40.2910385131835,65.8735656738281,3533480199
sw,-73.6554946899414,-67.7545928955078,-83.4561691284179,47.0923080444335,3533496866
sw,-75.7935714721679,-68.1523666381836,-132.603317260742,18.7915515899658,3533513533
sw,-78.4777679443359,-68.748664855957,-169.862960815429,31.7615509033203,3533530200
sw,-81.4555130004882,-69.8254165649414,-190.619262695312,59.7315330505371,3533546867
sw,-84.7066497802734,-71.2748794555664,-211.801666259765,81.5108184814453,3533563534
sw,-87.4879150390625,-72.8484191894531,-211.51773071289,88.2830352783203,3533580201
sw,-86.7444229125976,-74.3404464721679,-220.460250854492,83.4651184082031,3533596868
sw,-83.0503158569336,-75.7824325561523,-242.356262207031,85.9466857910156,3533613535
sw,-78.2225799560546,-77.6143417358398,-291.660919189453,117.030960083007,3533630202
sw,-72.4711456298828,-80.0426864624023,-346.326934814453,150.701965332031,3533646869
sw,-68.9590148925781,-83.1340408325195,-211.851089477539,184.711929321289,3533663536
sw,-66.2969741821289,-85.7191162109375,-159.945114135742,149.204757690429,3533680203
sw,-63.4805793762207,-86.6869049072265,-169.104553222656,44.9159660339355,3533696870
sw,-61.2031745910644,-86.1252136230468,-137.620025634765,-45.6892509460449,3533713537
sw,-59.9601974487304,-85.088134765625,-76.3717422485351,-61.9958724975585,3533730204
sw,-59.5415802001953,-84.552017211914,-26.9400444030761,-15.7536096572875,3533746871
sw,-59.3637351989746,-84.7947769165039,-11.8562650680542,42.8778114318847,3533763538
sw,-58.6729583740234,-85.5605926513671,-41.73237991333,72.4824447631836,3533780205
sw,-57.706802368164,-86.5315246582031,-58.0917091369628,66.911636352539,3533796872
sw,-56.9518318176269,-87.3464965820312,-45.7238464355468,40.0843696594238,3533813539
sw,-56.4372596740722,-87.7987747192382,-31.9474067687988,17.6308708190917,3533830206
sw,-56.2641563415527,-88.1438598632812,-11.4506282806396,9.94068431854248,3533846873
sw,-56.4722633361816,-88.4621429443359,11.3120031356811,16.0354709625244,3533863540
sw,-56.8317413330078,-88.5886154174804,19.7002201080322,33.4652252197265,3533880207
sw,-57.314582824707,-88.1604843139648,26.9450302124023,54.0583724975585,3533896874
sw,-58.4503021240234,-87.3075408935546,67.584716796875,60.8080940246582,3533913541
sw,-59.8742980957031,-86.432014465332,86.1627578735351,54.6947212219238,3533930208
sw,-61.4456939697265,-85.6336364746093,95.1878128051757,48.6277809143066,3533946875
sw,-63.0105361938476,-84.9890594482421,94.2115707397461,41.0573387145996,3533963542
sw,-64.7440643310546,-84.5197067260742,103.011756896972,31.71923828125,3533980209
sw,-67.0584182739257,-84.2674255371093,136.001586914062,17.6187419891357,3533996876
sw,-69.6494369506836,-84.2411193847656,151.692092895507,1.96264445781707,3534013543
sw,-71.3505325317382,-84.6140213012695,100.254875183105,-25.833137512207,3534030210
sw,-72.4697570800781,-85.5885620117187,66.3485717773437,-66.8426208496093,3534046877
sw,-73.3897399902343,-86.995735168457,52.6888198852539,-103.242050170898,3534063544
sw,-74.7039108276367,-88.0186080932617,75.8209915161132,-136.81477355957,3534080211
sw,-76.4744796752929,-86.6010284423828,105.132377624511,-164.21272277832,3534096878
sw,-78.5033874511718,-83.7682266235351,122.34814453125,-183.668960571289,3534113545
sw,-80.6612091064453,-80.5174255371093,131.175064086914,-192.265243530273,3534130212
sw,-82.5234680175781,-77.1520385742187,115.575149536132,-191.247024536132,3534146879
sw,-84.0300827026367,-73.7994842529296,97.1155853271484,-184.567718505859,3534163546
sw,-85.4639587402343,-70.6654434204101,102.917175292968,-172.079467773437,3534180213
sw,-86.7869186401367,-67.635498046875,150.396499633789,-180.821136474609,3534196880
sw,-85.8539581298828,-64.6476058959961,202.194427490234,-191.104080200195,3534213547
sw,-83.9551925659179,-62.1093559265136,141.75096130371,-165.234497070312,3534230214
sw,-83.072639465332,-59.7043838500976,47.8329734802246,-157.544006347656,3534246881
sw,-83.1494598388671,-57.5722045898437,-16.0909748077392,-139.689178466796,3534263548
sw,-83.9406127929687,-56.5273399353027,-58.957160949707,-72.2615814208984,3534280215
sw,-84.4073181152343,-56.1254119873046,-26.1941032409667,-30.78902053833,3534296882
sw,-84.223892211914,-55.8626441955566,24.9950122833251,-18.918342590332,3534313549
sw,-83.1765975952148,-55.4154815673828,74.2686080932617,-26.3194866180419,3534330216
sw,-81.6546096801757,-54.7258834838867,96.7327880859375,-40.5120124816894,3534346883
sw,-80.3583679199218,-54.007469177246,79.4484100341796,-44.8915252685546,3534363550
sw,-79.6062622070312,-53.47066116333,44.5214118957519,-35.872142791748,3534380217
sw,-79.2389373779296,-53.3107452392578,19.8723316192626,-12.8589057922363,3534396884
sw,-78.9675598144531,-53.4923210144043,14.798897743225,8.52750396728515,3534413551
sw,-78.5774383544921,-54.0621490478515,24.9477386474609,32.8269958496093,3534430218
sw,-77.9503097534179,-55.1764526367187,42.9017066955566,68.0464172363281,3534446885
sw,-77.0558547973632,-56.4396133422851,60.2990837097168,79.1859970092773,3534463552
sw,-75.9474258422851,-57.6246871948242,71.3636703491211,75.154312133789,3534480219
sw,-74.7263488769531,-58.8282432556152,75.6022872924804,75.4294815063476,3534496886
sw,-73.6151123046875,-60.2435111999511,67.4286575317382,88.5597457885742,3534513553
sw,-72.7958602905273,-61.8246116638183,49.3158836364746,99.2546768188476,3534530220
sw,-72.3502655029296,-63.6707572937011,26.3531742095947,115.151870727539,3534546887
sw,-72.375991821289,-65.6274261474609,-2.15451526641845,117.701560974121,3534563554
sw,-73.0128402709961,-67.1544570922851,-39.1110534667968,88.5512008666992,3534580221
sw,-74.4358978271484,-67.950080871582,-86.2724914550781,54.7757186889648,3534596888
sw,-76.9661788940429,-68.3215408325195,-153.830017089843,25.39208984375,3534613555
sw,-80.3855514526367,-68.4777450561523,-212.91372680664,4.64846658706665,3534630222
sw,-83.8797073364257,-69.1442337036132,-232.826263427734,36.56099319458,3534646889
sw,-86.6623458862304,-70.2742462158203,-246.519836425781,63.2969131469726,3534663556
sw,-86.0162582397461,-71.9535064697265,-249.235488891601,100.288146972656,3534680223
sw,-82.7099685668945,-73.9708709716796,-250.022277832031,121.948875427246,3534696890
sw,-78.1163864135742,-75.8138809204101,-288.147888183593,110.034942626953,3534713557
sw,-73.5630111694336,-78.0394439697265,-275.574554443359,132.994079589843,3534730224
sw,-70.5182647705078,-81.3525772094726,-182.765991210937,199.602600097656,3534746891
sw,-67.8577499389648,-84.5907211303711,-157.810012817382,200.686309814453,3534763558
sw,-65.0619506835937,-86.1039428710937,-165.834197998046,86.9468460083007,3534780225
sw,-62.7799987792968,-85.8048400878906,-136.330291748046,-33.789306640625,3534796892
sw,-61.7832412719726,-84.5709381103515,-60.461498260498,-77.4694061279296,3534813559
sw,-62.0978660583496,-83.7269592285156,17.3719329833984,-34.9558639526367,3534830226
sw,-62.6634826660156,-83.8471221923828,33.3418846130371,39.0379486083984,3534846893
sw,-62.5873718261718,-84.8450927734375,-3.61776733398437,95.6192474365234,3534863560
sw,-61.7592544555664,-85.9220581054687,-47.9499969482421,100.458953857421,3534880227
sw,-60.7844924926757,-86.4340515136718,-58.4144287109375,76.4524154663086,3534896894
sw,-59.8842315673828,-86.362075805664,-56.2188148498535,34.9664077758789,3534913561
sw,-59.2854194641113,-86.5902709960937,-38.8902626037597,-10.1725034713745,3534930228
sw,-59.0464477539062,-87.1393280029296,-16.910472869873,-11.3249778747558,3534946895
sw,-59.0355377197265,-87.6931915283203,-2.5127375125885,8.08223438262939,3534963562
sw,-59.3798828125,-87.865493774414,19.2871055603027,40.8627624511718,3534980229
sw,-60.200870513916,-87.1423416137695,49.19087600708,69.9772186279296,3534996896
sw,-61.6097412109375,-86.0026245117187,86.3124618530273,71.7269744873046,3535013563
sw,-63.0172042846679,-84.9700546264648,87.3117218017578,59.6878089904785,3535030230
sw,-64.2329483032226,-84.2147750854492,73.8383255004882,49.2669563293457,3535046897
sw,-65.4949264526367,-83.7744598388671,75.2548141479492,37.4395904541015,3535063564
sw,-67.4876327514648,-83.5181121826171,116.955680847167,23.8806915283203,3535080231
sw,-69.8341445922851,-83.3071594238281,136.447494506835,15.1737537384033,3535096898
sw,-71.8790740966796,-83.2191009521484,119.51170349121,2.85571599006652,3535113565
sw,-73.4530639648437,-83.5412368774414,92.8862686157226,-26.969217300415,3535130232
sw,-74.8620681762695,-84.4490737915039,83.2697067260742,-70.100715637207,3535146899
sw,-76.0521240234375,-85.8245849609375,69.8369216918945,-113.247657775878,3535163566
sw,-77.3153915405273,-86.9646911621093,75.0467453002929,-143.987472534179,3535180233
sw,-78.8542785644531,-86.3083267211914,93.5547561645507,-168.125717163085,3535196900
sw,-80.631103515625,-83.8986358642578,109.351272583007,-183.02310180664,3535213567
sw,-82.6567153930664,-80.6642990112304,125.50144958496,-199.856994628906,3535230234
sw,-84.5514450073242,-77.1747131347656,120.981300354003,-199.655044555664,3535246901
sw,-86.2172088623046,-73.7948226928711,114.786811828613,-187.698669433593,3535263568
sw,-87.4620971679687,-70.8580551147461,145.211959838867,-165.01756286621,3535280235
sw,-85.8149795532226,-68.1667556762695,205.683761596679,-164.737518310546,3535296902
sw,-82.7483978271484,-65.381362915039,193.012664794921,-180.392272949218,3535313569
sw,-81.5386352539062,-62.6151580810546,55.7465782165527,-179.696960449218,3535330236
sw,-81.05908203125,-60.0757637023925,20.1393127441406,-165.525573730468,3535346903
sw,-81.4568939208984,-58.2792472839355,-24.5733795166015,-119.024421691894,3535363570
sw,-81.8799362182617,-57.4592323303222,-18.2917137145996,-56.3416442871093,3535380237
sw,-81.9001083374023,-57.1760864257812,7.16005325317382,-19.3446388244628,3535396904
sw,-81.1911010742187,-56.8187408447265,47.557029724121,-19.9446220397949,3535413571
sw,-79.7066955566406,-56.20552444458,90.0083923339843,-33.3478965759277,3535430238
sw,-78.0583267211914,-55.5200386047363,97.6916885375976,-38.5237655639648,3535446905
sw,-76.8392562866211,-55.144302368164,71.5919570922851,-21.2116470336914,3535463572
sw,-76.1823501586914,-55.13081741333,36.4719352722168,-0.182734042406082,3535480239
sw,-75.5918045043945,-55.4033508300781,33.1219825744628,15.5507917404174,3535496906
sw,-74.7193450927734,-55.9274711608886,53.3837814331054,27.7460536956787,3535513573
sw,-73.6817779541015,-57.101993560791,66.6567764282226,66.6331100463867,3535530240
sw,-72.767333984375,-59.0516777038574,60.5646820068359,120.341705322265,3535546907
sw,-71.985237121582,-60.4700279235839,51.4320449829101,92.1060638427734,3535563574
sw,-71.2299575805664,-61.1688041687011,47.7230491638183,40.4775505065918,3535580241
sw,-70.3822708129882,-62.0313606262207,51.6304168701171,48.1949081420898,3535596908
sw,-69.4609985351562,-63.2631797790527,55.1214981079101,70.5390090942382,3535613575
sw,-68.7437973022461,-64.6309814453125,42.8710861206054,79.7466430664062,3535630242
sw,-68.5751266479492,-66.287124633789,10.0083456039428,100.495361328125,3535646909
sw,-69.1294631958007,-67.4588317871093,-33.3781585693359,72.6497116088867,3535663576
sw,-70.6170272827148,-68.3426895141601,-89.7442474365234,60.4008674621582,3535680243
sw,-73.2085571289062,-69.0266799926757,-157.600708007812,36.9278602600097,3535696910
sw,-76.7258758544921,-69.8220138549804,-216.677276611328,42.2894210815429,3535713577
sw,-80.7404632568359,-70.9842300415039,-251.650588989257,70.2983856201171,3535730244
sw,-84.8696975708007,-72.5292510986328,-267.646911621093,97.2918624877929,3535746911
sw,-87.9102554321289,-74.3829345703125,-264.657409667968,116.189056396484,3535763578
sw,-85.6231536865234,-76.4756774902343,-253.940719604492,127.858726501464,3535780245
sw,-81.6777954101562,-78.9950485229492,-248.875045776367,155.39793395996,3535796912
sw,-76.7986373901367,-81.4852600097656,-295.044372558593,157.573120117187,3535813579
sw,-71.969856262207,-83.0603942871093,-290.579132080078,83.5208969116211,3535830246
sw,-68.3962631225586,-83.2986450195312,-214.449417114257,-12.7637014389038,3535846913
sw,-65.3765640258789,-82.8236770629882,-180.654830932617,-41.5618515014648,3535863580
sw,-63.8113021850585,-82.4967727661132,-94.0521850585937,-15.3907794952392,3535880247
sw,-63.4553146362304,-82.6248550415039,-22.5444011688232,17.6908569335937,3535896914
sw,-63.3775978088378,-83.2673187255859,-5.70990371704101,47.9730339050293,3535913581
sw,-63.0030326843261,-84.2386398315429,-22.8476104736328,70.8447113037109,3535930248
sw,-62.0137252807617,-85.161636352539,-59.7380561828613,73.7503433227539,3535946915
sw,-60.7315292358398,-85.7051315307617,-78.3915481567382,36.9494132995605,3535963582
sw,-59.6163101196289,-86.1815109252929,-69.0135879516601,8.16450309753418,3535980249
sw,-58.8916320800781,-86.6578979492187,-45.392723083496,11.0767831802368,3535996916
sw,-58.3822860717773,-87.0735702514648,-32.7291831970214,28.540620803833,3536013583
sw,-58.0453605651855,-87.3191299438476,-22.5587177276611,45.9284858703613,3536030250
sw,-58.0102577209472,-87.2034759521484,-4.67722797393798,49.3892974853515,3536046917
sw,-58.033836364746,-86.8654403686523,-0.607366979122161,42.4171638488769,3536063584
sw,-58.1923942565918,-86.5971145629882,8.81810092926025,35.0191078186035,3536080251
sw,-58.6724395751953,-86.5077819824218,29.4189834594726,28.9542484283447,3536096918
sw,-59.4235763549804,-86.4741897583007,46.1853256225585,28.2034454345703,3536113585
sw,-60.3885231018066,-86.2855911254882,58.1603393554687,37.0259017944335,3536130252
sw,-61.5646896362304,-85.8767852783203,69.6717453002929,44.7377243041992,3536146919
sw,-62.8776206970214,-85.429458618164,77.8003921508789,38.7696228027343,3536163586
sw,-64.1232147216796,-85.1581878662109,73.9152069091796,21.2517795562744,3536180253
sw,-65.8429565429687,-85.2469635009765,101.286430358886,-4.02033710479736,3536196920
sw,-68.1553421020507,-85.707649230957,136.94546508789,-28.7236328125,3536213587
sw,-69.9608764648437,-86.5786361694336,107.101509094238,-58.466625213623,3536230254
sw,-70.9513626098632,-87.7425918579101,58.6767425537109,-96.8288421630859,3536246921
sw,-71.7338104248046,-87.8445129394531,45.0039978027343,-133.522705078125,3536263588
sw,-72.817886352539,-85.8593444824218,62.397289276123,-159.51171875,3536280255
sw,-73.9973602294921,-83.1325607299804,68.4006195068359,-174.165817260742,3536296922
sw,-75.3174133300781,-80.0390853881836,77.4341430664062,-187.170059204101,3536313589
sw,-76.7106628417968,-76.4692306518554,82.5430679321289,-209.143905639648,3536330256
sw,-78.1239166259765,-72.4857025146484,83.8489456176757,-227.01692199707,3536346923
sw,-79.3891525268554,-68.7305603027343,74.6268844604492,-212.779953002929,3536363590
sw,-80.4570083618164,-65.3185195922851,62.5979881286621,-204.272583007812,3536380257
sw,-81.5249099731445,-62.5178489685058,63.565086364746,-177.754684448242,3536396924
sw,-82.7075805664062,-60.1775932312011,73.6567153930664,-151.489395141601,3536413591
sw,-83.8519058227539,-57.828987121582,77.8662643432617,-150.159271240234,3536430258
sw,-84.8577270507812,-55.602912902832,77.8493194580078,-139.574783325195,3536446925
sw,-85.8879623413086,-54.1290969848632,89.8084640502929,-91.9202880859375,3536463592
sw,-86.7908782958984,-53.2567596435546,123.030151367187,-55.7864036560058,3536480259
sw,-86.2473526000976,-52.679328918457,159.717712402343,-37.2105636596679,3536496926
sw,-84.0105743408203,-52.1430587768554,184.994720458984,-34.4621505737304,3536513593
sw,-81.3960723876953,-51.7063255310058,176.239273071289,-27.615816116333,3536530260
sw,-79.6922912597656,-51.5075492858886,103.440139770507,-13.9236087799072,3536546927
sw,-79.2363815307617,-51.6805801391601,19.7611389160156,6.20636987686157,3536563594
sw,-79.8436737060546,-52.070514678955,-45.5013771057128,18.5422191619873,3536580261
sw,-80.4491653442382,-52.7591972351074,-34.3679504394531,38.525291442871,3536596928
sw,-80.5485687255859,-53.9521141052246,4.37562990188598,74.198127746582,3536613595
sw,-79.8919296264648,-55.2926177978515,46.3207130432128,86.9264373779296,3536630262
sw,-78.7172012329101,-56.7193946838378,72.4849700927734,92.5139389038086,3536646929
sw,-77.4654769897461,-58.2573738098144,74.996353149414,95.5786666870117,3536663596
sw,-76.4539947509765,-60.0431365966796,59.8429336547851,105.138793945312,3536680263
sw,-75.8934707641601,-61.9759063720703,32.1949920654296,109.578742980957,3536696930
sw,-75.5753479003906,-63.7958793640136,16.7743816375732,106.365188598632,3536713597
sw,-75.3096084594726,-65.6169281005859,13.4302501678466,113.815330505371,3536730264
sw,-75.2861557006836,-67.4528350830078,-0.235176011919975,120.508277893066,3536746931
sw,-75.7972717285156,-69.0651702880859,-31.8693084716796,109.729110717773,3536763598
sw,-76.8720932006836,-70.0064163208007,-66.1772079467773,78.3813705444336,3536780265
sw,-78.8943176269531,-70.215103149414,-124.044692993164,28.7867374420166,3536796932
sw,-81.9342346191406,-70.4230270385742,-190.247360229492,13.8047466278076,3536813599
sw,-85.4730377197265,-70.8641586303711,-241.477783203125,18.4279384613037,3536830266
sw,-87.1932830810546,-71.7091903686523,-255.604064941406,42.393310546875,3536846933
sw,-84.670051574707,-73.204963684082,-249.089645385742,89.2322769165039,3536863600
sw,-80.9777297973632,-74.9086151123046,-247.895080566406,104.784469604492,3536880267
sw,-76.260139465332,-76.5975723266601,-291.906921386718,99.1209182739257,3536896934
sw,-72.6884689331054,-78.6944503784179,-216.287445068359,120.932350158691,3536913601
sw,-70.0533065795898,-81.1769104003906,-158.447052001953,144.368942260742,3536930268
sw,-67.3184509277343,-82.9801635742187,-163.15444946289,106.896392822265,3536946935
sw,-64.6001358032226,-83.5079193115234,-162.023986816406,27.5846443176269,3536963602
sw,-62.5421714782714,-83.0706329345703,-123.6821975708,-32.1737480163574,3536980269
sw,-61.7880783081054,-82.619400024414,-46.468692779541,-22.3988933563232,3536996936
sw,-61.8448219299316,-82.7586822509765,2.32811045646667,22.9111423492431,3537013603
sw,-61.8801612854003,-83.5759658813476,2.01649498939514,67.6077728271484,3537030270
sw,-61.5456657409668,-84.6245803833007,-19.2187919616699,78.9039916992187,3537046937
sw,-60.9603614807128,-85.4283370971679,-34.4698791503906,62.8142127990722,3537063604
sw,-60.365737915039,-85.8606719970703,-36.362979888916,41.5297966003418,3537080271
sw,-59.9251289367675,-86.1452255249023,-28.35591506958,20.7495155334472,3537096938
sw,-59.6761131286621,-86.4510040283203,-16.6868553161621,25.9672870635986,3537113605
sw,-59.3152503967285,-86.6725769042968,-23.1770782470703,34.4471282958984,3537130272
sw,-58.7047653198242,-86.6922760009765,-37.9182929992675,42.2042160034179,3537146939
sw,-58.3534431457519,-86.4026184082031,-21.9505367279052,50.6167945861816,3537163606
sw,-58.553913116455,-85.9461441040039,12.4729146957397,51.285587310791,3537180273
sw,-59.3016700744628,-85.5462265014648,46.4523200988769,49.6026306152343,3537196940
sw,-60.31392288208,-85.3142852783203,63.3647384643554,42.6045913696289,3537213607
sw,-61.3267250061035,-85.2243881225586,62.4558601379394,30.1044960021972,3537230274
sw,-62.3460235595703,-85.1960906982421,60.4233779907226,17.9056167602539,3537246941
sw,-64.0573196411132,-85.2076034545898,100.824600219726,8.02027416229248,3537263608
sw,-66.2950668334961,-85.4053115844726,131.266845703125,-7.57922029495239,3537280275
sw,-68.666015625,-86.0751953125,139.867706298828,-38.9600868225097,3537296942
sw,-70.3158874511718,-87.5182495117187,98.3771820068359,-90.5522003173828,3537313609
sw,-71.3377532958984,-88.9302825927734,60.6624412536621,-134.519912719726,3537330276
sw,-71.9970245361328,-87.2014465332031,37.6304626464843,-154.766250610351,3537346943
sw,-72.8841400146484,-84.7324829101562,50.7791938781738,-153.299377441406,3537363610
sw,-74.0812683105468,-82.2472915649414,70.0643768310546,-149.813201904296,3537380277
sw,-75.5372772216796,-79.4949264526367,86.202033996582,-163.009613037109,3537396944
sw,-77.1896896362304,-76.1857376098632,98.1971054077148,-191.469512939453,3537413611
sw,-78.6375656127929,-72.455207824707,85.9561538696289,-211.416534423828,3537430278
sw,-79.8307876586914,-68.6988449096679,70.4952697753906,-213.484756469726,3537446945
sw,-80.9212112426757,-65.0634994506836,64.5400238037109,-217.390563964843,3537463612
sw,-82.1429977416992,-62.0262184143066,74.7776870727539,-190.743591308593,3537480279
sw,-83.5970001220703,-59.5869407653808,93.941421508789,-154.860900878906,3537496946
sw,-85.0286254882812,-57.4373016357421,101.564010620117,-134.58201599121,3537513613
sw,-86.2471466064453,-55.311294555664,105.149757385253,-130.665893554687,3537530280
sw,-87.0341033935546,-53.8605575561523,111.864280700683,-88.7944030761718,3537546947
sw,-86.6091613769531,-53.0863990783691,140.133819580078,-48.346019744873,3537563614
sw,-84.7004318237304,-52.7238960266113,159.467483520507,-23.0252208709716,3537580281
sw,-82.5699081420898,-52.6828727722168,143.374237060546,-2.78194832801818,3537596948
sw,-80.9852447509765,-52.9960403442382,98.6386413574218,19.7535572052001,3537613615
sw,-80.039192199707,-53.6955947875976,54.3451766967773,43.8655586242675,3537630282
sw,-79.7219772338867,-54.6371040344238,16.032169342041,58.4454841613769,3537646949
sw,-79.6595993041992,-55.8793449401855,4.74994134902954,74.8274993896484,3537663616
sw,-79.3918685913086,-57.7904167175293,20.6328086853027,113.829429626464,3537680283
sw,-78.6007614135742,-60.2185630798339,51.9234962463378,143.973754882812,3537696950
sw,-77.1612319946289,-62.5708389282226,88.6636581420898,139.269454956054,3537713617
sw,-75.5282363891601,-64.5230560302734,98.2932586669921,112.375205993652,3537730284
sw,-74.1908111572265,-66.0891647338867,79.5850677490234,94.9865036010742,3537746951
sw,-73.6246261596679,-67.3070449829101,32.855899810791,86.9060440063476,3537763618
sw,-74.0851058959961,-68.5929870605468,-29.1157684326171,97.1484298706054,3537780285
sw,-75.3012466430664,-69.326301574707,-74.6804733276367,63.4264984130859,3537796952
sw,-77.1139297485351,-69.6861495971679,-110.667831420898,37.524600982666,3537813619
sw,-79.3689575195312,-70.0818862915039,-138.11375427246,24.2282047271728,3537830286
sw,-81.9377365112304,-70.6595382690429,-158.597793579101,30.9921035766601,3537846953
sw,-84.7668151855468,-71.6195220947265,-176.839904785156,53.1863250732421,3537863620
sw,-87.7027130126953,-73.0001602172851,-196.172256469726,79.5686416625976,3537880287
sw,-87.9379730224609,-74.6719131469726,-199.605865478515,101.336463928222,3537896954
sw,-84.926773071289,-76.3588104248046,-202.831344604492,106.726974487304,3537913621
sw,-81.3744125366211,-78.3925399780273,-217.705978393554,131.082000732421,3537930288
sw,-76.9646606445312,-80.7522506713867,-265.980041503906,158.294403076171,3537946955
sw,-72.8247909545898,-82.7192916870117,-249.59992980957,135.481903076171,3537963622
sw,-70.2497253417968,-83.7403182983398,-155.828643798828,59.7305183410644,3537980289
sw,-68.058609008789,-83.6203842163086,-132.98045349121,-23.518211364746,3537996956
sw,-66.4063339233398,-83.1852264404296,-101.040130615234,-33.1285324096679,3538013623
sw,-65.7169342041015,-83.0340423583984,-43.2642478942871,-1.60755693912506,3538030290
sw,-65.4234390258789,-83.3966064453125,-19.103796005249,42.4941101074218,3538046957
sw,-64.8998336791992,-84.1961975097656,-32.3221282958984,73.7840805053711,3538063624
sw,-64.0132904052734,-84.943359375,-54.1252975463867,70.4617156982421,3538080291
sw,-63.0560760498046,-85.3301239013671,-59.4269485473632,56.1559753417968,3538096958
sw,-62.2834014892578,-85.5905609130859,-49.1164283752441,26.3265533447265,3538113625
sw,-61.7605781555175,-86.0084533691406,-33.873607635498,18.2872772216796,3538130292
sw,-61.5994415283203,-86.4396514892578,-12.1513385772705,30.4715099334716,3538146959
sw,-61.4776573181152,-86.5818405151367,-10.2250814437866,45.7634162902832,3538163626
sw,-61.2740974426269,-86.2183532714843,-14.85835647583,55.8127632141113,3538180293
sw,-61.1042327880859,-85.5398178100586,-12.2486410140991,52.6382827758789,3538196960
sw,-61.2768249511718,-84.9119186401367,9.37991428375244,44.472370147705,3538213627
sw,-62.0284538269043,-84.4511947631836,45.0340423583984,42.7694625854492,3538230294
sw,-62.9653778076171,-84.0555191040039,57.0788345336914,45.8111953735351,3538246961
sw,-63.9081344604492,-83.6316375732421,57.3694648742675,44.031867980957,3538263628
sw,-64.9110565185546,-83.2073669433593,59.3262329101562,36.4478569030761,3538280295
sw,-66.1785812377929,-82.8038558959961,73.7594604492187,30.6951503753662,3538296962
sw,-68.0811233520507,-82.4933166503906,111.773712158203,22.9859085083007,3538313629
sw,-70.1226959228515,-82.4377899169921,121.078491210937,3.72348403930664,3538330296
sw,-71.5391693115234,-82.9384231567382,84.3475341796875,-35.105728149414,3538346963
sw,-72.9743576049804,-84.0850753784179,85.0944061279296,-80.9811172485351,3538363630
sw,-74.3080749511718,-85.8182067871093,78.2148056030273,-129.99314880371,3538380297
sw,-75.6605148315429,-87.1716690063476,79.6694946289062,-171.177902221679,3538396964
sw,-77.1966857910156,-85.8256683349609,92.4503402709961,-196.752319335937,3538413631
sw,-78.8931045532226,-82.5695648193359,104.397407531738,-221.39208984375,3538430298
sw,-80.7361373901367,-78.6355590820312,113.522254943847,-235.962661743164,3538446965
sw,-82.4672012329101,-74.5851364135742,106.363426208496,-231.937866210937,3538463632
sw,-84.1043853759765,-71.1037063598632,103.694564819335,-196.165893554687,3538480299
sw,-85.7611312866211,-68.3976593017578,122.592880249023,-159.136520385742,3538496966
sw,-86.6192245483398,-65.6621398925781,184.690155029296,-172.334045410156,3538513633
sw,-84.6897201538086,-63.0605354309082,203.244689941406,-166.599685668945,3538530300
sw,-82.6691284179687,-60.4252281188964,133.365951538085,-168.806915283203,3538546967
sw,-81.6297531127929,-57.443359375,63.2437629699707,-189.211029052734,3538563634
sw,-81.9101257324218,-55.7540397644043,-18.3366012573242,-109.832107543945,3538580301
sw,-82.9106979370117,-55.2000579833984,-59.1715431213378,-41.2214965820312,3538596968
sw,-83.6045684814453,-55.2336196899414,-33.3650703430175,-1.70408546924591,3538613635
sw,-83.6548614501953,-55.5796203613281,5.64065027236938,24.2788352966308,3538630302
sw,-82.8069686889648,-55.7823371887207,57.5811805725097,21.8937397003173,3538646969
sw,-81.1069412231445,-55.5927581787109,114.499519348144,-2.79813694953918,3538663636
sw,-79.1185226440429,-55.2767295837402,133.25650024414,-17.7229175567626,3538680303
sw,-77.7955856323242,-55.0440330505371,86.4617156982421,-19.7511615753173,3538696970
sw,-77.3399276733398,-55.4612274169921,24.6124725341796,18.3327903747558,3538713637
sw,-77.0717163085937,-56.9815788269043,7.60127258300781,90.8982315063476,3538730304
sw,-76.4854049682617,-59.0703659057617,31.1930713653564,131.967575073242,3538746971
sw,-75.5504684448242,-60.6937179565429,61.1143951416015,105.18423461914,3538763638
sw,-74.5223617553711,-61.6854667663574,69.0111389160156,66.3544692993164,3538780305
sw,-73.7583541870117,-63.2519454956054,50.1994667053222,102.1044921875,3538796972
sw,-73.4777526855468,-65.3294296264648,17.164810180664,130.756469726562,3538813639
sw,-73.6750259399414,-67.5872802734375,-13.6546039581298,132.293273925781,3538830306
sw,-74.3229217529296,-69.975341796875,-40.5560111999511,135.45799255371,3538846973
sw,-75.1120376586914,-71.3848114013671,-47.4935874938964,90.3952255249023,3538863640
sw,-76.1342315673828,-72.2411193847656,-60.2534828186035,76.4429168701171,3538880307
sw,-77.5620574951171,-72.8347778320312,-86.0558395385742,48.4595909118652,3538896974
sw,-79.3674011230468,-73.8510284423828,-112.612197875976,67.3785095214843,3538913641
sw,-81.7775115966796,-75.353530883789,-151.48631286621,91.6306533813476,3538930308
sw,-84.6971054077148,-77.5664291381836,-186.202239990234,135.464706420898,3538946975
sw,-87.5968627929687,-79.889175415039,-207.455795288085,146.352600097656,3538963642
sw,-87.4665756225586,-81.6635131835937,-207.86572265625,129.796401977539,3538980309
sw,-84.2408142089843,-82.8339614868164,-216.648696899414,105.540695190429,3538996976
sw,-79.5624771118164,-83.3689193725586,-281.997619628906,40.8969841003418,3539013643
sw,-75.8680725097656,-83.5862274169921,-222.567916870117,-19.8071269989013,3539030310
sw,-73.674560546875,-83.9673995971679,-133.837799072265,-11.5757141113281,3539046977
sw,-71.5412368774414,-84.77685546875,-130.840789794921,37.5422019958496,3539063644
sw,-69.7025985717773,-85.6508483886718,-112.528381347656,65.1149597167968,3539080311
sw,-68.4058532714843,-86.1219711303711,-79.4633026123046,56.3699607849121,3539096978
sw,-67.1847152709961,-86.2447509765625,-74.7206878662109,48.698143005371,3539113645
sw,-65.9350891113281,-86.3058319091796,-77.3384246826171,42.375373840332,3539130312
sw,-64.7436065673828,-86.5450439453125,-74.2700576782226,26.0259265899658,3539146979
sw,-63.7833938598632,-86.8438415527343,-59.0622177124023,22.9432582855224,3539163646
sw,-63.0064048767089,-86.937141418457,-46.1878623962402,30.2701702117919,3539180313
sw,-62.4813690185546,-86.6621170043945,-30.7929039001464,38.9112586975097,3539196980
