Label,Left_Hip_q,Right_Hip_q,Left_Hip_qd,Right_Hip_qd,SampleTimeFine
sw,-86.2073898315429,-67.4113311767578,40.8946304321289,-55.5755462646484,129878826
sw,-86.3050994873046,-66.1691665649414,44.9458084106445,-64.7182693481445,129895493
sw,-86.3376693725586,-65.1621322631836,45.9058227539062,-65.9969940185546,129912160
sw,-86.2671356201171,-64.8765029907226,41.5228157043457,-33.3747367858886,129928827
sw,-86.1144561767578,-64.9598388671875,31.4881496429443,-16.6396217346191,129945494
sw,-85.984878540039,-65.5111846923828,16.2722606658935,13.8448190689086,129962161
sw,-85.8852462768554,-66.6372756958007,11.3763523101806,52.973045349121,129978828
sw,-85.7891769409179,-68.0819244384765,13.6020774841308,74.0401840209961,129995495
sw,-85.6549072265625,-69.9307861328125,15.2001457214355,99.2308197021484,130012162
sw,-85.4623184204101,-72.1889877319336,18.3362884521484,121.889671325683,130028829
sw,-85.2601318359375,-74.2398834228515,19.9801445007324,108.714561462402,130045496
sw,-85.1096038818359,-75.96337890625,13.2814989089965,94.8315505981445,130062163
sw,-85.0473403930664,-77.454719543457,2.05190372467041,89.9140853881836,130078830
sw,-85.1582336425781,-77.8626174926757,-9.39739227294921,24.8160724639892,130095497
sw,-85.4107208251953,-77.4652633666992,-9.05678749084472,-39.7123489379882,130112164
sw,-85.6552658081054,-76.7286224365234,-1.60474288463592,-51.0270538330078,130128831
sw,-85.6262817382812,-76.0936737060546,12.2360582351684,-46.2441101074218,130145498
sw,-85.4120941162109,-76.2681503295898,14.5228195190429,-5.7873249053955,130162165
sw,-85.2198791503906,-77.6043014526367,4.74458217620849,61.4930763244628,130178832
sw,-85.1516799926757,-80.0836486816406,-11.7389736175537,138.084701538085,130195499
sw,-85.2853240966796,-82.5471801757812,-31.574951171875,153.141769409179,130212166
sw,-85.6708831787109,-83.6324691772461,-64.8434982299804,91.2274932861328,130228833
sw,-85.8566970825195,-84.4864425659179,-103.408866882324,93.7785110473632,130245500
sw,-85.0404586791992,-85.3978958129882,-139.947433471679,93.0929565429687,130262167
sw,-82.9972839355468,-86.1745452880859,-173.205535888671,97.6687927246093,130278834
sw,-80.2089767456054,-86.3160247802734,-177.100601196289,85.6240768432617,130295501
sw,-76.1911392211914,-85.9307098388671,-222.012893676757,69.7241973876953,130312168
sw,-73.3472671508789,-85.599494934082,-176.584533691406,44.2425651550293,130328835
sw,-72.1454849243164,-85.2378692626953,-98.724739074707,34.9906616210937,130345502
sw,-70.4646759033203,-84.5204544067382,-123.319869995117,52.764835357666,130362169
sw,-68.2895812988281,-83.2549438476562,-145.136337280273,85.5610733032226,130378836
sw,-66.3128814697265,-81.8236312866211,-128.38557434082,92.8101730346679,130395503
sw,-64.4506225585937,-80.5812225341796,-121.005325317382,78.677619934082,130412170
sw,-62.7912940979003,-79.8201522827148,-107.478569030761,47.1123313903808,130428837
sw,-61.4023551940918,-79.3583908081054,-89.5457763671875,25.5144271850585,130445504
sw,-60.1966171264648,-78.9913330078125,-77.2888717651367,18.115270614624,130462171
sw,-59.155403137207,-78.7123870849609,-66.9575576782226,13.1677770614624,130478838
sw,-58.4171180725097,-78.3191604614257,-48.6429977416992,20.1769962310791,130495505
sw,-58.0381889343261,-77.7248001098632,-26.2764644622802,31.8205204010009,130512172
sw,-57.9770164489746,-76.9987716674804,-6.78000211715698,39.3656272888183,130528839
sw,-58.1576881408691,-76.288101196289,7.05527305603027,38.2856903076171,130545506
sw,-58.3222007751464,-75.6723937988281,4.82224988937377,32.8574752807617,130562173
sw,-58.6431159973144,-75.1449584960937,13.5160865783691,28.5390548706054,130578840
sw,-59.3948135375976,-74.6607055664062,40.0760345458984,26.9359226226806,130595507
sw,-60.7412605285644,-74.1236572265625,78.0505065917968,30.6785163879394,130612174
sw,-62.2793922424316,-73.445816040039,92.2067794799804,39.2043876647949,130628841
sw,-63.7524757385253,-72.645881652832,90.4576950073242,46.4934120178222,130645508
sw,-65.2520523071289,-71.8632354736328,92.9141693115234,45.4605522155761,130662175
sw,-66.1133804321289,-71.1172332763671,50.7508697509765,43.0933609008789,130678842
sw,-66.591682434082,-70.3209762573242,27.7972049713134,45.800724029541,130695509
sw,-66.5044326782226,-69.5266647338867,-7.91799259185791,45.3652076721191,130712176
sw,-66.1088333129882,-68.9288482666015,-27.6589679718017,33.1521949768066,130728843
sw,-65.9814910888671,-68.7236099243164,-12.228886604309,9.09920120239257,130745510
sw,-66.4312667846679,-68.8775939941406,21.5109977722167,-13.1623620986938,130762177
sw,-67.8140106201171,-69.2250366210937,78.3752670288086,-25.2298069000244,130778844
sw,-69.8221893310546,-69.6334915161132,119.50617980957,-28.6432514190673,130795511
sw,-71.397720336914,-69.973876953125,96.2549057006836,-23.8018074035644,130812178
sw,-72.3034973144531,-70.1606369018554,62.0745773315429,-13.5905876159667,130828845
sw,-73.2293090820312,-70.2490463256836,64.9807052612304,-6.69683504104614,130845512
sw,-74.3077850341796,-70.52197265625,65.8716735839843,-16.7792472839355,130862179
sw,-75.4343719482421,-71.4027328491211,63.9032287597656,-52.6401405334472,130878846
sw,-76.7473831176757,-73.2423019409179,76.1349411010742,-109.957633972167,130895513
sw,-78.1712188720703,-76.070930480957,86.6924819946289,-169.703216552734,130912180
sw,-79.4147796630859,-79.4659881591796,77.1369018554687,-205.321151733398,130928847
sw,-80.3536148071289,-82.699836730957,55.5607376098632,-202.494171142578,130945514
sw,-81.1325531005859,-85.0962753295898,48.1944427490234,-178.239151000976,130962181
sw,-81.71435546875,-85.932258605957,43.3373565673828,-159.118682861328,130978848
sw,-82.2841873168945,-85.2009811401367,52.8400497436523,-139.065246582031,130995515
sw,-82.9903411865234,-84.0512313842773,70.6646881103515,-139.754776000976,131012182
sw,-83.556884765625,-82.1679229736328,67.1972122192382,-168.590606689453,131028849
sw,-83.9541854858398,-79.7361450195312,42.5900421142578,-181.86653137207,131045516
sw,-84.3533325195312,-77.2167892456054,18.8815937042236,-171.02684020996,131062183
sw,-84.8112564086914,-74.8357849121093,14.500144958496,-151.358215332031,131078850
sw,-85.2333450317382,-72.6909713745117,25.4529514312744,-127.875663757324,131095517
sw,-85.405647277832,-70.9264068603515,24.0134143829345,-98.1677093505859,131112184
sw,-85.3629150390625,-69.4922256469726,18.0958786010742,-77.7086868286132,131128851
sw,-85.2909774780273,-68.104751586914,23.1162414550781,-76.9647216796875,131145518
sw,-85.298225402832,-66.8311004638671,33.0852813720703,-76.7104949951171,131162185
sw,-85.3597030639648,-65.7463684082031,39.9995193481445,-74.3347778320312,131178852
sw,-85.355484008789,-65.1977996826171,40.3198776245117,-46.4156036376953,131195519
sw,-85.2545928955078,-65.2088928222656,36.5627288818359,-13.2977504730224,131212186
sw,-85.0876998901367,-65.5674743652343,29.2589263916015,6.910653591156,131228853
sw,-84.9152374267578,-66.3824844360351,18.8774871826171,36.8884696960449,131245520
sw,-84.7459640502929,-67.7193527221679,14.9434719085693,71.1751174926757,131262187
sw,-84.6202087402343,-69.5479965209961,13.2477111816406,98.3594894409179,131278854
sw,-84.593032836914,-71.9659652709961,7.59590578079223,131.421630859375,131295521
sw,-84.6580429077148,-74.1471939086914,1.17547726631164,112.235969543457,131312188
sw,-84.7614288330078,-76.2045516967773,-0.35290515422821,109.399620056152,131328855
sw,-84.8310089111328,-77.9806365966796,1.81324577331542,105.0390625,131345522
sw,-84.8100509643554,-79.0613937377929,5.56856632232666,73.8453674316406,131362189
sw,-84.8549423217773,-79.1311798095703,2.12314677238464,-4.73951387405395,131378856
sw,-85.044692993164,-78.5850601196289,-7.72197294235229,-42.5750160217285,131395523
sw,-85.2382736206054,-77.9535675048828,-7.56758308410644,-38.2433280944824,131412190
sw,-85.1228790283203,-77.9146499633789,12.9073476791381,-12.785569190979,131428857
sw,-84.7994155883789,-79.2112808227539,19.4968128204345,59.888442993164,131445524
sw,-84.4826049804687,-81.3911361694336,12.2902221679687,125.222938537597,131462191
sw,-84.3892669677734,-82.9971389770507,-7.96058654785156,108.578147888183,131478858
sw,-84.6432113647461,-83.7511978149414,-43.1774444580078,75.952896118164,131495525
sw,-85.0199584960937,-84.572525024414,-83.9219055175781,95.1844024658203,131512192
sw,-85.0235061645507,-85.2852783203125,-114.629783630371,103.816703796386,131528859
sw,-84.1316452026367,-85.5455245971679,-145.66096496582,107.093856811523,131545526
sw,-82.1600799560546,-85.1883850097656,-155.916732788085,96.2423324584961,131562193
sw,-79.5006027221679,-84.5893402099609,-152.398178100585,73.6883239746093,131578860
sw,-75.9209518432617,-84.134521484375,-192.402252197265,45.9383659362793,131595527
sw,-73.590347290039,-83.7273941040039,-155.29978942871,36.6327400207519,131612194
sw,-72.152359008789,-83.1408767700195,-116.174194335937,46.9865684509277,131628861
sw,-70.3247909545898,-82.0812149047851,-133.798736572265,71.965217590332,131645528
sw,-68.2539672851562,-80.7568664550781,-141.672058105468,87.6676406860351,131662195
sw,-66.3123779296875,-79.3359069824218,-128.944992065429,91.0716094970703,131678862
sw,-64.5548248291015,-78.2372436523437,-117.174613952636,69.7730560302734,131695529
sw,-62.9500160217285,-77.7023391723632,-107.301193237304,33.2931480407714,131712196
sw,-61.4689636230468,-77.3419570922851,-98.084243774414,20.6627559661865,131728863
sw,-60.1805038452148,-77.0785751342773,-84.6063995361328,13.8929195404052,131745530
sw,-59.0490570068359,-76.7550354003906,-73.6946105957031,17.2709770202636,131762197
sw,-58.2018165588378,-76.3282241821289,-55.658218383789,23.0763053894042,131778864
sw,-57.6930770874023,-75.7620162963867,-34.4631118774414,30.9316349029541,131795531
sw,-57.5325698852539,-75.1121978759765,-13.5638227462768,35.7581176757812,131812198
sw,-57.5901489257812,-74.5794143676757,-0.935734093189239,28.8586730957031,131828865
sw,-57.7920341491699,-74.1669464111328,7.18754196166992,21.932502746582,131845532
sw,-58.2401695251464,-73.7669067382812,21.3635540008544,21.6461925506591,131862199
sw,-59.3335952758789,-73.3090744018554,60.3894653320312,25.4143161773681,131878866
sw,-61.1907653808593,-72.8081512451171,109.003341674804,28.0672340393066,131895533
sw,-62.7615165710449,-72.2211761474609,92.034439086914,33.2641944885253,131912200
sw,-64.3796463012695,-71.5201797485351,99.0195541381836,40.0916938781738,131928867
sw,-65.2815551757812,-70.7775192260742,54.0016860961914,42.3281440734863,131945534
sw,-66.0244369506836,-70.1006164550781,44.7097244262695,38.1812934875488,131962201
sw,-66.4597702026367,-69.4514846801757,26.0298557281494,36.5183563232421,131978868
sw,-66.3545684814453,-68.9143447875976,-8.47017192840576,29.5731716156005,131995535
sw,-66.2386398315429,-68.6257705688476,-10.3059024810791,14.2363204956054,132012202
sw,-66.4487686157226,-68.6515579223632,7.70460796356201,-4.78631067276001,132028869
sw,-67.5440139770507,-68.8892745971679,60.9516868591308,-17.6130027770996,132045536
sw,-69.4355239868164,-69.212776184082,111.804931640625,-22.7184467315673,132062203
sw,-71.0156631469726,-69.5638122558593,96.2783966064453,-23.8631343841552,132078870
sw,-71.7278366088867,-69.8525238037109,49.2097778320312,-19.4552783966064,132095537
sw,-72.4482879638671,-70.0603332519531,54.778392791748,-13.977780342102,132112204
sw,-73.4925460815429,-70.5112609863281,64.7363357543945,-27.9313678741455,132128871
sw,-74.5817565917968,-71.7511672973632,58.8892478942871,-74.4942855834961,132145538
sw,-75.9390792846679,-74.026123046875,76.3379821777343,-136.457046508789,132162205
sw,-77.4803085327148,-77.2289657592773,93.4041290283203,-192.414886474609,132178872
sw,-78.921401977539,-80.8044204711914,91.8886642456054,-217.609741210937,132195539
sw,-80.0259094238281,-84.05712890625,70.1597442626953,-212.033828735351,132212206
sw,-80.7680358886718,-86.0292129516601,49.4454956054687,-196.489059448242,132228873
sw,-81.1873550415039,-85.490852355957,40.5260314941406,-183.399795532226,132245540
sw,-81.5234909057617,-83.7762908935546,46.4433250427246,-174.053558349609,132262207
sw,-81.8843917846679,-81.8220672607421,55.976333618164,-173.968444824218,132278874
sw,-82.124282836914,-79.1654052734375,43.2103309631347,-196.655853271484,132295541
sw,-82.4667282104492,-76.272720336914,22.0917148590087,-195.292922973632,132312208
sw,-82.9956588745117,-73.4720077514648,10.9556894302368,-181.453994750976,132328875
sw,-83.7062454223632,-70.8434753417968,25.6865577697753,-163.755447387695,132345542
sw,-84.3241195678711,-68.5905227661132,41.1037864685058,-133.946044921875,132362209
sw,-84.584487915039,-66.9007034301757,38.0962944030761,-96.1038742065429,132378876
sw,-84.5692367553711,-65.7039184570312,28.1985759735107,-62.1241912841796,132395543
sw,-84.5075302124023,-64.753189086914,29.1733131408691,-44.4877738952636,132412210
sw,-84.5186691284179,-63.8743782043457,39.3376350402832,-44.2975463867187,132428877
sw,-84.5584564208984,-63.2852401733398,53.3478164672851,-36.4920005798339,132445544
sw,-84.4909973144531,-63.220287322998,53.0663528442382,-15.9069118499755,132462211
sw,-84.2904434204101,-63.3891220092773,39.0172843933105,-9.49648094177246,132478878
sw,-84.018440246582,-64.3812637329101,26.178123474121,44.7609024047851,132495545
sw,-83.7041854858398,-66.2623214721679,22.9593105316162,98.9079895019531,132512212
sw,-83.4348220825195,-68.7721633911132,22.2987003326416,129.932266235351,132528879
sw,-83.260498046875,-71.5189361572265,23.5760707855224,138.840118408203,132545546
sw,-83.1725769042968,-74.2964324951171,21.8531970977783,146.706558227539,132562213
sw,-83.1134796142578,-77.0026626586914,19.5036640167236,161.711776733398,132578880
sw,-83.1261978149414,-77.978889465332,5.19890975952148,78.7801818847656,132595547
sw,-83.3415069580078,-78.4731292724609,-18.0989265441894,45.8448028564453,132612214
sw,-83.7605819702148,-78.0226974487304,-38.3954467773437,-35.8979110717773,132628881
sw,-84.287971496582,-77.5816574096679,-44.3511009216308,-25.0079536437988,132645548
sw,-84.8235473632812,-77.5300979614257,-35.4724655151367,1.98903346061706,132662215
sw,-85.2088317871093,-78.6889266967773,-14.6219854354858,63.5293540954589,132678882
sw,-85.3800506591796,-80.5951461791992,1.52407824993133,102.861198425292,132695549
sw,-85.3953857421875,-82.0341033935546,-12.5570259094238,79.2117385864257,132712216
sw,-85.3033981323242,-82.7295150756836,-47.5005493164062,67.8504409790039,132728883
sw,-84.8685150146484,-83.3871994018554,-113.485618591308,92.3832397460937,132745550
sw,-83.3625717163086,-83.9201049804687,-167.396331787109,89.2949523925781,132762217
sw,-80.8065338134765,-84.4363784790039,-197.363952636718,115.124588012695,132778884
sw,-77.4748306274414,-84.126106262207,-209.97085571289,146.746429443359,132795551
sw,-72.5063018798828,-83.0742874145507,-285.6943359375,126.565521240234,132812218
sw,-69.5137176513671,-82.4225692749023,-192.424453735351,52.7957382202148,132828885
sw,-68.0851898193359,-82.5061950683593,-105.776496887207,-10.1243534088134,132845552
sw,-66.3433532714843,-82.4622497558593,-118.652160644531,3.57346057891845,132862219
sw,-64.407600402832,-81.9820327758789,-123.44953918457,41.8027420043945,132878886
sw,-62.5477294921875,-81.4626846313476,-116.933975219726,48.6939811706543,132895553
sw,-60.8839721679687,-80.7756118774414,-105.700675964355,65.0582122802734,132912220
sw,-59.4759216308593,-80.0449752807617,-90.5642929077148,61.4723243713378,132928887
sw,-58.4639320373535,-79.4453430175781,-65.4772491455078,45.1008834838867,132945554
sw,-57.6871833801269,-78.7485580444336,-49.9733581542968,43.586856842041,132962221
sw,-57.0950241088867,-78.104995727539,-38.5223999023437,37.6377563476562,132978888
sw,-56.7426567077636,-77.6129150390625,-24.1120529174804,28.2819538116455,132995555
sw,-56.6649932861328,-77.25341796875,-7.40944910049438,20.8009300231933,133012222
sw,-56.9020309448242,-76.7542037963867,11.8374700546264,29.2660121917724,133028889
sw,-57.4622650146484,-76.0254516601562,31.9014549255371,42.5691719055175,133045556
sw,-58.144416809082,-75.3234939575195,39.2274780273437,40.5114517211914,133062223
sw,-59.0626068115234,-74.7158737182617,52.6578750610351,34.7017135620117,133078890
sw,-60.5730628967285,-73.9954833984375,88.0889053344726,41.4255981445312,133095557
sw,-62.5169944763183,-73.1593704223632,117.66510772705,48.3421363830566,133112224
sw,-63.9840507507324,-72.3563079833984,87.2049255371093,46.4160919189453,133128891
sw,-65.6562347412109,-71.6407775878906,103.36474609375,41.2783393859863,133145558
sw,-66.6682586669921,-70.9806594848632,60.5795249938964,38.0079231262207,133162225
sw,-67.5319137573242,-70.4591369628906,52.4956321716308,29.6977214813232,133178892
sw,-67.8063507080078,-70.1026992797851,16.1269760131835,19.8316383361816,133195559
sw,-67.7430343627929,-69.9797592163086,-5.34678602218627,5.88194608688354,133212226
sw,-67.8454895019531,-70.1683273315429,3.03750038146972,-12.8789491653442,133228893
sw,-68.5635833740234,-70.6144409179687,39.6259613037109,-28.5430240631103,133245560
sw,-70.1335525512695,-71.141242980957,92.2722091674804,-33.8465843200683,133262227
sw,-71.8259048461914,-71.6965408325195,102.080772399902,-36.2727317810058,133278894
sw,-72.8008651733398,-72.2397537231445,59.4434089660644,-36.3718605041503,133295561
sw,-73.4291687011718,-72.7807998657226,40.723648071289,-36.1931266784668,133312228
sw,-74.3030853271484,-73.2901535034179,54.5078964233398,-32.7523155212402,133328895
sw,-75.1905288696289,-73.7902755737304,53.2264900207519,-30.5164585113525,133345562
sw,-76.0905380249023,-74.5536193847656,53.397590637207,-45.3452110290527,133362229
sw,-77.2711486816406,-75.9934387207031,72.7380142211914,-85.9901046752929,133378896
sw,-78.7250747680664,-78.33544921875,89.2739028930664,-141.285202026367,133395563
sw,-80.2127838134765,-81.2420272827148,88.8494644165039,-177.770675659179,133412230
sw,-81.4848022460937,-84.3050842285156,76.6990051269531,-196.136291503906,133428897
sw,-82.4515838623046,-86.406265258789,64.8402099609375,-188.42756652832,133445564
sw,-83.1334762573242,-85.7616882324218,56.8559455871582,-177.51528930664,133462231
sw,-83.499526977539,-83.4573211669921,45.7346572875976,-170.55435180664,133478898
sw,-83.7086105346679,-81.3589630126953,34.1919288635253,-161.891616821289,133495565
sw,-83.9884948730468,-79.1604995727539,26.8228530883789,-176.237365722656,133512232
sw,-84.534423828125,-76.4034652709961,31.6409683227539,-200.673721313476,133528899
sw,-85.2623672485351,-73.6168212890625,40.4151229858398,-190.252731323242,133545566
sw,-85.9403991699218,-71.2191848754882,46.2542343139648,-157.753707885742,133562233
sw,-86.3175659179687,-69.0465011596679,47.2864799499511,-135.72216796875,133578900
sw,-86.2944107055664,-67.3174819946289,41.6993026733398,-103.732269287109,133595567
sw,-86.0841369628906,-66.0459899902343,33.0101318359375,-71.9877853393554,133612234
sw,-85.91064453125,-65.2420196533203,25.2834320068359,-40.0409088134765,133628901
sw,-85.8336868286132,-64.5976181030273,18.1821632385253,-26.7102069854736,133645568
sw,-85.8160095214843,-63.9741554260253,14.5233135223388,-27.885643005371,133662235
sw,-85.7923889160156,-63.6969299316406,15.5609865188598,-13.45272731781,133678902
sw,-85.7409896850586,-63.9090690612793,11.9858713150024,4.65844011306762,133695569
sw,-85.6482391357421,-64.361083984375,8.39949226379394,8.428804397583,133712236
sw,-85.4822616577148,-65.3161697387695,10.3945837020874,39.3283805847168,133728903
sw,-85.3035583496093,-67.1793212890625,10.9943695068359,101.640548706054,133745570
sw,-85.227180480957,-69.6704025268554,4.18947887420654,141.421615600585,133762237
sw,-85.2573623657226,-72.2622833251953,-0.417500138282775,134.789642333984,133778904
sw,-85.2944717407226,-74.8580780029296,6.31626749038696,127.444664001464,133795571
sw,-85.2574462890625,-77.6293334960937,12.9784975051879,153.490859985351,133812238
sw,-85.1379623413086,-79.3127059936523,12.0085411071777,108.181411743164,133828905
sw,-85.0729217529296,-79.7927474975586,1.00166952610015,32.9417495727539,133845572
sw,-85.2464294433593,-79.3588790893554,-16.5171127319335,-41.4431037902832,133862239
sw,-85.6405944824218,-78.7868118286132,-27.0078182220459,-38.9225158691406,133878906
sw,-85.9226913452148,-78.7596206665039,-12.2521457672119,-2.94060659408569,133895573
sw,-85.9473037719726,-79.9736785888671,5.19805431365966,63.765281677246,133912240
sw,-85.9172668457031,-82.0324325561523,1.12940120697021,115.320152282714,133928907
sw,-85.9925918579101,-83.5212860107421,-21.9318237304687,99.0069503784179,133945574
sw,-86.1449661254882,-84.2986221313476,-71.0586929321289,86.8914566040039,133962241
sw,-85.6442337036132,-84.9749221801757,-130.858810424804,103.576339721679,133978908
sw,-83.8440017700195,-85.395637512207,-166.473892211914,103.679100036621,133995575
sw,-81.2165603637695,-85.277359008789,-176.354415893554,113.959754943847,134012242
sw,-78.0073013305664,-84.6544494628906,-180.407684326171,101.195365905761,134028909
sw,-73.7825012207031,-83.9976348876953,-233.880462646484,63.9977340698242,134045576
sw,-71.8792190551757,-83.6651306152343,-130.303115844726,25.6197471618652,134062243
sw,-70.5118331909179,-83.4074478149414,-102.468101501464,18.8461303710937,134078910
sw,-68.6606903076171,-82.7831344604492,-125.580474853515,45.0852355957031,134095577
sw,-66.6580657958984,-81.7485733032226,-128.897094726562,74.9105758666992,134112244
sw,-64.7858200073242,-80.5792770385742,-119.719367980957,82.9157028198242,134128911
sw,-62.9338569641113,-79.37744140625,-119.296318054199,81.6013259887695,134145578
sw,-61.4007453918457,-78.4529571533203,-99.7192840576171,59.444091796875,134162245
sw,-60.1471366882324,-77.7667007446289,-81.3843536376953,41.0424613952636,134178912
sw,-59.0608177185058,-77.2667617797851,-70.1153717041015,28.5485305786132,134195579
sw,-58.0328063964843,-76.9587249755859,-66.8703536987304,16.8145542144775,134212246
sw,-57.2049980163574,-76.6805953979492,-54.7322578430175,14.9771995544433,134228913
sw,-56.7968101501464,-76.3021469116211,-28.8133277893066,20.8705406188964,134245580
sw,-56.7187118530273,-75.7420272827148,-8.8978624343872,31.4944324493408,134262247
sw,-56.8704147338867,-75.0425720214843,4.71057653427124,39.6453323364257,134278914
sw,-57.2452011108398,-74.3919525146484,17.6831188201904,36.7703971862793,134295581
sw,-57.9634170532226,-73.806037902832,38.1145477294921,33.2068862915039,134312248
sw,-59.6043510437011,-73.1512603759765,94.8777389526367,37.6482505798339,134328915
sw,-61.5761108398437,-72.3948364257812,117.480400085449,43.7812004089355,134345582
sw,-63.584716796875,-71.6488037109375,120.466384887695,43.0887260437011,134362249
sw,-65.6825714111328,-70.9562759399414,130.29768371582,39.8297233581543,134378916
sw,-66.8646087646484,-70.3248596191406,74.3894500732421,36.1250038146972,134395583
sw,-67.4630279541015,-69.843765258789,37.5630645751953,27.0773830413818,134412250
sw,-67.6148223876953,-69.5093383789062,8.01436805725097,18.233470916748,134428917
sw,-67.3525619506836,-69.3557739257812,-18.168041229248,7.21061468124389,134445584
sw,-67.4450225830078,-69.4346923828125,2.4162323474884,-6.96581125259399,134462251
sw,-68.3223266601562,-69.7994842529296,48.1939315795898,-24.3712139129638,134478918
sw,-69.9458694458007,-70.3690414428711,96.8882598876953,-36.7931404113769,134495585
sw,-71.4442138671875,-71.0034942626953,92.5114974975586,-40.7087821960449,134512252
sw,-72.1294631958007,-71.6266174316406,46.5392379760742,-39.9402542114257,134528919
sw,-72.6321411132812,-72.1544723510742,41.4805526733398,-33.7670822143554,134545586
sw,-73.4973831176757,-72.6915969848632,58.1790122985839,-33.6501960754394,134562253
sw,-74.4823303222656,-73.6487350463867,57.1553878784179,-57.9533920288085,134578920
sw,-75.6372680664062,-75.4636840820312,68.3916015625,-109.150917053222,134595587
sw,-77.0276794433593,-78.3251113891601,87.9840927124023,-172.24494934082,134612254
sw,-78.4246978759765,-81.7961807250976,93.4265213012695,-210.841918945312,134628921
sw,-79.5605545043945,-85.1905441284179,75.6149291992187,-217.362731933593,134645588
sw,-80.3470993041992,-87.0039596557617,49.0218124389648,-198.616668701171,134662255
sw,-80.8013153076171,-85.4784851074218,31.597728729248,-181.980331420898,134678922
sw,-81.0839462280273,-82.9884033203125,27.5717277526855,-170.941421508789,134695589
sw,-81.3986206054687,-80.9568481445312,36.7512474060058,-151.25259399414,134712256
sw,-81.7210617065429,-78.6981887817382,41.6295051574707,-168.43716430664,134728923
sw,-81.9704055786132,-75.9782409667968,29.2906551361084,-185.918960571289,134745590
sw,-82.3014526367187,-73.3478317260742,13.2069196701049,-173.049285888671,134762257
sw,-82.8819732666015,-70.9883117675781,20.3731327056884,-149.251251220703,134778924
sw,-83.6856536865234,-68.9562377929687,41.2050590515136,-122.807716369628,134795591
sw,-84.3373947143554,-67.4204025268554,49.9053115844726,-88.8880920410156,134812258
sw,-84.5699615478515,-66.413589477539,44.7020225524902,-54.1828422546386,134828925
sw,-84.4883651733398,-65.7557373046875,33.9448471069335,-30.3293361663818,134845592
sw,-84.3580551147461,-65.0649719238281,32.7417182922363,-32.8893585205078,134862259
sw,-84.3190765380859,-64.4284896850586,38.0925102233886,-37.0445747375488,134878926
sw,-84.3163146972656,-64.2304306030273,44.0014877319335,-19.9125461578369,134895593
sw,-84.2450332641601,-64.3941345214843,43.332347869873,-8.73744678497314,134912260
sw,-84.0971755981445,-64.8955459594726,34.4033546447753,7.57544326782226,134928927
sw,-83.8875274658203,-66.2964477539062,24.9473247528076,68.1799926757812,134945594
sw,-83.6373062133789,-68.1253967285156,21.9495449066162,95.9901351928711,134962261
sw,-83.4136962890625,-70.5352478027343,22.7062282562255,129.864074707031,134978928
sw,-83.2863311767578,-72.8736877441406,20.1251544952392,118.194923400878,134995595
sw,-83.2308807373046,-75.2784423828125,15.2448320388793,129.370086669921,135012262
sw,-83.1085510253906,-77.3303527832031,17.4211826324462,123.678390502929,135028929
sw,-82.9546890258789,-78.5829391479492,14.7070350646972,88.7345962524414,135045596
sw,-82.9401702880859,-78.9662017822265,3.96629309654235,22.4092063903808,135062263
sw,-83.2071990966796,-78.7053756713867,-16.3301696777343,-30.9464302062988,135078930
sw,-83.773452758789,-78.2542114257812,-35.3938293457031,-26.7877655029296,135095597
sw,-84.4077758789062,-78.1902923583984,-31.6953125,-5.35099363327026,135112264
sw,-84.78955078125,-79.3730697631836,-16.0110187530517,53.3601951599121,135128931
sw,-84.8927001953125,-81.7001495361328,-7.60866451263427,127.561622619628,135145598
sw,-84.8878402709961,-83.5004119873046,-11.9716281890869,114.291236877441,135162265
sw,-84.8892974853515,-84.0007705688476,-41.1940650939941,56.0913772583007,135178932
sw,-84.6532440185546,-84.4527053833007,-80.161865234375,83.8705444335937,135195599
sw,-83.8995361328125,-84.9074554443359,-135.432357788085,93.6263351440429,135212266
sw,-82.2213058471679,-85.1932373046875,-166.069686889648,104.115127563476,135228933
sw,-79.5834655761718,-85.0491638183593,-192.532638549804,102.155838012695,135245600
sw,-76.0069961547851,-84.5557632446289,-215.689895629882,82.0932693481445,135262267
sw,-72.5204315185546,-84.1556167602539,-209.128021240234,50.0469703674316,135278934
sw,-70.9561157226562,-83.8927307128906,-118.904113769531,27.611270904541,135295601
sw,-69.3366546630859,-83.3489913940429,-122.455825805664,40.3399009704589,135312268
sw,-67.4036331176757,-82.390884399414,-133.129165649414,64.6919784545898,135328935
sw,-65.4597930908203,-81.2982101440429,-127.902557373046,75.0965194702148,135345602
sw,-63.6508064270019,-80.1441192626953,-118.10099029541,79.7706069946289,135362269
sw,-62.0411567687988,-79.0730361938476,-106.470581054687,72.5190200805664,135378936
sw,-60.5842018127441,-78.413703918457,-96.4509887695312,43.8100204467773,135395603
sw,-59.4512100219726,-77.9115982055664,-74.962287902832,30.4607353210449,135412270
sw,-58.5607452392578,-77.4458541870117,-59.0556602478027,26.5368690490722,135428937
sw,-57.8624954223632,-77.0200119018554,-47.2243041992187,23.8583297729492,135445604
sw,-57.3898048400878,-76.5540618896484,-33.2042388916015,26.1971778869628,135462271
sw,-57.2959022521972,-76.0389328002929,-9.73208999633789,28.9718971252441,135478938
sw,-57.4619636535644,-75.3859786987304,6.06989336013793,36.9878768920898,135495605
sw,-57.8141632080078,-74.6911544799804,17.2193374633789,39.4735412597656,135512272
sw,-58.3620834350585,-74.0571823120117,28.997386932373,36.0230751037597,135528939
sw,-59.2448081970214,-73.465705871582,48.7137260437011,33.7044601440429,135545606
sw,-61.0559844970703,-72.7992401123046,107.192115783691,38.3325805664062,135562273
sw,-62.9561920166015,-72.0699310302734,115.304016113281,42.0986557006835,135578940
sw,-65.0039520263671,-71.3979415893554,125.873779296875,38.6373596191406,135595607
sw,-66.4974822998046,-70.8158721923828,92.150650024414,33.2078018188476,135612274
sw,-67.4539642333984,-70.3174819946289,57.5965881347656,28.0998878479003,135628941
sw,-68.0344619750976,-69.9244537353515,32.9172096252441,21.6698265075683,135645608
sw,-68.1984100341796,-69.6176223754882,8.01240348815918,16.298225402832,135662275
sw,-67.9052734375,-69.5506286621093,-20.4166049957275,1.51731157302856,135678942
sw,-68.0382919311523,-69.70849609375,3.36560678482055,-12.2540588378906,135695609
sw,-69.0218353271484,-70.0944519042968,54.5824546813964,-26.1416416168212,135712276
sw,-70.8425369262695,-70.6078109741211,108.912864685058,-34.0539245605468,135728943
sw,-72.3480529785156,-71.2045211791992,93.6686630249023,-39.2916374206543,135745610
sw,-72.908950805664,-71.8709869384765,40.3494033813476,-43.1834144592285,135762277
sw,-73.5771789550781,-72.5061874389648,48.6560363769531,-40.13623046875,135778944
sw,-74.6679382324218,-73.2602386474609,68.2936553955078,-45.9791717529296,135795611
sw,-75.8907623291015,-74.5522994995117,72.8061141967773,-76.7062225341796,135812278
sw,-77.3182373046875,-76.7898025512695,88.8374404907226,-133.44905090332,135828945
sw,-79.0013809204101,-79.9702987670898,109.208511352539,-190.842178344726,135845612
sw,-80.4371337890625,-83.509765625,95.5489120483398,-216.868774414062,135862279
sw,-81.3227996826171,-86.5001678466796,57.6155624389648,-213.23387145996,135878946
sw,-81.8386306762695,-86.6086349487304,38.8454971313476,-195.203643798828,135895613
sw,-82.1515731811523,-84.3732223510742,36.8929061889648,-169.881698608398,135912280
sw,-82.4030227661132,-82.3322067260742,45.307559967041,-153.798934936523,135928947
sw,-82.7143325805664,-80.2352142333984,54.3086204528808,-162.761276245117,135945614
sw,-82.9907302856445,-77.5208663940429,42.5818061828613,-190.1875,135962281
sw,-83.372444152832,-74.6755294799804,25.9614448547363,-187.974014282226,135978948
sw,-83.8781127929687,-72.0414657592773,24.3317508697509,-166.658309936523,135995615
sw,-84.4520034790039,-69.6514434814453,38.816047668457,-144.13525390625,136012282
sw,-84.8103485107421,-67.7289657592773,46.2079353332519,-110.532020568847,136028949
sw,-84.7570877075195,-66.3189086914062,42.7286987304687,-75.2681503295898,136045616
sw,-84.4543685913086,-65.4219970703125,31.8118591308593,-43.3920783996582,136062283
sw,-84.1668930053711,-64.6979904174804,26.9749584197998,-33.4065284729003,136078950
sw,-83.9846496582031,-64.1605377197265,31.6185302734375,-24.2213973999023,136095617
sw,-83.8644180297851,-63.91206741333,36.9204635620117,-13.2314205169677,136112284
sw,-83.6998901367187,-64.0026702880859,36.064353942871,0.200041636824607,136128951
sw,-83.4171524047851,-64.4412002563476,34.2306938171386,14.1700830459594,136145618
sw,-83.057258605957,-65.535530090332,28.5779514312744,52.5146255493164,136162285
sw,-82.6803512573242,-67.3819198608398,22.8817424774169,101.567573547363,136178952
sw,-82.3613357543945,-70.0043411254882,17.511884689331,146.042678833007,136195619
sw,-82.1900329589843,-72.7643356323242,13.9288101196289,146.031265258789,136212286
sw,-82.1856079101562,-75.609146118164,9.13999366760253,150.217575073242,136228953
sw,-82.2512435913086,-78.4863510131836,4.36441326141357,173.494171142578,136245620
sw,-82.2969665527343,-79.8340301513671,3.67863059043884,101.064994812011,136262287
sw,-82.481201171875,-80.328628540039,-9.06062126159668,38.2282447814941,136278954
sw,-82.7704544067382,-80.0921020507812,-20.5047798156738,-31.0792999267578,136295621
sw,-83.1697921752929,-79.8305587768554,-31.3126926422119,-17.2238540649414,136312288
sw,-83.5518035888671,-80.3692855834961,-33.9316215515136,35.7166290283203,136328955
sw,-83.7369689941406,-82.1218948364257,-14.995171546936,98.5910949707031,136345622
sw,-83.9109954833984,-83.3789520263671,-25.6553268432617,81.5898056030273,136362289
sw,-84.0792388916015,-83.9897308349609,-67.7548828125,71.9590988159179,136378956
sw,-83.9675903320312,-84.5154495239257,-120.175567626953,92.3238830566406,136395623
sw,-82.9514083862304,-84.8471069335937,-168.632675170898,93.0289840698242,136412290
sw,-80.7186737060546,-84.70361328125,-200.218887329101,112.24136352539,136428957
sw,-77.468879699707,-83.8663330078125,-210.120056152343,123.042747497558,136445624
sw,-73.583999633789,-82.9742660522461,-236.327056884765,82.806282043457,136462291
sw,-71.6887969970703,-82.5310516357421,-144.335479736328,31.7677974700927,136478958
sw,-70.0040588378906,-82.3670425415039,-123.907691955566,11.2697324752807,136495625
sw,-68.1163482666015,-81.9800415039062,-126.535049438476,35.4975471496582,136512292
sw,-66.2058563232421,-81.0730667114257,-122.289390563964,73.2928924560546,136528959
sw,-64.4189987182617,-79.8896789550781,-113.662033081054,87.1578598022461,136545626
sw,-62.7398796081543,-78.6569671630859,-107.547950744628,85.4350051879882,136562293
sw,-61.2459259033203,-77.7595443725586,-95.9988403320312,59.042552947998,136578960
sw,-60.0591392517089,-77.1617813110351,-76.3247833251953,36.568130493164,136595627
sw,-59.0409812927246,-76.7260971069336,-65.0722427368164,25.2358970642089,136612294
sw,-58.0882339477539,-76.4054107666015,-61.3323554992675,17.9948921203613,136628961
sw,-57.2096481323242,-76.1241073608398,-57.2380790710449,15.5143394470214,136645628
sw,-56.6916007995605,-75.7944564819336,-35.3413505554199,18.282522201538,136662295
sw,-56.545539855957,-75.3536529541015,-12.5659713745117,24.6963768005371,136678962
sw,-56.6771049499511,-74.881362915039,4.6144585609436,26.3112545013427,136695629
sw,-57.1407966613769,-74.4848098754882,24.093858718872,21.661750793457,136712296
sw,-58.0880393981933,-74.1276168823242,52.8564300537109,19.4838333129882,136728963
sw,-59.9312438964843,-73.7477416992187,108.461761474609,21.0362319946289,136745630
sw,-61.743293762207,-73.4046554565429,107.26178741455,18.8257446289062,136762297
sw,-64.1478805541992,-73.1063919067382,145.994201660156,15.9960269927978,136778964
sw,-65.8921585083007,-72.7893676757812,106.75437927246,16.9430980682373,136795631
sw,-67.1229400634765,-72.4179458618164,76.5217208862304,19.9969024658203,136812298
sw,-67.8745727539062,-72.1276779174804,46.1790237426757,14.9243650436401,136828965
sw,-67.7272415161132,-71.9638900756836,-10.0013351440429,7.31364631652832,136845632
sw,-67.5241394042968,-71.9753036499023,-13.526967048645,-3.18786311149597,136862299
sw,-67.6413421630859,-72.1122741699218,4.01391458511352,-10.6265811920166,136878966
sw,-68.4963989257812,-72.3000564575195,45.9099464416503,-13.5931091308593,136895633
sw,-70.2104339599609,-72.3701095581054,100.522361755371,-6.4317774772644,136912300
sw,-71.6715240478515,-72.251480102539,89.1570816040039,5.09598493576049,136928967
sw,-72.3466491699218,-71.9809646606445,46.3938102722168,14.4379806518554,136945634
sw,-73.215461730957,-71.7817001342773,62.7639694213867,10.4889764785766,136962301
sw,-74.4099044799804,-72.0597915649414,73.878547668457,-17.6580772399902,136978968
sw,-75.5624618530273,-73.0890731811523,65.9388351440429,-62.4722633361816,136995635
sw,-76.9130020141601,-74.9460983276367,80.0618743896484,-112.542236328125,137012302
sw,-78.4655838012695,-77.5676498413086,96.0410842895507,-159.532989501953,137028969
sw,-79.8337631225586,-80.8008499145507,85.8810501098632,-199.932357788085,137045636
sw,-80.8125686645507,-83.9345016479492,58.0940437316894,-209.120407104492,137062303
sw,-81.4062805175781,-85.7516708374023,35.7884140014648,-194.713943481445,137078970
sw,-81.7859420776367,-85.0315399169921,30.6584205627441,-184.745803833007,137095637
sw,-82.1189727783203,-83.1182098388671,39.9348220825195,-163.987319946289,137112304
sw,-82.4589233398437,-81.3797378540039,49.2392196655273,-159.743331909179,137128971
sw,-82.7643280029296,-79.0943450927734,44.7621726989746,-189.314300537109,137145638
sw,-83.1099166870117,-76.2530517578125,30.6357269287109,-205.943939208984,137162305
sw,-83.6198577880859,-73.4663696289062,23.4501438140869,-189.941421508789,137178972
sw,-84.3434219360351,-70.9177932739257,36.7618560791015,-164.833999633789,137195639
sw,-84.974380493164,-68.6906967163086,50.1685066223144,-136.243927001953,137212306
sw,-85.1726608276367,-67.0032653808593,45.5410614013671,-97.9336853027343,137228973
sw,-85.0335922241211,-65.8907241821289,30.9406280517578,-60.785659790039,137245640
sw,-84.8504104614257,-65.1062316894531,24.3802967071533,-37.2351188659668,137262307
sw,-84.7735595703125,-64.4035339355468,32.4660377502441,-33.3721656799316,137278974
sw,-84.7361984252929,-63.9215278625488,40.8970756530761,-26.8502483367919,137295641
sw,-84.6235656738281,-63.9595870971679,45.3314476013183,-6.5032410621643,137312308
sw,-84.395278930664,-64.2219009399414,41.4224243164062,-6.40628147125244,137328975
sw,-84.0783081054687,-64.9793090820312,31.2229022979736,21.2918033599853,137345642
sw,-83.7069015502929,-66.7948837280273,25.0574798583984,90.997573852539,137362309
sw,-83.3373870849609,-68.8933334350586,22.3628196716308,106.795768737792,137378976
sw,-83.0771789550781,-71.5934143066406,18.9052963256835,140.438018798828,137395643
sw,-83.0031127929687,-73.9225082397461,11.669825553894,106.811088562011,137412310
sw,-83.0023803710937,-76.6692810058593,8.80774688720703,146.695587158203,137428977
sw,-82.946533203125,-78.6877059936523,9.89317321777343,126.418632507324,137445644
sw,-82.9239654541015,-79.0843811035156,3.78265142440795,34.2404823303222,137462311
sw,-83.1076736450195,-78.6461029052734,-12.4418411254882,-37.7460594177246,137478978
sw,-83.5739212036132,-77.8396377563476,-32.4592742919921,-49.1423377990722,137495645
sw,-84.1412124633789,-77.3862609863281,-37.9331550598144,-23.1419143676757,137512312
sw,-84.5232467651367,-77.8871459960937,-19.9952812194824,20.4424438476562,137528979
sw,-84.6348724365234,-79.8405990600586,-3.50257730484008,98.7209091186523,137545646
sw,-84.5949172973632,-81.9932022094726,-1.85877752304077,119.323608398437,137562313
sw,-84.5832595825195,-82.9820022583007,-24.935806274414,72.4403686523437,137578980
sw,-84.5223541259765,-83.5640106201171,-55.6628608703613,83.6949844360351,137595647
sw,-84.2780685424804,-84.1858139038086,-102.935470581054,97.9758377075195,137612314
sw,-83.3570785522461,-84.6992492675781,-148.432678222656,112.709548950195,137628981
sw,-81.3329315185546,-84.7388763427734,-177.4296875,127.079223632812,137645648
sw,-78.4526977539062,-84.191909790039,-188.27000427246,112.128364562988,137662315
sw,-74.6545333862304,-83.6964721679687,-225.029327392578,65.4297409057617,137678982
sw,-72.3094253540039,-83.6256942749023,-163.946502685546,17.3817272186279,137695649
sw,-70.8582382202148,-83.4844360351562,-112.914634704589,17.8234348297119,137712316
sw,-69.0472259521484,-82.7846908569336,-128.115478515625,51.6447982788085,137728983
sw,-66.9096374511718,-81.7259292602539,-141.904678344726,74.7176818847656,137745650
sw,-64.9911041259765,-80.6065902709961,-125.360923767089,78.4051971435546,137762317
sw,-63.2033004760742,-79.3678817749023,-116.81273651123,85.1091232299804,137778984
sw,-61.6791839599609,-78.5617904663086,-100.323173522949,54.9308166503906,137795651
sw,-60.3196220397949,-78.0213012695312,-89.0530471801757,34.6869316101074,137812318
sw,-59.1213722229003,-77.5328521728515,-78.1952133178711,28.667589187622,137828985
sw,-58.0976791381835,-77.1535186767578,-67.6083755493164,21.4064979553222,137845652
sw,-57.2310829162597,-76.7353210449218,-57.7761764526367,23.722370147705,137862319
sw,-56.7487487792968,-76.1845550537109,-34.1049766540527,31.6910800933837,137878986
sw,-56.4963607788085,-75.4911956787109,-20.1657314300537,40.0958671569824,137895653
sw,-56.4477882385253,-74.6744384765625,-7.61354303359985,47.2857666015625,137912320
sw,-56.6188087463378,-73.9039840698242,5.42457818984985,44.4582138061523,137928987
sw,-57.0412902832031,-73.2097015380859,19.5861911773681,39.9294281005859,137945654
sw,-58.6046409606933,-72.4727096557617,89.9039535522461,42.5057106018066,137962321
sw,-60.0753746032714,-71.6853637695312,85.4988098144531,45.5184822082519,137978988
sw,-62.0073318481445,-70.9653701782226,116.814346313476,41.4876327514648,137995655
sw,-63.8435974121093,-70.3870010375976,113.921699523925,33.0139427185058,138012322
sw,-65.0326385498046,-69.8893737792968,74.7079391479492,28.1869602203369,138028989
sw,-65.999885559082,-69.4754257202148,58.0282821655273,23.1527194976806,138045656
sw,-66.7885589599609,-69.1268997192382,46.4824028015136,19.1405429840087,138062323
sw,-67.1104049682617,-69.0010681152343,19.1950206756591,5.5637354850769,138078990
sw,-67.6114196777343,-69.1452941894531,29.1273155212402,-10.8828878402709,138095657
sw,-68.6742858886718,-69.5338363647461,62.2639083862304,-25.6914482116699,138112324
sw,-70.4671096801757,-70.119400024414,107.10163116455,-37.685562133789,138128991
sw,-72.0798034667968,-70.8046112060546,100.395736694335,-43.6480484008789,138145658
sw,-72.619514465332,-71.4162979125976,36.6935119628906,-39.0789566040039,138162325
sw,-73.0324401855468,-71.8027572631836,32.8668670654296,-25.0911445617675,138178992
sw,-73.9489364624023,-72.077766418457,60.3121147155761,-17.8250274658203,138195659
sw,-74.9087524414062,-72.7860641479492,53.9254493713378,-42.9041481018066,138212326
sw,-75.9892120361328,-74.3304672241211,63.0279541015625,-92.7767639160156,138228993
sw,-77.3985595703125,-76.8600387573242,89.0924835205078,-152.199081420898,138245660
sw,-78.9314270019531,-80.0986557006836,99.7908554077148,-195.903945922851,138262327
sw,-80.2028121948242,-83.4744186401367,82.1506652832031,-209.929336547851,138278994
sw,-81.1224975585937,-86.1381225585937,60.4464797973632,-202.767547607421,138295661
sw,-81.6647338867187,-86.1751022338867,41.776268005371,-200.445388793945,138312328
sw,-81.9195938110351,-83.9191436767578,32.6924476623535,-186.157562255859,138328995
sw,-82.1050872802734,-81.8115615844726,35.4014930725097,-164.25894165039,138345662
sw,-82.3282852172851,-79.6227111816406,40.2162475585937,-169.318908691406,138362329
sw,-82.620361328125,-76.7673263549804,31.8080711364746,-198.013137817382,138378996
sw,-83.0279388427734,-73.8173828125,19.2348079681396,-193.834762573242,138395663
sw,-83.577163696289,-71.1149978637695,21.2498207092285,-170.864196777343,138412330
sw,-84.2714233398437,-68.5954284667968,43.1445960998535,-151.082138061523,138428997
sw,-84.7569351196289,-66.5650863647461,52.8008956909179,-116.213088989257,138445664
sw,-84.8192672729492,-65.1278381347656,48.190502166748,-76.5592193603515,138462331
sw,-84.6159133911132,-64.2103195190429,36.3251152038574,-41.8849182128906,138478998
sw,-84.4038162231445,-63.4342155456543,33.429889678955,-32.7073707580566,138495665
sw,-84.292984008789,-62.7725067138671,38.1168212890625,-33.8371658325195,138512332
sw,-84.208511352539,-62.5515022277832,41.9732780456543,-19.2899112701416,138528999
sw,-84.0611267089843,-62.6615753173828,38.5042762756347,-9.80050182342529,138545666
sw,-83.8404998779296,-63.2445602416992,30.5608253479003,16.6404342651367,138562333
sw,-83.606689453125,-64.9015350341796,19.8921089172363,86.1627960205078,138579000
sw,-83.3872528076171,-66.9943313598632,12.6764211654663,107.161323547363,138595667
sw,-83.2168502807617,-69.838508605957,12.5474710464477,146.670425415039,138612334
sw,-83.1661987304687,-72.5895919799804,14.338225364685,130.694473266601,138629001
sw,-83.1983642578125,-75.7895202636718,11.4918127059936,169.231323242187,138645668
sw,-83.1311111450195,-78.6288528442382,14.0071172714233,170.360214233398,138662335
sw,-83.1162719726562,-79.7515487670898,2.88038110733032,86.5806732177734,138679002
sw,-83.28466796875,-79.7058563232421,-16.0077476501464,-10.6255187988281,138695669
sw,-83.6848449707031,-78.9737548828125,-33.4215660095214,-52.9267082214355,138712336
sw,-84.3221130371093,-78.5467529296875,-45.6469802856445,-21.6399459838867,138729003
sw,-84.8621063232421,-79.2195129394531,-27.0781993865966,34.1169204711914,138745670
sw,-85.0745468139648,-81.2389984130859,0.140966579318046,103.198081970214,138762337
sw,-85.1659622192382,-82.8837966918945,-3.60038661956787,89.7570190429687,138779004
sw,-85.2954330444336,-83.5817947387695,-39.2771530151367,55.8176193237304,138795671
sw,-85.2588882446289,-84.2813491821289,-89.4412460327148,89.5615768432617,138812338
sw,-84.4779968261718,-84.8396606445312,-139.918045043945,93.0814208984375,138829005
sw,-82.489631652832,-85.275032043457,-178.479919433593,104.205154418945,138845672
sw,-79.7016143798828,-85.1577072143554,-183.491073608398,120.805458068847,138862339
sw,-76.13623046875,-84.5317306518554,-199.340454101562,100.080184936523,138879006
sw,-72.2361984252929,-83.9216232299804,-222.643005371093,64.1702346801757,138895673
sw,-70.4279861450195,-83.6419601440429,-132.729949951171,25.2714862823486,138912340
sw,-68.9164123535156,-83.2885818481445,-111.680931091308,27.8233623504638,138929007
sw,-66.9483642578125,-82.545913696289,-132.426025390625,53.6312065124511,138945674
sw,-65.0120544433593,-81.6403427124023,-125.085037231445,65.162727355957,138962341
sw,-63.1980934143066,-80.6225814819336,-116.742851257324,72.0785980224609,138979008
sw,-61.5779953002929,-79.5933456420898,-105.744026184082,69.7538909912109,138995675
sw,-60.2176933288574,-78.8217468261718,-89.4167938232421,49.6159744262695,139012342
sw,-59.1758575439453,-78.1605148315429,-68.6116790771484,39.2774658203125,139029009
sw,-58.2693138122558,-77.6073532104492,-59.440185546875,31.5326862335205,139045676
sw,-57.3973503112793,-77.2183685302734,-57.3219337463378,21.5508480072021,139062343
sw,-56.8291358947753,-76.8425521850586,-38.8966827392578,20.684097290039,139079010
sw,-56.7516822814941,-76.3755416870117,-9.07832145690918,25.9904804229736,139095677
sw,-56.8882789611816,-75.7958526611328,3.76391506195068,32.5685844421386,139112344
sw,-57.1553802490234,-75.1579284667968,11.314148902893,35.9997024536132,139129011
sw,-57.6269340515136,-74.4994659423828,22.8653678894042,37.461570739746,139145678
sw,-58.3675193786621,-73.8245239257812,38.6838302612304,38.69580078125,139162345
sw,-60.2415046691894,-73.1658782958984,108.834732055664,37.7849464416503,139179012
sw,-62.2467231750488,-72.4536437988281,118.905586242675,40.9834060668945,139195679
sw,-64.2670364379882,-71.7133178710937,122.232223510742,42.6465797424316,139212346
sw,-65.8461151123046,-71.0319442749023,96.7548141479492,39.0634078979492,139229013
sw,-66.8211212158203,-70.4457321166992,59.6010513305664,33.292007446289,139245680
sw,-67.3214950561523,-69.9930572509765,30.9957542419433,25.2287654876709,139262347
sw,-67.463020324707,-69.7178726196289,8.81145572662353,14.5186357498168,139279014
sw,-67.3238067626953,-69.6808471679687,-9.85441970825195,0.100101076066493,139295681
sw,-67.3893661499023,-69.8192291259765,0.289699047803878,-10.5822658538818,139312348
sw,-68.1047744750976,-70.1012115478515,39.428653717041,-19.4833240509033,139329015
sw,-69.7732925415039,-70.4535217285156,99.1465377807617,-23.9957313537597,139345682
sw,-71.6533126831054,-70.8023300170898,114.057518005371,-23.7288856506347,139362349
sw,-72.6270446777343,-71.1246185302734,60.4576187133789,-21.7005004882812,139379016
sw,-73.3353500366211,-71.2958374023437,50.0005264282226,-12.2585363388061,139395683
sw,-74.4309005737304,-71.4529953002929,72.4122695922851,-11.0453786849975,139412350
sw,-75.4846801757812,-72.0326919555664,64.4824295043945,-35.5341567993164,139429017
sw,-76.6212387084961,-73.5088119506836,68.6807098388671,-88.6412811279296,139445684
sw,-77.9907684326171,-76.0063095092773,85.5248107910156,-150.216217041015,139462351
sw,-79.3019638061523,-79.2379684448242,84.0932846069336,-195.25813293457,139479018
sw,-80.342658996582,-82.7570571899414,65.7327728271484,-217.200119018554,139495685
sw,-81.126708984375,-85.6163558959961,49.7257232666015,-201.411865234375,139512352
sw,-81.7172927856445,-86.4325714111328,43.7322731018066,-181.749893188476,139529019
sw,-82.158935546875,-84.9233322143554,42.5692558288574,-161.57485961914,139545686
sw,-82.5955200195312,-83.1480636596679,51.1237144470214,-147.961303710937,139562353
sw,-82.997444152832,-81.1198043823242,52.2957572937011,-164.543579101562,139579020
sw,-83.3960342407226,-78.456802368164,45.6526184082031,-192.942565917968,139595687
sw,-83.8982543945312,-75.5862197875976,38.0208930969238,-192.893020629882,139612354
sw,-84.4497451782226,-72.7729339599609,29.8246192932128,-179.26658630371,139629021
sw,-84.9465408325195,-70.1363067626953,33.4670486450195,-160.297790527343,139645688
sw,-85.23046875,-68.0628890991211,41.2002334594726,-120.186973571777,139662355
sw,-85.2122650146484,-66.5789184570312,35.7379722595214,-80.3974838256836,139679022
sw,-85.0421981811523,-65.4521942138671,28.6297492980957,-56.8938903808593,139695689
sw,-84.8964691162109,-64.3828659057617,29.5063705444335,-56.1514434814453,139712356
sw,-84.8080825805664,-63.4188995361328,35.970100402832,-57.8275718688964,139729023
sw,-84.7150955200195,-63.0085563659668,37.7331619262695,-31.5378379821777,139745690
sw,-84.5584259033203,-63.1543731689453,32.1988868713378,-4.04365444183349,139762357
sw,-84.3084259033203,-63.61519241333,29.8871765136718,11.1217832565307,139779024
sw,-83.9690933227539,-64.7136077880859,29.5194358825683,53.651870727539,139795691
sw,-83.644546508789,-66.5531997680664,22.466567993164,101.203224182128,139812358
sw,-83.4687194824218,-69.1935653686523,7.73467445373535,143.631210327148,139829025
sw,-83.4679641723632,-71.7828674316406,-1.02498221397399,127.207397460937,139845692
sw,-83.577522277832,-74.5090255737304,1.46566891670227,137.192504882812,139862359
sw,-83.7031326293945,-77.3473281860351,1.9413743019104,161.404373168945,139879026
sw,-83.7422943115234,-79.0079498291015,3.93048286437988,113.887947082519,139895693
sw,-83.7993850708007,-79.7888946533203,-0.565851986408233,61.9069709777832,139912360
sw,-83.9645080566406,-79.5868301391601,-12.8213729858398,-24.9321308135986,139929027
sw,-84.2479629516601,-79.2155532836914,-25.3603897094726,-24.9393310546875,139945694
sw,-84.5535278320312,-79.2321014404296,-25.0832061767578,4.53727054595947,139962361
sw,-84.6272506713867,-80.5246887207031,-1.71064710617065,73.6440811157226,139979028
sw,-84.574478149414,-82.3538360595703,4.82456684112548,101.954109191894,139995695
sw,-84.6873626708984,-83.2814254760742,-20.1489582061767,65.3505172729492,140012362
sw,-84.9359283447265,-83.7581405639648,-65.3615036010742,79.395881652832,140029029
sw,-84.9469299316406,-84.1954574584961,-116.302742004394,96.2236709594726,140045696
sw,-84.0024337768554,-84.3894424438476,-158.106643676757,97.9227676391601,140062363
sw,-81.9272766113281,-84.230484008789,-177.689147949218,112.048500061035,140079030
sw,-79.11865234375,-83.6207122802734,-177.335662841796,109.712997436523,140095697
sw,-75.4308319091796,-83.0760955810546,-202.817886352539,69.5382080078125,140112364
sw,-72.607063293457,-82.799331665039,-178.03025817871,31.7734127044677,140129031
sw,-71.1222991943359,-82.5431213378906,-112.865486145019,25.5593376159667,140145698
sw,-69.3927993774414,-81.8631820678711,-122.694717407226,52.3471527099609,140162365
sw,-67.209243774414,-80.8221969604492,-144.110397338867,75.9659423828125,140179032
sw,-65.2086105346679,-79.6995697021484,-129.50682067871,80.1880722045898,140195699
sw,-63.3335494995117,-78.6112365722656,-121.554595947265,76.6868133544921,140212366
sw,-61.6406326293945,-77.8106460571289,-110.282943725585,55.3345260620117,140229033
sw,-60.2013893127441,-77.2124862670898,-93.9293060302734,38.922077178955,140245700
sw,-58.9250946044921,-76.80419921875,-82.7645874023437,24.717321395874,140262367
sw,-57.6906051635742,-76.4994964599609,-79.1602554321289,17.4232711791992,140279034
sw,-56.6786079406738,-76.1674880981445,-65.2338104248046,18.9038925170898,140295701
sw,-56.0300865173339,-75.7305603027343,-43.1817283630371,25.4250164031982,140312368
sw,-55.863670349121,-75.1911239624023,-14.5064754486083,31.5737857818603,140329035
sw,-56.0169219970703,-74.613899230957,4.86919689178466,33.5478553771972,140345702
sw,-56.2528343200683,-74.0618057250976,9.64383029937744,31.6726913452148,140362369
sw,-56.935977935791,-73.4889831542968,36.2884063720703,32.7167625427246,140379036
sw,-58.8460884094238,-72.9278411865234,111.731735229492,31.9782466888427,140395703
sw,-60.8425750732421,-72.3788986206054,117.273200988769,31.2652149200439,140412370
sw,-63.0182418823242,-71.8049774169921,131.342620849609,32.8077659606933,140429037
sw,-64.6598052978515,-71.2096099853515,101.13655090332,34.1627311706543,140445704
sw,-65.9296112060546,-70.6983489990234,81.1666641235351,29.1563091278076,140462371
sw,-67.0315856933593,-70.3577117919921,72.7477264404296,18.8948001861572,140479038
sw,-67.667724609375,-70.1447448730468,43.587230682373,11.1549758911132,140495705
sw,-67.9187393188476,-70.1647109985351,17.0426578521728,-3.00203561782836,140512372
sw,-68.5131378173828,-70.448501586914,35.7214164733886,-19.0625972747802,140529039
sw,-69.9519500732421,-70.8995819091796,85.9708099365234,-29.122257232666,140545706
sw,-71.485855102539,-71.4716644287109,94.7368698120117,-36.2237358093261,140562373
sw,-72.3123779296875,-72.0182418823242,53.6722869873046,-34.5027389526367,140579040
sw,-72.9157409667968,-72.4678955078125,43.0885391235351,-28.6037292480468,140595707
sw,-73.8235473632812,-72.9245223999023,57.0014343261718,-28.9947071075439,140612374
sw,-74.8979721069336,-73.8804931640625,59.1638488769531,-58.6706275939941,140629041
sw,-76.1561508178711,-75.7295150756836,76.1559677124023,-111.99095916748,140645708
sw,-77.6534957885742,-78.7112197875976,97.8837203979492,-179.926040649414,140662375
sw,-78.972053527832,-82.4180679321289,92.0118103027343,-224.684967041015,140679042
sw,-79.922119140625,-85.9410781860351,66.5211944580078,-226.947875976562,140695709
sw,-80.6364059448242,-87.2746658325195,47.6881675720214,-209.824905395507,140712376
sw,-81.0400009155273,-84.9665069580078,31.3614635467529,-187.390060424804,140729043
sw,-81.2942352294921,-82.5325317382812,30.1108932495117,-150.757141113281,140745710
sw,-81.6251144409179,-80.5797805786132,42.0942687988281,-133.520690917968,140762377
sw,-82.011245727539,-78.3803939819336,46.1093940734863,-153.531311035156,140779044
sw,-82.4582214355468,-75.8386459350586,44.130859375,-169.332794189453,140795711
sw,-82.9267044067382,-73.3209991455078,40.0866966247558,-161.220764160156,140812378
sw,-83.4083175659179,-70.9348526000976,40.3003311157226,-145.974411010742,140829045
sw,-83.8406295776367,-68.8343658447265,42.5458526611328,-121.286293029785,140845712
sw,-84.0847396850586,-67.1181488037109,42.9232788085937,-95.1001052856445,140862379
sw,-84.0853424072265,-65.7919540405273,35.9676437377929,-68.6533203125,140879046
sw,-83.9342498779296,-64.8623352050781,24.1410408020019,-46.2018661499023,140895713
sw,-83.773323059082,-64.1964950561523,15.3315839767456,-36.6149139404296,140912380
sw,-83.7192153930664,-63.9776916503906,10.5555782318115,-16.2014789581298,140929047
sw,-83.7571029663086,-64.1028060913086,14.3501214981079,-4.87371635437011,140945714
sw,-83.8299713134765,-64.4337081909179,18.6203098297119,0.383071720600128,140962381
sw,-83.8628158569336,-65.3706970214843,19.0315189361572,37.8231544494628,140979048
sw,-83.827278137207,-67.1314620971679,14.9287595748901,87.1932907104492,140995715
sw,-83.7344665527343,-69.3543930053711,9.66646385192871,111.935585021972,141012382
sw,-83.6550750732421,-71.9356384277343,6.54269456863403,133.358917236328,141029049
sw,-83.6505355834961,-74.2520217895507,4.34871053695678,117.281326293945,141045716
sw,-83.7069244384765,-76.5791397094726,3.61330580711364,131.961166381835,141062383
sw,-83.7461547851562,-77.9834365844726,10.225396156311,95.9413909912109,141079050
sw,-83.7553405761718,-78.7725677490234,11.5229053497314,66.5918960571289,141095717
sw,-83.8023605346679,-79.1544723510742,2.19644212722778,24.6708908081054,141112384
sw,-83.8914413452148,-78.9804916381836,-9.46847915649414,-21.5359001159667,141129051
sw,-84.0121459960937,-78.7559585571289,-13.7303676605224,-18.6901226043701,141145718
sw,-84.0549926757812,-78.7817230224609,-2.15561628341674,-9.16510868072509,141162385
sw,-83.9518814086914,-79.8754272460937,4.37731027603149,48.2340202331543,141179052
sw,-83.8385925292968,-81.6751556396484,-0.890939474105835,98.2453918457031,141195719
sw,-83.8396072387695,-82.8341751098632,-18.0509510040283,73.3797988891601,141212386
sw,-83.9168548583984,-83.357551574707,-51.4764404296875,53.6982116699218,141229053
sw,-83.7802581787109,-83.9857864379882,-90.7488021850586,75.2010040283203,141245720
sw,-83.0472030639648,-84.6127548217773,-135.670776367187,87.9956741333007,141262387
sw,-81.3876953125,-85.1788330078125,-164.49624633789,106.934921264648,141279054
sw,-78.9143981933593,-85.0308380126953,-174.470169067382,133.64517211914,141295721
sw,-75.5625457763671,-84.2486801147461,-193.004898071289,111.040794372558,141312388
sw,-71.9944534301757,-83.7071075439453,-207.193710327148,57.1844863891601,141329055
sw,-70.3203506469726,-83.3927459716796,-128.37417602539,28.9586372375488,141345722
sw,-68.736831665039,-82.7644882202148,-125.493415832519,44.242805480957,141362389
sw,-66.8462677001953,-81.7649307250976,-134.405044555664,67.3697204589843,141379056
sw,-65.1372528076171,-80.5585021972656,-117.166557312011,81.7670211791992,141395723
sw,-63.6684951782226,-79.2772369384765,-100.571319580078,85.1871795654296,141412390
sw,-62.3368492126464,-78.3471374511718,-91.2017745971679,61.3526000976562,141429057
sw,-61.1935386657714,-77.7470550537109,-77.8500671386718,37.9136428833007,141445724
sw,-60.1864852905273,-77.3574523925781,-67.585464477539,22.5416030883789,141462391
sw,-59.154296875,-77.1205978393554,-67.718521118164,12.5346097946167,141479058
sw,-58.2095108032226,-76.8522415161132,-61.5951309204101,14.2191591262817,141495725
sw,-57.6058311462402,-76.513931274414,-40.2516441345214,18.076093673706,141512392
sw,-57.4271049499511,-76.0951538085937,-14.5735645294189,22.4166870117187,141529059
sw,-57.6733741760253,-75.6164245605468,10.5279264450073,25.68306350708,141545726
sw,-58.0308227539062,-75.171646118164,16.2497463226318,23.6445846557617,141562393
sw,-58.5293045043945,-74.8420791625976,24.2032375335693,17.0208168029785,141579060
sw,-59.4907646179199,-74.5332336425781,53.1204299926757,16.2158050537109,141595727
sw,-61.0200996398925,-74.1279754638671,88.8309173583984,22.2676067352294,141612394
sw,-62.2561378479003,-73.6071166992187,70.4674911499023,29.131887435913,141629061
sw,-63.4606971740722,-73.0182189941406,73.1323013305664,33.0851593017578,141645728
sw,-64.0966796875,-72.3723754882812,37.3059768676757,36.5005226135253,141662395
sw,-64.6468887329101,-71.7317504882812,30.7488842010498,36.015884399414,141679062
sw,-65.4124069213867,-71.1333618164062,44.1355781555175,33.2905464172363,141695729
sw,-66.0703430175781,-70.7658615112304,37.4589729309082,19.3992652893066,141712396
sw,-66.3676681518554,-70.6648406982421,14.2533111572265,3.41363763809204,141729063
sw,-66.7144470214843,-70.7343978881836,16.7032165527343,-6.84211587905883,141745730
sw,-67.2799835205078,-70.9110870361328,29.9064693450927,-13.4164094924926,141762397
sw,-68.3580627441406,-71.1068725585937,61.0181121826171,-14.7772388458251,141779064
sw,-70.0982894897461,-71.2462692260742,103.99478149414,-11.052713394165,141795731
sw,-71.7060012817382,-71.3132400512695,100.206672668457,-5.95828628540039,141812398
sw,-72.6188812255859,-71.3025588989257,62.1530838012695,-0.619252264499664,141829065
sw,-73.3555526733398,-71.3692321777343,54.345043182373,-4.85834884643554,141845732
sw,-74.3914642333984,-71.7475280761718,63.7528038024902,-23.3388576507568,141862399
sw,-75.5883636474609,-72.8422393798828,67.5282440185546,-66.1268844604492,141879066
sw,-76.9662704467773,-74.8648452758789,80.1428527832031,-122.105834960937,141895733
sw,-78.5930862426757,-77.7915115356445,98.9719696044921,-177.226837158203,141912400
sw,-80.0659790039062,-81.1968765258789,92.2888107299804,-208.800094604492,141929067
sw,-81.1274337768554,-84.4540863037109,70.4158782958984,-213.231613159179,141945734
sw,-81.8370208740234,-86.232666015625,56.3108139038085,-192.139282226562,141962401
sw,-82.2629013061523,-85.5026397705078,49.7550468444824,-162.711837768554,141979068
sw,-82.6211624145507,-84.2288513183593,56.7846603393554,-143.438323974609,141995735
sw,-82.9765548706054,-82.6207046508789,59.0219345092773,-157.312393188476,142012402
sw,-83.3182220458984,-79.9723815917968,46.1085090637207,-195.756637573242,142029069
sw,-83.709602355957,-76.7407836914062,29.1273155212402,-213.160446166992,142045736
sw,-84.1549758911132,-73.6285552978515,20.8906269073486,-197.926376342773,142062403
sw,-84.5752716064453,-70.7880172729492,24.6253242492675,-174.26318359375,142079070
sw,-84.7945938110351,-68.5322570800781,27.5327224731445,-131.375869750976,142095737
sw,-84.7457733154296,-66.9408569335937,28.3090076446533,-86.6562957763671,142112404
sw,-84.5279006958007,-65.8586196899414,29.2133541107177,-51.7558212280273,142129071
sw,-84.2971801757812,-64.9576797485351,27.842824935913,-40.6285514831543,142145738
sw,-84.1389007568359,-64.3232650756836,25.9603900909423,-25.9753074645996,142162405
sw,-84.0392532348632,-64.0552749633789,27.0349388122558,-8.75822067260742,142179072
sw,-83.9353790283203,-64.3012542724609,31.0624446868896,14.5803089141845,142195739
sw,-83.7716903686523,-64.8884506225586,28.5374126434326,26.4739055633544,142212406
sw,-83.5650787353515,-66.1941604614257,19.9127254486084,65.4453506469726,142229073
sw,-83.3751602172851,-68.3456649780273,11.4994268417358,107.789405822753,142245740
sw,-83.2771377563476,-71.309341430664,7.5571265220642,157.580596923828,142262407
sw,-83.2949600219726,-74.1529159545898,7.95941829681396,142.2724609375,142279074
sw,-83.3141098022461,-77.3272476196289,15.2733087539672,180.498580932617,142295741
sw,-83.2074813842773,-78.9828796386718,27.5125617980957,116.906608581542,142312408
sw,-83.007095336914,-79.3422775268554,28.0008964538574,49.8923416137695,142329075
sw,-82.8736267089843,-79.0841293334961,11.0638713836669,-29.2620067596435,142345742
sw,-82.867691040039,-78.5205001831054,-10.8653116226196,-41.5949363708496,142362409
sw,-83.0627365112304,-78.2915420532226,-29.9783115386962,-4.01966142654418,142379076
sw,-83.2178268432617,-79.3644790649414,-16.3312759399414,63.309715270996,142395743
sw,-83.331672668457,-81.3613204956054,-10.4918060302734,112.65005493164,142412410
sw,-83.6068954467773,-82.7009353637695,-37.8209419250488,94.2929916381836,142429077
sw,-83.8692092895507,-83.52734375,-86.3699188232421,101.691719055175,142445744
sw,-83.5906600952148,-84.1197052001953,-133.336196899414,114.847579956054,142462411
sw,-82.2869873046875,-84.0622482299804,-163.584609985351,126.618515014648,142479078
sw,-80.0722732543945,-83.4471054077148,-175.033508300781,130.561294555664,142495745
sw,-77.2073898315429,-82.5698013305664,-172.19075012207,98.0064544677734,142512412
sw,-74.1409912109375,-82.0954284667968,-190.445510864257,32.4956626892089,142529079
sw,-72.6870040893554,-81.9612426757812,-117.452163696289,1.14693510532379,142545746
sw,-71.5370483398437,-82.0343017578125,-94.4672164916992,1.06530344486236,142562413
sw,-70.0141220092773,-81.9418258666992,-109.583084106445,27.1507377624511,142579080
sw,-68.3411026000976,-81.3825378417968,-112.353546142578,61.07954788208,142595747
sw,-66.8301391601562,-80.5580215454101,-99.9171371459961,71.2504425048828,142612414
sw,-65.330451965332,-79.5063400268554,-98.4015274047851,75.1653594970703,142629081
sw,-64.0173797607421,-78.5418319702148,-86.1830825805664,62.3294868469238,142645748
sw,-62.9175872802734,-77.7365493774414,-71.9799118041992,48.8133316040039,142662415
sw,-61.9062347412109,-77.287124633789,-65.4840469360351,26.0906944274902,142679082
sw,-60.906566619873,-77.2232818603515,-64.4890823364257,2.48783302307128,142695749
sw,-60.0356712341308,-77.2386093139648,-56.7953987121582,-2.29681968688964,142712416
sw,-59.3779716491699,-77.0894088745117,-44.641746520996,7.61435031890869,142729083
sw,-59.2536659240722,-76.7709732055664,-14.0144491195678,17.5525360107421,142745750
sw,-59.5210609436035,-76.3656921386718,8.56941127777099,22.3714981079101,142762417
sw,-59.8251304626464,-75.8547058105468,10.0051927566528,28.5315151214599,142779084
sw,-60.4097938537597,-75.2920684814453,27.5887851715087,31.8027782440185,142795751
sw,-61.478832244873,-74.7930450439453,58.6740226745605,28.1879806518554,142812418
sw,-62.6695327758789,-74.375732421875,66.9270401000976,23.3065032958984,142829085
sw,-63.8952674865722,-73.9279861450195,69.5058441162109,25.0785083770751,142845752
sw,-65.0160446166992,-73.3608779907226,65.5505905151367,32.1888389587402,142862419
sw,-65.5451889038086,-72.7425231933593,29.2375907897949,35.2536849975585,142879086
sw,-65.7773895263671,-72.1090621948242,11.0576753616333,36.1012268066406,142895753
sw,-66.4860076904296,-71.4817962646484,40.0783424377441,35.7179298400878,142912420
sw,-67.1430969238281,-71.0356826782226,36.6289291381835,24.8766365051269,142929087
sw,-67.525894165039,-70.9018173217773,18.4649944305419,6.19568920135498,142945754
sw,-68.0071411132812,-70.96728515625,24.2338676452636,-5.78526878356933,142962421
sw,-68.8880386352539,-71.0419769287109,49.0797653198242,-6.4402961730957,142979088
sw,-70.5328903198242,-71.1524276733398,97.0152969360351,-8.62094211578369,142995755
sw,-72.10986328125,-71.3027191162109,96.2543792724609,-10.8303632736206,143012422
sw,-73.150894165039,-71.4274673461914,66.5497283935546,-9.08731651306152,143029089
sw,-74.0400390625,-71.5016479492187,60.7836723327636,-6.05011558532714,143045756
sw,-75.0229339599609,-71.699951171875,62.1767921447753,-13.5880260467529,143062423
sw,-76.1907501220703,-72.318618774414,67.6918182373046,-39.1086235046386,143079090
sw,-77.5954437255859,-73.6427307128906,81.5436782836914,-82.1494216918945,143095757
sw,-79.2024917602539,-75.7471008300781,97.6141052246093,-130.05662536621,143112424
sw,-80.6576385498046,-78.6826629638671,90.5167922973632,-181.835098266601,143129091
sw,-81.7918319702148,-81.8420181274414,70.8839569091796,-201.326919555664,143145758
sw,-82.6958618164062,-84.3359756469726,58.8013114929199,-183.666687011718,143162425
sw,-83.4363403320312,-85.3472671508789,55.0511016845703,-158.506546020507,143179092
sw,-84.0503387451171,-84.8263473510742,56.1442527770996,-139.927673339843,143195759
sw,-84.572998046875,-83.8085632324218,54.6434135437011,-132.614776611328,143212426
sw,-85.0538330078125,-82.3821792602539,47.6945190429687,-150.360076904296,143229093
sw,-85.4536056518554,-80.2357025146484,32.2701683044433,-177.00437927246,143245760
sw,-85.8267440795898,-77.6868896484375,20.5359802246093,-184.221923828125,143262427
sw,-86.1735229492187,-75.0044479370117,13.9065599441528,-181.255279541015,143279094
sw,-86.4612197875976,-72.4549255371093,15.8400869369506,-164.125946044921,143295761
sw,-86.6583633422851,-70.4108810424804,21.3018436431884,-127.989021301269,143312428
sw,-86.7232589721679,-68.9126358032226,22.0045700073242,-93.8384933471679,143329095
sw,-86.6712799072265,-67.7867660522461,24.6750125885009,-68.2170181274414,143345762
sw,-86.574234008789,-66.7098693847656,31.2919101715087,-63.1109085083007,143362429
sw,-86.4735870361328,-65.6649703979492,37.389892578125,-61.6620826721191,143379096
sw,-86.3240127563476,-65.0752182006836,36.9133224487304,-40.1810646057128,143395763
sw,-86.093147277832,-65.2199401855468,34.1453514099121,-2.93741559982299,143412430
sw,-85.7775192260742,-65.658088684082,31.6022720336914,7.66554117202758,143429097
sw,-85.4534301757812,-66.6115264892578,25.5303554534912,39.7803611755371,143445764
sw,-85.1591186523437,-68.2929077148437,18.4717845916748,88.6159210205078,143462431
sw,-84.8827438354492,-70.2419281005859,15.3642463684082,104.412506103515,143479098
sw,-84.6645812988281,-72.5677108764648,12.9494123458862,123.522743225097,143495765
sw,-84.5244979858398,-74.8146209716796,9.89789962768554,111.620376586914,143512432
sw,-84.4054260253906,-77.1301574707031,8.87470436096191,119.453521728515,143529099
sw,-84.2798156738281,-78.8180465698242,7.41341924667358,89.9649887084961,143545766
sw,-84.2595672607421,-79.826187133789,-1.63569128513336,59.6614036560058,143562433
sw,-84.4145050048828,-80.2239685058593,-11.3340473175048,11.5049400329589,143579100
sw,-84.7266845703125,-79.9340515136718,-18.2689113616943,-28.0719051361084,143595767
sw,-85.0173645019531,-79.5358200073242,-14.9853820800781,-29.9612236022949,143612434
sw,-85.1605834960937,-79.8194122314453,-9.03255939483642,7.07143259048461,143629101
sw,-85.2355651855468,-81.2892303466796,-12.1572179794311,74.4970932006836,143645768
sw,-85.3375549316406,-83.340087890625,-21.6552906036376,116.887420654296,143662435
sw,-85.6374053955078,-84.6846694946289,-50.277286529541,87.8653106689453,143679102
sw,-85.8517379760742,-85.4975509643554,-96.367073059082,77.0281295776367,143695769
sw,-85.0807571411132,-86.2462081909179,-141.685882568359,88.2779846191406,143712436
sw,-83.0639877319336,-86.7044982910156,-173.328292846679,102.936477661132,143729103
sw,-80.3229370117187,-86.4443817138671,-181.739395141601,111.790077209472,143745770
sw,-76.7804946899414,-85.527099609375,-197.902160644531,100.362236022949,143762437
sw,-73.1199722290039,-84.5518417358398,-203.079391479492,74.8910675048828,143779104
sw,-71.7611236572265,-84.0143127441406,-100.732292175292,35.0456275939941,143795771
sw,-70.16015625,-83.5993957519531,-120.419227600097,25.5599861145019,143812438
sw,-68.216438293457,-82.8448410034179,-135.098800659179,46.9717025756835,143829105
sw,-66.2541198730468,-81.7163925170898,-129.171249389648,71.7795944213867,143845772
sw,-64.4566421508789,-80.5077743530273,-117.331329345703,76.885757446289,143862439
sw,-62.7523231506347,-79.346321105957,-111.990943908691,72.7783432006836,143879106
sw,-61.2066574096679,-78.530044555664,-101.393981933593,49.2255210876464,143895773
sw,-59.924331665039,-77.9006423950195,-83.9233856201171,35.1313247680664,143912440
sw,-58.790916442871,-77.3793640136718,-74.1448898315429,28.1851234436035,143929107
sw,-57.7184715270996,-77.0307388305664,-70.6391067504882,18.3162803649902,143945774
sw,-57.0964965820312,-76.6653060913086,-42.8914833068847,19.1747684478759,143962441
sw,-56.9265480041503,-76.1815948486328,-14.951636314392,25.940071105957,143979108
sw,-56.9590797424316,-75.5571823120117,-3.07059645652771,34.1244659423828,143995775
sw,-57.2019691467285,-74.8572616577148,8.75236320495605,38.6573486328125,144012442
sw,-57.4997024536132,-74.1699142456054,11.0330400466918,38.3392372131347,144029109
sw,-58.5863189697265,-73.5560226440429,58.6887626647949,34.6606140136718,144045776
sw,-60.6632194519043,-72.9744491577148,122.68334197998,33.1960372924804,144062443
sw,-61.9824295043945,-72.3228912353515,76.9117736816406,37.5873336791992,144079110
sw,-63.7090835571289,-71.6785659790039,106.638565063476,37.0974235534668,144095777
sw,-65.0384445190429,-71.1579055786132,82.2319259643554,29.4447917938232,144112444
sw,-65.7821578979492,-70.6979904174804,45.8642692565918,25.6441307067871,144129111
sw,-66.8854827880859,-70.231575012207,65.6005401611328,25.8445014953613,144145778
sw,-67.8188781738281,-69.855972290039,55.862491607666,20.091230392456,144162445
sw,-68.3517303466796,-69.7934341430664,30.2714900970459,1.06739330291748,144179112
sw,-69.0633850097656,-70.0913772583007,40.9683837890625,-20.7136440277099,144195779
sw,-70.4274139404296,-70.5889434814453,81.4607391357421,-32.8895759582519,144212446
sw,-72.2994918823242,-71.1813278198242,115.140022277832,-38.7190818786621,144229113
sw,-73.5459518432617,-71.6841278076171,78.6549987792968,-32.9048385620117,144245780
sw,-74.1388473510742,-72.1033935546875,40.4580726623535,-27.3267517089843,144262447
sw,-74.8732147216796,-72.4456481933593,46.3900337219238,-22.1380100250244,144279114
sw,-75.8509902954101,-73.0167160034179,54.0864753723144,-34.9188499450683,144295781
sw,-76.8403015136718,-74.3741149902343,56.9735450744628,-80.7905654907226,144312448
sw,-78.1227340698242,-76.8512115478515,79.9317016601562,-147.764526367187,144329115
sw,-79.579605102539,-80.3158645629882,94.200080871582,-207.339874267578,144345782
sw,-80.7538452148437,-84.0842056274414,77.3031463623046,-228.539764404296,144362449
sw,-81.5988235473632,-87.0728378295898,55.4649658203125,-211.286422729492,144379116
sw,-82.1625595092773,-86.6977920532226,42.9318885803222,-186.049530029296,144395783
sw,-82.5373077392578,-84.2687225341796,41.1894950866699,-157.528823852539,144412450
sw,-82.8542556762695,-82.2633590698242,47.223575592041,-141.359024047851,144429117
sw,-83.2169036865234,-80.1173858642578,46.6002311706543,-162.251434326171,144445784
sw,-83.6259994506836,-77.2333221435546,38.5066795349121,-198.661972045898,144462451
sw,-84.0850753784179,-74.1386413574218,29.0550861358642,-202.045623779296,144479118
sw,-84.5685577392578,-71.2452011108398,26.693223953247,-182.549758911132,144495785
sw,-85.0021362304687,-68.7188339233398,31.0226726531982,-152.377090454101,144512452
sw,-85.2234878540039,-66.6904907226562,35.037239074707,-118.972351074218,144529119
sw,-85.1673889160156,-65.3055953979492,32.8077774047851,-77.3109436035156,144545786
sw,-84.9784774780273,-64.5037765502929,23.8032531738281,-39.5031623840332,144562453
sw,-84.8216552734375,-63.9513206481933,20.652940750122,-21.6699638366699,144579120
sw,-84.7505874633789,-63.5149002075195,26.1288738250732,-16.5156383514404,144595787
sw,-84.7211074829101,-63.5391197204589,32.9124145507812,4.71543025970459,144612454
sw,-84.6499099731445,-63.9877548217773,31.4419250488281,17.6513423919677,144629121
sw,-84.4959106445312,-64.6104888916015,25.1501770019531,19.2349414825439,144645788
sw,-84.2663269042968,-66.0825881958007,20.6840209960937,72.8551330566406,144662455
sw,-84.0413284301757,-68.0951232910156,15.1864290237426,104.141304016113,144679122
sw,-83.9348907470703,-70.7254333496093,4.48521518707275,140.022384643554,144695789
sw,-83.9688339233398,-73.2087478637695,-0.103129550814628,119.742057800292,144712456
sw,-84.0122756958007,-76.0050735473632,8.08435249328613,146.640518188476,144729123
sw,-83.9674606323242,-78.2139816284179,13.0371532440185,128.358215332031,144745790
sw,-83.8431167602539,-79.4148559570312,10.5044050216674,82.6481552124023,144762457
sw,-83.843521118164,-80.0909118652343,-4.12307500839233,43.2009658813476,144779124
sw,-84.0370178222656,-80.0054244995117,-20.8930263519287,-18.2225532531738,144795791
sw,-84.325698852539,-79.7452011108398,-24.3099727630615,-19.6294975280761,144812458
sw,-84.53955078125,-80.0045013427734,-12.8458166122436,7.5757188796997,144829125
sw,-84.6097335815429,-81.4744262695312,-6.09395170211792,76.5695877075195,144845792
sw,-84.680061340332,-83.3780670166015,-19.161184310913,110.945770263671,144862459
sw,-84.8666076660156,-84.3750686645507,-46.6032981872558,68.3993225097656,144879126
sw,-84.8791046142578,-85.0331573486328,-90.2949142456054,66.8937911987304,144895793
sw,-84.1192398071289,-85.7005386352539,-132.348754882812,87.600715637207,144912460
sw,-82.3111190795898,-86.1031799316406,-165.152404785156,100.028976440429,144929127
sw,-79.5716400146484,-85.9542160034179,-183.228897094726,107.584449768066,144945794
sw,-76.020278930664,-85.041763305664,-200.891983032226,109.722381591796,144962461
sw,-72.5205078125,-84.1301116943359,-194.892135620117,76.1218643188476,144979128
sw,-70.9883270263671,-83.6751327514648,-118.006340026855,34.2241020202636,144995795
sw,-69.4878387451171,-83.3782424926757,-117.399055480957,22.5442695617675,145012462
sw,-67.7201690673828,-82.6023559570312,-124.067344665527,51.8034858703613,145029129
sw,-66.010627746582,-81.4202041625976,-113.130889892578,76.5508422851562,145045796
sw,-64.4403076171875,-80.1369400024414,-103.354331970214,82.5015716552734,145062463
sw,-62.9010162353515,-78.9573211669921,-101.992645263671,74.6017227172851,145079130
sw,-61.5608367919921,-78.1921463012695,-89.1033325195312,46.3447151184082,145095797
sw,-60.490493774414,-77.6694564819336,-70.5378189086914,29.1668281555175,145112464
sw,-59.4846153259277,-77.2643585205078,-65.1663742065429,21.6552181243896,145129131
sw,-58.4821548461914,-76.9781188964843,-64.8729782104492,14.7607507705688,145145798
sw,-57.8049926757812,-76.6399459838867,-44.9886131286621,17.7583217620849,145162465
sw,-57.6019020080566,-76.2148513793945,-16.111717224121,22.6395282745361,145179132
sw,-57.6884765625,-75.6734390258789,0.570514798164367,29.4334716796875,145195799
sw,-57.9350929260253,-75.1274108886718,8.66231727600097,29.8353080749511,145212466
sw,-58.4535865783691,-74.6933364868164,24.0261154174804,23.4650764465332,145229133
sw,-59.2916221618652,-74.2898406982421,43.9319076538085,22.1228981018066,145245800
sw,-60.607566833496,-73.8280258178711,75.3594360351562,25.9895610809326,145262467
sw,-62.1764488220214,-73.3564682006836,91.3030776977539,26.5554466247558,145279134
sw,-64.3619232177734,-72.880989074707,131.80857849121,26.616355895996,145295801
sw,-65.7023620605468,-72.367561340332,79.9630508422851,28.5816268920898,145312468
sw,-66.3702392578125,-71.8714065551757,37.7705993652343,27.2552146911621,145329135
sw,-67.2411804199218,-71.4991455078125,49.612922668457,19.7425651550292,145345802
sw,-68.1176223754882,-71.2236785888671,51.0632820129394,14.1865053176879,145362469
sw,-68.5387573242187,-71.1776123046875,23.3774814605712,0.637251555919647,145379136
sw,-68.9998092651367,-71.3566207885742,26.1583423614501,-12.8179178237915,145395803
sw,-69.8398971557617,-71.6410369873046,49.3918762207031,-19.3471488952636,145412470
sw,-71.501235961914,-71.9467620849609,99.2071380615234,-20.8816146850585,145429137
sw,-73.0813598632812,-72.188735961914,95.201789855957,-16.7161121368408,145445804
sw,-74.0415573120117,-72.375991821289,59.3111038208007,-12.7950887680053,145462471
sw,-74.8878784179687,-72.6531600952148,55.2859458923339,-18.0134601593017,145479138
sw,-75.8848266601562,-73.3416519165039,60.124771118164,-42.5621528625488,145495805
sw,-76.889289855957,-74.7975769042968,59.5412445068359,-87.7178039550781,145512472
sw,-78.1073226928711,-77.1688842773437,73.1942672729492,-142.061645507812,145529139
sw,-79.4508743286132,-80.4073638916015,83.4248428344726,-194.104782104492,145545806
sw,-80.610855102539,-84.0557785034179,72.6265029907226,-221.930786132812,145562473
sw,-81.5567855834961,-87.0275115966796,57.9634780883789,-213.951110839843,145579140
sw,-82.2905502319336,-86.568977355957,47.8035583496093,-182.359573364257,145595807
sw,-82.774658203125,-84.2820053100586,41.8645820617675,-148.235076904296,145612474
sw,-83.2647171020507,-82.4303970336914,51.5525779724121,-132.320266723632,145629141
sw,-83.7419204711914,-80.4990005493164,52.5534515380859,-147.474716186523,145645808
sw,-84.1656112670898,-77.9107818603515,41.3302993774414,-183.96484375,145662475
sw,-84.5181655883789,-74.991714477539,22.0196914672851,-193.552093505859,145679142
sw,-84.9026870727539,-72.2006149291992,18.2506732940673,-179.106048583984,145695809
sw,-85.3228683471679,-69.6502227783203,23.4290370941162,-157.407135009765,145712476
sw,-85.6580123901367,-67.4838104248046,27.7691955566406,-130.068054199218,145729143
sw,-85.8148422241211,-65.9076309204101,29.6327896118164,-92.5720672607421,145745810
sw,-85.8255233764648,-64.9650573730468,31.4737339019775,-52.4531936645507,145762477
sw,-85.7654342651367,-64.2797927856445,32.6773605346679,-36.359577178955,145779144
sw,-85.7113037109375,-63.6121215820312,34.7531471252441,-37.8960533142089,145795811
sw,-85.6637878417968,-63.3942222595214,36.968994140625,-15.8918390274047,145812478
sw,-85.5342788696289,-63.6994094848632,38.8105125427246,8.62515068054199,145829145
sw,-85.279426574707,-64.2196731567382,36.9922561645507,14.0181770324707,145845812
sw,-84.9606781005859,-65.3921661376953,28.1219425201416,55.009105682373,145862479
sw,-84.6439361572265,-67.1370620727539,20.0881252288818,91.5628662109375,145879146
sw,-84.3520889282226,-69.4610595703125,19.6414184570312,127.128280639648,145895813
sw,-84.2087097167968,-71.9771575927734,16.265661239624,130.877136230468,145912480
sw,-84.2133178710937,-74.4557571411132,9.52650547027587,123.250572204589,145929147
sw,-84.2368698120117,-77.0297622680664,5.07681894302368,142.063827514648,145945814
sw,-84.2312240600586,-78.6761474609375,3.61342144012451,104.400024414062,145962481
sw,-84.3054275512695,-79.4746627807617,-3.35218691825866,55.0892181396484,145979148
sw,-84.540771484375,-79.4175643920898,-17.2877922058105,-15.0779914855957,145995815
sw,-84.9073791503906,-79.0049591064453,-26.811222076416,-31.5760326385498,146012482
sw,-85.2837448120117,-78.8258361816406,-20.1223812103271,-12.9062538146972,146029149
sw,-85.47216796875,-79.6395568847656,-2.36212372779846,40.7542457580566,146045816
sw,-85.5782775878906,-81.4707336425781,-5.95185184478759,99.3589706420898,146062483
sw,-85.8820648193359,-82.7893905639648,-32.6771926879882,80.8244400024414,146079150
sw,-86.2497024536132,-83.3525924682617,-75.597915649414,59.3665580749511,146095817
sw,-85.9507827758789,-84.0551223754882,-127.976684570312,85.5272064208984,146112484
sw,-84.1561508178711,-84.7892532348632,-177.465667724609,93.9285202026367,146129151
sw,-81.2249755859375,-85.3058090209961,-202.706710815429,113.449172973632,146145818
sw,-77.7910003662109,-85.0335159301757,-200.081726074218,127.494140625,146162485
sw,-73.2015838623046,-84.2458572387695,-243.374481201171,104.458930969238,146179152
sw,-70.6930313110351,-83.6366577148437,-154.067565917968,57.9160766601562,146195819
sw,-68.9360809326171,-83.3982391357421,-125.944755554199,18.9575080871582,146212486
sw,-66.9223861694336,-82.9401702880859,-135.402252197265,32.3083343505859,146229153
sw,-64.8004074096679,-82.0739974975586,-134.643951416015,60.3815727233886,146245820
sw,-62.9338493347168,-81.0588150024414,-116.489379882812,72.6157684326171,146262487
sw,-61.1964111328125,-79.9381942749023,-108.979255676269,80.6164321899414,146279154
sw,-59.6236038208007,-79.0681610107421,-99.1835021972656,62.1012344360351,146295821
sw,-58.4019775390625,-78.5034942626953,-77.3532943725586,38.2783050537109,146312488
sw,-57.4518508911132,-78.0347366333007,-60.5073204040527,28.1472244262695,146329155
sw,-56.601879119873,-77.653076171875,-54.373363494873,21.4905776977539,146345822
sw,-56.0326385498046,-77.2809143066406,-37.6057395935058,20.7430076599121,146362489
sw,-55.9817810058593,-76.8155441284179,-6.13974428176879,26.477725982666,146379156
sw,-56.4169692993164,-76.2620849609375,23.5922908782959,31.7934551239013,146395823
sw,-57.3004188537597,-75.5938415527343,50.9524497985839,38.5426177978515,146412490
sw,-58.2714385986328,-74.8587799072265,55.7965087890625,42.4000625610351,146429157
sw,-59.7032051086425,-74.1306533813476,82.336181640625,41.9571075439453,146445824
sw,-62.5499382019043,-73.3939895629882,173.260452270507,42.4771842956543,146462491
sw,-65.028823852539,-72.6469650268554,151.818069458007,43.058422088623,146479158
sw,-67.1287307739257,-71.9344863891601,131.181335449218,40.9839668273925,146495825
sw,-68.1963806152343,-71.3438110351562,67.2425079345703,33.734748840332,146512492
sw,-68.8582153320312,-70.8589782714843,42.7981452941894,27.4542388916015,146529159
sw,-69.3581314086914,-70.3799209594726,31.9921283721923,27.153263092041,146545826
sw,-69.2504653930664,-70.0927505493164,-4.92953777313232,15.6058368682861,146562493
sw,-69.4198608398437,-70.1843795776367,11.1985464096069,-7.24646091461181,146579160
sw,-70.4784240722656,-70.6451263427734,65.1915817260742,-29.5263786315917,146595827
sw,-72.306770324707,-71.3636169433593,111.272064208984,-45.2468032836914,146612494
sw,-73.8173141479492,-72.165054321289,92.5639419555664,-50.7862358093261,146629161
sw,-74.6574554443359,-72.950439453125,53.5290145874023,-50.3484077453613,146645828
sw,-75.4856719970703,-73.6983871459961,50.4546165466308,-47.6453247070312,146662495
sw,-76.5269012451171,-74.4756164550781,58.2501983642578,-48.4565658569335,146679162
sw,-77.5831298828125,-75.6706924438476,63.4434776306152,-71.9912109375,146695829
sw,-78.8809509277343,-77.6683120727539,85.6874694824218,-119.192741394042,146712496
sw,-80.1540603637695,-80.7787628173828,88.1311416625976,-185.873291015625,146729163
sw,-81.1041107177734,-84.2236251831054,65.8825378417968,-206.400009155273,146745830
sw,-81.8830337524414,-87.2516326904296,52.0707626342773,-193.385040283203,146762497
sw,-82.482421875,-87.5762634277343,44.5039100646972,-177.916213989257,146779164
sw,-82.9264373779296,-84.9112319946289,40.5639572143554,-165.230361938476,146795831
sw,-83.2372894287109,-82.3756332397461,39.7575073242187,-154.563293457031,146812498
sw,-83.6047821044921,-80.1248703002929,47.2338676452636,-156.719177246093,146829165
sw,-83.9751434326171,-77.508918762207,44.0846557617187,-180.732666015625,146845832
sw,-84.3736724853515,-74.6859741210937,40.3123893737793,-186.808685302734,146862499
sw,-84.7275695800781,-72.084243774414,36.5611457824707,-165.392807006835,146879166
sw,-85.0113983154296,-69.7714767456054,37.6143112182617,-138.916259765625,146895833
sw,-85.0853805541992,-67.7372436523437,37.7891540527343,-118.90347290039,146912500
sw,-84.9199447631836,-66.0832366943359,32.0484504699707,-93.8942260742187,146929167
sw,-84.6780776977539,-64.9856491088867,21.3484382629394,-60.9236335754394,146945834
sw,-84.5527038574218,-64.2493667602539,8.55869102478027,-41.5192718505859,146962501
sw,-84.5808029174804,-63.737678527832,3.40406608581542,-31.0799255371093,146979168
sw,-84.6738739013671,-63.6010971069335,11.6045417785644,-12.8784465789794,146995835
sw,-84.7076873779296,-63.8912162780761,24.392032623291,10.8980798721313,147012502
sw,-84.6069030761718,-64.6624374389648,28.5713863372802,38.2043533325195,147029169
sw,-84.4142990112304,-66.2895812988281,22.3357009887695,86.738540649414,147045836
sw,-84.1941757202148,-68.6172256469726,13.5834417343139,121.815971374511,147062503
sw,-84.0155563354492,-71.3945388793945,11.3315773010253,150.771011352539,147079170
sw,-83.9298858642578,-74.0685501098632,12.1041612625122,135.475540161132,147095837
sw,-83.8993453979492,-77.0958404541015,12.8521280288696,166.021560668945,147112504
sw,-83.7640762329101,-79.1155242919921,21.6820240020751,131.554656982421,147129171
sw,-83.6235809326171,-80.0026931762695,14.5080833435058,81.2229385375976,147145838
sw,-83.5493469238281,-80.4677200317382,0.322011858224868,35.0435104370117,147162505
sw,-83.5783767700195,-80.4200820922851,-11.2497177124023,-12.197732925415,147179172
sw,-83.7497863769531,-80.4534454345703,-15.7149543762207,7.41292381286621,147195839
sw,-83.9338226318359,-81.1565170288086,-11.90074634552,54.4879035949707,147212506
sw,-84.041748046875,-82.533447265625,-9.10963916778564,90.571044921875,147229173
sw,-84.3588562011718,-83.5052032470703,-33.9048652648925,69.5842819213867,147245840
sw,-84.8639373779296,-84.1910705566406,-81.7807846069336,76.3112106323242,147262507
sw,-84.873908996582,-84.610610961914,-122.968612670898,95.5860290527343,147279174
sw,-83.7906341552734,-84.5658874511718,-160.918716430664,112.918113708496,147295841
sw,-81.5571517944336,-83.9156951904296,-182.123321533203,120.434020996093,147312508
sw,-78.7604293823242,-82.7833023071289,-172.091201782226,112.078208923339,147329175
sw,-75.1349334716796,-81.9883499145507,-195.850158691406,62.4643630981445,147345842
sw,-72.3093185424804,-81.5864181518554,-178.447402954101,27.4068660736084,147362509
sw,-70.8107528686523,-81.4052505493164,-115.23053741455,17.8642482757568,147379176
sw,-69.026985168457,-80.9312210083007,-125.911094665527,41.4988746643066,147395843
sw,-66.9656372070312,-80.0282363891601,-135.537536621093,70.0523071289062,147412510
sw,-65.1351165771484,-78.9025573730468,-118.449226379394,80.8539962768554,147429177
sw,-63.608657836914,-77.8608932495117,-99.6437835693359,72.4622802734375,147445844
sw,-62.0823554992675,-77.1541595458984,-98.7853317260742,48.2944679260253,147462511
sw,-60.5599975585937,-76.6188354492187,-97.6244506835937,34.2487640380859,147479178
sw,-59.0783653259277,-76.1946945190429,-94.1606979370117,25.6175842285156,147495845
sw,-57.6277351379394,-75.9187850952148,-91.8433990478515,15.943000793457,147512512
sw,-56.3479347229003,-75.630630493164,-82.4422454833984,16.393325805664,147529179
sw,-55.672435760498,-75.2503662109375,-47.3395729064941,21.6808204650878,147545846
sw,-55.7553977966308,-74.767837524414,-2.24301528930664,27.4808864593505,147562513
sw,-55.8291435241699,-74.2591857910156,-3.54071974754333,28.7592048645019,147579180
sw,-55.9484634399414,-73.7655258178711,-0.433771163225173,27.6939640045166,147595847
sw,-56.5534477233886,-73.2646713256836,30.9668521881103,28.155569076538,147612514
sw,-58.0576553344726,-72.8079528808593,85.6170196533203,25.5390281677246,147629181
sw,-59.4859771728515,-72.36328125,82.5345458984375,24.8031578063964,147645848
sw,-61.086555480957,-71.888427734375,94.9870223999023,26.5822639465332,147662515
sw,-62.8351745605468,-71.3739242553711,106.993438720703,28.9146099090576,147679182
sw,-64.3128585815429,-70.8710327148437,93.0395431518554,28.1723594665527,147695849
sw,-65.4661178588867,-70.4140319824218,73.3216094970703,25.4075336456298,147712516
sw,-66.8858337402343,-70.0262222290039,87.9727249145507,21.3197650909423,147729183
sw,-68.0021286010742,-69.7657318115234,67.7999114990234,13.7007942199707,147745850
sw,-68.6964797973632,-69.664810180664,40.7529067993164,4.00828266143798,147762517
sw,-69.4494171142578,-69.6779251098632,44.1082077026367,-3.05904674530029,147779184
sw,-70.7644729614257,-69.7544937133789,78.1366348266601,-6.9979658126831,147795851
sw,-72.6176223754882,-69.8785324096679,113.016799926757,-9.62674140930175,147812518
sw,-73.9449157714843,-70.0244979858398,83.056396484375,-10.3678750991821,147829185
sw,-74.6788330078125,-70.1553268432617,48.9788169860839,-9.20495128631591,147845852
sw,-75.3859252929687,-70.336929321289,45.939167022705,-12.1543588638305,147862519
sw,-76.3363952636718,-70.826431274414,51.9541130065918,-30.3995532989501,147879186
sw,-77.3843994140625,-71.9180374145507,58.4940567016601,-66.2532958984375,147895853
sw,-78.7346878051757,-73.889045715332,83.1334838867187,-118.972160339355,147912520
sw,-80.1394500732421,-76.9047775268554,92.2967529296875,-182.130447387695,147929187
sw,-81.3097076416015,-80.5706176757812,78.0629196166992,-222.800811767578,147945854
sw,-82.2246627807617,-83.9986114501953,61.5991325378418,-217.496932983398,147962521
sw,-82.822525024414,-86.1476593017578,48.3243827819824,-186.738388061523,147979188
sw,-83.1571350097656,-85.9553298950195,39.9954032897949,-157.11083984375,147995855
sw,-83.4630737304687,-84.7459945678711,45.9340896606445,-145.60838317871,148012522
sw,-83.7766036987304,-83.118293762207,48.3116722106933,-160.142623901367,148029189
sw,-84.1245040893554,-80.5637283325195,45.374755859375,-193.230636596679,148045856
sw,-84.5447235107421,-77.4591522216796,42.1149101257324,-207.650619506835,148062523
sw,-84.9439468383789,-74.4324417114257,36.4531517028808,-193.576187133789,148079190
sw,-85.2490692138671,-71.6289596557617,33.9543991088867,-171.229141235351,148095857
sw,-85.3058090209961,-69.3715209960937,37.1230506896972,-130.734466552734,148112524
sw,-85.089370727539,-67.7411422729492,38.2768669128418,-88.0337448120117,148129191
sw,-84.7953414916992,-66.5710220336914,32.3288421630859,-56.1443901062011,148145858
sw,-84.5422821044921,-65.5038833618164,26.8726158142089,-49.6677131652832,148162525
sw,-84.3528823852539,-64.5199966430664,27.0956058502197,-50.3650932312011,148179192
sw,-84.2051239013671,-64.0141830444336,28.0558261871337,-30.5499439239501,148195859
sw,-84.0992050170898,-64.0900802612304,22.620168685913,-4.714280128479,148212526
sw,-84.0023040771484,-64.4234619140625,14.5002546310424,3.07392644882202,148229193
sw,-83.8893585205078,-65.4880599975586,8.84066867828369,47.670482635498,148245860
sw,-83.8191223144531,-67.4536437988281,2.25875210762023,101.472190856933,148262527
sw,-83.8547439575195,-70.030029296875,-6.48741769790649,136.332397460937,148279194
sw,-83.9498748779296,-72.8073272705078,-5.64606571197509,141.549484252929,148295861
sw,-84.0119247436523,-75.6610870361328,6.6469931602478,147.413635253906,148312528
sw,-83.9866027832031,-78.4308929443359,12.5762672424316,155.399490356445,148329195
sw,-83.8328704833984,-79.8169403076171,14.7098388671875,95.6782989501953,148345862
sw,-83.6735229492187,-80.922622680664,11.1903533935546,86.3548889160156,148362529
sw,-83.6320037841796,-81.2932891845703,0.52052104473114,21.8981342315673,148379196
sw,-83.7862472534179,-81.6010437011718,-11.5841703414917,23.2517776489257,148395863
sw,-84.0910415649414,-82.3715667724609,-22.7935562133789,67.5542907714843,148412530
sw,-84.4244079589843,-83.6270217895507,-24.1571884155273,98.6821365356445,148429197
sw,-84.8619537353515,-84.601089477539,-36.5860061645507,62.5066337585449,148445864
sw,-85.5147628784179,-85.4729461669921,-80.5709381103515,71.6327743530273,148462531
sw,-85.6797180175781,-85.8620910644531,-121.933769226074,93.9223098754882,148479198
sw,-84.5289077758789,-85.6293334960937,-167.596984863281,90.3205337524414,148495865
sw,-81.9572143554687,-85.0774612426757,-192.541900634765,87.5291442871093,148512532
sw,-78.8108825683593,-84.1007385253906,-178.66226196289,90.9364166259765,148529199
sw,-74.8468780517578,-83.3189239501953,-200.28855895996,60.058494567871,148545866
sw,-72.3760833740234,-82.8376312255859,-144.290969848632,33.9703369140625,148562533
sw,-70.7878112792968,-82.5004653930664,-119.084182739257,25.8702697753906,148579200
sw,-68.8042678833007,-81.861587524414,-137.090118408203,45.3054275512695,148595867
sw,-66.6184768676757,-80.91455078125,-142.085083007812,62.909439086914,148612534
sw,-64.7478332519531,-79.9199752807617,-120.208557128906,64.7900924682617,148629201
sw,-63.0758056640625,-78.8756027221679,-108.162963867187,66.2115859985351,148645868
sw,-61.5037231445312,-78.0581588745117,-102.297065734863,50.0723991394043,148662535
sw,-60.0696411132812,-77.3804397583007,-93.5564651489257,39.7708168029785,148679202
sw,-58.852195739746,-76.8997268676757,-79.5442199707031,27.1138114929199,148695869
sw,-57.7744522094726,-76.5505447387695,-69.8675765991211,19.0062561035156,148712536
sw,-56.9330558776855,-76.2357559204101,-55.0116157531738,16.8402156829834,148729203
sw,-56.6344718933105,-75.9434814453125,-22.4849739074707,15.24547290802,148745870
sw,-56.9254493713378,-75.6669692993164,12.8729028701782,13.9452085494995,148762537
sw,-57.3544731140136,-75.3539505004882,20.6735363006591,15.9173116683959,148779204
sw,-57.9005165100097,-75.0829010009765,27.7392024993896,13.418210029602,148795871
sw,-58.8792572021484,-74.9163665771484,54.2257766723632,7.34301614761352,148812538
sw,-60.6953353881835,-74.7630157470703,105.334121704101,6.91344356536865,148829205
sw,-62.5815391540527,-74.4692611694336,111.361679077148,15.7010679244995,148845872
sw,-64.4025573730468,-74.0533294677734,109.217170715332,22.8809757232666,148862539
sw,-65.8259811401367,-73.6159591674804,87.4135513305664,23.7980327606201,148879206
sw,-66.6943283081054,-73.2195663452148,52.0254745483398,20.9925746917724,148895873
sw,-67.6503448486328,-72.9420623779296,57.9650840759277,13.7973222732543,148912540
sw,-68.0897064208984,-72.8011093139648,26.8584556579589,5.85157060623168,148929207
sw,-68.0709075927734,-72.7692108154296,-2.76734519004821,-0.447697669267654,148945874
sw,-68.2006912231445,-72.7476425170898,5.54919052124023,-0.996887147426605,148962541
sw,-68.5929183959961,-72.8450851440429,20.3789157867431,-8.08537101745605,148979208
sw,-69.8415832519531,-73.0570068359375,72.6248626708984,-14.6473064422607,148995875
sw,-71.9623260498046,-73.2826690673828,129.655853271484,-15.0170440673828,149012542
sw,-73.4399948120117,-73.5313415527343,97.8938827514648,-15.7776737213134,149029209
sw,-74.1122512817382,-73.9992446899414,53.698989868164,-28.5755882263183,149045876
sw,-74.829360961914,-75.0015258789062,44.1990776062011,-60.4981880187988,149062543
sw,-75.8426437377929,-76.8562393188476,55.5420913696289,-111.512725830078,149079210
sw,-77.1092910766601,-79.6626586914062,74.0652618408203,-168.73582458496,149095877
sw,-78.5662841796875,-83.3355026245117,93.4569778442382,-224.409423828125,149112544
sw,-79.9018402099609,-86.9006042480468,90.2437515258789,-253.899444580078,149129211
sw,-80.696044921875,-85.9937133789062,58.6812438964843,-240.907028198242,149145878
sw,-80.9541244506836,-82.9279327392578,19.5398731231689,-186.968994140625,149162545
sw,-81.0954971313476,-80.7568283081054,14.8966751098632,-144.047698974609,149179212
sw,-81.4581756591796,-78.8467559814453,34.3755264282226,-145.755081176757,149195879
sw,-81.9145889282226,-76.0416107177734,44.5875129699707,-193.857009887695,149212546
sw,-82.3466567993164,-72.7835311889648,44.666160583496,-211.666748046875,149229213
sw,-82.7426147460937,-69.7467956542968,33.4331893920898,-191.44773864746,149245880
sw,-83.2043685913086,-67.0249328613281,29.2012062072753,-165.969985961914,149262547
sw,-83.7899398803711,-64.8962783813476,40.0142822265625,-125.106338500976,149279214
sw,-84.2560119628906,-63.6814460754394,43.9630851745605,-64.9542541503906,149295881
sw,-84.4503021240234,-63.134521484375,39.4958190917968,-17.4060821533203,149312548
sw,-84.3861312866211,-62.7386360168457,25.9296531677246,-4.91908168792724,149329215
sw,-84.2584686279296,-62.4773254394531,19.6485748291015,-3.79250574111938,149345882
sw,-84.2044448852539,-62.6723327636718,25.3986721038818,12.8388538360595,149362549
sw,-84.2316360473632,-62.964988708496,37.3043899536132,2.74417948722839,149379216
sw,-84.2109146118164,-63.534912109375,37.7271194458007,11.5686960220336,149395883
sw,-84.0689849853515,-65.6415939331054,34.0000381469726,108.191535949707,149412550
sw,-83.8797760009765,-68.1127243041992,26.1650524139404,126.331565856933,149429217
sw,-83.7897186279296,-70.7015991210937,13.9888038635253,127.894187927246,149445884
sw,-83.769546508789,-73.6806259155273,17.3818454742431,149.641677856445,149462551
sw,-83.6836395263671,-76.6455459594726,30.7377910614013,164.703796386718,149479218
sw,-83.5269165039062,-78.1940460205078,29.4220790863037,103.090797424316,149495885
sw,-83.3595275878906,-79.2424926757812,18.7054901123046,89.512092590332,149512552
sw,-83.3755569458007,-79.671401977539,-4.64549541473388,28.0689792633056,149529219
sw,-83.654426574707,-79.5052108764648,-27.5491027832031,-22.1527061462402,149545886
sw,-84.0575637817382,-79.4035186767578,-26.6160621643066,-4.70673131942749,149562553
sw,-84.5017471313476,-79.7283325195312,-21.8078899383544,18.8875560760498,149579220
sw,-84.8778381347656,-81.3283233642578,-19.0529670715332,86.0071105957031,149595887
sw,-85.1278610229492,-82.983901977539,-11.5201902389526,86.2505645751953,149612554
sw,-85.31884765625,-83.8861236572265,-25.7012977600097,55.4897232055664,149629221
sw,-85.337043762207,-84.4276123046875,-71.3602523803711,68.8003845214843,149645888
sw,-84.7324829101562,-84.8142776489257,-112.858436584472,81.8380355834961,149662555
sw,-83.362922668457,-85.064224243164,-147.786193847656,95.1194610595703,149679222
sw,-81.1380920410156,-84.944839477539,-173.823684692382,111.208290100097,149695889
sw,-78.3017578125,-84.2232818603515,-176.753921508789,113.595962524414,149712556
sw,-74.48291015625,-83.4269027709961,-212.254806518554,78.8684616088867,149729223
sw,-72.0105895996093,-82.9315872192382,-157.008895874023,39.8135757446289,149745890
sw,-70.4540405273437,-82.4666519165039,-117.115188598632,35.1106910705566,149762557
sw,-68.6085815429687,-81.730484008789,-128.454040527343,51.9540481567382,149779224
sw,-66.6163787841796,-80.9819946289062,-130.966766357421,54.1093826293945,149795891
sw,-64.779052734375,-80.1079177856445,-118.063430786132,63.6308364868164,149812558
sw,-63.1870040893554,-79.0736389160156,-102.374595642089,71.9760665893554,149829225
sw,-61.8462295532226,-78.2019653320312,-87.2333908081054,58.2613372802734,149845892
sw,-60.6897277832031,-77.6067581176757,-75.0678482055664,37.5937156677246,149862559
sw,-59.6795845031738,-77.2008438110351,-64.7445983886718,23.8172607421875,149879226
sw,-58.6403503417968,-76.9272842407226,-65.7799224853515,15.0981693267822,149895893
sw,-57.7739067077636,-76.6307601928711,-54.9384574890136,16.3441181182861,149912560
sw,-57.1343841552734,-76.3075408935546,-41.0418510437011,17.9199695587158,149929227
sw,-56.8799858093261,-75.9390563964843,-18.3630619049072,20.3800048828125,149945894
sw,-57.0137939453125,-75.5513076782226,4.67660522460937,21.2131423950195,149962561
sw,-57.1901512145996,-75.2193908691406,6.69614553451538,17.6998233795166,149979228
sw,-57.5323028564453,-74.8993072509765,16.5459651947021,17.1155681610107,149995895
sw,-58.5583610534668,-74.5108413696289,58.649242401123,21.4260501861572,150012562
sw,-60.1947593688964,-74.0242156982421,97.0056838989257,27.3627262115478,150029229
sw,-61.5838623046875,-73.5047836303711,82.4267959594726,29.2496910095214,150045896
sw,-63.1336059570312,-72.9258651733398,95.3640365600586,32.7472496032714,150062563
sw,-64.2973403930664,-72.2282409667968,71.4372329711914,39.8111763000488,150079230
sw,-65.2441940307617,-71.5150070190429,57.9840774536132,40.6665687561035,150095897
sw,-66.3575897216796,-70.9806823730468,68.2993621826171,29.9680843353271,150112564
sw,-67.253791809082,-70.7080383300781,55.4586181640625,14.3424940109252,150129231
sw,-67.853271484375,-70.6698913574218,35.4201278686523,0.133077308535575,150145898
sw,-68.4779205322265,-70.7713623046875,35.1961631774902,-8.45259761810302,150162565
sw,-69.6982192993164,-70.9381713867187,71.218147277832,-12.4272289276123,150179232
sw,-71.3923187255859,-71.0866775512695,104.433143615722,-11.0015201568603,150195899
sw,-72.6930999755859,-71.1512832641601,83.9409561157226,-5.43895864486694,150212566
sw,-73.4652252197265,-71.108413696289,54.8979721069335,1.25349283218383,150229233
sw,-74.3345413208007,-71.1015167236328,56.5049591064453,-0.82545918226242,150245900
sw,-75.4955596923828,-71.4961395263671,64.7876815795898,-24.9536418914794,150262567
sw,-76.7553100585937,-72.6103286743164,73.0417404174804,-68.1514816284179,150279234
sw,-78.2354354858398,-74.7169723510742,94.5651550292968,-127.982109069824,150295901
sw,-79.5899276733398,-77.9176406860351,93.1657180786132,-194.380569458007,150312568
sw,-80.6379623413086,-81.5041427612304,72.6796646118164,-220.634643554687,150329235
sw,-81.4499740600586,-84.6074066162109,59.16597366333,-205.500396728515,150345902
sw,-82.056411743164,-86.1638641357421,53.4561653137207,-175.320007324218,150362569
sw,-82.4744186401367,-85.4610214233398,51.6606979370117,-159.308319091796,150379236
sw,-82.818862915039,-84.0460586547851,55.4905357360839,-144.451995849609,150395903
sw,-83.1700820922851,-82.3244857788086,54.3657913208007,-160.644165039062,150412570
sw,-83.5173568725586,-79.8278427124023,43.8545188903808,-188.97004699707,150429237
sw,-83.8514251708984,-76.8511657714843,36.2811012268066,-200.062927246093,150445904
sw,-84.152961730957,-73.8004837036132,31.2394065856933,-194.451400756835,150462571
sw,-84.3559036254882,-70.9158554077148,31.1226348876953,-174.457687377929,150479238
sw,-84.4178390502929,-68.5213088989257,34.0631561279296,-139.302261352539,150495905
sw,-84.3190078735351,-66.6565017700195,32.8239707946777,-103.890769958496,150512572
sw,-84.1353607177734,-65.2929077148437,28.8406925201416,-71.1605911254882,150529239
sw,-83.9576568603515,-64.2219619750976,24.7689247131347,-52.6311531066894,150545906
sw,-83.8297805786132,-63.4025039672851,23.860818862915,-39.4905738830566,150562573
sw,-83.7291488647461,-63.1390266418457,25.4833049774169,-11.7399368286132,150579240
sw,-83.6349334716796,-63.4636459350585,24.5667419433593,15.1381921768188,150595907
sw,-83.5501022338867,-64.1762237548828,18.1067466735839,32.1103553771972,150612574
sw,-83.4649353027343,-65.5160064697265,9.18127822875976,66.980110168457,150629241
sw,-83.3846435546875,-67.5300369262695,2.34098172187805,99.4678039550781,150645908
sw,-83.380142211914,-70.1900177001953,-3.50759506225585,134.516143798828,150662575
sw,-83.462532043457,-72.8782653808593,-4.81901788711547,127.578880310058,150679242
sw,-83.4816665649414,-75.8606338500976,8.0128526687622,155.457290649414,150695909
sw,-83.352912902832,-78.2753601074218,19.9172782897949,144.074081420898,150712576
sw,-83.1225662231445,-79.3478393554687,21.3037948608398,85.0464935302734,150729243
sw,-82.9555282592773,-79.8433685302734,8.40671634674072,39.7462272644043,150745910
sw,-82.9398727416992,-79.7007369995117,-11.8353481292724,-19.017650604248,150762577
sw,-83.0887985229492,-79.4023742675781,-25.7583847045898,-14.7809391021728,150779244
sw,-83.2451248168945,-79.8292694091796,-22.104772567749,29.1570053100585,150795911
sw,-83.4256286621093,-81.5935134887695,-24.8919200897216,105.220954895019,150812578
sw,-83.788459777832,-82.9092559814453,-50.0344047546386,83.3237991333007,150829245
sw,-84.1276473999023,-83.6628341674804,-89.8682632446289,72.5627212524414,150845912
sw,-83.8555068969726,-84.40966796875,-144.411483764648,93.6251373291015,150862579
sw,-82.1035537719726,-84.8869476318359,-196.105758666992,101.471313476562,150879246
sw,-79.2214126586914,-84.8385925292968,-204.800796508789,115.603767395019,150895913
sw,-75.4550094604492,-83.9611587524414,-218.510787963867,125.029541015625,150912580
sw,-71.9865417480468,-83.0997085571289,-203.623641967773,83.0235443115234,150929247
sw,-70.6476974487304,-82.7039489746093,-107.493774414062,30.2699069976806,150945914
sw,-69.0647964477539,-82.6800537109375,-118.936286926269,2.38168382644653,150962581
sw,-67.1118927001953,-82.4942855834961,-131.044799804687,19.9331722259521,150979248
sw,-65.3143081665039,-81.6193695068359,-115.270027160644,70.2572555541992,150995915
sw,-63.5748062133789,-80.5487213134765,-110.523727416992,81.6274185180664,151012582
sw,-61.9519538879394,-79.4858856201171,-103.469490051269,77.1885299682617,151029249
sw,-60.4649314880371,-78.667495727539,-94.6398162841796,55.7573089599609,151045916
sw,-59.173282623291,-78.0384750366211,-81.3074722290039,39.0695648193359,151062583
sw,-57.9505958557128,-77.6690902709961,-75.9490585327148,21.3177089691162,151079250
sw,-56.7337112426757,-77.4983139038086,-76.0374603271484,8.81491088867187,151095917
sw,-55.7036781311035,-77.3196258544921,-66.0931854248046,9.25817012786865,151112584
sw,-55.2574348449707,-77.0308761596679,-32.910888671875,15.9168882369995,151129251
sw,-55.1924629211425,-76.6229858398437,-11.0941896438598,22.9835243225097,151145918
sw,-55.1212615966796,-76.1204681396484,-11.7770147323608,28.4321861267089,151162585
sw,-55.4674263000488,-75.5247116088867,14.1503915786743,33.8281097412109,151179252
sw,-56.9333038330078,-74.8644561767578,82.6406555175781,37.7195014953613,151195919
sw,-58.6984977722168,-74.1769790649414,101.443588256835,39.4858131408691,151212586
sw,-60.5835342407226,-73.4745101928711,110.684173583984,40.4078636169433,151229253
sw,-62.4014472961425,-72.7823486328125,109.075988769531,39.7598876953125,151245920
sw,-63.8155975341796,-72.1282730102539,85.5776748657226,37.4812355041503,151262587
sw,-64.6418380737304,-71.6051940917968,50.7196083068847,29.6454696655273,151279254
sw,-65.7092361450195,-71.2279663085937,65.1158676147461,20.8860282897949,151295921
sw,-66.6924972534179,-71.0600814819336,59.2209854125976,8.31160640716552,151312588
sw,-67.4448928833007,-71.1619110107421,43.8350563049316,-7.87785482406616,151329255
sw,-68.1175231933593,-71.4995651245117,38.7769317626953,-22.0262279510498,151345922
sw,-69.1111450195312,-71.9951095581054,58.508201599121,-31.4947509765625,151362589
sw,-70.8048706054687,-72.5583877563476,102.959083557128,-35.5752334594726,151379256
sw,-72.4774780273437,-73.0591659545898,104.338821411132,-31.7164268493652,151395923
sw,-73.4443969726562,-73.3907318115234,61.8685035705566,-21.3991069793701,151412590
sw,-74.2394866943359,-73.592170715332,55.085147857666,-13.6095762252807,151429257
sw,-75.3041763305664,-74.0293045043945,64.7814407348632,-27.834300994873,151445924
sw,-76.4618072509765,-75.2418594360351,66.2120361328125,-74.772590637207,151462591
sw,-77.6532897949218,-77.5119857788086,72.6468200683593,-139.868469238281,151479258
sw,-78.9329223632812,-80.6872406005859,84.1582946777343,-198.991577148437,151495925
sw,-80.0034713745117,-83.9896697998046,74.2119445800781,-224.325988769531,151512592
sw,-80.7888717651367,-85.9953231811523,54.4533081054687,-226.469909667968,151529259
sw,-81.3251113891601,-84.7622833251953,36.8342781066894,-201.091445922851,151545926
sw,-81.6954650878906,-82.4826354980468,31.1783561706542,-172.349685668945,151562593
sw,-82.1086273193359,-80.650650024414,41.535903930664,-149.796295166015,151579260
sw,-82.5768890380859,-78.637092590332,50.9993629455566,-159.528823852539,151595927
sw,-82.9707794189453,-76.0554580688476,40.6733360290527,-183.053878784179,151612594
sw,-83.3040237426757,-73.3004455566406,27.3814048767089,-182.556808471679,151629261
sw,-83.645751953125,-70.4367446899414,17.2499160766601,-180.297637939453,151645928
sw,-84.0904083251953,-67.8626022338867,24.4676342010498,-155.383438110351,151662595
sw,-84.4921646118164,-65.9240646362304,32.8578224182128,-111.714660644531,151679262
sw,-84.7260818481445,-64.7394104003906,37.0205650329589,-60.8196258544921,151695929
sw,-84.796401977539,-63.8801040649414,34.7653541564941,-39.5021324157714,151712596
sw,-84.7832336425781,-63.0824241638183,29.0990505218505,-43.6610641479492,151729263
sw,-84.7805404663086,-62.7530403137207,27.3128433227539,-25.0709552764892,151745930
sw,-84.7957992553711,-62.8819732666015,31.4407882690429,-5.74091053009033,151762597
sw,-84.7748336791992,-63.2065849304199,33.0903739929199,1.79913163185119,151779264
sw,-84.7007980346679,-64.3084716796875,26.1224365234375,50.101749420166,151795931
sw,-84.5692825317382,-66.4222793579101,18.3992462158203,113.250076293945,151812598
sw,-84.4432144165039,-68.6262893676757,12.465781211853,112.188751220703,151829265
sw,-84.4161605834961,-71.4645080566406,7.9480128288269,143.404373168945,151845932
sw,-84.4934844970703,-74.3020248413086,5.7674765586853,141.110000610351,151862599
sw,-84.5370712280273,-77.3380584716796,10.7010793685913,166.170989990234,151879266
sw,-84.4772796630859,-79.5974884033203,13.6728715896606,136.62710571289,151895933
sw,-84.4396591186523,-80.6666641235351,5.76112365722656,79.0771408081054,151912600
sw,-84.5233917236328,-80.7214431762695,-10.2039918899536,-5.03696250915527,151929267
sw,-84.8308563232421,-80.2440643310546,-29.124059677124,-38.7931060791015,151945934
sw,-85.2936019897461,-79.8870315551757,-30.9417037963867,-17.9152355194091,151962601
sw,-85.6936569213867,-80.0907897949218,-18.428331375122,13.4278774261474,151979268
sw,-85.9515609741211,-81.4811553955078,-13.8239364624023,70.6903305053711,151995935
sw,-86.1059036254882,-83.142219543457,-17.4095554351806,86.8670959472656,152012602
sw,-86.0891418457031,-84.2537689208984,-47.0084953308105,68.2480926513671,152029269
sw,-85.4767608642578,-84.9906234741211,-96.5380477905273,71.3033065795898,152045936
sw,-83.8520965576171,-85.625747680664,-142.086166381835,75.5654296875,152062603
sw,-81.3814010620117,-86.2300720214843,-173.419769287109,98.2141418457031,152079270
sw,-78.3236618041992,-86.2464752197265,-188.155120849609,116.767234802246,152095937
sw,-74.404312133789,-85.3369674682617,-217.917449951171,117.458000183105,152112604
sw,-70.6063232421875,-84.3304061889648,-217.78384399414,81.1777191162109,152129271
sw,-69.0638427734375,-83.8108444213867,-109.608169555664,34.9645385742187,152145938
sw,-67.2165451049804,-83.4283065795898,-127.325843811035,24.5943241119384,152162605
sw,-65.0968017578125,-82.7126083374023,-137.227920532226,45.0216789245605,152179272
sw,-63.1665802001953,-81.8908996582031,-121.6167678833,55.3790473937988,152195939
sw,-61.4135589599609,-80.9263687133789,-110.834487915039,65.8263244628906,152212606
sw,-59.824951171875,-79.8050537109375,-102.058242797851,72.8968811035156,152229273
sw,-58.6058654785156,-78.9047088623046,-79.2025527954101,55.35054397583,152245940
sw,-57.6650695800781,-78.1916809082031,-61.1505546569824,40.9959259033203,152262607
sw,-56.7357215881347,-77.8193893432617,-59.8305053710937,20.2040691375732,152279274
sw,-55.825870513916,-77.5786819458007,-58.8935470581054,12.4709501266479,152295941
sw,-55.216567993164,-77.2998504638671,-40.6117057800293,14.6171073913574,152312608
sw,-54.9588508605957,-76.9189376831054,-19.4488506317138,20.3882465362548,152329275
sw,-55.0599021911621,-76.4281845092773,1.80249094963073,26.5242938995361,152345942
sw,-55.4452857971191,-75.8225326538086,18.1125602722167,33.3225669860839,152362609
sw,-55.9648399353027,-75.2094192504882,25.152265548706,34.1531333923339,152379276
sw,-57.1676063537597,-74.6301116943359,66.6358795166015,32.6889114379882,152395943
sw,-59.1016197204589,-74.0050964355468,113.360885620117,35.8946380615234,152412610
sw,-60.675796508789,-73.3326339721679,91.1195220947265,38.7422142028808,152429277
sw,-62.490062713623,-72.7663497924804,108.383911132812,32.1861114501953,152445944
sw,-63.8169250488281,-72.3498229980468,78.6891784667968,23.1002101898193,152462611
sw,-64.973159790039,-72.0375747680664,68.3552856445312,16.8054370880126,152479278
sw,-66.5083847045898,-71.8254470825195,91.0151824951171,10.6026773452758,152495945
sw,-67.7242050170898,-71.8567886352539,73.1636276245117,-4.35796022415161,152512612
sw,-68.5125198364257,-72.1688003540039,47.1832084655761,-21.3523693084716,152529279
sw,-69.4161148071289,-72.6362152099609,53.8207702636718,-30.6454582214355,152545946
sw,-70.9293518066406,-73.2259826660156,91.5139694213867,-37.9169273376464,152562613
sw,-72.709114074707,-73.8089599609375,108.702041625976,-37.1695098876953,152579280
sw,-73.6621398925781,-74.274787902832,57.2080307006835,-29.5444755554199,152595947
sw,-74.0599212646484,-74.6182098388671,25.2175731658935,-22.0873641967773,152612614
sw,-74.7339096069336,-75.1340866088867,42.2486686706543,-31.9576015472412,152629281
sw,-75.6181716918945,-76.2945785522461,52.1543045043945,-69.7920379638671,152645948
sw,-76.6140060424804,-78.4039535522461,59.3674049377441,-126.437744140625,152662615
sw,-77.926773071289,-81.2974395751953,82.7642288208007,-173.139907836914,152679282
sw,-79.3726806640625,-84.860122680664,92.4662704467773,-215.241119384765,152695949
sw,-80.7280578613281,-87.9038925170898,84.5998611450195,-217.66552734375,152712616
sw,-81.7813110351562,-86.4416351318359,64.9191589355468,-195.404464721679,152729283
sw,-82.3640670776367,-83.3135833740234,41.7436943054199,-163.264389038085,152745950
sw,-82.6697692871093,-80.8339614868164,36.0819702148437,-142.896026611328,152762617
sw,-82.9426498413086,-78.8608856201171,36.3267135620117,-143.210617065429,152779284
sw,-83.234130859375,-76.2806167602539,30.9272804260253,-181.464569091796,152795951
sw,-83.583755493164,-73.2605514526367,21.2340450286865,-201.332321166992,152812618
sw,-83.9644699096679,-70.3583526611328,16.1131286621093,-188.383438110351,152829285
sw,-84.4213943481445,-67.6726150512695,23.1929836273193,-165.652023315429,152845952
sw,-84.8414764404296,-65.5288848876953,28.9969406127929,-127.486999511718,152862619
sw,-85.1419143676757,-64.1285934448242,33.742130279541,-76.2753143310546,152879286
sw,-85.2972259521484,-63.3096656799316,35.1582221984863,-35.3209190368652,152895953
sw,-85.3399887084961,-62.5851593017578,31.8529319763183,-30.7226390838623,152912620
sw,-85.3673934936523,-61.9253234863281,31.3551216125488,-36.3653907775878,152929287
sw,-85.4473648071289,-61.6581344604492,32.2968368530273,-23.0842247009277,152945954
sw,-85.5425415039062,-61.5730285644531,31.0689086914062,-21.1775169372558,152962621
sw,-85.5753555297851,-61.7806816101074,25.3208045959472,-7.95213079452514,152979288
sw,-85.5246047973632,-62.8108024597168,18.3699836730957,43.3732948303222,152995955
sw,-85.4154663085937,-64.5498123168945,18.3663902282714,88.1100082397461,153012622
sw,-85.3155899047851,-66.8940811157226,14.6102561950683,124.973022460937,153029289
sw,-85.2925643920898,-70.0443038940429,7.27620649337768,173.064544677734,153045956
sw,-85.2965545654296,-73.1456451416015,13.8107271194458,166.171844482421,153062623
sw,-85.2211151123046,-76.1407775878906,25.1554794311523,171.771118164062,153079290
sw,-85.0623168945312,-78.2864379882812,21.7572135925292,137.515731811523,153095957
sw,-84.9237976074218,-79.0673904418945,11.5212841033935,67.9944305419921,153112624
sw,-85.0724029541015,-79.1738739013671,-11.3700866699218,-3.60309481620788,153129291
sw,-85.5912246704101,-78.5705108642578,-32.2236366271972,-51.5608749389648,153145958
sw,-86.2054824829101,-78.1885223388671,-31.2297401428222,-29.3839149475097,153162625
sw,-86.589241027832,-78.550910949707,-8.02649784088134,0.743279814720153,153179292
sw,-86.7965545654296,-80.1229553222656,-5.57369661331176,71.3073577880859,153195959
sw,-86.9071197509765,-82.2332000732421,-13.3642272949218,122.041259765625,153212626
sw,-86.9983444213867,-83.3211593627929,-38.0138130187988,77.8439636230468,153229293
sw,-86.7445449829101,-83.5171127319336,-71.7068405151367,40.7353935241699,153245960
sw,-85.6517944335937,-83.9499435424804,-114.381187438964,65.1414108276367,153262627
sw,-83.5420227050781,-84.5927505493164,-159.312957763671,85.3241348266601,153279294
sw,-80.7519378662109,-85.1393737792968,-182.500213623046,99.9774169921875,153295961
sw,-77.412971496582,-84.9914779663086,-194.476989746093,113.649765014648,153312628
sw,-72.3641738891601,-84.3588562011718,-270.961730957031,99.5126647949218,153329295
sw,-69.7827606201171,-83.7571640014648,-157.225433349609,68.6020278930664,153345962
sw,-67.5649108886718,-83.199348449707,-152.285934448242,46.2135620117187,153362629
sw,-64.7801284790039,-82.3443984985351,-181.080902099609,55.7196388244628,153379296
sw,-62.534870147705,-81.3147659301757,-140.17234802246,65.3224258422851,153395963
sw,-60.7975578308105,-80.3068161010742,-106.947341918945,71.2123718261718,153412630
sw,-58.9108734130859,-79.1384963989257,-116.359962463378,85.2280120849609,153429297
sw,-57.0477333068847,-78.3673324584961,-115.839134216308,62.3112411499023,153445964
sw,-55.4880180358886,-77.7280807495117,-97.3763580322265,47.0843544006347,153462631
sw,-54.2195014953613,-77.067626953125,-79.0234375,41.1322860717773,153479298
sw,-53.0656051635742,-76.7332992553711,-71.6731491088867,19.2352771759033,153495965
sw,-52.291648864746,-76.4859085083007,-48.7214088439941,14.0593328475952,153512632
sw,-52.0051155090332,-76.1034469604492,-19.1838340759277,22.3335342407226,153529299
sw,-51.9216575622558,-75.5595092773437,-7.42645120620727,31.7686405181884,153545966
sw,-51.9385375976562,-74.9609146118164,-2.47368717193603,34.6861000061035,153562633
sw,-51.9565238952636,-74.3991088867187,-4.01999902725219,32.1868133544921,153579300
sw,-52.9451789855957,-73.8554153442382,54.2206535339355,30.9537658691406,153595967
sw,-55.2319374084472,-73.28662109375,134.74038696289,32.4313926696777,153612634
sw,-57.6060218811035,-72.6871185302734,140.710906982421,34.280704498291,153629301
sw,-60.06640625,-72.0901947021484,148.526092529296,34.2460632324218,153645968
sw,-62.4175262451171,-71.5476608276367,145.00830078125,31.1122665405273,153662635
sw,-64.0724182128906,-71.1991653442382,105.753326416015,19.4086990356445,153679302
sw,-65.9047241210937,-71.0919189453125,118.80558013916,4.66207408905029,153695969
sw,-67.4036712646484,-71.2469406127929,98.9336624145507,-11.4898262023925,153712636
sw,-68.5561294555664,-71.6190567016601,74.8843460083007,-24.8182544708251,153729303
sw,-69.8257675170898,-72.1680755615234,81.2679138183593,-35.4195976257324,153745970
sw,-71.6194229125976,-72.9014892578125,121.058113098144,-46.1036415100097,153762637
sw,-72.919563293457,-73.6120071411132,88.850357055664,-44.063247680664,153779304
sw,-73.5766296386718,-74.2668991088867,38.5523490905761,-40.4486999511718,153795971
sw,-74.1436691284179,-74.9039230346679,31.1478557586669,-39.4989967346191,153812638
sw,-75.0831451416015,-76.0875396728515,49.2303810119628,-72.28271484375,153829305
sw,-76.1370162963867,-78.3630981445312,61.4858894348144,-137.89599609375,153845972
