Label,Left_Hip_q,Right_Hip_q,Left_Hip_qd,Right_Hip_qd,SampleTimeFine
sw,-65.2783737182617,-66.5467681884765,26.6937618255615,-168.575866699218,425201399
sw,-65.5241928100586,-63.6184921264648,12.9905519485473,-188.554382324218,425218066
sw,-65.7918243408203,-60.7266235351562,14.5687885284423,-186.873748779296,425234733
sw,-66.1453018188476,-58.1477584838867,19.914249420166,-166.196319580078,425251400
sw,-66.4905471801757,-55.906135559082,19.1687221527099,-144.210159301757,425268067
sw,-66.794448852539,-53.9464416503906,16.0176658630371,-126.043312072753,425284734
sw,-67.1583709716796,-52.31494140625,19.1410446166992,-105.823287963867,425301401
sw,-67.5848083496093,-50.8300285339355,22.8787097930908,-96.1144256591796,425318068
sw,-68.1327514648437,-49.5736083984375,30.264986038208,-81.9635162353515,425334735
sw,-68.756607055664,-48.5124320983886,34.9684867858886,-71.4547729492187,425351402
sw,-69.3869476318359,-47.7114143371582,35.4564361572265,-59.8690757751464,425368069
sw,-69.9423141479492,-47.2491607666015,31.0225009918212,-42.1480407714843,425384736
sw,-70.4682312011718,-47.3300132751464,29.3128986358642,-7.03399324417114,425401403
sw,-71.002571105957,-47.8489608764648,29.9863510131835,20.2689361572265,425418070
sw,-71.5361022949218,-48.90132522583,30.1907405853271,54.9053649902343,425434737
sw,-72.0128784179687,-50.4469604492187,26.9850807189941,86.4664535522461,425451404
sw,-72.4023361206054,-51.996597290039,21.9518165588378,82.1451568603515,425468071
sw,-72.6466598510742,-53.7679824829101,13.6846008300781,94.2412719726562,425484738
sw,-72.6562728881836,-55.7838134765625,0.0672654658555984,111.319984436035,425501405
sw,-72.5589828491211,-57.8642845153808,-6.34610414505004,119.337013244628,425518072
sw,-72.521484375,-59.6868438720703,-3.21567583084106,108.152297973632,425534739
sw,-72.5640411376953,-60.3982315063476,1.06846761703491,41.7190170288085,425551406
sw,-72.6760482788086,-60.1324005126953,4.9368577003479,-21.0687046051025,425568073
sw,-72.7150268554687,-59.6083602905273,0.42250183224678,-35.9886093139648,425584740
sw,-72.6621398925781,-59.2836532592773,-5.00348663330078,-25.1030330657959,425601407
sw,-72.7914810180664,-59.8325881958007,5.14784574508667,23.3172168731689,425618074
sw,-72.9109268188476,-61.523338317871,3.76328921318054,93.7065963745117,425634741
sw,-72.7272644042968,-63.6790351867675,-14.2060136795043,124.812477111816,425651408
sw,-72.0228652954101,-65.2930908203125,-44.8275566101074,92.252685546875,425668075
sw,-70.9328155517578,-66.7881851196289,-67.7420043945312,85.6846542358398,425684742
sw,-69.5051956176757,-68.534927368164,-87.4977569580078,97.7990264892578,425701409
sw,-67.8739471435546,-70.6026763916015,-99.5742263793945,117.994400024414,425718076
sw,-66.0405578613281,-72.6442947387695,-111.794883728027,117.556396484375,425734743
sw,-63.4177322387695,-74.4600830078125,-157.665740966796,105.005470275878,425751410
sw,-60.0628547668457,-75.6754913330078,-199.482696533203,69.7011642456054,425768077
sw,-56.4704551696777,-76.4496688842773,-213.318084716796,43.3099670410156,425784744
sw,-54.1575393676757,-77.1710510253906,-139.54931640625,40.2308349609375,425801411
sw,-52.2490463256835,-78.205825805664,-116.123626708984,61.4321479797363,425818078
sw,-49.6731872558593,-79.3488693237304,-153.902206420898,70.0913772583007,425834745
sw,-46.9579353332519,-80.3527221679687,-160.829513549804,60.7390213012695,425851412
sw,-44.381664276123,-81.1608734130859,-152.363906860351,44.6075592041015,425868079
sw,-42.1669197082519,-81.7519302368164,-131.125045776367,29.1886329650878,425884746
sw,-40.2251663208007,-82.26318359375,-115.332077026367,26.0985641479492,425901413
sw,-38.5671501159668,-82.6960983276367,-98.8509216308593,23.0688724517822,425918080
sw,-37.3340415954589,-83.1672973632812,-73.9422988891601,26.2164402008056,425934747
sw,-36.7686424255371,-83.6677932739257,-34.5621833801269,28.2535991668701,425951414
sw,-36.7393608093261,-84.1383666992187,-3.0659065246582,26.398380279541,425968081
sw,-37.0264816284179,-84.6295471191406,15.4240217208862,27.7019710540771,425984748
sw,-37.6870002746582,-85.2085037231445,37.3461532592773,33.1724205017089,426001415
sw,-38.9450302124023,-85.8432922363281,72.7373962402343,36.4839286804199,426018082
sw,-40.8868980407714,-86.4701995849609,113.845382690429,35.6380577087402,426034749
sw,-43.0281105041503,-87.0875854492187,126.606216430664,34.8197441101074,426051416
sw,-45.4992866516113,-87.729019165039,146.787780761718,36.4962005615234,426068083
sw,-47.8766288757324,-88.344123840332,140.979446411132,35.8210525512695,426084750
sw,-50.3097419738769,-88.8264770507812,144.278182983398,27.8375835418701,426101417
sw,-52.0291633605957,-89.1974105834961,101.553482055664,20.0292129516601,426118084
sw,-52.5483360290527,-89.4633178710937,29.128677368164,13.6129207611083,426134751
sw,-52.5335731506347,-89.5011138916015,-2.8644106388092,1.48885846138,426151418
sw,-52.9104232788085,-89.3000259399414,21.3147773742675,-11.530457496643,426168085
sw,-53.8232917785644,-88.93798828125,53.3262023925781,-21.5387573242187,426184752
sw,-54.9697494506835,-88.39892578125,68.1159744262695,-32.1767311096191,426201419
sw,-55.8992881774902,-87.7030487060546,54.7784576416015,-41.6077880859375,426218086
sw,-56.9458312988281,-87.0831527709961,60.7014617919921,-39.1404876708984,426234753
sw,-57.9204559326171,-86.6420593261718,54.8892250061035,-30.5683345794677,426251420
sw,-59.013011932373,-86.0814895629882,62.408893585205,-38.5885353088378,426268087
sw,-60.2818222045898,-84.8316116333007,74.2250747680664,-79.3779754638671,426284754
sw,-61.8177146911621,-82.8367004394531,90.4441909790039,-122.562408447265,426301421
sw,-63.0347290039062,-80.080337524414,71.1814804077148,-166.688552856445,426318088
sw,-63.9147186279296,-77.0856475830078,50.8809089660644,-179.427215576171,426334755
sw,-64.6344604492187,-74.1345443725586,41.2756309509277,-174.320449829101,426351422
sw,-65.1221923828125,-71.1690521240234,27.5233993530273,-171.51902770996,426368089
sw,-65.4190902709961,-68.175064086914,16.3048496246337,-171.676956176757,426384756
sw,-65.7984771728515,-65.3342742919921,21.4709568023681,-167.24136352539,426401423
sw,-66.18603515625,-62.44527053833,22.0034809112548,-177.04002380371,426418090
sw,-66.6330184936523,-59.4077033996582,25.3702316284179,-189.666305541992,426434757
sw,-67.1236495971679,-56.6601867675781,27.9485988616943,-172.342010498046,426451424
sw,-67.6138763427734,-54.2491340637207,28.009199142456,-150.182083129882,426468091
sw,-68.0590209960937,-52.0985527038574,25.2910041809082,-133.236419677734,426484758
sw,-68.4400863647461,-50.2679748535156,21.4256153106689,-113.388801574707,426501425
sw,-68.8232269287109,-48.6854400634765,21.6028137207031,-98.3134002685546,426518092
sw,-69.2560806274414,-47.5169334411621,24.6585025787353,-73.9687042236328,426534759
sw,-69.6941375732421,-46.6603279113769,24.9597835540771,-56.992805480957,426551426
sw,-70.0544738769531,-46.1257133483886,20.1950283050537,-39.9424667358398,426568093
sw,-70.4016876220703,-45.8854904174804,19.3383865356445,-23.8596515655517,426584760
sw,-70.7875213623046,-46.1211051940918,21.6602249145507,4.77681398391723,426601427
sw,-71.2137298583984,-46.7264862060546,24.1077423095703,26.8404350280761,426618094
sw,-71.6736755371093,-47.9916725158691,26.1285171508789,67.4953002929687,426634761
sw,-72.1576156616211,-50.1178016662597,27.5643310546875,120.157615661621,426651428
sw,-72.5733413696289,-52.401985168457,23.3774299621582,126.455337524414,426668095
sw,-72.8001708984375,-55.0278968811035,11.8909034729003,146.029525756835,426684762
sw,-72.9717407226562,-57.8429946899414,8.59156036376953,162.738998413085,426701429
sw,-73.2254943847656,-60.4035034179687,13.6470384597778,155.922439575195,426718096
sw,-73.4980697631836,-61.9480628967285,14.8523931503295,96.5827102661132,426734763
sw,-73.7319183349609,-61.9971084594726,12.5511636734008,-2.38127899169921,426751430
sw,-73.8336105346679,-61.5855751037597,4.62017440795898,-32.3920173645019,426768097
sw,-73.6176071166992,-61.4366798400878,-14.3239240646362,-11.098741531372,426784764
sw,-73.3210678100586,-62.1929321289062,-18.9615249633789,38.1238136291503,426801431
sw,-73.0693893432617,-64.0649108886718,-16.3519859313964,104.859687805175,426818098
sw,-72.5951080322265,-65.776138305664,-29.8989009857177,99.2194747924804,426834765
sw,-71.5361022949218,-67.3039474487304,-65.0565948486328,89.4126892089843,426851432
sw,-69.9745407104492,-68.8240814208984,-95.4816207885742,87.2465896606445,426868099
sw,-68.4585037231445,-70.3419799804687,-92.7881240844726,84.938850402832,426884766
sw,-66.9005050659179,-72.1074600219726,-94.881118774414,101.227096557617,426901433
sw,-64.9658050537109,-73.9063873291015,-116.392883300781,104.734657287597,426918100
sw,-62.199405670166,-75.2635803222656,-163.816329956054,78.2321090698242,426934767
sw,-58.8661994934082,-76.1502990722656,-196.254257202148,48.5687637329101,426951434
sw,-56.2812805175781,-76.8565368652343,-152.722564697265,35.7067031860351,426968101
sw,-54.3946800231933,-77.7198715209961,-114.620628356933,46.2690162658691,426984768
sw,-52.2446174621582,-78.7571029663086,-130.85203552246,59.3060417175293,427001435
sw,-49.4498405456543,-79.7445297241211,-168.201522827148,58.3616180419921,427018102
sw,-46.8439788818359,-80.6777648925781,-156.000167846679,53.7516860961914,427034769
sw,-44.6690597534179,-81.4936370849609,-130.054611206054,43.9551773071289,427051436
sw,-42.8185501098632,-82.1464233398437,-110.785896301269,33.7276153564453,427068103
sw,-41.0988578796386,-82.6844177246093,-103.305099487304,27.9251537322998,427084770
sw,-39.4932327270507,-83.082160949707,-96.8848648071289,20.6210708618164,427101437
sw,-38.3506546020507,-83.4657440185546,-69.5891036987304,20.662857055664,427118104
sw,-37.6585502624511,-83.89697265625,-43.1292533874511,23.8121109008789,427134771
sw,-37.2928314208984,-84.3244552612304,-23.9990367889404,23.779951095581,427151438
sw,-37.3030471801757,-84.8068771362304,-1.71974098682403,27.5351257324218,427168105
sw,-37.7086448669433,-85.333267211914,21.8431663513183,30.5601387023925,427184772
sw,-38.5935668945312,-85.8151702880859,50.6244277954101,27.7765827178955,427201439
sw,-40.11572265625,-86.2552947998046,88.8769378662109,24.805757522583,427218106
sw,-42.3967514038085,-86.7109222412109,134.905654907226,25.3919448852539,427234773
sw,-44.6123237609863,-87.1948089599609,131.310241699218,26.7835979461669,427251440
sw,-46.6623268127441,-87.6747665405273,121.426841735839,26.4110507965087,427268107
sw,-49.3594665527343,-88.1121826171875,160.330825805664,24.0218086242675,427284774
sw,-51.4668312072753,-88.4861297607421,124.976737976074,20.4730396270751,427301441
sw,-52.4042663574218,-88.8196563720703,54.8129158020019,18.4976043701171,427318108
sw,-52.3286361694335,-89.0599670410156,-5.9882960319519,13.4005212783813,427334775
sw,-52.2231521606445,-89.0855026245117,-7.80607461929321,1.9494981765747,427351442
sw,-52.5059738159179,-88.8646087646484,15.5121402740478,-13.0951852798461,427368109
sw,-53.4446678161621,-88.4589614868164,55.032859802246,-26.5200767517089,427384776
sw,-54.6508331298828,-87.9912414550781,70.9207305908203,-30.5570678710937,427401443
sw,-55.6453590393066,-87.7195587158203,58.581787109375,-18.9188060760498,427418110
sw,-56.698501586914,-87.6463165283203,62.4819374084472,-7.3761978149414,427434777
sw,-57.875560760498,-87.5110092163086,69.7446670532226,-11.5617494583129,427451444
sw,-59.1868133544921,-86.8988418579101,77.4345321655273,-40.5167541503906,427468111
sw,-60.6317138671875,-85.5645599365234,85.2966690063476,-82.0425186157226,427484778
sw,-62.0462188720703,-83.4681777954101,83.7321243286132,-124.712478637695,427501445
sw,-63.0457611083984,-80.6368331909179,58.967414855957,-166.974655151367,427518112
sw,-63.8035697937011,-77.6906509399414,44.5329513549804,-172.6142578125,427534779
sw,-64.5072937011718,-74.9851531982421,41.1011314392089,-155.227432250976,427551446
sw,-65.0977096557617,-72.3109970092773,33.4599342346191,-149.504455566406,427568113
sw,-65.6941375732421,-69.6745071411132,33.156883239746,-147.348236083984,427584780
sw,-66.2844314575195,-66.9469299316406,32.7730293273925,-160.214065551757,427601447
sw,-66.807632446289,-64.1588668823242,29.0639381408691,-174.469100952148,427618114
sw,-67.2967376708984,-61.2308349609375,27.5558376312255,-187.892105102539,427634781
sw,-67.7160186767578,-58.4529113769531,23.5177974700927,-178.950332641601,427651448
sw,-68.0522308349609,-56.0101432800293,18.3024349212646,-156.805053710937,427668115
sw,-68.3701095581054,-53.8596229553222,16.5921821594238,-137.985534667968,427684782
sw,-68.6971359252929,-51.9977302551269,16.3214721679687,-120.719703674316,427701449
sw,-69.0008697509765,-50.4304504394531,14.5799236297607,-102.888870239257,427718116
sw,-69.3236846923828,-49.2264366149902,16.0056362152099,-81.8086395263671,427734783
sw,-69.7142562866211,-48.3275146484375,20.2635288238525,-63.98237991333,427751450
sw,-70.1202697753906,-47.6701049804687,21.2244071960449,-50.9067344665527,427768117
sw,-70.4923019409179,-47.2530479431152,19.2264156341552,-39.1299362182617,427784784
sw,-70.8560409545898,-47.3062934875488,18.9020137786865,-10.5896482467651,427801451
sw,-71.2358779907226,-47.6282386779785,20.19797706604,6.09716892242431,427818118
sw,-71.626594543457,-48.3619728088378,21.244514465332,32.8890304565429,427834785
sw,-72.0077362060546,-49.5410690307617,20.9712333679199,62.1007499694824,427851452
sw,-72.3495864868164,-51.2555236816406,18.8669509887695,95.392105102539,427868119
sw,-72.5745391845703,-53.1579475402832,12.2109127044677,104.52921295166,427884786
sw,-72.63720703125,-55.2321395874023,2.91874313354492,116.533393859863,427901453
sw,-72.5887908935546,-57.3528251647949,-3.39328980445861,120.653747558593,427918120
sw,-72.5448760986328,-59.1055603027343,-3.12516164779663,99.5357894897461,427934787
sw,-72.5558013916015,-60.30318069458,0.115763038396835,69.4793395996093,427951454
sw,-72.6592864990234,-60.3474540710449,5.74680757522583,-1.19581139087677,427968121
sw,-72.7758178710937,-59.7996940612793,6.49527788162231,-37.6492691040039,427984788
sw,-72.8108520507812,-59.1719360351562,1.01345133781433,-41.6212844848632,428001455
sw,-72.837532043457,-59.0248298645019,-0.532693743705749,-16.7560596466064,428018122
sw,-72.8601760864257,-59.9027824401855,-2.06612873077392,43.3157882690429,428034789
sw,-72.8005981445312,-61.8591995239257,-7.80462169647216,110.164123535156,428051456
sw,-72.4929885864257,-64.0641937255859,-22.3896312713623,127.434295654296,428068123
sw,-71.7362976074218,-65.6971359252929,-48.6781463623046,93.3343505859375,428084790
sw,-70.4133911132812,-67.2322692871093,-82.4197845458984,86.5301895141601,428101457
sw,-68.7312622070312,-69.0164566040039,-103.861724853515,100.117958068847,428118124
sw,-66.7033996582031,-70.9103317260742,-123.702651977539,108.390701293945,428134791
sw,-64.6279983520507,-72.6542129516601,-124.91283416748,99.0787887573242,428151458
sw,-62.0528144836425,-74.1413497924804,-151.521102905273,83.8537139892578,428168125
sw,-58.6278228759765,-75.2052307128906,-199.814514160156,59.2423553466796,428184792
sw,-55.4524841308593,-75.9877395629882,-186.360488891601,43.1461105346679,428201459
sw,-53.3212738037109,-76.8251800537109,-128.903900146484,47.5421485900878,428218126
sw,-51.3561477661132,-77.9492111206054,-119.985809326171,66.4277114868164,428234793
sw,-48.7986373901367,-79.0707244873046,-153.553878784179,67.0009384155273,428251460
sw,-46.1459274291992,-79.9857101440429,-157.627822875976,52.6008338928222,428268127
sw,-43.8128242492675,-80.7083053588867,-137.849822998046,39.0315132141113,428284794
sw,-41.9049415588378,-81.2814331054687,-112.449043273925,30.8964405059814,428301461
sw,-40.1904983520507,-81.7295608520507,-101.537033081054,25.521743774414,428318128
sw,-38.6512107849121,-82.0812606811523,-91.8592758178711,20.2187099456787,428334795
sw,-37.4380111694335,-82.4520263671875,-73.223518371582,21.0732669830322,428351462
sw,-36.8018455505371,-82.8820877075195,-39.5530662536621,24.752305984497,428368129
sw,-36.5811882019043,-83.265884399414,-15.3848848342895,22.6904277801513,428384796
sw,-36.6007766723632,-83.6414947509765,-1.52293753623962,22.9384326934814,428401463
sw,-36.9823989868164,-84.0408248901367,19.7932243347167,24.4184436798095,428418130
sw,-37.96626663208,-84.4458541870117,55.8030319213867,24.0295314788818,428434797
sw,-39.6648368835449,-84.8676452636718,98.7902755737304,24.1537151336669,428451464
sw,-42.1239929199218,-85.3336029052734,145.260879516601,26.2923698425292,428468131
sw,-44.3972778320312,-85.8647384643554,134.632461547851,29.7062072753906,428484798
sw,-46.5938110351562,-86.3768005371093,130.155288696289,27.5643138885498,428501465
sw,-49.4267120361328,-86.7501983642578,168.372970581054,19.2766895294189,428518132
sw,-51.5234603881835,-86.9721145629882,124.257423400878,11.5208511352539,428534799
sw,-52.5372352600097,-87.138442993164,59.2831344604492,9.66678237915039,428551466
sw,-52.5712814331054,-87.2090148925781,0.477314114570617,5.58200454711914,428568133
sw,-52.3683128356933,-87.0802001953125,-13.6154699325561,-5.06985902786254,428584800
sw,-52.5775527954101,-86.7425003051757,11.1340856552124,-19.1418323516845,428601467
sw,-53.41011428833,-86.1245574951171,48.4631156921386,-37.1483459472656,428618134
sw,-54.4766654968261,-85.3590240478515,62.3592109680175,-46.1947174072265,428634801
sw,-55.3390502929687,-84.7582092285156,50.2788734436035,-37.930850982666,428651468
sw,-56.2853317260742,-84.4113159179687,55.440143585205,-24.3084297180175,428668135
sw,-57.2751312255859,-84.1440505981445,57.6246795654296,-22.0200271606445,428684802
sw,-58.3144264221191,-83.5177154541015,60.6707763671875,-49.7406539916992,428701469
sw,-59.5511016845703,-82.2406387329101,72.6722717285156,-91.7673721313476,428718136
sw,-61.0892181396484,-79.9966964721679,90.7836227416992,-145.98892211914,428734803
sw,-62.4483985900878,-77.0608978271484,80.1974868774414,-181.715103149414,428751470
sw,-63.4228897094726,-74.1324996948242,57.3543357849121,-175.87254333496,428768137
sw,-64.1624908447265,-71.3412780761718,43.3003273010253,-162.04768371582,428784804
sw,-64.5945968627929,-68.5783386230468,24.5390033721923,-156.350845336914,428801471
sw,-64.8760757446289,-65.8670196533203,15.276062965393,-155.056350708007,428818138
sw,-65.1504516601562,-63.0541229248046,14.7878980636596,-168.847061157226,428834805
sw,-65.2995071411132,-59.9438171386718,7.3243236541748,-192.92739868164,428851472
sw,-65.5223922729492,-56.681396484375,11.7887363433837,-204.616592407226,428868139
sw,-65.9361572265625,-53.7543869018554,23.1292705535888,-184.140441894531,428884806
sw,-66.4695816040039,-51.3086051940918,29.8794918060302,-153.888977050781,428901473
sw,-67.0622177124023,-49.2327537536621,32.8346099853515,-131.255722045898,428918140
sw,-67.6027221679687,-47.5282936096191,29.1795444488525,-109.004196166992,428934807
sw,-68.0654983520507,-46.238971710205,24.5621738433837,-84.2122955322265,428951474
sw,-68.5045928955078,-45.3825645446777,23.6225414276123,-58.2803993225097,428968141
sw,-68.9590835571289,-44.9432334899902,25.014196395874,-33.2445983886718,428984808
sw,-69.4467391967773,-44.7429389953613,27.2871913909912,-19.7870540618896,429001475
sw,-69.9260940551757,-45.0926895141601,26.9505615234375,12.9882154464721,429018142
sw,-70.3782958984375,-45.8425903320312,25.3564872741699,36.1608734130859,429034809
sw,-70.8351516723632,-46.7996673583984,25.6475715637207,46.7300071716308,429051476
sw,-71.2846908569336,-48.4553642272949,25.2915325164794,88.3298873901367,429068143
sw,-71.6503753662109,-50.8567962646484,20.3665370941162,134.906906127929,429084810
sw,-71.9329605102539,-53.5596885681152,15.4524631500244,152.991073608398,429101477
sw,-72.1673126220703,-56.3957557678222,12.6813201904296,160.068817138671,429118144
sw,-72.3194198608398,-59.0450592041015,7.88527917861938,155.261001586914,429134811
sw,-72.454231262207,-61.2402839660644,6.65722513198852,134.99624633789,429151478
sw,-72.5743103027343,-62.1418762207031,5.43716430664062,55.8402099609375,429168145
sw,-72.6491012573242,-61.9091072082519,2.62698459625244,-20.9127254486084,429184812
sw,-72.5658187866211,-61.6148300170898,-6.75293064117431,-21.2409725189209,429201479
sw,-72.1734619140625,-61.8841361999511,-24.9944896697998,13.6098718643188,429218146
sw,-71.9611282348632,-63.269115447998,-13.8871660232543,75.3182754516601,429234813
sw,-71.8834381103515,-64.9654388427734,-5.95218658447265,97.3109512329101,429251480
sw,-71.1995239257812,-66.4752044677734,-42.7939262390136,86.8546676635742,429268147
sw,-69.7152023315429,-68.1338882446289,-91.2767791748046,97.2936859130859,429284814
sw,-68.0824203491211,-69.5879135131836,-100.176300048828,82.3814620971679,429301481
sw,-66.4427642822265,-71.2667999267578,-100.261444091796,96.0056762695312,429318148
sw,-64.678352355957,-73.1682968139648,-107.689186096191,110.862236022949,429334815
sw,-62.0816650390625,-74.8154525756836,-156.630584716796,96.4471588134765,429351482
sw,-58.9886779785156,-75.8312759399414,-184.766540527343,57.6393737792968,429368149
sw,-56.1351203918457,-76.4491729736328,-170.121871948242,30.0868034362792,429384816
sw,-54.12691116333,-77.0673675537109,-121.236228942871,28.825792312622,429401483
sw,-52.4993209838867,-77.8297500610351,-99.132453918457,39.86767578125,429418150
sw,-49.9053840637207,-78.5489883422851,-155.82453918457,39.8341445922851,429434817
sw,-47.2012672424316,-79.3301544189453,-161.395385742187,44.60400390625,429451484
sw,-44.8850173950195,-80.1735305786132,-138.063446044921,47.664436340332,429468151
sw,-42.9473915100097,-80.9000549316406,-115.658042907714,39.4682159423828,429484818
sw,-41.2389869689941,-81.5503616333007,-102.281173706054,35.4496955871582,429501485
sw,-39.606948852539,-82.0467300415039,-98.0769271850586,27.4496440887451,429518152
sw,-38.3035049438476,-82.4706344604492,-78.6834640502929,24.0368328094482,429534819
sw,-37.4982032775878,-82.9213562011718,-49.2757148742675,25.6256771087646,429551486
sw,-37.0134162902832,-83.3702850341796,-30.6283416748046,24.5128059387207,429568153
sw,-36.8426055908203,-83.8688888549804,-12.2769422531127,27.0309619903564,429584820
sw,-36.9886970520019,-84.373291015625,6.41377449035644,27.6711044311523,429601487
sw,-37.5955352783203,-84.8601608276367,33.9631996154785,27.0836353302001,429618154
sw,-38.8317985534668,-85.3574600219726,71.6751174926757,28.1050224304199,429634821
sw,-40.9296493530273,-85.9005966186523,123.712799072265,31.2773551940917,429651488
sw,-43.2830162048339,-86.4298782348632,139.625305175781,30.9531497955322,429668155
sw,-45.5306892395019,-86.8544006347656,133.318634033203,25.2384586334228,429684822
sw,-48.2055053710937,-87.1598587036132,158.83706665039,18.4913749694824,429701489
sw,-50.7672958374023,-87.396614074707,151.939575195312,13.5485372543334,429718156
sw,-52.4294967651367,-87.6228256225586,98.0405349731445,11.7454853057861,429734823
sw,-52.9285621643066,-87.8355407714843,28.1791324615478,10.6769514083862,429751490
sw,-52.8538551330566,-87.9387283325195,-6.26991558074951,3.55840015411376,429768157
sw,-52.949649810791,-87.8147506713867,4.37542486190795,-10.7814874649047,429784824
sw,-53.6618385314941,-87.4865112304687,41.3033103942871,-22.4370861053466,429801491
sw,-54.7353210449218,-86.9480895996093,62.9644622802734,-33.9310607910156,429818158
sw,-55.4931373596191,-86.3759384155273,43.8116836547851,-35.3678321838378,429834825
sw,-56.2433547973632,-85.9170684814453,43.570571899414,-28.7299995422363,429851492
sw,-57.0639686584472,-85.5559997558593,47.1963119506835,-23.4774532318115,429868159
sw,-57.9300384521484,-84.9882736206054,50.0466423034668,-36.5296669006347,429884826
sw,-58.8940048217773,-83.6858673095703,56.3185272216796,-79.8377304077148,429901493
sw,-60.1048736572265,-81.6903991699218,71.0104598999023,-119.409385681152,429918160
sw,-61.3258247375488,-78.8623657226562,71.6360931396484,-167.878326416015,429934827
sw,-62.325942993164,-75.7518463134765,58.6002082824707,-183.047409057617,429951494
sw,-63.2028007507324,-72.7682342529296,51.3192977905273,-172.174926757812,429968161
sw,-63.8810386657714,-69.84423828125,39.0114135742187,-164.425048828125,429984828
sw,-64.2717971801757,-67.0448913574218,21.5065746307373,-157.341659545898,430001495
sw,-64.5279693603515,-64.2152099609375,13.5003614425659,-166.384872436523,430018162
sw,-64.641128540039,-61.4078826904296,5.06207513809204,-174.689193725585,430034829
sw,-64.7193222045898,-58.3212089538574,3.03433036804199,-196.83055114746,430051496
sw,-64.9566650390625,-55.4669570922851,12.5624189376831,-183.699768066406,430068163
sw,-65.4225997924804,-53.0236320495605,26.1572589874267,-156.713745117187,430084830
sw,-66.0293655395507,-50.9733009338378,34.2717666625976,-131.949737548828,430101497
sw,-66.6854171752929,-49.2911529541015,36.7490348815918,-109.580215454101,430118164
sw,-67.3014373779296,-47.9243736267089,34.1359252929687,-90.23583984375,430134831
sw,-67.9322433471679,-46.9890823364257,35.1785583496093,-64.361343383789,430151498
sw,-68.5486907958984,-46.4480628967285,34.6133270263671,-41.3989830017089,430168165
sw,-69.0885238647461,-46.0982017517089,30.292179107666,-31.1917285919189,430184832
sw,-69.5414199829101,-46.0039291381835,25.2966041564941,-18.2711200714111,430201499
sw,-69.9713973999023,-46.2691268920898,24.0649948120117,2.46885418891906,430218166
sw,-70.4417877197265,-46.7701072692871,26.5572929382324,16.0654335021972,430234833
sw,-70.9213638305664,-47.8167076110839,27.1609840393066,50.4369316101074,430251500
sw,-71.3591156005859,-49.6185569763183,24.7063789367675,99.7533569335937,430268167
sw,-71.7406005859375,-51.6110877990722,21.3793392181396,110.892929077148,430284834
sw,-72.073860168457,-53.6404685974121,18.6242427825927,111.030548095703,430301501
sw,-72.3170013427734,-55.8681983947753,13.4572954177856,124.648292541503,430318168
sw,-72.4663162231445,-58.0279693603515,7.99207592010498,124.535919189453,430334835
sw,-72.610107421875,-59.9950790405273,7.48857402801513,116.532890319824,430351502
sw,-72.728775024414,-60.6787643432617,5.84783554077148,37.753116607666,430368169
sw,-72.7416000366211,-60.2834014892578,-0.518106758594512,-31.6826972961425,430384836
sw,-72.5280151367187,-59.7375793457031,-14.0088481903076,-37.7216033935546,430401503
sw,-72.2055358886718,-59.3334312438964,-20.2187232971191,-29.9141807556152,430418170
sw,-72.09521484375,-59.7537956237793,-7.85845375061035,15.8561563491821,430434837
sw,-72.0437469482421,-61.3251419067382,-5.57765579223632,86.3599090576171,430451504
sw,-71.9106140136718,-63.6968841552734,-11.1083192825317,138.063507080078,430468171
sw,-71.5382995605468,-65.4662857055664,-25.0698471069335,101.983703613281,430484838
sw,-70.7304611206054,-66.7232208251953,-50.8421821594238,71.8922042846679,430501505
sw,-69.4899826049804,-68.2299880981445,-76.4777297973632,84.8085479736328,430518172
sw,-67.7109375,-70.2171325683593,-108.229530334472,114.156127929687,430534839
sw,-65.6944427490234,-72.2053604125976,-121.809295654296,113.936042785644,430551506
sw,-63.2949867248535,-74.1444244384765,-142.852416992187,110.590713500976,430568173
sw,-60.162109375,-75.6687698364257,-183.805267333984,86.8968811035156,430584840
sw,-56.429027557373,-76.6901473999023,-218.146560668945,57.4050483703613,430601507
sw,-53.988052368164,-77.5838012695312,-144.756927490234,50.1472244262695,430618174
sw,-52.3120956420898,-78.7350234985351,-103.097381591796,67.7434692382812,430634841
sw,-50.0556755065918,-79.9231185913086,-136.861068725585,71.9688491821289,430651508
sw,-47.5283317565918,-80.8983459472656,-151.17236328125,58.2342262268066,430668175
sw,-45.296947479248,-81.7381820678711,-132.524276733398,46.5027885437011,430684842
sw,-43.4364967346191,-82.3797531127929,-110.249893188476,32.1024856567382,430701509
sw,-41.6855735778808,-82.9246292114257,-104.2265625,28.686237335205,430718176
sw,-40.0245895385742,-83.3426284790039,-99.4819946289062,23.0598373413085,430734843
sw,-38.5978889465332,-83.7413558959961,-85.9417953491211,22.3160610198974,430751510
sw,-37.7020149230957,-84.1716003417968,-54.6984901428222,24.2194728851318,430768177
sw,-37.2627410888671,-84.6117324829101,-27.9542846679687,25.0095806121826,430784844
sw,-37.1638603210449,-85.0305938720703,-8.04802417755127,24.4129314422607,430801511
sw,-37.4548454284668,-85.4332733154296,14.8396701812744,24.1406841278076,430818178
sw,-38.2531547546386,-85.8248672485351,44.7117576599121,23.4501991271972,430834845
sw,-39.9936065673828,-86.1795120239257,100.823913574218,20.0865592956542,430851512
sw,-42.2148704528808,-86.5264434814453,130.91941833496,18.0305156707763,430868179
sw,-44.2713470458984,-86.8953781127929,121.740211486816,18.1671962738037,430884846
sw,-46.6032562255859,-87.2322540283203,138.304534912109,16.1352443695068,430901513
sw,-49.2180938720703,-87.4959564208984,154.915298461914,13.1385297775268,430918180
sw,-51.3292503356933,-87.7208480834961,124.974472045898,12.5755786895751,430934847
sw,-52.7161788940429,-87.8921585083007,81.6341934204101,10.6216745376586,430951514
sw,-53.1116828918457,-87.9346466064453,21.5513477325439,4.3166480064392,430968181
sw,-53.3299674987793,-87.7791290283203,11.1291437149047,-8.32724857330322,430984848
sw,-54.1653175354003,-87.4799041748046,48.4318046569824,-20.2060890197753,431001515
sw,-55.3439559936523,-87.0434265136718,69.7964935302734,-30.8049869537353,431018182
sw,-56.1128578186035,-86.5041427612304,45.1149101257324,-37.9461975097656,431034849
sw,-56.8655433654785,-86.0296096801757,42.6490097045898,-32.986587524414,431051516
sw,-57.7097244262695,-85.3675537109375,47.3828468322753,-42.510398864746,431068183
sw,-58.8245811462402,-83.9998550415039,64.8283157348632,-84.8942489624023,431084850
sw,-60.2185974121093,-81.9848937988281,82.1802978515625,-124.329200744628,431101517
sw,-61.8325080871582,-79.0554580688476,95.2368621826171,-178.540298461914,431118184
sw,-63.0912704467773,-75.7471694946289,74.0348205566406,-199.075988769531,431134851
sw,-63.8946914672851,-72.6539840698242,46.7361602783203,-182.729522705078,431151518
sw,-64.3536987304687,-69.7565155029296,26.0084705352783,-165.15673828125,431168185
sw,-64.5723114013671,-67.0489501953125,11.5556097030639,-150.344543457031,431184852
sw,-64.7626266479492,-64.2789535522461,9.85691738128662,-158.934249877929,431201519
sw,-65.0726470947265,-61.439151763916,17.0234279632568,-171.968719482421,431218186
sw,-65.44140625,-58.4300422668457,20.5374889373779,-186.763900756835,431234853
sw,-65.8947525024414,-55.5469169616699,25.5986824035644,-180.393905639648,431251520
sw,-66.5161514282226,-53.0443267822265,35.4866256713867,-156.961837768554,431268187
sw,-67.2214202880859,-50.8013801574707,40.1694374084472,-140.378616333007,431284854
sw,-67.8193817138671,-48.7815513610839,33.5324478149414,-126.167366027832,431301521
sw,-68.2074279785156,-47.1603546142578,20.9933166503906,-102.21720123291,431318188
sw,-68.4686584472656,-46.1374740600585,13.5342369079589,-67.6821517944336,431334855
sw,-68.7601470947265,-45.5736579895019,15.5510740280151,-41.7413101196289,431351522
sw,-69.0712280273437,-45.2664680480957,16.961986541748,-28.439037322998,431368189
sw,-69.39794921875,-45.2749900817871,18.0515174865722,-11.2888641357421,431384856
sw,-69.7950439453125,-45.5630111694335,22.2697143554687,4.26139211654663,431401523
sw,-70.2199096679687,-46.2755889892578,23.8255290985107,29.7466316223144,431418190
sw,-70.5963516235351,-47.6309547424316,20.8176860809326,70.3614425659179,431434857
sw,-70.9765701293945,-49.548957824707,20.9933624267578,105.468208312988,431451524
sw,-71.373664855957,-51.7326622009277,22.1114120483398,120.219734191894,431468191
sw,-71.7198638916015,-54.0756874084472,19.3028373718261,131.443206787109,431484858
sw,-71.9900741577148,-56.5301322937011,14.8871688842773,141.995986938476,431501525
sw,-72.2463912963867,-58.5601997375488,13.9943876266479,119.563255310058,431518192
sw,-72.460334777832,-60.2213745117187,11.2660970687866,96.9741973876953,431534859
sw,-72.5287399291992,-60.8108558654785,2.49907755851745,31.2802352905273,431551526
sw,-72.5053405761718,-60.6007118225097,-2.88172578811645,-17.9325447082519,431568193
sw,-72.3998947143554,-60.1864128112793,-7.69069671630859,-28.165807723999,431584860
sw,-72.3276977539062,-59.9854660034179,-5.84609365463256,-18.0292453765869,431601527
sw,-72.5032196044921,-60.582103729248,8.37748336791992,25.2460803985595,431618194
sw,-72.7815856933593,-62.3419456481933,13.9991006851196,98.1446456909179,431634861
sw,-72.9664306640625,-64.3227844238281,8.3649263381958,114.51821899414,431651528
sw,-72.7553787231445,-65.6532592773437,-15.0267839431762,74.6679763793945,431668195
sw,-71.956802368164,-66.9472579956054,-49.8472557067871,71.8370895385742,431684862
sw,-70.6311264038086,-68.5844116210937,-81.0965805053711,91.1706848144531,431701529
sw,-69.0287933349609,-70.5238876342773,-97.4945831298828,110.66446685791,431718196
sw,-67.1463165283203,-72.4691696166992,-114.060188293457,111.959152221679,431734863
sw,-65.0257568359375,-74.240478515625,-126.725746154785,101.5279006958,431751530
sw,-62.2503776550293,-75.5732879638671,-163.025390625,75.2806549072265,431768197
sw,-58.895336151123,-76.5217590332031,-196.457046508789,52.4977188110351,431784864
sw,-56.1736373901367,-77.4849319458007,-160.19627380371,53.5601806640625,431801531
sw,-54.1390800476074,-78.5878601074218,-122.810874938964,63.9730148315429,431818198
sw,-52.2121772766113,-79.7063446044921,-118.85765838623,66.0433502197265,431834865
sw,-49.8271331787109,-80.7803649902343,-145.550155639648,62.9398460388183,431851532
sw,-47.4087753295898,-81.6071014404296,-146.275970458984,46.2370872497558,431868199
sw,-45.2503395080566,-82.1552200317382,-129.893188476562,27.9158668518066,431884866
sw,-43.3454055786132,-82.5268249511718,-114.314338684082,18.789113998413,431901533
sw,-41.6308250427246,-82.8313369750976,-102.939430236816,16.4735641479492,431918200
sw,-40.0918464660644,-83.2174530029296,-92.771987915039,21.7893486022949,431934867
sw,-38.986228942871,-83.6780242919921,-67.3383712768554,26.0199146270751,431951534
sw,-38.3141136169433,-84.0967483520507,-41.9434700012207,23.7361087799072,431968201
sw,-37.9517250061035,-84.4959106445312,-23.7995357513427,23.3024101257324,431984868
sw,-37.8828353881835,-84.8503036499023,-6.51172161102294,20.9664497375488,432001535
sw,-38.1586608886718,-85.1198272705078,13.9045639038085,15.4324083328247,432018202
sw,-38.9798164367675,-85.3038558959961,46.4979248046875,9.79210376739502,432034869
sw,-40.5861625671386,-85.4979782104492,93.7518920898437,9.92826271057128,432051536
sw,-42.769660949707,-85.7647857666015,129.082244873046,13.9179534912109,432068203
sw,-44.7283668518066,-86.0509719848632,115.854774475097,14.779197692871,432084870
sw,-46.8855400085449,-86.3474197387695,127.800788879394,15.337794303894,432101537
sw,-49.3447952270507,-86.6575393676757,146.008102416992,17.0041446685791,432118204
sw,-51.5049247741699,-86.9280776977539,128.07632446289,15.9534664154052,432134871
sw,-52.42964553833,-87.0970077514648,53.9669609069824,11.4470987319946,432151538
sw,-52.2658157348632,-87.1491317749023,-11.2718839645385,5.23030519485473,432168205
sw,-52.1850891113281,-87.1350860595703,-6.34181499481201,1.36939454078674,432184872
sw,-52.5439491271972,-87.0097122192382,20.0588817596435,-5.76860904693603,432201539
sw,-53.3645286560058,-86.7549057006836,47.861083984375,-16.1249275207519,432218206
sw,-54.3934020996093,-86.4413070678711,59.9196395874023,-22.6044654846191,432234873
sw,-55.4489021301269,-86.1608963012695,61.8085136413574,-20.8178691864013,432251540
sw,-56.5129737854003,-85.7951431274414,62.8125038146972,-24.7626113891601,432268207
sw,-57.6558761596679,-85.0195693969726,67.5271759033203,-52.9058189392089,432284874
sw,-58.9547386169433,-83.5923156738281,76.526138305664,-96.4811096191406,432301541
sw,-60.4128952026367,-81.3933486938476,85.7815933227539,-140.802001953125,432318208
sw,-61.7513732910156,-78.4015731811523,78.9059829711914,-182.664962768554,432334875
sw,-62.5936431884765,-75.291389465332,49.4311065673828,-183.795043945312,432351542
sw,-63.1493606567382,-72.368667602539,32.3710021972656,-166.697860717773,432368209
sw,-63.6115608215332,-69.5887374877929,26.2635040283203,-153.533874511718,432384876
sw,-64.0184173583984,-66.9004364013671,22.2470207214355,-149.40916442871,432401543
sw,-64.4225311279296,-64.1278915405273,21.8913593292236,-164.792297363281,432418210
sw,-64.8971252441406,-61.0270156860351,26.3169937133789,-192.808654785156,432434877
sw,-65.368049621582,-57.6743354797363,26.3894939422607,-211.500167846679,432451544
sw,-65.8433532714843,-54.61861038208,26.7545566558837,-193.562667846679,432468211
sw,-66.3272323608398,-52.0086631774902,27.0976295471191,-165.543319702148,432484878
sw,-66.8132781982421,-49.7675666809082,26.805850982666,-143.374694824218,432501545
sw,-67.2060394287109,-47.9414329528808,20.7683048248291,-117.699867248535,432518212
sw,-67.4925918579101,-46.5820732116699,14.1861743927001,-89.9871673583984,432534879
sw,-67.7915573120117,-45.717903137207,15.0821952819824,-60.4377555847168,432551546
sw,-68.2034454345703,-45.1244087219238,22.2593841552734,-44.4036521911621,432568213
sw,-68.7382278442382,-44.7899513244628,29.9115943908691,-30.2593402862548,432584880
sw,-69.2730941772461,-44.9556198120117,29.9834079742431,-1.78630220890045,432601547
sw,-69.7547912597656,-45.3002967834472,26.7560920715332,7.63264417648315,432618214
sw,-70.2121658325195,-46.0273513793945,25.231216430664,31.0218791961669,432634881
sw,-70.667366027832,-47.5708694458007,25.2249145507812,84.3604278564453,432651548
sw,-71.062385559082,-49.5607070922851,21.8913211822509,113.412170410156,432668215
sw,-71.3678207397461,-51.792194366455,16.8671722412109,124.245567321777,432684882
sw,-71.6517028808593,-54.2382202148437,15.9295673370361,137.48794555664,432701549
sw,-71.892707824707,-56.7362594604492,13.7859096527099,145.111999511718,432718216
sw,-71.9799270629882,-58.5761680603027,4.6930661201477,106.365341186523,432734883
sw,-71.9445724487304,-59.9750709533691,-2.93821382522583,79.5584640502929,432751550
sw,-71.8897323608398,-60.1025657653808,-4.2225489616394,2.79320216178894,432768217
sw,-71.822639465332,-59.6867713928222,-4.81114482879638,-29.0145149230957,432784884
sw,-71.6788711547851,-59.2129669189453,-9.55555343627929,-30.7189064025878,432801551
sw,-71.6641006469726,-59.2017173767089,-2.08231520652771,-8.07730865478515,432818218
sw,-71.8148422241211,-60.2055435180664,6.55440330505371,50.652244567871,432834885
sw,-71.8091659545898,-62.4296150207519,-4.23259592056274,126.854179382324,432851552
sw,-71.3102264404296,-64.8841781616211,-33.6795043945312,143.556198120117,432868219
sw,-70.2902603149414,-66.5038146972656,-64.4271087646484,93.5920104980468,432884886
sw,-68.8610153198242,-68.1006164550781,-88.6565704345703,89.9299240112304,432901553
sw,-67.0323333740234,-69.883918762207,-111.866645812988,99.9605865478515,432918220
sw,-65.0328292846679,-71.8218383789062,-120.914390563964,110.613006591796,432934887
sw,-62.7736930847168,-73.5863265991211,-133.838424682617,101.122856140136,432951554
sw,-59.7797164916992,-74.8806838989257,-174.166854858398,73.5978851318359,432968221
sw,-56.401870727539,-75.7274703979492,-196.079620361328,46.3418884277343,432984888
sw,-53.9102897644043,-76.421142578125,-147.295043945312,37.5441246032714,433001555
sw,-52.3647232055664,-77.2916488647461,-94.9944839477539,49.4925956726074,433018222
sw,-50.2333183288574,-78.4601898193359,-129.827667236328,68.8755493164062,433034889
sw,-47.7524490356445,-79.5755310058593,-149.220779418945,65.7457046508789,433051556
sw,-45.3903083801269,-80.5008163452148,-141.17919921875,52.778263092041,433068223
sw,-43.3025817871093,-81.18994140625,-124.395202636718,37.8376007080078,433084890
sw,-41.4451789855957,-81.661865234375,-110.830963134765,26.3902931213378,433101557
sw,-39.8023109436035,-82.022476196289,-98.5567321777343,20.8061847686767,433118224
sw,-38.4404754638671,-82.274673461914,-82.4026947021484,14.047583580017,433134891
sw,-37.4756164550781,-82.5439682006836,-59.3870697021484,14.5501098632812,433151558
sw,-37.0912170410156,-82.8462982177734,-25.2956409454345,16.8493251800537,433168225
sw,-37.0278434753418,-83.1887664794921,-6.47136688232421,19.9460716247558,433184892
sw,-37.1892585754394,-83.5292282104492,6.74025440216064,20.0461406707763,433201559
sw,-37.6961212158203,-83.8541412353515,27.2747726440429,18.8183822631835,433218226
sw,-38.7514419555664,-84.182502746582,60.167423248291,18.1918029785156,433234893
sw,-40.636360168457,-84.4881820678711,110.244636535644,15.7795553207397,433251560
sw,-42.8620071411132,-84.7158432006836,131.670913696289,10.5001792907714,433268227
sw,-45.1239166259765,-84.8955841064453,134.064956665039,7.56872844696044,433284894
sw,-47.611946105957,-85.0497970581054,147.602508544921,6.25758790969848,433301561
sw,-50.052749633789,-85.222053527832,144.895309448242,8.55786323547363,433318228
sw,-51.8617897033691,-85.4220886230468,107.069671630859,11.5494756698608,433334895
sw,-52.3818550109863,-85.7401657104492,29.8008632659912,18.7746868133544,433351562
sw,-52.0988044738769,-86.0972595214843,-18.3058032989501,20.7409133911132,433368229
sw,-51.973648071289,-86.3112411499023,-9.07513332366943,12.5434494018554,433384896
sw,-52.3081703186035,-86.3068466186523,18.7216815948486,-0.162500441074371,433401563
sw,-53.2859497070312,-86.0736465454101,57.6040077209472,-14.2825698852539,433418230
sw,-54.5017280578613,-85.7375030517578,71.3904418945312,-22.4438800811767,433434897
sw,-55.4536247253418,-85.4968566894531,56.343505859375,-18.0859718322753,433451564
sw,-56.5817642211914,-85.3012619018554,67.2590560913086,-16.1796894073486,433468231
sw,-57.8091850280761,-84.9314804077148,72.950813293457,-29.6226329803466,433484898
sw,-59.1025924682617,-83.971435546875,76.4511566162109,-67.2900924682617,433501565
sw,-60.4786834716796,-82.2586898803711,81.2298583984375,-109.390396118164,433518232
sw,-61.7580184936523,-79.6462860107421,75.814224243164,-157.775329589843,433534899
sw,-62.6560935974121,-76.5780487060546,53.1026077270507,-180.047042846679,433551566
sw,-63.3621482849121,-73.6563949584961,41.468635559082,-166.988235473632,433568233
sw,-63.9177780151367,-70.9241561889648,31.8998107910156,-152.436935424804,433584900
sw,-64.3792114257812,-68.2733459472656,25.3798484802246,-148.172393798828,433601567
sw,-64.8378524780273,-65.6032485961914,24.7784595489501,-156.527572631835,433618234
sw,-65.3191375732421,-62.753490447998,26.2027492523193,-177.244934082031,433634901
sw,-65.6672286987304,-59.6456184387207,18.6311244964599,-197.332092285156,433651568
sw,-66.0608291625976,-56.679832458496,21.8553810119628,-190.008483886718,433668235
sw,-66.4894256591796,-54.0527534484863,23.8420791625976,-169.036331176757,433684902
sw,-66.8783340454101,-51.8833541870117,20.7273387908935,-140.737899780273,433701569
sw,-67.1367416381836,-50.0206718444824,11.9621057510375,-121.702117919921,433718236
sw,-67.327522277832,-48.5345039367675,7.35334587097168,-98.7211761474609,433734903
sw,-67.5340728759765,-47.4656829833984,8.46532440185546,-73.7012863159179,433751570
sw,-67.8308029174804,-46.6470031738281,14.413007736206,-59.1650733947753,433768237
sw,-68.1890716552734,-45.9882736206054,18.5762100219726,-50.8633766174316,433784904
sw,-68.555435180664,-45.5689239501953,19.2558422088623,-38.114143371582,433801571
sw,-68.8951187133789,-45.6744194030761,17.6225395202636,-7.71941995620727,433818238
sw,-69.1909790039062,-46.1174964904785,15.1263847351074,13.3104734420776,433834905
sw,-69.4266815185546,-47.0081214904785,11.846224784851,42.1665267944335,433851572
sw,-69.6158065795898,-48.7194099426269,9.42276859283447,96.0456619262695,433868239
sw,-69.7572479248046,-50.7966804504394,7.08671045303344,118.184692382812,433884906
sw,-69.7438812255859,-52.9656867980957,-1.41514122486114,120.498756408691,433901573
sw,-69.5890274047851,-55.5531501770019,-9.29568576812744,147.85203552246,433918240
sw,-69.4534149169921,-57.9365692138671,-7.87062931060791,138.286422729492,433934907
sw,-69.4190826416015,-60.0181312561035,-2.226820230484,121.172584533691,433951574
sw,-69.505386352539,-61.152359008789,4.0512957572937,65.9004287719726,433968241
sw,-69.7186737060546,-60.7567176818847,11.0793800354003,-28.8246002197265,433984908
sw,-69.9855041503906,-60.244945526123,14.2635164260864,-35.474308013916,434001575
sw,-70.0735168457031,-59.7151832580566,3.17672681808471,-34.9747619628906,434018242
sw,-70.2363967895507,-59.6782798767089,7.02127408981323,-10.182050704956,434034909
sw,-70.462043762207,-60.6245803833007,10.1520891189575,46.6335144042968,434051576
sw,-70.3676300048828,-62.7090110778808,-9.31421279907226,119.631408691406,434068243
sw,-69.7605514526367,-64.8127212524414,-39.8895416259765,122.321655273437,434084910
sw,-68.7838973999023,-66.2996597290039,-61.9687309265136,83.6963958740234,434101577
sw,-67.3744125366211,-67.8297348022461,-87.2688064575195,84.1301193237304,434118244
sw,-65.6632232666015,-69.8853759765625,-105.136795043945,114.220100402832,434134911
sw,-63.6859703063964,-72.0822067260742,-121.016830444335,125.284484863281,434151578
sw,-61.1626243591308,-74.1561965942382,-151.735290527343,119.33129119873,434168245
sw,-57.9185562133789,-75.6080093383789,-191.00666809082,83.1565399169921,434184912
sw,-54.2563285827636,-76.3120727539062,-214.23779296875,37.779010772705,434201579
sw,-52.210693359375,-76.8690414428711,-121.969909667968,29.0937919616699,434218246
sw,-50.553367614746,-77.6327438354492,-101.106079101562,42.6749687194824,434234913
sw,-48.1151161193847,-78.7366638183593,-145.831802368164,66.5002899169921,434251580
sw,-45.5237579345703,-79.7916488647461,-153.391891479492,62.781322479248,434268247
sw,-43.1843719482421,-80.8117523193359,-137.885345458984,57.7252502441406,434284914
sw,-41.334056854248,-81.5790405273437,-108.784057617187,40.7985725402832,434301581
sw,-39.6747589111328,-82.0790786743164,-98.1302185058593,26.5314617156982,434318248
sw,-38.2032890319824,-82.3918685913086,-87.7472457885742,16.5549964904785,434334915
sw,-36.9722938537597,-82.6134490966796,-74.0624618530273,11.4631404876708,434351582
sw,-36.2747917175293,-82.8279724121093,-42.9014358520507,11.146201133728,434368249
sw,-36.0670890808105,-83.0866394042968,-14.3152933120727,14.1266660690307,434384916
sw,-36.150291442871,-83.4637298583984,2.62855005264282,21.6880149841308,434401583
sw,-36.5201911926269,-83.8796844482421,19.4061164855957,24.1722164154052,434418250
sw,-37.3359947204589,-84.2537002563476,45.8352584838867,21.3477230072021,434434917
sw,-38.8091087341308,-84.6253128051757,85.1322784423828,20.4482040405273,434451584
sw,-41.0410194396972,-85.0825119018554,131.637603759765,24.7082805633544,434468251
sw,-43.411563873291,-85.6159057617187,140.670455932617,28.8651618957519,434484918
sw,-45.8480415344238,-86.1213150024414,144.583724975585,27.1938648223876,434501585
sw,-48.2937049865722,-86.6055831909179,145.006790161132,26.3072891235351,434518252
sw,-50.6035385131835,-87.0427627563476,137.04914855957,24.0635967254638,434534919
sw,-51.6924514770507,-87.365966796875,63.7427062988281,17.7318878173828,434551586
sw,-51.7261810302734,-87.5615310668945,0.369111359119415,10.713565826416,434568253
sw,-51.5726737976074,-87.6067428588867,-10.5836019515991,2.74949812889099,434584920
sw,-51.8808250427246,-87.3551406860351,17.1160202026367,-14.6051778793334,434601587
sw,-52.6793937683105,-86.7892303466796,46.401985168457,-33.0461883544921,434618254
sw,-53.8807182312011,-86.0135650634765,70.4110946655273,-45.8744926452636,434634921
sw,-54.8169937133789,-85.3262634277343,54.679443359375,-41.7500495910644,434651588
sw,-55.725772857666,-84.8358993530273,53.4022750854492,-31.8768558502197,434668255
sw,-56.7497787475585,-84.4140472412109,59.926830291748,-29.2090454101562,434684922
sw,-57.7779159545898,-83.5074386596679,59.9157447814941,-59.7462730407714,434701589
sw,-58.9499893188476,-82.0347671508789,68.7104568481445,-93.8179626464843,434718256
sw,-60.4664993286132,-79.7732467651367,89.4624710083007,-138.531906127929,434734923
sw,-61.8692970275878,-76.9289169311523,82.7806396484375,-169.820251464843,434751590
sw,-62.8495903015136,-73.9855270385742,57.4915542602539,-172.28303527832,434768257
sw,-63.5330009460449,-71.0558319091796,39.7096939086914,-167.873046875,434784924
sw,-63.9188423156738,-68.091567993164,21.5999450683593,-167.392440795898,434801591
sw,-64.0678939819336,-65.1619796752929,7.24036502838134,-168.676193237304,434818258
sw,-64.2292327880859,-62.2845497131347,8.00996875762939,-174.485000610351,434834925
sw,-64.2793350219726,-59.2374267578125,1.34281516075134,-190.735534667968,434851592
sw,-64.4174118041992,-56.1271858215332,6.5809359550476,-196.38801574707,434868259
sw,-64.8162231445312,-53.3628540039062,22.1754169464111,-175.099502563476,434884926
sw,-65.4267349243164,-50.9568176269531,34.7080078125,-152.309005737304,434901593
sw,-66.0630340576171,-48.8685989379882,35.7260360717773,-132.628128051757,434918260
sw,-66.5388717651367,-47.2726402282714,25.5469894409179,-101.737045288085,434934927
sw,-66.8574066162109,-46.2307968139648,16.1231136322021,-67.561294555664,434951594
sw,-67.1623611450195,-45.5887794494628,15.707763671875,-43.1745109558105,434968261
sw,-67.5285415649414,-45.173484802246,19.8709716796875,-30.2466316223144,434984928
sw,-67.8789443969726,-44.8937263488769,19.3323955535888,-25.2595233917236,435001595
sw,-68.1675262451171,-45.0755271911621,15.8030443191528,0.0778053477406501,435018262
sw,-68.424934387207,-45.520263671875,13.8396196365356,14.9860382080078,435034929
sw,-68.6905288696289,-46.3708152770996,14.2430734634399,39.3867149353027,435051596
sw,-68.9740905761718,-47.883544921875,15.4179754257202,81.0806884765625,435068263
sw,-69.2026443481445,-50.2234725952148,12.386339187622,132.740646362304,435084930
sw,-69.3678359985351,-52.9817657470703,8.92005252838134,158.924392700195,435101597
sw,-69.4922943115234,-55.9195671081543,6.73757648468017,168.009399414062,435118264
sw,-69.6073913574218,-58.4312858581543,6.25864171981811,146.977493286132,435134931
sw,-69.7042922973632,-60.3869247436523,4.98426580429077,120.950012207031,435151598
sw,-69.8279647827148,-61.0522346496582,6.25388860702514,41.263874053955,435168265
sw,-69.8617324829101,-60.6651382446289,0.95062232017517,-32.1755599975585,435184932
sw,-69.6948318481445,-60.0094757080078,-10.8598976135253,-45.7496643066406,435201599
sw,-69.2151412963867,-59.4716110229492,-29.1426792144775,-36.9042053222656,435218266
sw,-68.9029846191406,-59.6431121826171,-19.3762798309326,1.35691475868225,435234933
sw,-68.6280975341796,-60.8798828125,-18.0981330871582,65.5571136474609,435251600
sw,-68.0525665283203,-62.952651977539,-37.012409210205,121.701065063476,435268267
sw,-67.0811157226562,-64.3956451416015,-61.6586036682128,83.9649887084961,435284934
sw,-65.7250900268554,-65.4620132446289,-85.0168228149414,59.1073112487793,435301601
sw,-63.7525367736816,-66.6749801635742,-121.403457641601,65.7222290039062,435318268
sw,-61.3704795837402,-68.2679595947265,-145.108428955078,88.1768722534179,435334935
sw,-58.469669342041,-70.2388153076171,-173.876846313476,112.29441833496,435351602
sw,-54.650291442871,-72.604133605957,-224.353225708007,137.822463989257,435368269
sw,-50.9282455444335,-74.6194229125976,-215.080963134765,116.678810119628,435384936
sw,-49.0066680908203,-75.5589904785156,-113.725524902343,51.111831665039,435401603
sw,-47.1082458496093,-75.9140853881836,-115.403945922851,17.045820236206,435418270
sw,-44.3956871032714,-76.4706573486328,-161.685256958007,31.9387302398681,435434937
sw,-41.5766716003418,-77.1389389038086,-164.69107055664,40.8652915954589,435451604
sw,-39.5090217590332,-77.9115295410156,-118.284523010253,46.4880409240722,435468271
sw,-37.8867568969726,-78.7211151123046,-92.1669921875,44.3489570617675,435484938
sw,-36.5392341613769,-79.3846435546875,-77.1668395996093,34.1331176757812,435501605
sw,-35.586986541748,-80.1009216308593,-55.033821105957,39.8433113098144,435518272
sw,-34.7639923095703,-80.5247726440429,-48.0963821411132,23.5710983276367,435534939
sw,-34.2763481140136,-80.6994476318359,-28.6468257904052,8.81076145172119,435551606
sw,-34.3111877441406,-80.9358367919921,1.68100762367248,12.3050994873046,435568273
sw,-34.5290946960449,-81.279426574707,11.5775232315063,18.8121871948242,435584940
sw,-34.8984184265136,-81.7411804199218,19.7707481384277,26.2602233886718,435601607
sw,-35.7656669616699,-82.2358093261718,48.9446144104003,28.4982318878173,435618274
sw,-37.3901824951171,-82.7655715942382,93.8746490478515,30.4473781585693,435634941
sw,-39.7228965759277,-83.3986511230468,136.873336791992,36.1427001953125,435651608
sw,-42.3652381896972,-84.1011276245117,156.907089233398,39.9471054077148,435668275
sw,-44.5326080322265,-84.8089141845703,128.621353149414,40.0909805297851,435684942
sw,-46.9432296752929,-85.5094375610351,143.004577636718,39.6608009338378,435701609
sw,-49.3853073120117,-86.1139526367187,144.694396972656,34.0033531188964,435718276
sw,-50.7960090637207,-86.5583801269531,83.0194778442382,24.5629425048828,435734943
sw,-51.2051086425781,-86.875503540039,23.1266555786132,17.2064208984375,435751610
sw,-51.0489311218261,-86.8856735229492,-10.6657724380493,-1.03713774681091,435768277
sw,-51.069538116455,-86.5050354003906,-0.144918665289878,-24.1020202636718,435784944
sw,-51.7348022460937,-85.8178405761718,38.3204116821289,-41.0620231628418,435801611
sw,-52.9411163330078,-84.8039398193359,70.2233581542968,-58.3997840881347,435818278
sw,-53.8855438232421,-83.6932067871093,54.710090637207,-63.9463577270507,435834945
sw,-54.4789962768554,-82.7665710449218,34.8638267517089,-55.4467430114746,435851612
sw,-55.3043785095214,-82.1409301757812,48.68941116333,-41.0953483581543,435868279
sw,-56.1774673461914,-81.5982818603515,51.0281372070312,-39.1074752807617,435884946
sw,-56.9043159484863,-80.6943588256836,42.0953407287597,-60.912986755371,435901613
sw,-57.8131446838378,-79.2135848999023,52.9949531555175,-92.7678451538086,435918280
sw,-59.0049858093261,-76.7664642333984,69.9468765258789,-147.194015502929,435934947
sw,-60.2986793518066,-73.8781509399414,76.1865539550781,-170.433044433593,435951614
sw,-61.5424308776855,-70.7762298583984,73.5484313964843,-179.618911743164,435968281
sw,-62.4996070861816,-67.7250213623046,56.1301765441894,-172.660263061523,435984948
sw,-62.9700889587402,-64.6926956176757,26.3275279998779,-170.425186157226,436001615
sw,-63.2645797729492,-61.7861976623535,15.7168684005737,-169.056930541992,436018282
sw,-63.4162292480468,-58.8228607177734,7.30938911437988,-182.598602294921,436034949
sw,-63.3445281982421,-55.5478019714355,-5.95428419113159,-207.442031860351,436051616
sw,-63.3658294677734,-52.5900611877441,-0.389123827219009,-188.548675537109,436068283
sw,-63.6727104187011,-50.2320518493652,16.4700622558593,-151.947814941406,436084950
sw,-64.2184982299804,-48.3435554504394,30.1808376312255,-123.343231201171,436101617
sw,-64.847183227539,-46.8253440856933,34.2419929504394,-100.849456787109,436118284
sw,-65.4928741455078,-45.6866111755371,34.6202926635742,-76.4221267700195,436134951
sw,-66.090950012207,-44.9754028320312,31.9027004241943,-49.4854164123535,436151618
sw,-66.5964889526367,-44.5996932983398,27.0273933410644,-29.148136138916,436168285
sw,-66.9820098876953,-44.2253990173339,20.5380477905273,-30.2506275177001,436184952
sw,-67.2788467407226,-44.0765419006347,15.7304725646972,-19.6385021209716,436201619
sw,-67.5761947631836,-44.2594528198242,16.0227146148681,-2.01270747184753,436218286
sw,-67.9033203125,-44.7251167297363,17.9247188568115,14.3034925460815,436234953
sw,-68.237678527832,-45.7163009643554,18.4635620117187,47.0919189453125,436251620
sw,-68.583625793457,-47.3891983032226,19.218147277832,92.3807144165039,436268287
sw,-68.9518890380859,-49.8479652404785,20.611759185791,143.009140014648,436284954
sw,-69.2520141601562,-52.4442634582519,16.7144184112548,147.568099975585,436301621
sw,-69.42431640625,-55.2078704833984,9.21224594116211,156.915008544921,436318288
sw,-69.5998382568359,-57.8927459716796,9.3272123336792,159.175750732421,436334955
sw,-69.8253555297851,-59.9703521728515,12.2668008804321,126.42552947998,436351622
sw,-70.0213088989257,-60.4839057922363,10.5095291137695,26.8167381286621,436368289
sw,-70.0875396728515,-59.9363174438476,2.87215065956115,-41.8385467529296,436384956
sw,-69.9144897460937,-59.3423919677734,-11.2092180252075,-39.2916679382324,436401623
sw,-69.5566940307617,-58.9516487121582,-22.0293846130371,-27.3408317565917,436418290
sw,-69.4587249755859,-59.4044303894043,-6.93132495880126,17.9122219085693,436434957
sw,-69.4509887695312,-61.0222015380859,-2.59212136268615,88.6077423095703,436451624
sw,-69.2865524291992,-63.4031715393066,-12.5101041793823,139.337966918945,436468291
sw,-68.7042770385742,-65.0500411987304,-37.5654563903808,96.4752960205078,436484958
sw,-67.6737747192382,-66.3668365478515,-64.6085205078125,75.898193359375,436501625
sw,-66.1860427856445,-67.922622680664,-91.4704360961914,87.7647476196289,436518292
sw,-64.3126449584961,-69.9766616821289,-114.060722351074,118.243728637695,436534959
sw,-62.2755889892578,-72.0985260009765,-123.021270751953,122.834121704101,436551626
sw,-59.612190246582,-73.913589477539,-158.162475585937,105.268547058105,436568293
sw,-56.134708404541,-75.0078659057617,-203.502349853515,62.0529174804687,436584960
sw,-53.0211219787597,-75.7169036865234,-181.154388427734,38.6120262145996,436601627
sw,-51.3368415832519,-76.3939971923828,-101.057640075683,37.6212692260742,436618294
sw,-49.6370773315429,-77.3056488037109,-104.366950988769,52.7966270446777,436634961
sw,-47.1815452575683,-78.3163223266601,-149.006301879882,59.4808540344238,436651628
sw,-44.7776832580566,-79.2062911987304,-144.932891845703,51.1805076599121,436668295
sw,-42.7548599243164,-79.865852355957,-121.68359375,36.0132942199707,436684962
sw,-41.0618133544921,-80.4244308471679,-101.858840942382,30.5667743682861,436701629
sw,-39.5599708557128,-80.958023071289,-90.649543762207,30.758674621582,436718296
sw,-38.1785125732421,-81.380126953125,-83.8610382080078,23.9809398651123,436734963
sw,-37.0556755065918,-81.6687927246093,-68.8659057617187,15.4600000381469,436751630
sw,-36.4557342529296,-81.9153213500976,-38.1334152221679,12.9239721298217,436768297
sw,-36.2046012878418,-82.1262283325195,-17.7535209655761,11.2843618392944,436784964
sw,-36.1991271972656,-82.3449630737304,-3.33130240440368,12.4742784500122,436801631
sw,-36.4848556518554,-82.6198806762695,13.9643716812133,16.0837879180908,436818298
sw,-37.2111434936523,-82.8936996459961,40.3612098693847,15.5361394882202,436834965
sw,-38.6040573120117,-83.0956726074218,80.4457321166992,10.527735710144,436851632
sw,-40.5803108215332,-83.2699661254882,115.904838562011,8.44477939605712,436868299
sw,-42.6952934265136,-83.4431533813476,125.171524047851,7.95319271087646,436884966
sw,-44.7338905334472,-83.584976196289,120.633392333984,5.83992576599121,436901633
sw,-47.0540008544921,-83.7084808349609,137.409439086914,5.08860158920288,436918300
sw,-49.3527679443359,-83.8809967041015,136.282897949218,8.72381114959716,436934967
sw,-50.9217453002929,-84.1144332885742,92.6200942993164,12.9089469909667,436951634
sw,-51.4619636535644,-84.3180770874023,30.7434635162353,11.5505218505859,436968301
sw,-51.254051208496,-84.380256652832,-13.8458051681518,2.82616472244262,436984968
sw,-51.1410675048828,-84.2765197753906,-8.20857810974121,-6.8330659866333,437001635
sw,-51.3061714172363,-83.987060546875,8.81589412689209,-17.1049327850341,437018302
sw,-52.0885391235351,-83.5128784179687,45.9871711730957,-28.7310810089111,437034969
sw,-53.1092414855957,-82.9933624267578,59.8293418884277,-34.5677604675293,437051636
sw,-53.6322593688964,-82.4394760131836,30.5320053100585,-39.1011085510253,437068303
sw,-54.2007751464843,-81.7146377563476,33.358283996582,-49.0758094787597,437084970
sw,-54.8709297180175,-80.7916946411132,39.0619430541992,-60.7258338928222,437101637
sw,-55.3744392395019,-79.1388320922851,28.8335170745849,-103.66600036621,437118304
sw,-55.8093223571777,-76.5628433227539,24.6250343322753,-155.188690185546,437134971
sw,-56.5064048767089,-73.3283081054687,40.3437576293945,-189.819305419921,437151638
sw,-57.4427452087402,-69.7808227539062,54.53706741333,-202.700057983398,437168305
sw,-58.4812812805175,-66.2717514038086,60.2928123474121,-194.482467651367,437184972
sw,-59.5237998962402,-62.8387260437011,60.3667411804199,-190.687759399414,437201639
sw,-60.5913619995117,-59.7035102844238,61.7502365112304,-187.546157836914,437218306
sw,-61.4929504394531,-56.2563400268554,52.0477676391601,-216.507339477539,437234973
sw,-62.1805610656738,-52.5179824829101,39.5128097534179,-235.01560974121,437251640
sw,-62.5586929321289,-48.7266235351562,21.1891975402832,-237.679244995117,437268307
sw,-62.7965354919433,-45.0749931335449,12.9304771423339,-230.353591918945,437284974
sw,-63.2120361328125,-42.0601615905761,23.2435550689697,-193.464630126953,437301641
sw,-63.5703353881835,-40.0612258911132,18.9673595428466,-132.515960693359,437318308
sw,-63.7650909423828,-38.8021011352539,8.46222877502441,-86.1669464111328,437334975
sw,-63.9738121032714,-38.2602424621582,9.16002750396728,-40.9434623718261,437351642
sw,-64.4268341064453,-38.2814102172851,24.0576972961425,-6.23930835723876,437368309
sw,-65.1855239868164,-38.7914772033691,42.7308845520019,22.6762256622314,437384976
sw,-66.0310287475586,-39.7951011657714,48.0993614196777,53.0997047424316,437401643
sw,-66.7063522338867,-41.0302200317382,37.9346847534179,66.009765625,437418310
sw,-67.1564025878906,-42.3611335754394,24.6040916442871,70.1619338989257,437434977
sw,-67.4799270629882,-44.3692588806152,17.4142551422119,111.11473083496,437451644
sw,-67.7520141601562,-47.2509231567382,14.6650495529174,165.734725952148,437468311
sw,-67.9347305297851,-50.3588142395019,9.40016937255859,180.646118164062,437484978
sw,-68.1127777099609,-54.0438613891601,9.2088041305542,212.720489501953,437501645
sw,-68.4242706298828,-57.1274604797363,17.2918148040771,186.049240112304,437518312
sw,-68.849853515625,-59.1820106506347,24.0139808654785,133.705322265625,437534979
sw,-69.3017578125,-59.7993583679199,25.4221477508544,34.7342185974121,437551646
sw,-69.5524444580078,-59.2003440856933,13.3768434524536,-53.4162559509277,437568313
sw,-69.4322433471679,-58.5207939147949,-8.75929164886474,-47.5001258850097,437584980
sw,-69.0218963623046,-58.3414764404296,-25.8159770965576,-11.2429971694946,437601647
sw,-68.7798233032226,-58.8727760314941,-15.3514757156372,25.5142364501953,437618314
sw,-68.7407836914062,-60.5415344238281,-3.42635440826416,93.9300384521484,437634981
sw,-68.8372344970703,-62.3382225036621,3.64703583717346,103.889671325683,437651648
sw,-68.6803512573242,-63.6309738159179,-12.6132440567016,71.05859375,437668315
sw,-67.9486465454101,-64.9892196655273,-46.9682159423828,75.0000915527343,437684982
sw,-66.8125686645507,-66.2820205688476,-70.0383682250976,70.140396118164,437701649
sw,-65.3165969848632,-68.1281356811523,-91.1680755615234,102.906448364257,437718316
sw,-63.4132041931152,-70.5187911987304,-115.586647033691,136.533950805664,437734983
sw,-60.8871002197265,-73.096809387207,-152.700119018554,149.509735107421,437751650
sw,-57.8611831665039,-74.6028518676757,-181.890426635742,84.4909896850586,437768317
sw,-54.3208770751953,-75.2631759643554,-211.201278686523,32.9716339111328,437784984
sw,-51.5757293701171,-75.943244934082,-162.877899169921,34.1378288269043,437801651
sw,-50.0753746032714,-76.6291732788086,-90.9074172973632,35.3701057434082,437818318
sw,-48.2357597351074,-77.0275421142578,-112.324302673339,19.5749778747558,437834985
sw,-45.719383239746,-77.5007400512695,-152.252746582031,25.0232830047607,437851652
sw,-43.3064079284668,-78.239875793457,-145.45295715332,40.6180000305175,437868319
sw,-41.4773178100585,-78.9932708740234,-110.224250793457,41.197036743164,437884986
sw,-40.0812377929687,-79.8380584716796,-84.1747589111328,47.7503852844238,437901653
sw,-38.8870315551757,-80.5448303222656,-72.1915817260742,40.8509674072265,437918320
sw,-38.0552787780761,-80.8951950073242,-50.7637748718261,20.0257263183593,437934987
sw,-37.6275100708007,-81.182632446289,-27.0564994812011,15.9663524627685,437951654
sw,-37.5044898986816,-81.4585418701171,-9.42909145355224,14.5166606903076,437968321
sw,-37.7742919921875,-81.7681274414062,13.5223007202148,16.4219608306884,437984988
sw,-38.3455429077148,-82.1370086669921,31.2267551422119,20.4355278015136,438001655
sw,-39.2083282470703,-82.5148162841796,48.4383659362793,21.1521892547607,438018322
sw,-40.521629333496,-82.8910217285156,75.2229766845703,20.9151611328125,438034989
sw,-42.4928817749023,-83.3493728637695,114.970146179199,25.6641750335693,438051656
sw,-44.6855850219726,-83.8564300537109,129.045303344726,28.5264587402343,438068323
sw,-46.7031631469726,-84.3915710449218,119.028495788574,30.2542209625244,438084990
sw,-48.3232307434082,-84.9779739379882,95.5947647094726,33.3594779968261,438101657
sw,-49.1079483032226,-85.6823501586914,45.2964515686035,40.4122200012207,438118324
sw,-49.726089477539,-86.3845901489257,34.6402626037597,40.2549057006835,438134991
sw,-49.3454284667968,-87.0081405639648,-25.2615013122558,35.6781578063964,438151658
sw,-48.1088943481445,-87.534309387207,-75.551887512207,30.0525493621826,438168325
sw,-47.0143394470214,-87.8395156860351,-66.5214157104492,17.2605056762695,438184992
sw,-46.3444786071777,-87.84423828125,-41.622459411621,0.174902960658073,438201659
sw,-46.314842224121,-87.5479278564453,-3.48463487625122,-16.7720031738281,438218326
sw,-47.2795143127441,-87.1021423339843,56.4874877929687,-24.1189632415771,438234993
sw,-49.2001800537109,-86.7878875732421,115.219566345214,-13.7623434066772,438251660
sw,-51.7540435791015,-86.7659606933593,154.190490722656,1.03111100196838,438268327
sw,-53.8226890563964,-86.9763793945312,124.707984924316,4.26967096328735,438284994
sw,-55.1921348571777,-87.1712570190429,82.891357421875,-1.60664868354797,438301661
sw,-56.8550605773925,-87.1352920532226,100.843406677246,-10.66819190979,438318328
sw,-58.5720748901367,-86.6471328735351,103.142677307128,-31.4225349426269,438334995
sw,-59.843822479248,-85.3578414916992,75.8741226196289,-74.2991714477539,438351662
sw,-60.8341789245605,-83.3693618774414,59.3682861328125,-115.088386535644,438368329
sw,-61.5542182922363,-80.6013793945312,43.3034324645996,-164.238159179687,438384996
sw,-62.1647300720214,-77.3259963989257,35.8474731445312,-197.351150512695,438401663
sw,-62.9156684875488,-74.3855590820312,42.4383583068847,-176.991561889648,438418330
sw,-63.8095550537109,-71.8308792114257,48.3866882324218,-151.118453979492,438434997
sw,-64.7654190063476,-69.2561569213867,50.0318374633789,-150.395690917968,438451664
sw,-65.5584335327148,-66.7963638305664,40.8161811828613,-146.648132324218,438468331
sw,-66.0933761596679,-64.1754302978515,27.1017112731933,-164.273818969726,438484998
sw,-66.4449081420898,-61.3636283874511,17.402530670166,-180.674713134765,438501665
sw,-66.7688217163086,-58.6596450805664,16.8577060699462,-174.413787841796,438518332
sw,-67.0950546264648,-56.1333694458007,17.5713996887207,-161.961120605468,438534999
sw,-67.3876495361328,-53.8976554870605,15.0656270980834,-143.288146972656,438551666
sw,-67.5538330078125,-51.7710571289062,6.5244493484497,-137.266769409179,438568333
sw,-67.6785583496093,-49.8443336486816,3.64132332801818,-125.883872985839,438585000
sw,-67.9443054199218,-48.2078285217285,12.3473415374755,-107.908706665039,438601667
sw,-68.3894424438476,-46.92232131958,23.5120449066162,-84.9922866821289,438618334
sw,-68.9369812011718,-46.0449790954589,29.7730484008789,-58.8132514953613,438635001
sw,-69.4910812377929,-45.6344337463378,30.3192539215087,-30.9165134429931,438651668
sw,-70.0262603759765,-45.8259506225585,29.2977066040039,5.50356483459472,438668335
sw,-70.5812530517578,-46.2609901428222,30.5993766784667,19.9440612792968,438685002
sw,-71.1249923706054,-47.0791473388671,30.1286029815673,42.750316619873,438701669
sw,-71.544448852539,-48.4823684692382,22.9671173095703,79.3649673461914,438718336
sw,-71.7939224243164,-50.5844497680664,13.0711154937744,120.844177246093,438735003
sw,-71.8904800415039,-53.0021362304687,4.27964735031127,134.411666870117,438751670
sw,-71.8644409179687,-55.4904022216796,-2.46502017974853,133.332717895507,438768337
sw,-71.7630462646484,-57.9986953735351,-6.53481578826904,138.396102905273,438785004
sw,-71.6625137329101,-60.3683471679687,-6.51906394958496,141.165832519531,438801671
sw,-71.721809387207,-60.7189292907714,2.76235151290893,18.9025325775146,438818338
sw,-71.901008605957,-60.1814956665039,9.59282398223877,-38.7710380554199,438835005
sw,-71.8998336791992,-59.3305969238281,-1.98911011219024,-54.7066497802734,438851672
sw,-71.8016815185546,-59.2232933044433,-8.20682525634765,-13.0221834182739,438868339
sw,-71.7874984741211,-60.4225845336914,-3.00280833244323,60.8091354370117,438885006
sw,-71.2953491210937,-62.875259399414,-31.3094577789306,139.692276000976,438901673
sw,-69.8898544311523,-65.3323898315429,-86.757698059082,144.800079345703,438918340
sw,-67.9887542724609,-67.3145370483398,-116.942993164062,117.117416381835,438935007
sw,-65.7073059082031,-68.8776168823242,-138.705932617187,85.348518371582,438951674
sw,-63.651023864746,-70.5170669555664,-123.331550598144,89.7521514892578,438968341
sw,-61.2371482849121,-72.482437133789,-141.625518798828,112.240844726562,438985008
sw,-57.9013710021972,-74.0370788574218,-194.321105957031,88.5996170043945,439001675
sw,-54.7495498657226,-74.9977493286132,-185.611557006835,54.1103935241699,439018342
sw,-52.8299598693847,-75.6476364135742,-116.874336242675,36.4506225585937,439035009
sw,-50.862003326416,-76.2748870849609,-118.940605163574,35.7739753723144,439051676
sw,-48.2071838378906,-77.1353073120117,-157.900680541992,49.326416015625,439068343
sw,-45.4661407470703,-78.1851577758789,-161.89924621582,60.0437850952148,439085010
sw,-43.0373764038085,-79.0964050292968,-143.235260009765,51.5066795349121,439101677
sw,-40.9703865051269,-79.8597640991211,-122.315040588378,43.4789352416992,439118344
sw,-39.1915321350097,-80.4179916381836,-106.077568054199,32.4615135192871,439135011
sw,-37.7157135009765,-80.9057540893554,-88.8415222167968,28.1936988830566,439151678
sw,-36.7095985412597,-81.3141784667968,-61.7457847595214,23.4507904052734,439168345
sw,-36.2619934082031,-81.6493835449218,-29.4034175872802,18.7949428558349,439185012
sw,-36.2602653503418,-81.8975372314453,-3.50750946998596,13.5937871932983,439201679
sw,-36.763427734375,-82.1639404296875,26.2989501953125,15.5827150344848,439218346
sw,-37.6324272155761,-82.5690078735351,48.0202484130859,24.4077281951904,439235013
sw,-38.8604927062988,-83.1104965209961,69.6723175048828,32.0639343261718,439251680
sw,-40.5761833190918,-83.7387237548828,99.3426818847656,36.3170890808105,439268347
sw,-42.9477157592773,-84.3896865844726,139.767150878906,36.7731704711914,439285014
sw,-44.909381866455,-84.9999465942382,116.177337646484,33.0093383789062,439301681
sw,-46.534008026123,-85.5369186401367,95.7344741821289,27.6698532104492,439318348
sw,-48.4257507324218,-85.9508819580078,111.517951965332,20.7429523468017,439335015
sw,-50.1429252624511,-86.2859573364257,100.989944458007,17.4819393157959,439351682
sw,-50.7025642395019,-86.558723449707,31.8499927520751,15.4051027297973,439368349
sw,-50.4083137512207,-86.6881408691406,-19.1204967498779,7.69764995574951,439385016
sw,-49.9318923950195,-86.577896118164,-30.1038646697998,-6.89386844635009,439401683
sw,-49.7533798217773,-86.2013626098632,-12.2539768218994,-21.7432556152343,439418350
sw,-50.213394165039,-85.5996322631836,26.1554508209228,-33.5431938171386,439435017
sw,-51.5093955993652,-84.8976974487304,76.0469818115234,-39.2787132263183,439451684
sw,-52.8758697509765,-84.3077011108398,79.8191375732421,-36.9447174072265,439468351
sw,-53.9628601074218,-83.9355087280273,63.8282127380371,-29.0170650482177,439485018
sw,-55.2136802673339,-83.6058578491211,73.6987533569336,-28.7409591674804,439501685
sw,-56.3514595031738,-83.0660247802734,66.4316940307617,-42.8593864440918,439518352
sw,-57.3639183044433,-81.9775772094726,58.9666442871093,-75.2401428222656,439535019
sw,-58.4295501708984,-79.9567413330078,62.3619346618652,-126.986198425292,439551686
sw,-59.6433219909668,-76.9903030395507,71.2585220336914,-178.685729980468,439568353
sw,-60.6421508789062,-73.8329620361328,58.4688186645507,-185.811386108398,439585020
sw,-61.3523521423339,-70.6764984130859,41.2371253967285,-181.267272949218,439601687
sw,-61.7791709899902,-67.6680679321289,24.0244312286376,-168.58641052246,439618354
sw,-62.0457611083984,-64.9268035888671,14.3092250823974,-154.201385498046,439635021
sw,-62.3289947509765,-62.1918907165527,15.5159015655517,-164.422637939453,439651688
sw,-62.5447120666503,-59.1033973693847,11.513876914978,-193.343475341796,439668355
sw,-62.7422294616699,-55.775104522705,10.275502204895,-210.729171752929,439685022
sw,-63.1389541625976,-52.7504692077636,22.2393245697021,-192.446670532226,439701689
sw,-63.7659645080566,-50.2437477111816,35.9678993225097,-160.132736206054,439718356
sw,-64.3883895874023,-48.3101806640625,35.1394233703613,-125.686561584472,439735023
sw,-64.8583602905273,-46.7572212219238,25.3018798828125,-102.171028137207,439751690
sw,-65.1975555419921,-45.6324882507324,17.374153137207,-75.3162002563476,439768357
sw,-65.5710983276367,-44.8644561767578,19.7614803314209,-53.8080787658691,439785024
sw,-66.0851898193359,-44.27681350708,28.5688934326171,-44.3128852844238,439801691
sw,-66.6662063598632,-43.7919845581054,32.8536224365234,-40.4956817626953,439818358
sw,-67.1876144409179,-43.8059463500976,29.3879108428955,-12.2815589904785,439835025
sw,-67.6752853393554,-44.2540245056152,27.3759574890136,14.1275997161865,439851692
sw,-68.1680831909179,-45.0599746704101,27.7402076721191,36.3383979797363,439868359
sw,-68.6717147827148,-46.5199699401855,28.5045223236084,79.4452896118164,439885026
sw,-69.1535491943359,-48.8167877197265,27.2946014404296,133.803894042968,439901693
sw,-69.6043014526367,-51.3723373413085,25.4550857543945,145.914077758789,439918360
sw,-70.0400695800781,-54.1196250915527,24.5295467376709,153.611495971679,439935027
sw,-70.3355484008789,-56.8722076416015,16.1801376342773,157.273864746093,439951694
sw,-70.5387420654296,-59.4461212158203,10.7176332473754,153.50650024414,439968361
sw,-70.7331008911132,-60.7687187194824,10.1244277954101,81.2146759033203,439985028
sw,-70.8145446777343,-60.5894699096679,3.33187508583068,-15.9628591537475,440001695
sw,-70.7321853637695,-60.1427688598632,-6.46674394607543,-32.2617492675781,440018362
sw,-70.423599243164,-59.7475776672363,-19.8123836517334,-26.1414451599121,440035029
sw,-70.1752090454101,-60.2225837707519,-15.7060613632202,21.8027610778808,440051696
sw,-70.2075881958007,-62.0058937072753,0.973391830921173,98.8060226440429,440068363
sw,-70.0302200317382,-64.0301208496093,-12.4701681137084,118.838584899902,440085030
sw,-69.3535003662109,-65.4621353149414,-42.9873504638671,83.3396301269531,440101697
sw,-68.0318298339843,-66.899429321289,-81.798225402832,82.6697006225586,440118364
sw,-66.5096588134765,-68.3296890258789,-93.4381942749023,78.5330200195312,440135031
sw,-64.8694839477539,-70.0666580200195,-99.947395324707,98.327651977539,440151698
sw,-63.0244445800781,-71.9490661621093,-111.798301696777,108.609329223632,440168365
sw,-60.5703926086425,-73.4761123657226,-147.019149780273,87.8416137695312,440185032
sw,-57.2353553771972,-74.4731292724609,-197.634490966796,55.1595458984375,440201699
sw,-53.6944274902343,-75.2639007568359,-209.297134399414,42.0274467468261,440218366
sw,-51.6504669189453,-76.1795196533203,-122.820533752441,50.5544967651367,440235033
sw,-50.065502166748,-77.2408599853515,-97.1631927490234,61.4522514343261,440251700
sw,-47.5904197692871,-78.2267913818359,-149.79019165039,58.1400604248046,440268367
sw,-44.8618354797363,-79.1002120971679,-163.990081787109,51.2515449523925,440285034
sw,-42.4871292114257,-79.8924789428711,-142.51416015625,45.139850616455,440301701
sw,-40.4928398132324,-80.6104583740234,-119.880256652832,39.0744590759277,440318368
sw,-38.7936248779296,-81.2638778686523,-102.570655822753,36.0865745544433,440335035
sw,-37.3348922729492,-81.734992980957,-88.6290588378906,26.1809692382812,440351702
sw,-36.2380561828613,-82.1383361816406,-67.5219192504882,22.4162120819091,440368369
sw,-35.6362380981445,-82.6235733032226,-38.3773193359375,27.3811607360839,440385036
sw,-35.6001815795898,-83.1156463623046,-4.86455917358398,27.9443206787109,440401703
sw,-36.0168838500976,-83.6067123413086,22.0401592254638,28.2529029846191,440418370
sw,-36.7782287597656,-84.1204376220703,42.5381469726562,29.916576385498,440435037
sw,-37.9220237731933,-84.6679992675781,65.3756103515625,31.7650890350341,440451704
sw,-39.6748123168945,-85.2049026489257,101.525115966796,30.5051345825195,440468371
sw,-42.2368965148925,-85.6909790039062,150.671890258789,26.9697151184082,440485038
sw,-44.5602645874023,-86.1205139160156,137.489517211914,23.4237079620361,440501705
sw,-46.9308166503906,-86.4313583374023,140.513961791992,16.2403945922851,440518372
sw,-49.3329811096191,-86.5827560424804,142.534301757812,7.07716178894043,440535039
sw,-51.3183708190918,-86.5511093139648,117.767723083496,-3.34265112876892,440551706
sw,-51.9830665588378,-86.4735260009765,38.6570854187011,-5.90042352676391,440568373
sw,-51.7704582214355,-86.4527130126953,-14.1327667236328,-2.35574197769165,440585040
sw,-51.5319175720214,-86.2808456420898,-15.9908456802368,-10.572112083435,440601707
sw,-51.8110008239746,-85.8719482421875,15.0291500091552,-23.535436630249,440618374
sw,-52.7568550109863,-85.2409973144531,54.8909950256347,-35.3535652160644,440635041
sw,-53.8009147644043,-84.5593643188476,60.1266326904296,-38.0763206481933,440651708
sw,-54.5399093627929,-83.9453430175781,42.9105224609375,-35.6589584350585,440668375
sw,-55.5171356201171,-83.3352584838867,58.0260353088378,-37.8849449157714,440685042
sw,-56.5102882385253,-82.5715255737304,59.0522804260253,-51.3424224853515,440701709
sw,-57.3767127990722,-81.4135971069336,51.050796508789,-78.454605102539,440718376
sw,-58.3679962158203,-79.5125656127929,58.0589179992675,-121.70319366455,440735043
sw,-59.6497497558593,-76.7530899047851,75.5896682739257,-168.601409912109,440751710
sw,-60.9166221618652,-73.6824188232421,75.1980438232421,-182.257919311523,440768377
sw,-61.962417602539,-70.6801147460937,62.3081893920898,-172.073928833007,440785044
sw,-62.7949638366699,-67.7283172607421,49.0727500915527,-163.052154541015,440801711
sw,-63.3352241516113,-64.8070449829101,30.7471256256103,-159.897109985351,440818378
sw,-63.6184387207031,-61.9327812194824,15.0575895309448,-167.718917846679,440835045
sw,-63.7388877868652,-58.6765098571777,5.44665241241455,-202.730285644531,440851712
sw,-63.5972595214843,-55.1277427673339,-10.159104347229,-225.808135986328,440868379
sw,-63.6644668579101,-51.687271118164,2.32863521575927,-219.145629882812,440885046
sw,-64.0536422729492,-48.8843994140625,21.2770748138427,-179.701278686523,440901713
sw,-64.7211380004882,-46.6251564025878,37.2454872131347,-145.841049194335,440918380
sw,-65.3745574951171,-44.8621444702148,35.3428840637207,-115.318786621093,440935047
sw,-65.9832611083984,-43.6869621276855,32.162181854248,-78.7632293701171,440951714
sw,-66.5637969970703,-42.9666595458984,30.8513202667236,-50.5905265808105,440968381
sw,-67.1488800048828,-42.5916442871093,31.9278259277343,-29.99560546875,440985048
sw,-67.6416931152343,-42.4725265502929,27.0948238372802,-15.786205291748,441001715
sw,-68.0133438110351,-42.7908248901367,20.2144718170166,9.29804897308349,441018382
sw,-68.3422546386718,-43.4816741943359,17.6418113708496,31.2451419830322,441035049
sw,-68.6798629760742,-44.521614074707,18.1162796020507,51.3102302551269,441051716
sw,-68.9826126098632,-46.1887397766113,16.1443405151367,88.979736328125,441068383
sw,-69.2470169067382,-48.8553886413574,14.0301914215087,150.724746704101,441085050
sw,-69.4630126953125,-51.9893836975097,11.3645153045654,179.62351989746,441101717
sw,-69.6463165283203,-55.2676582336425,9.73626041412353,185.360168457031,441118384
sw,-69.7858581542968,-58.3652305603027,7.21135663986206,178.650588989257,441135051
sw,-69.8884658813476,-61.0119552612304,4.53108692169189,161.778717041015,441151718
sw,-69.9172210693359,-61.6680374145507,-0.326831847429275,40.3795852661132,441168385
sw,-69.8721237182617,-61.2112350463867,-4.75546216964721,-38.2472991943359,441185052
sw,-69.7052764892578,-60.5884246826171,-11.6916637420654,-43.569164276123,441201719
sw,-69.3360900878906,-60.4545707702636,-23.2170600891113,-11.1725730895996,441218386
sw,-69.2497024536132,-61.4586563110351,-5.80996370315551,51.2667121887207,441235053
sw,-69.1912612915039,-63.1242179870605,-4.31456613540649,94.3031387329101,441251720
sw,-68.518928527832,-64.5954666137695,-41.6468124389648,85.3831558227539,441268387
sw,-67.1803131103515,-65.7951354980468,-82.3920516967773,68.4356613159179,441285054
sw,-65.5233993530273,-67.170654296875,-101.812339782714,76.6275558471679,441301721
sw,-63.586929321289,-68.8360900878906,-118.474182128906,92.4431381225586,441318388
sw,-61.6015243530273,-71.1030654907226,-121.371109008789,131.72444152832,441335055
sw,-59.090160369873,-73.3815689086914,-152.056503295898,134.866394042968,441351722
sw,-55.7275047302246,-74.8747863769531,-201.207321166992,86.7412567138671,441368389
sw,-52.3558273315429,-75.6475524902343,-200.527252197265,41.6404380798339,441385056
sw,-50.5400810241699,-76.289924621582,-109.717742919921,33.2018966674804,441401723
sw,-49.0036239624023,-77.0363006591796,-93.4545211791992,41.5155563354492,441418390
sw,-46.3861198425293,-77.7858963012695,-156.462158203125,43.0681457519531,441435057
sw,-43.6305770874023,-78.5739364624023,-163.7783203125,45.9065704345703,441451724
sw,-41.2673225402832,-79.4342803955078,-140.571044921875,49.6345405578613,441468391
sw,-39.3838729858398,-80.2189407348632,-112.505867004394,43.4352416992187,441485058
sw,-37.79292678833,-81.0081176757812,-95.66162109375,44.2081184387207,441501725
sw,-36.4607925415039,-81.6386260986328,-80.7019271850586,35.7114639282226,441518392
sw,-35.4926872253418,-82.0143661499023,-59.4091987609863,20.8262386322021,441535059
sw,-34.9990272521972,-82.4106216430664,-31.5108489990234,21.9755191802978,441551726
sw,-35.0221328735351,-82.8834686279296,-0.963755905628204,26.38814163208,441568393
sw,-35.5277061462402,-83.3987655639648,27.6026287078857,29.3837909698486,441585060
sw,-36.4127540588378,-83.9148254394531,50.0596237182617,30.0085277557373,441601727
sw,-37.6500434875488,-84.4776382446289,71.0072479248046,32.8572807312011,441618394
sw,-39.4595260620117,-85.1006317138671,104.832206726074,35.8589057922363,441635061
sw,-42.2261199951171,-85.7385101318359,163.11685180664,36.0097427368164,441651728
sw,-44.5706100463867,-86.3203887939453,139.071228027343,32.3268928527832,441668395
sw,-46.7619361877441,-86.8299789428711,130.099639892578,28.0880985260009,441685062
sw,-49.0792808532714,-87.2151260375976,137.159072875976,20.9808654785156,441701729
sw,-51.0031127929687,-87.3597335815429,113.437507629394,6.95146656036376,441718396
sw,-51.6765174865722,-87.3526306152343,37.6102600097656,-1.8688439130783,441735063
sw,-51.3301239013671,-87.3045578002929,-22.4539680480957,-3.96746134757995,441751730
sw,-51.0501327514648,-87.0009536743164,-17.3867988586425,-18.5547695159912,441768397
sw,-51.4090194702148,-86.4404754638671,20.479148864746,-32.3976707458496,441785064
sw,-52.4372673034668,-85.5690231323242,59.9896392822265,-49.0799713134765,441801731
sw,-53.6091880798339,-84.6556625366211,67.674560546875,-49.9152946472168,441818398
sw,-54.4679870605468,-83.8893966674804,49.9669914245605,-40.4591598510742,441835065
sw,-55.3458976745605,-83.3146438598632,52.1622314453125,-31.4495372772216,441851732
sw,-56.3919258117675,-82.8005294799804,61.9360275268554,-33.6730155944824,441868399
sw,-57.4779891967773,-81.9365692138671,63.7433700561523,-61.2161788940429,441885066
sw,-58.7226753234863,-80.3781433105468,72.9757690429687,-104.379089355468,441901733
sw,-60.0871276855468,-77.9668884277343,80.2063598632812,-152.796676635742,441918400
sw,-61.2302169799804,-75.1319122314453,67.3966293334961,-173.826477050781,441935067
sw,-62.246826171875,-72.2658767700195,60.1098861694335,-170.688079833984,441951734
sw,-63.1160011291503,-69.4414825439453,51.0164985656738,-161.964050292968,441968401
sw,-63.769058227539,-66.5692749023437,37.5937461853027,-159.872756958007,441985068
sw,-64.2781219482421,-63.7017745971679,28.9123420715332,-161.465942382812,442001735
sw,-64.7500457763671,-60.7203636169433,26.6983737945556,-179.069213867187,442018402
sw,-65.0904159545898,-57.4436264038085,18.8302211761474,-205.948989868164,442035069
sw,-65.3989028930664,-54.051097869873,16.907506942749,-215.587585449218,442051736
sw,-65.7927856445312,-51.1124153137207,21.9011993408203,-186.609344482421,442068403
sw,-66.3256683349609,-48.699405670166,29.8727130889892,-153.515411376953,442085070
sw,-66.9111938476562,-46.6122703552246,32.4731941223144,-133.480148315429,442101737
sw,-67.4923477172851,-44.9888381958007,31.8378543853759,-105.723228454589,442118404
sw,-68.0712509155273,-43.8804283142089,31.8653869628906,-74.8735885620117,442135071
sw,-68.535659790039,-43.2378158569335,25.4966526031494,-46.5030097961425,442151738
sw,-68.8479995727539,-42.9811096191406,16.7794132232666,-22.6135807037353,442168405
sw,-69.0456161499023,-43.0523948669433,10.115267753601,-2.28433918952941,442185072
sw,-69.1970825195312,-43.6169166564941,7.43506717681884,28.2143592834472,442201739
sw,-69.3929367065429,-44.525520324707,10.0939617156982,48.5455245971679,442218406
sw,-69.62890625,-45.856101989746,12.5166130065917,72.1385040283203,442235073
sw,-69.8442993164062,-47.8266868591308,11.3227739334106,109.333267211914,442251740
sw,-69.9525985717773,-50.7381172180175,4.92887115478515,164.870178222656,442268407
sw,-69.9503860473632,-53.865867614746,-1.70446324348449,178.835556030273,442285074
sw,-69.8858642578125,-57.2465476989746,-5.35233354568481,192.585144042968,442301741
sw,-69.7655868530273,-60.2060279846191,-8.63804244995117,176.85691833496,442318408
sw,-69.6853713989257,-61.8297157287597,-6.44751167297363,102.867202758789,442335075
sw,-69.7162399291992,-62.1187286376953,0.0365303270518779,13.2014369964599,442351742
sw,-69.7934341430664,-61.5195960998535,2.87658143043518,-42.0773849487304,442368409
sw,-69.6081924438476,-61.1766929626464,-12.6993494033813,-19.9707508087158,442385076
sw,-69.347785949707,-61.7722854614257,-16.9940586090087,33.3754844665527,442401743
sw,-69.2488403320312,-63.3104591369628,-7.07394075393676,84.8422927856445,442418410
sw,-68.5139236450195,-64.7801818847656,-45.0371856689453,85.2391738891601,442435077
sw,-67.204963684082,-66.6733627319336,-79.8300628662109,112.250968933105,442451744
sw,-65.3871383666992,-68.2804412841796,-110.407997131347,94.4416122436523,442468411
sw,-63.5562438964843,-69.9725646972656,-111.3423538208,98.3375549316406,442485078
sw,-61.5104789733886,-72.028091430664,-123.715187072753,122.247642517089,442501745
sw,-58.5680923461914,-74.1089324951171,-175.550201416015,123.501731872558,442518412
sw,-55.1485137939453,-75.3405151367187,-202.226577758789,71.2481384277343,442535079
sw,-52.3439102172851,-75.8645477294921,-165.812774658203,26.5861148834228,442551746
sw,-50.8138961791992,-76.2421798706054,-92.9362258911132,15.8745908737182,442568413
sw,-49.0967292785644,-76.7737884521484,-104.600776672363,26.1108856201171,442585080
sw,-46.4999351501464,-77.386978149414,-156.190948486328,32.8569107055664,442601747
sw,-43.976146697998,-78.0167694091796,-151.267639160156,34.2557144165039,442618414
sw,-41.8276481628418,-78.7042922973632,-129.046798706054,38.6560935974121,442635081
sw,-40.0425567626953,-79.4706268310546,-107.693298339843,43.9819450378418,442651748
sw,-38.4435920715332,-80.3957138061523,-96.8671798706054,53.7789993286132,442668415
sw,-37.1772003173828,-81.2611312866211,-77.0850296020507,50.1021728515625,442685082
sw,-36.2280693054199,-81.850715637207,-58.2849082946777,33.4110832214355,442701749
sw,-35.77978515625,-82.2348937988281,-28.7441215515136,21.1739959716796,442718416
sw,-35.9249458312988,-82.5107192993164,6.22147989273071,14.856406211853,442735083
sw,-36.4115333557128,-82.7945327758789,26.1198787689209,15.6962718963623,442751750
sw,-37.3373832702636,-83.146255493164,52.2484703063964,20.2608127593994,442768417
sw,-38.9761428833007,-83.5760879516601,95.2631454467773,25.1539993286132,442785084
sw,-41.1647834777832,-84.0854721069336,128.891342163085,29.5554485321044,442801751
sw,-43.3671379089355,-84.6395874023437,130.383499145507,31.4241714477539,442818418
sw,-45.1733665466308,-85.1602935791015,106.778442382812,28.7165241241455,442835085
sw,-47.3350143432617,-85.5628356933593,127.93359375,21.6741771697998,442851752
sw,-49.8040924072265,-85.8262710571289,146.107757568359,13.7437686920166,442868419
sw,-50.8415184020996,-85.9733810424804,60.1528625488281,7.120530128479,442885086
sw,-51.348777770996,-86.0861358642578,28.8670120239257,5.04541444778442,442901753
sw,-51.214500427246,-86.1077117919921,-10.2083892822265,-0.743613719940185,442918420
sw,-50.9879493713378,-85.8594894409179,-16.0688858032226,-16.4602012634277,442935087
sw,-51.3236846923828,-85.2766036987304,17.1739902496337,-34.7947769165039,442951754
sw,-52.6350021362304,-84.5247497558593,75.5804061889648,-42.3091468811035,442968421
sw,-54.1564064025878,-83.715217590332,87.8378143310546,-45.1536331176757,442985088
sw,-54.9966697692871,-82.8872680664062,49.753116607666,-49.5002326965332,443001755
sw,-55.7641792297363,-81.9504318237304,47.5087356567382,-59.6361427307128,443018422
sw,-56.7468566894531,-80.805061340332,60.3151664733886,-73.6974868774414,443035089
sw,-57.6017608642578,-79.2780838012695,51.4013977050781,-97.3316574096679,443051756
sw,-58.4754486083984,-76.9831161499023,51.6699790954589,-140.606384277343,443068423
sw,-59.6076202392578,-74.0670852661132,67.3110046386718,-172.109436035156,443085090
sw,-60.7108078002929,-70.9571456909179,66.0192947387695,-178.694946289062,443101757
sw,-61.7283821105957,-67.6796417236328,60.647102355957,-183.901870727539,443118424
sw,-62.7218551635742,-64.4873123168945,57.6354255676269,-176.911224365234,443135091
sw,-63.7194633483886,-61.5750389099121,56.0454902648925,-168.553115844726,443151758
sw,-64.5453872680664,-58.4756813049316,45.6973075866699,-192.088562011718,443168425
sw,-64.8916778564453,-55.0929985046386,17.7535362243652,-215.059280395507,443185092
sw,-64.9096069335937,-51.6144523620605,-1.79491806030273,-221.701934814453,443201759
sw,-64.9020233154296,-48.363956451416,-3.65983486175537,-208.056915283203,443218426
sw,-65.1770629882812,-45.5751152038574,12.9653224945068,-179.467819213867,443235093
sw,-65.69140625,-43.5041236877441,26.6965446472167,-136.68537902832,443251760
sw,-66.2161026000976,-42.2272033691406,26.13916015625,-88.7059555053711,443268427
sw,-66.6546554565429,-41.4643173217773,20.371431350708,-56.4359703063964,443285094
sw,-67.0311279296875,-41.1244354248046,17.2990856170654,-30.4118175506591,443301761
sw,-67.4553070068359,-41.0852661132812,21.2456398010253,-12.4099979400634,443318428
sw,-67.9009399414062,-41.3814086914062,23.3245601654052,7.62686777114868,443335095
sw,-68.2681274414062,-42.1306724548339,18.9335689544677,35.1657981872558,443351762
sw,-68.5351333618164,-43.3224906921386,13.0324583053588,61.3539505004882,443368429
sw,-68.7844314575195,-44.9742088317871,12.1703977584838,87.325325012207,443385096
sw,-69.00537109375,-47.3346290588378,10.9568214416503,128.704986572265,443401763
sw,-69.0950469970703,-50.5151863098144,3.83733010292053,181.082946777343,443418430
sw,-69.0680694580078,-53.6132125854492,-2.43241667747497,175.38394165039,443435097
sw,-69.1414489746093,-56.5776672363281,3.88849472999572,168.895812988281,443451764
sw,-69.3708190917968,-59.5383377075195,12.9021453857421,175.838165283203,443468431
sw,-69.6266403198242,-61.064842224121,13.5915174484252,95.5628204345703,443485098
sw,-69.8854141235351,-61.2249641418457,13.5363206863403,5.04926204681396,443501765
sw,-69.9826126098632,-60.8811111450195,4.92093896865844,-29.8568267822265,443518432
sw,-69.7165069580078,-60.7539253234863,-15.8452367782592,-11.6356163024902,443535099
sw,-69.3418884277343,-61.749454498291,-22.3841495513916,52.4429473876953,443551766
sw,-69.1295471191406,-63.7553367614746,-13.5469131469726,113.797668457031,443568433
sw,-68.7102279663086,-65.1447219848632,-26.7348728179931,80.6300964355468,443585100
sw,-67.5626525878906,-66.2810592651367,-72.132095336914,64.5314331054687,443601767
sw,-66.0025558471679,-67.7501754760742,-98.4753494262695,84.1245803833007,443618434
sw,-64.0870132446289,-69.1039276123046,-118.769248962402,74.1844177246093,443635101
sw,-62.0676574707031,-70.8195419311523,-124.545043945312,96.4908218383789,443651768
sw,-59.8328666687011,-72.7724533081054,-136.927474975585,113.367576599121,443668435
sw,-56.8110237121582,-74.3159713745117,-182.066482543945,88.7294692993164,443685102
sw,-53.2109870910644,-75.1460494995117,-214.274810791015,43.5027198791503,443701769
sw,-50.7594604492187,-75.6953506469726,-146.202911376953,25.5117893218994,443718436
sw,-49.1945724487304,-76.4591903686523,-95.3565673828125,40.5734558105468,443735103
sw,-46.9298973083496,-77.3758163452148,-136.190933227539,52.37154006958,443751770
sw,-43.977798461914,-78.1385421752929,-175.625625610351,44.0671615600585,443768437
sw,-41.2684593200683,-78.9875793457031,-160.64842224121,48.9858627319335,443785104
sw,-39.1792335510253,-79.7276229858398,-123.69733428955,41.0517921447753,443801771
sw,-37.564598083496,-80.3615264892578,-95.8090896606445,34.5038337707519,443818438
sw,-36.168098449707,-80.9741744995117,-83.4803466796875,34.5009613037109,443835105
sw,-35.0456504821777,-81.3158798217773,-67.9261016845703,18.7179946899414,443851772
sw,-34.3045425415039,-81.6414031982421,-46.1060905456543,17.7985553741455,443868439
sw,-34.1826400756835,-81.983283996582,-9.9084358215332,18.9107799530029,443885106
sw,-34.533821105957,-82.2754898071289,17.9118366241455,16.6131515502929,443901773
sw,-35.0850105285644,-82.5875701904296,29.5754814147949,18.756814956665,443918440
sw,-36.1851806640625,-82.9625167846679,62.250503540039,22.5084114074707,443935107
sw,-38.0608558654785,-83.3674697875976,108.705749511718,23.0613327026367,443951774
sw,-40.5052986145019,-83.7912979125976,143.279647827148,23.0439834594726,443968441
sw,-43.0225067138671,-84.2154159545898,149.072616577148,22.7082042694091,443985108
sw,-45.2257919311523,-84.5573501586914,130.606872558593,17.7952823638916,444001775
sw,-47.6216506958007,-84.7548828125,141.956878662109,9.59505176544189,444018442
sw,-49.9177589416503,-84.8242645263671,136.028869628906,2.68826913833618,444035109
sw,-51.4192428588867,-84.847785949707,88.4654464721679,0.305438190698623,444051776
sw,-51.8773040771484,-84.8116760253906,25.9158687591552,-2.94546127319335,444068443
sw,-51.623966217041,-84.6626358032226,-16.658052444458,-9.13797569274902,444085110
sw,-51.2563400268554,-84.467041015625,-23.4927005767822,-10.2684497833251,444101777
sw,-51.3037376403808,-84.1470336914062,1.61662399768829,-16.2142696380615,444118444
sw,-52.2370262145996,-83.7518920898437,54.7187690734863,-20.1981773376464,444135111
sw,-53.6514549255371,-83.2991104125976,83.0273666381836,-25.7329673767089,444151778
sw,-54.5069847106933,-82.9548873901367,50.6470565795898,-22.3743915557861,444168445
sw,-55.3138999938964,-82.6803207397461,48.5955963134765,-20.2676830291748,444185112
sw,-56.4886169433593,-82.3256607055664,70.2647628784179,-27.6678066253662,444201779
sw,-57.7468605041503,-81.5329971313476,74.6685180664062,-56.2874755859375,444218446
sw,-58.957763671875,-80.0389328002929,71.5189971923828,-97.4452209472656,444235113
sw,-60.1857833862304,-77.6605529785156,72.8706436157226,-147.021942138671,444251780
sw,-61.4100875854492,-74.7514038085937,72.8757934570312,-174.549118041992,444268447
sw,-62.5886650085449,-71.9189910888671,70.1247787475586,-164.64370727539,444285114
sw,-63.7991714477539,-69.1018981933593,71.4157562255859,-157.294006347656,444301781
sw,-64.9930953979492,-66.2166137695312,68.8769073486328,-157.607696533203,444318448
sw,-66.0097961425781,-63.624942779541,58.0047874450683,-146.594268798828,444335115
sw,-66.8028411865234,-60.7731590270996,45.3972702026367,-174.559738159179,444351782
sw,-67.3039627075195,-57.3313331604003,28.5614509582519,-217.296127319335,444368449
sw,-67.7076721191406,-53.5722770690918,22.7609558105468,-237.279953002929,444385116
sw,-68.0887985229492,-50.2708625793457,21.1294555664062,-208.312438964843,444401783
sw,-68.540283203125,-47.6477699279785,24.7981052398681,-167.003646850585,444418450
sw,-68.9782638549804,-45.6963157653808,22.7208518981933,-125.569831848144,444435117
sw,-69.322639465332,-44.3936614990234,15.9159259796142,-85.6835708618164,444451784
sw,-69.5644454956054,-43.6114082336425,9.93532371520996,-53.1876182556152,444468451
sw,-69.8001251220703,-43.2296600341796,10.4366645812988,-28.1310443878173,444485118
sw,-70.0849456787109,-43.2065391540527,14.1271438598632,-6.26992607116699,444501785
sw,-70.393081665039,-43.6505584716796,15.9086532592773,22.1953182220459,444518452
sw,-70.6444625854492,-44.5378799438476,12.660753250122,49.2429389953613,444535119
sw,-70.826171875,-45.8941574096679,8.48500251770019,74.2901306152343,444551786
sw,-70.9489517211914,-47.9113998413085,5.10929489135742,106.935241699218,444568453
sw,-70.9476623535156,-50.9429244995117,-1.81564652919769,169.453094482421,444585120
sw,-70.7729339599609,-53.7638092041015,-11.6503391265869,158.72068786621,444601787
sw,-70.6585845947265,-56.634967803955,-7.73695230484008,161.68440246582,444618454
sw,-70.7574462890625,-59.7449493408203,4.94046831130981,184.161468505859,444635121
sw,-70.9392166137695,-61.6849365234375,9.0028657913208,122.073333740234,444651788
sw,-71.1145629882812,-62.5942993164062,7.63748359680175,53.2801666259765,444668455
sw,-71.2356872558593,-62.6540565490722,4.37610387802124,-6.6236343383789,444685122
sw,-71.1782760620117,-63.0127868652343,-5.69827270507812,15.462134361267,444701789
sw,-70.9666366577148,-64.4141311645507,-14.24556350708,79.3522796630859,444718456
sw,-70.7170944213867,-65.81884765625,-15.6560745239257,79.5584335327148,444735123
sw,-69.4765319824218,-67.1064376831054,-74.3705291748046,74.7788467407226,444751790
sw,-67.5459442138671,-68.6687545776367,-116.021026611328,88.269790649414,444768457
sw,-65.3235931396484,-70.2589340209961,-133.932312011718,88.4798736572265,444785124
sw,-63.2520408630371,-72.1132431030273,-126.811195373535,105.067878723144,444801791
sw,-60.7953033447265,-74.1561965942382,-150.088134765625,119.082969665527,444818458
sw,-57.6309432983398,-75.7915420532226,-189.602951049804,96.3538436889648,444835125
sw,-54.3025779724121,-76.8027038574218,-197.065200805664,57.0673446655273,444851792
sw,-51.9358558654785,-77.349624633789,-140.04881286621,25.4152507781982,444868459
sw,-50.4226760864257,-77.8871307373046,-92.0761184692382,23.7675495147705,444885126
sw,-48.2671699523925,-78.6862487792968,-130.467849731445,41.9461860656738,444901793
sw,-45.4458465576171,-79.6687316894531,-169.484664916992,55.3999061584472,444918460
sw,-42.8118667602539,-80.704116821289,-158.196212768554,59.6357841491699,444935127
sw,-40.6132202148437,-81.4813385009765,-132.444564819335,43.8664283752441,444951794
sw,-38.7576560974121,-82.0446853637695,-112.174346923828,31.504186630249,444968461
sw,-37.1428451538085,-82.4583206176757,-97.9774703979492,23.0585479736328,444985128
sw,-35.8623809814453,-82.7586822509765,-78.2095108032226,16.6085586547851,445001795
sw,-35.1466636657714,-83.0222854614257,-44.660846710205,14.4622459411621,445018462
sw,-35.1342277526855,-83.2411727905273,-2.87683868408203,12.4736204147338,445035129
sw,-35.5757789611816,-83.4050140380859,23.947359085083,10.3616905212402,445051796
sw,-36.4704704284668,-83.4764938354492,50.7822685241699,5.91318368911743,445068463
sw,-38.132339477539,-83.4606704711914,96.4908447265625,1.05913150310516,445085130
sw,-40.4868087768554,-83.4160232543945,137.870025634765,-2.40463805198669,445101797
sw,-43.0871505737304,-83.4061965942382,154.072113037109,-3.00942063331604,445118464
sw,-45.55122756958,-83.4121551513671,146.126235961914,-3.6576337814331,445135131
sw,-48.3469123840332,-83.3795471191406,166.091613769531,-5.61774682998657,445151798
sw,-50.8342475891113,-83.3121490478515,147.787994384765,-5.80129432678222,445168465
sw,-51.8720550537109,-83.2652435302734,61.0127410888671,-2.55104756355285,445185132
sw,-51.6829528808593,-83.3380279541015,-12.7131767272949,5.50674724578857,445201799
sw,-51.2050666809082,-83.4758987426757,-30.3061981201171,9.48023891448974,445218466
sw,-50.7881965637207,-83.4945297241211,-26.8250637054443,2.3651373386383,445235133
sw,-50.9334373474121,-83.287124633789,7.35163402557373,-10.9971160888671,445251800
sw,-52.1745872497558,-83.035903930664,73.2578430175781,-14.0889320373535,445268467
sw,-53.4945945739746,-82.7793350219726,77.6750030517578,-16.8679161071777,445285134
sw,-54.4020347595214,-82.340347290039,53.4716415405273,-28.8875617980957,445301801
sw,-55.4368324279785,-81.6485900878906,61.256736755371,-44.9302215576171,445318468
sw,-56.5032081604003,-80.5702209472656,62.9618644714355,-72.7485427856445,445335135
sw,-57.4903182983398,-78.8104476928711,57.9564247131347,-116.889030456542,445351802
sw,-58.6125984191894,-76.1560363769531,66.1567459106445,-167.560409545898,445368469
sw,-59.8472099304199,-73.1102523803711,73.1932220458984,-184.93994140625,445385136
sw,-60.926456451416,-70.0326995849609,63.8445777893066,-179.091674804687,445401803
sw,-61.8475341796875,-66.7829132080078,53.9856529235839,-181.729660034179,445418470
sw,-62.6781463623046,-63.8341369628906,48.1648902893066,-162.120559692382,445435137
sw,-63.2447776794433,-60.9454727172851,32.4989356994628,-169.297012329101,445451804
sw,-63.6287193298339,-57.3793334960937,21.7211742401123,-219.703506469726,445468471
sw,-63.7220878601074,-53.3274116516113,4.12931394577026,-251.558380126953,445485138
sw,-63.7095108032226,-49.4859809875488,-2.2056233882904,-239.028839111328,445501805
sw,-63.9360084533691,-46.2834396362304,12.1385354995727,-201.337951660156,445518472
sw,-64.5020904541015,-43.8119392395019,32.4031867980957,-157.837814331054,445535139
sw,-65.1266021728515,-42.2581138610839,35.8012657165527,-102.087226867675,445551806
sw,-65.5825271606445,-41.2640838623046,25.7833061218261,-66.6381454467773,445568473
sw,-65.923225402832,-40.8324432373046,19.1292743682861,-31.2808628082275,445585140
sw,-66.4105453491211,-40.9149856567382,28.0407009124755,0.446531325578689,445601807
sw,-67.0762710571289,-41.4580841064453,38.6822166442871,27.1146717071533,445618474
sw,-67.6982498168945,-42.5571022033691,36.0529479980468,59.798770904541,445635141
sw,-68.0823135375976,-44.0000991821289,21.9269084930419,77.8164596557617,445651808
sw,-68.3128280639648,-46.0298500061035,12.9899463653564,108.779411315917,445668475
sw,-68.5041351318359,-49.0052299499511,10.580075263977,165.940155029296,445685142
sw,-68.6667175292968,-51.8950729370117,8.06886100769043,163.007247924804,445701809
sw,-68.9333267211914,-55.1011695861816,13.6563549041748,183.151245117187,445718476
sw,-69.4109420776367,-58.466796875,26.3619003295898,199.326400756835,445735143
sw,-70.1214294433593,-60.5716133117675,40.8526535034179,129.082366943359,445751810
sw,-70.7280502319336,-62.048484802246,35.4510383605957,86.8234100341796,445768477
sw,-70.9319839477539,-62.7685661315918,11.809250831604,31.928840637207,445785144
sw,-70.8050918579101,-63.039981842041,-8.51871681213378,8.77822875976562,445801811
sw,-70.4205169677734,-64.3142471313476,-24.8846282958984,75.3328857421875,445818478
sw,-69.8965454101562,-66.3300170898437,-33.7282485961914,125.213500976562,445835145
sw,-69.4573287963867,-67.5445556640625,-28.442907333374,75.9701385498046,445851812
sw,-68.7045669555664,-68.9191284179687,-46.9758338928222,79.4469757080078,445868479
sw,-67.255142211914,-70.376220703125,-88.5560226440429,77.807388305664,445885146
sw,-65.7747268676757,-71.9395980834961,-90.363540649414,84.4259338378906,445901813
sw,-64.3097076416015,-73.6706466674804,-89.2143249511718,97.2644577026367,445918480
sw,-62.1184387207031,-75.259895324707,-131.734222412109,94.4276733398437,445935147
sw,-58.955265045166,-76.3285903930664,-188.078430175781,61.6870918273925,445951814
sw,-55.5120315551757,-77.0845184326171,-203.440536499023,38.0688285827636,445968481
sw,-52.8089942932128,-77.7207717895507,-159.456573486328,28.3804855346679,445985148
sw,-51.2124595642089,-78.5169677734375,-96.0926437377929,39.3703804016113,446001815
sw,-49.3684425354003,-79.4270935058593,-112.670120239257,49.1125831604003,446018482
sw,-46.8285827636718,-80.3385925292968,-154.393402099609,51.1025848388671,446035149
sw,-44.1820983886718,-81.1046371459961,-160.592544555664,41.6210289001464,446051816
sw,-41.9446945190429,-81.7219161987304,-136.11050415039,32.3636817932128,446068483
sw,-40.0527648925781,-82.2864990234375,-115.61116027832,29.9442977905273,446085150
sw,-38.5025253295898,-82.7747116088867,-95.3491973876953,26.5202312469482,446101817
sw,-37.3722915649414,-83.2633285522461,-70.2710189819336,27.2283382415771,446118484
sw,-36.6230392456054,-83.7768173217773,-47.556842803955,29.0371837615966,446135151
sw,-36.3345146179199,-84.2102661132812,-20.2444400787353,24.7507209777832,446151818
sw,-36.4827232360839,-84.5538940429687,5.66828870773315,20.2185897827148,446168485
sw,-37.0042648315429,-84.7861328125,27.8802528381347,14.5790252685546,446185152
sw,-37.9591941833496,-84.9605178833007,53.975528717041,11.9667387008667,446201819
sw,-39.4318008422851,-85.1095199584961,85.1167449951171,10.1985187530517,446218486
sw,-41.5425682067871,-85.242561340332,123.723030090332,8.11034965515136,446235153
sw,-43.7805862426757,-85.3724670410156,132.229187011718,6.57838821411132,446251820
sw,-45.5618019104003,-85.5362167358398,105.259521484375,7.56394100189209,446268487
sw,-47.6522636413574,-85.6814422607421,124.35008239746,5.92026424407959,446285154
sw,-49.6318435668945,-85.7281341552734,118.287223815917,0.0610162205994129,446301821
sw,-50.4634170532226,-85.721450805664,49.6874084472656,-2.88841915130615,446318488
sw,-50.1739158630371,-85.6865692138671,-18.0600357055664,-3.36582136154174,446335155
sw,-49.5933227539062,-85.5918960571289,-36.0559997558593,-5.09880352020263,446351822
sw,-49.198429107666,-85.4590377807617,-25.3148365020751,-4.96885061264038,446368489
sw,-49.2016906738281,-85.240005493164,-0.290486991405487,-9.10430717468261,446385156
sw,-50.3118362426757,-84.9546127319336,66.9730606079101,-13.423861503601,446401823
sw,-52.0244255065918,-84.7409591674804,102.563026428222,-11.1046390533447,446418490
sw,-53.1690216064453,-84.6216735839843,68.8057708740234,-8.40430450439453,446435157
sw,-54.3789710998535,-84.3568420410156,72.322769165039,-20.3960037231445,446451824
sw,-55.891975402832,-83.7346572875976,90.4279251098632,-45.8964805603027,446468491
sw,-57.3573608398437,-82.5499114990234,87.2074813842773,-84.3780288696289,446485158
sw,-58.8106002807617,-80.6131973266601,86.0122680664062,-128.368820190429,446501825
sw,-60.3098487854003,-77.839729309082,89.4305419921875,-171.85594177246,446518492
sw,-61.5108528137207,-74.6860275268554,71.9383087158203,-188.763870239257,446535159
sw,-62.3954849243164,-71.5389099121093,53.0462303161621,-183.187194824218,446551826
sw,-63.1152648925781,-68.5475311279296,42.1719284057617,-168.64028930664,446568493
sw,-63.7245712280273,-65.7543182373046,33.3785018920898,-156.485961914062,446585160
sw,-64.2125778198242,-63.0036582946777,25.0231781005859,-162.539413452148,446601827
sw,-64.5999069213867,-59.8467941284179,19.8551654815673,-195.982849121093,446618494
sw,-64.7836151123046,-56.244514465332,8.51219463348388,-225.972503662109,446635161
sw,-65.0178070068359,-52.5992240905761,11.7975711822509,-228.930267333984,446651828
sw,-65.4010848999023,-49.4509658813476,20.4140625,-198.049270629882,446668495
sw,-65.9080505371093,-46.8567428588867,26.6711654663085,-163.553329467773,446685162
sw,-66.3979949951171,-44.8209266662597,24.130989074707,-129.679779052734,446701829
sw,-66.7978210449218,-43.4457664489746,18.0195274353027,-90.7065811157226,446718496
sw,-67.1644592285156,-42.5834426879882,16.6851577758789,-59.5782051086425,446735163
sw,-67.61962890625,-42.1151657104492,23.4289722442626,-35.0498237609863,446751830
sw,-68.1915588378906,-42.0763282775878,31.6816043853759,-8.62067508697509,446768497
sw,-68.7779769897461,-42.5329093933105,33.0163307189941,20.7199554443359,446785164
sw,-69.2750549316406,-43.43013381958,27.2794551849365,46.8030929565429,446801831
sw,-69.6608428955078,-44.8528289794921,20.2781105041503,76.7389144897461,446818498
sw,-69.947265625,-46.9716987609863,14.6068067550659,116.150192260742,446835165
sw,-70.1271667480468,-49.737319946289,8.9548692703247,155.886123657226,446851832
sw,-70.2654113769531,-52.6143531799316,7.47357416152954,160.848846435546,446868499
sw,-70.3437271118164,-55.1783866882324,4.56756925582885,142.877136230468,446885166
sw,-70.4884567260742,-57.7385559082031,8.35591793060302,148.933471679687,446901833
sw,-70.642219543457,-59.5379600524902,8.12630367279052,108.088027954101,446918500
sw,-70.608642578125,-60.3320808410644,-3.00822448730468,47.620189666748,446935167
sw,-70.2665176391601,-60.2140655517578,-20.4086380004882,-13.6390962600708,446951834
sw,-69.7624130249023,-60.0000038146972,-29.1375083923339,-17.2148132324218,446968501
sw,-69.3048629760742,-60.1393737792968,-26.0460700988769,1.83667397499084,446985168
sw,-68.9966278076171,-61.4245414733886,-17.7996482849121,69.0615692138671,447001835
sw,-68.4684143066406,-63.5143890380859,-32.0785217285156,122.350929260253,447018502
sw,-67.3468933105468,-65.2675628662109,-68.5268478393554,103.233451843261,447035169
sw,-65.7873611450195,-66.6276473999023,-96.2494888305664,78.4646606445312,447051836
sw,-63.7949981689453,-68.2318801879882,-123.462791442871,92.28369140625,447068503
sw,-61.5554809570312,-70.2194213867187,-138.999954223632,114.038101196289,447085170
sw,-59.3064384460449,-72.3320159912109,-139.001174926757,120.922218322753,447101837
sw,-56.6010513305664,-74.3223800659179,-163.867614746093,115.876266479492,447118504
sw,-52.6829376220703,-75.6237106323242,-232.696426391601,74.9454116821289,447135171
sw,-49.4306030273437,-76.3492202758789,-192.929382324218,39.3693542480468,447151838
sw,-47.8282089233398,-76.8829116821289,-97.545295715332,27.357343673706,447168505
sw,-45.5409851074218,-77.673469543457,-137.222793579101,44.2828521728515,447185172
sw,-42.5226364135742,-78.5602569580078,-178.588623046875,51.5990562438964,447201839
sw,-39.7988777160644,-79.4486694335937,-159.980224609375,50.9508552551269,447218506
sw,-37.6806182861328,-80.2607192993164,-123.640853881835,44.9741477966308,447235173
sw,-35.829246520996,-80.9206771850586,-108.763298034667,37.316593170166,447251840
sw,-34.316909790039,-81.4656066894531,-89.634033203125,31.6271495819091,447268507
sw,-33.1273498535156,-81.9205627441406,-71.0412063598632,25.6920070648193,447285174
sw,-32.3597259521484,-82.3258819580078,-46.6356391906738,22.708848953247,447301841
sw,-32.2756652832031,-82.6616897583007,-6.45111227035522,19.8515014648437,447318508
sw,-32.7392272949218,-82.9720611572265,25.7711086273193,20.2128582000732,447335175
sw,-33.5022048950195,-83.3058166503906,43.2065391540527,22.8036670684814,447351842
sw,-34.7433624267578,-83.6341934204101,71.292007446289,22.795970916748,447368509
sw,-36.853832244873,-83.9972381591796,122.722763061523,24.055154800415,447385176
sw,-39.5349197387695,-84.4019241333007,158.22248840332,24.4021244049072,447401843
sw,-41.9666366577148,-84.8150329589843,144.66600036621,22.3429889678955,447418510
sw,-44.4086456298828,-85.1681976318359,145.021194458007,17.0261001586914,447435177
sw,-47.5196342468261,-85.4137954711914,184.813888549804,10.9742650985717,447451844
sw,-50.2339515686035,-85.5416564941406,161.252716064453,5.13146257400512,447468511
sw,-51.1283264160156,-85.6329193115234,52.0109024047851,3.07702922821044,447485178
sw,-51.058292388916,-85.698257446289,-5.31941080093383,1.67771232128143,447501845
sw,-50.9398880004882,-85.6318359375,-8.52650260925293,-3.93687319755554,447518512
sw,-51.2308692932128,-85.3832321166992,15.9432973861694,-11.8803615570068,447535179
sw,-52.2380676269531,-84.8486251831054,58.9891815185546,-26.2799224853515,447551846
sw,-53.4484634399414,-84.1954193115234,70.6793365478515,-33.7205772399902,447568513
sw,-54.2153091430664,-83.6955337524414,45.2729377746582,-24.9460582733154,447585180
sw,-55.0977325439453,-83.3380279541015,52.8131408691406,-18.1277446746826,447601847
sw,-56.3484420776367,-83.0338973999023,74.2142562866211,-22.7748794555664,447618514
sw,-57.4942741394043,-82.5177993774414,67.4022369384765,-45.7122726440429,447635181
sw,-58.6481094360351,-81.4395675659179,67.7848968505859,-83.1632461547851,447651848
sw,-60.0515365600585,-79.6958847045898,82.8879241943359,-120.338523864746,447668515
sw,-61.2529869079589,-77.2497406005859,70.9715194702148,-157.035125732421,447685182
sw,-62.2289123535156,-74.583251953125,57.4407768249511,-163.52197265625,447701849
sw,-63.1330528259277,-71.8598403930664,53.0268402099609,-159.808792114257,447718516
sw,-63.8452415466308,-69.0105819702148,41.2150001525878,-160.205978393554,447735183
sw,-64.4029541015625,-66.0461959838867,31.7218647003173,-164.112045288085,447751850
sw,-64.8222885131836,-63.2822036743164,23.5557594299316,-159.164627075195,447768517
sw,-65.0448989868164,-60.0630569458007,11.8559036254882,-197.49983215332,447785184
sw,-65.2288436889648,-56.2935829162597,9.44237327575683,-236.249740600585,447801851
sw,-65.5440521240234,-52.5554885864257,17.323429107666,-234.232208251953,447818518
sw,-66.0368957519531,-49.4776000976562,27.9576530456542,-192.63784790039,447835185
sw,-66.524673461914,-47.05073928833,27.2455978393554,-152.141311645507,447851852
sw,-67.0219116210937,-45.0819931030273,27.2615375518798,-124.159027099609,447868519
sw,-67.5455627441406,-43.804515838623,28.781660079956,-82.1920013427734,447885186
sw,-68.0728454589843,-43.0618019104003,29.3105659484863,-49.464744567871,447901853
sw,-68.5762329101562,-42.7763977050781,28.2112960815429,-21.3841018676757,447918520
sw,-69.0226364135742,-42.8445396423339,24.9731693267822,4.48223618150223e-05,447935187
sw,-69.42431640625,-43.2965202331543,22.3334503173828,23.077091217041,447951854
sw,-69.7886352539062,-44.2342376708984,20.0567302703857,52.0854110717773,447968521
sw,-70.0930862426757,-45.4474411010742,16.5392761230468,66.1974182128906,447985188
sw,-70.2559967041015,-47.2252311706543,8.16348552703857,95.8662796020507,448001855
sw,-70.2997894287109,-50.1715812683105,1.05568623542785,163.766616821289,448018522
sw,-70.3005142211914,-53.3042488098144,-1.55923843383789,175.929260253906,448035189
sw,-70.2985229492187,-56.4143829345703,-1.73985958099365,171.917236328125,448051856
sw,-70.3570709228515,-59.4400787353515,1.98463404178619,174.614135742187,448068523
sw,-70.5250930786132,-61.4733695983886,8.6466417312622,128.525268554687,448085190
sw,-70.7488555908203,-62.3704948425293,11.9650354385375,53.9986305236816,448101857
sw,-70.903823852539,-62.1703834533691,7.75977993011474,-20.9023551940917,448118524
sw,-70.7496719360351,-62.1869277954101,-10.7498664855957,-3.72169923782348,448135191
sw,-70.3626403808593,-63.4230422973632,-24.4043750762939,69.6336669921875,448151858
sw,-70.0266952514648,-65.2005310058593,-20.6815032958984,101.337684631347,448168525
sw,-69.072639465332,-66.4764099121093,-57.1256408691406,73.1388854980468,448185192
sw,-67.3144836425781,-68.0930099487304,-106.160469055175,94.1836395263671,448201859
sw,-65.2515792846679,-69.6536026000976,-125.173118591308,89.1875762939453,448218526
sw,-63.3252716064453,-71.2353744506836,-117.81517791748,89.6248779296875,448235193
sw,-61.3311042785644,-73.1201248168945,-122.058006286621,109.61897277832,448251860
sw,-58.4054527282714,-74.8494186401367,-176.15086364746,102.394790649414,448268527
sw,-54.8953056335449,-75.910041809082,-209.228729248046,61.4636993408203,448285194
sw,-52.0719604492187,-76.5733108520507,-168.122573852539,33.7866897583007,448301861
sw,-50.5649757385253,-77.2526473999023,-91.7108688354492,33.2411804199218,448318528
sw,-48.6778831481933,-78.0497817993164,-114.103340148925,41.3396492004394,448335195
sw,-45.897964477539,-78.8501739501953,-166.241226196289,44.0753936767578,448351862
sw,-43.1117630004882,-79.8327560424804,-166.321624755859,56.5879707336425,448368529
sw,-40.7102699279785,-80.7323989868164,-143.748474121093,51.4751510620117,448385196
sw,-38.7904586791992,-81.4684371948242,-115.49291229248,41.5913848876953,448401863
sw,-37.2271499633789,-82.0613327026367,-94.6552047729492,33.4680519104003,448418530
sw,-36.0737762451171,-82.4356613159179,-70.5528488159179,20.6328945159912,448435197
sw,-35.3789863586425,-82.7374801635742,-43.5813255310058,16.3864383697509,448451864
sw,-35.2200660705566,-83.0774536132812,-11.9537477493286,18.7329349517822,448468531
sw,-35.5434265136718,-83.3965759277343,16.6086502075195,17.8855285644531,448485198
sw,-36.3548774719238,-83.796760559082,45.5923881530761,23.3968410491943,448501865
sw,-37.6957206726074,-84.2463684082031,77.2340545654296,26.6063194274902,448518532
sw,-39.6137962341308,-84.6492156982421,111.446922302246,23.2977752685546,448535199
sw,-42.2948951721191,-85.0104522705078,157.9892578125,19.7618007659912,448551866
sw,-44.5849533081054,-85.3390655517578,135.705108642578,16.8600788116455,448568533
sw,-46.8394966125488,-85.556396484375,133.616836547851,9.96061992645263,448585200
sw,-49.228515625,-85.6420745849609,142.028991699218,2.70208740234375,448601867
sw,-51.2700271606445,-85.6605377197265,121.340591430664,-0.390466064214706,448618534
sw,-52.0730323791503,-85.6359710693359,46.9914512634277,-2.21085047721862,448635201
sw,-51.9370384216308,-85.5419158935546,-9.55744838714599,-6.03670978546142,448651868
sw,-51.8193206787109,-85.3597869873046,-8.74833011627197,-10.1413049697875,448668535
sw,-52.1433525085449,-85.0175247192382,17.7508277893066,-18.0869350433349,448685202
sw,-53.1287231445312,-84.4633178710937,57.5340042114257,-30.291612625122,448701869
sw,-54.2438087463378,-83.8431167602539,64.4573822021484,-35.3780288696289,448718536
sw,-55.0674438476562,-83.3201293945312,47.8054847717285,-31.8739833831787,448735203
sw,-56.1072692871093,-82.7521362304687,61.7146377563476,-36.6493263244628,448751870
sw,-57.3153686523437,-81.9041061401367,72.1703491210937,-55.550682067871,448768537
sw,-58.3962821960449,-80.6295318603515,64.0949630737304,-83.6589431762695,448785204
sw,-59.6318473815918,-78.6373596191406,72.901123046875,-126.776153564453,448801871
sw,-61.0447807312011,-75.9034881591796,83.7618103027343,-167.045364379882,448818538
sw,-62.131908416748,-72.9367218017578,64.8753433227539,-175.201934814453,448835205
sw,-62.9910926818847,-69.8877716064453,51.484878540039,-173.467651367187,448851872
sw,-63.6871299743652,-66.8101348876953,41.3140220642089,-169.396331787109,448868539
sw,-64.2318344116211,-64.0253677368164,30.946678161621,-152.555557250976,448885206
sw,-64.7998352050781,-61.2903823852539,31.8751583099365,-160.931777954101,448901873
sw,-65.2301483154296,-58.0392341613769,23.85546875,-202.855239868164,448918540
sw,-65.5496826171875,-54.4638481140136,17.3432102203369,-226.3701171875,448935207
sw,-65.9507293701171,-51.1135940551757,21.849702835083,-212.966369628906,448951874
sw,-66.4468765258789,-48.3571166992187,26.7709579467773,-176.454406738281,448968541
sw,-66.9787673950195,-46.0816459655761,28.1801795959472,-146.152847290039,448985208
sw,-67.4394302368164,-44.405963897705,23.1066551208496,-110.497673034667,449001875
sw,-67.7332229614257,-43.2755737304687,12.7981977462768,-77.7465133666992,449018542
sw,-67.9324645996093,-42.5422630310058,7.67800188064575,-52.9507446289062,449035209
sw,-68.1773071289062,-42.229694366455,11.3516187667846,-26.9532890319824,449051876
sw,-68.4911041259765,-42.2499656677246,16.2285594940185,-7.0945405960083,449068543
sw,-68.81103515625,-42.6598854064941,16.7414970397949,15.8203878402709,449085210
sw,-69.095474243164,-43.5616607666015,14.415244102478,45.3333168029785,449101877
sw,-69.3339920043945,-44.9626426696777,11.6644220352172,74.5646362304687,449118544
sw,-69.5279083251953,-47.1994514465332,9.3065185546875,122.867454528808,449135211
sw,-69.6405029296875,-50.2549018859863,4.82868099212646,171.16584777832,449151878
sw,-69.6464462280273,-53.3303642272949,-1.12073528766632,173.249114990234,449168545
