Label,Left_Hip_q,Right_Hip_q,Left_Hip_qd,Right_Hip_qd,SampleTimeFine
sq,37.4045280456543,26.0542549133301,-134.036779403686,-122.479438781738,1811071490
sq,35.2599395751953,24.0945838928223,-93.2660102844234,-73.079109191895,1811088157
sq,33.7676834106445,22.925318145752,-70.7123279571538,-51.5170097351079,1811104824
sq,32.6362861633301,22.1010459899902,-76.6510963439941,-33.3888530731197,1811121491
sq,31.4098686218262,21.5668243408203,-71.0711479187012,-25.5680084228516,1811138158
sq,30.272730255127,21.1577362060547,-79.3704986572266,-58.0585002899165,1811154825
sq,29.0028022766113,20.228800201416,-98.3791351318359,-83.4746360778813,1811171492
sq,27.428736114502,18.8932060241699,-93.2562351226807,-82.8573703765869,1811188159
sq,25.9366363525391,17.5674880981445,-94.8493480682373,-68.785667419434,1811204826
sq,24.4190467834473,16.4669174194336,-98.0207920074463,-81.7279815673823,1811221493
sq,22.8507141113281,15.1592697143555,-96.383810043335,-88.4990692138676,1811238160
sq,21.3085731506348,13.7432846069336,-108.958005905151,-77.20947265625,1811254827
sq,19.5652450561523,12.5079330444336,-119.326591491699,-91.4800167083736,1811271494
sq,17.6560195922852,11.0442527770996,-106.007099151611,-99.8668670654301,1811288161
sq,15.9599060058594,9.44638290405273,-108.736991882324,-88.7784957885738,1811304828
sq,14.2201141357422,8.02592697143555,-110.014200210571,-98.5898971557617,1811321495
sq,12.4598869323731,6.44848861694336,-107.535839080811,-97.1100330352779,1811338162
sq,10.7393135070801,4.89472808837891,-110.202074050903,-117.084503173829,1811354829
sq,8.97608032226563,3.02137603759766,-111.159801483154,-103.547096252441,1811371496
sq,7.19752349853516,1.36462249755859,-112.987518310547,-104.160308837891,1811388163
sq,5.38972320556641,-0.301942443847656,-106.48250579834,-104.62474822998,1811404830
sq,3.68600311279297,-1.97593841552734,-109.31396484375,-102.380752563477,1811421497
sq,1.93697967529297,-3.61403045654297,-118.532657623291,-98.4621047973633,1811438164
sq,0.0404571533203129,-5.18942413330078,-117.558479309082,-90.4998779296875,1811454831
sq,-1.840478515625,-6.63742218017578,-112.080574035645,-64.6262168884277,1811471498
sq,-3.63376770019531,-7.67144165039062,-108.604907989502,-37.7044677734375,1811488165
sq,-5.37144622802734,-8.27471313476562,-104.050636291504,-10.4770660400391,1811504832
sq,-7.03625640869141,-8.44234619140625,-96.5805053710937,-6.04581832885742,1811521499
sq,-8.58154449462891,-8.53907928466797,-64.5956993103027,-11.2953186035156,1811538166
sq,-9.61507568359375,-8.71980438232422,-40.3847694396973,-21.4409828186035,1811554833
sq,-10.2612319946289,-9.06286010742187,-20.4586982727051,-34.8763465881348,1811571500
sq,-10.5885711669922,-9.62088165283203,-5.80978393554687,-33.0572128295898,1811588167
sq,-10.6815277099609,-10.1497970581055,0.857830047607422,-22.5529670715332,1811604834
sq,-10.6678024291992,-10.51064453125,4.5323371887207,-2.11048126220703,1811621501
sq,-10.5952850341797,-10.5444122314453,0.787258148193359,11.8718147277832,1811638168
sq,-10.5826889038086,-10.3544631958008,-0.0309944152832031,9.71698760986328,1811654835
sq,-10.5831848144531,-10.198991394043,-1.62029266357422,-1.55067443847656,1811671502
sq,-10.6091094970703,-10.2238021850586,-6.8507194519043,-14.7280693054199,1811688169
sq,-10.7187210083008,-10.4594512939453,-8.20493698120117,-16.4384841918945,1811704836
sq,-10.85,-10.7224670410156,1.32322311401367,-7.97080993652344,1811721503
sq,-10.8288284301758,-10.85,12.3500823974609,2.31599807739258,1811738170
sq,-10.6312271118164,-10.8129440307617,15.5296325683594,8.70800018310547,1811754837
sq,-10.3827529907227,-10.673616027832,13.6756896972656,11.4579200744629,1811771504
sq,-10.1639419555664,-10.4902893066406,11.7201805114746,11.0411643981934,1811788171
sq,-9.97641906738281,-10.3136306762695,8.90064239501953,9.6287727355957,1811804838
sq,-9.8340087890625,-10.1595703125,6.8206787109375,6.88648223876953,1811821505
sq,-9.7248779296875,-10.0493865966797,7.53450393676758,4.01639938354492,1811838172
sq,-9.60432586669922,-9.98512420654297,8.42618942260742,3.98492813110352,1811854839
sq,-9.4695068359375,-9.92136535644531,8.17298889160156,3.20148468017578,1811871506
sq,-9.33873901367187,-9.8701416015625,7.53116607666016,2.29358673095703,1811888173
sq,-9.21824035644531,-9.83344421386719,5.38206100463867,2.73752212524414,1811904840
sq,-9.13212738037109,-9.78964385986328,2.80666351318359,2.40755081176758,1811921507
sq,-9.08722076416016,-9.751123046875,1.76477432250977,0.992774963378906,1811938174
sq,-9.058984375,-9.73523864746094,5.50127029418945,-0.0357627868652344,1811954841
sq,-8.97096405029297,-9.73581085205078,10.5147361755371,0.254631042480469,1811971508
sq,-8.80272827148437,-9.73173675537109,13.6361122131348,1.5864372253418,1811988175
sq,-8.58455047607422,-9.70635375976562,13.7844085693359,3.8609504699707,1812004842
sq,-8.36399993896484,-9.64457855224609,12.0229721069336,6.12545013427734,1812021509
sq,-8.17163238525391,-9.54657135009766,9.84859466552734,7.01284408569336,1812038176
sq,-8.01405487060547,-9.43436584472656,8.55588912963867,6.9575309753418,1812054843
sq,-7.87716064453125,-9.32304534912109,8.21495056152344,5.54323196411133,1812071510
sq,-7.74572143554687,-9.23435363769531,8.70180130004883,4.84848022460937,1812088177
sq,-7.60649261474609,-9.15677795410156,9.04607772827148,3.03840637207031,1812104844
sq,-7.46175537109375,-9.10816345214844,9.24873352050781,4.11891937255859,1812121511
sq,-7.31377563476562,-9.0422607421875,9.45377349853516,4.53472137451172,1812138178
sq,-7.16251525878906,-8.96970520019531,9.48333740234375,6.39009475708008,1812154845
sq,-7.01078186035156,-8.86746368408203,8.47864151000977,5.90229034423828,1812171512
sq,-6.87512359619141,-8.77302703857422,8.04567337036133,5.78975677490234,1812188179
sq,-6.74639282226562,-8.68039093017578,7.9951286315918,6.03961944580078,1812204846
sq,-6.61847076416016,-8.58375701904297,7.70664215087891,6.65950775146484,1812221513
sq,-6.49516448974609,-8.47720489501953,7.59267807006836,6.74581527709961,1812238180
sq,-6.373681640625,-8.36927185058594,7.97367095947266,7.476806640625,1812254847
sq,-6.24610290527344,-8.24964294433594,8.69417190551758,8.20636749267578,1812271514
sq,-6.10699615478516,-8.11834106445312,9.24158096313477,9.74702835083008,1812288181
sq,-5.959130859375,-7.96238861083984,9.21440124511719,11.1904144287109,1812304848
sq,-5.81170043945312,-7.78334197998047,9.78374481201172,11.7344856262207,1812321515
sq,-5.65516052246094,-7.59559020996094,12.1617317199707,11.0607147216797,1812338182
sq,-5.46057281494141,-7.41861877441406,14.2126083374023,10.2958679199219,1812354849
sq,-5.23317108154297,-7.25388488769531,20.2493667602539,10.0855827331543,1812371516
sq,-4.90918121337891,-7.09251556396484,27.3599624633789,11.1517906188965,1812388183
sq,-4.47142181396484,-6.9140869140625,32.3677062988281,11.8651390075684,1812404850
sq,-3.95353851318359,-6.72424468994141,40.827751159668,10.8480453491211,1812421517
sq,-3.30029449462891,-6.55067596435547,51.7125129699707,9.62114334106445,1812438184
sq,-2.47289428710937,-6.39673767089844,53.5802841186523,7.12299346923828,1812454851
sq,-1.61560974121094,-6.28276977539062,38.8321876525879,7.20548629760742,1812471518
sq,-0.994294738769531,-6.16748199462891,41.419506072998,10.2896690368652,1812488185
sq,-0.331582641601562,-6.00284729003906,41.6116714477539,10.6339454650879,1812504852
sq,0.3342041015625,-5.83270416259766,23.6701965332031,10.3402137756348,1812521519
sq,0.71292724609375,-5.6672607421875,21.9511985778809,5.09214401245117,1812538186
sq,1.06414642333984,-5.58578643798828,6.52885437011719,6.21509552001953,1812554853
sq,1.16860809326172,-5.48634490966797,-0.580787658691406,11.1274719238281,1812571520
sq,1.15931549072266,-5.30830535888672,0.626087188720703,6.32381439208984,1812588187
sq,1.16933288574219,-5.20712432861328,-3.56912612915039,-0.944137573242187,1812604854
sq,1.11222686767578,-5.22223052978516,-0.276565551757812,-4.6234130859375,1812621521
sq,1.10780181884766,-5.29620513916016,0.729560852050781,-6.6370964050293,1812638188
sq,1.11947479248047,-5.40239868164062,-4.66728210449219,-9.59539413452148,1812654855
sq,1.04479827880859,-5.55592498779297,-2.43473052978516,-4.56619262695312,1812671522
sq,1.00584259033203,-5.62898406982422,4.06026840209961,1.32846832275391,1812688189
sq,1.07080688476562,-5.60772857666016,9.15336608886719,7.64846801757812,1812704856
sq,1.2172607421875,-5.48535308837891,8.17203521728516,10.1280212402344,1812721523
sq,1.34801330566406,-5.32330474853516,6.21414184570312,10.0178718566894,1812738190
sq,1.44743957519531,-5.16301879882812,6.72578811645508,5.6614875793457,1812754857
sq,1.55505218505859,-5.07243499755859,5.6610107421875,1.01518630981445,1812771524
sq,1.64562835693359,-5.05619201660156,6.59465789794922,-1.953125,1812788191
sq,1.75114288330078,-5.08744201660156,8.33654403686523,-1.43814086914062,1812804858
sq,1.88452758789062,-5.11045227050781,7.47585296630859,1.30558013916016,1812821525
sq,2.00414123535156,-5.08956298828125,6.09016418457031,4.08554077148437,1812838192
sq,2.10158386230469,-5.0241943359375,5.64432144165039,5.26809692382812,1812854859
sq,2.19189300537109,-4.93990478515625,10.8733177185059,7.0643424987793,1812871526
sq,2.36586608886719,-4.82687530517578,13.1874084472656,6.82592391967773,1812888193
sq,2.57686462402344,-4.71766052246094,15.5587196350098,8.64362716674805,1812904860
sq,2.82580413818359,-4.57936248779297,19.1659927368164,9.65070724487305,1812921527
sq,3.13246002197266,-4.424951171875,25.2838134765625,14.5721435546875,1812938194
sq,3.53700103759766,-4.191796875,30.2958488464356,20.4353332519531,1812954861
sq,4.02173461914063,-3.86483154296875,36.2787246704102,30.3139686584473,1812971528
sq,4.60219421386719,-3.37980804443359,47.6570129394531,41.5740013122559,1812988195
sq,5.36470642089844,-2.7146240234375,61.558723449707,49.9897003173828,1813004862
sq,6.34964599609375,-1.91478881835938,77.1341323852539,68.2234764099121,1813021529
sq,7.58379211425781,-0.823213195800781,94.1910743713379,82.298755645752,1813038196
sq,9.09084930419922,0.49356689453125,116.777658462524,98.513126373291,1813054863
sq,10.9592918395996,2.06977691650391,129.902124404908,109.880924224854,1813071530
sq,13.0377258300781,3.82787170410156,127.341985702514,137.299299240112,1813088197
sq,15.0751976013184,6.02466049194336,112.215995788575,186.252117156982,1813104864
sq,16.8706535339355,9.00469436645508,90.4581546783447,262.39824295044,1813121531
sq,18.3179840087891,13.2030662536621,79.7147750854497,281.648397445679,1813138198
sq,19.5934204101563,17.709440612793,94.1934585571285,185.796499252319,1813154865
sq,21.1005157470703,20.6821846008301,119.479894638061,139.647245407104,1813171532
sq,23.0121940612793,22.9165405273437,141.266345977783,139.094591140747,1813188199
sq,25.2724555969238,25.1420539855957,152.51350402832,163.726806640625,1813204866
sq,27.712671661377,27.7616828918457,167.209148406982,160.436868667602,1813221533
sq,30.3880180358887,30.3286727905273,134.605407714844,154.820442199708,1813238200
sq,32.5417045593262,32.8057998657227,86.8985652923584,32.8142642974849,1813254867
sq,33.9320816040039,33.3308280944824,123.077154159546,116.284132003784,1813271534
sq,35.9013160705567,35.191374206543,105.276584625244,199.432015419006,1813288201
sq,37.5857414245606,38.3822864532471,129.652261734009,125.250697135925,1813304868
sq,39.6601776123047,40.3862976074219,145.872592926025,108.019232749939,1813321535
sq,41.9941390991211,42.1146053314209,138.476729393005,70.9320306777954,1813338202
sq,44.2097667694092,43.2495178222656,122.572898864747,79.6645879745483,1813354869
sq,46.1709331512451,44.5241512298584,97.8642702102657,122.826099395752,1813371536
sq,47.7367614746094,46.4893688201904,97.0243215560913,78.7591934204102,1813388203
sq,49.2891506195068,47.749515914917,81.6532373428345,75.6397247314449,1813404870
sq,50.5956024169922,48.9597515106201,95.6748723983765,85.7856273651127,1813421537
sq,52.1264003753662,50.3323215484619,99.2369651794434,79.5246362686157,1813438204
sq,53.7141918182373,51.6047157287598,100.721716880798,83.8010907173157,1813454871
sq,55.3257392883301,52.9455331802368,65.6760931015015,269.0070271492,1813471538
sq,56.3765567779541,57.249645614624,103.294193744659,242.432773113251,1813488205
sq,58.0292638778687,61.128569984436,225.131869316101,206.136703491211,1813504872
sq,61.6313737869263,64.4267572402954,154.83957529068,220.808340236545,1813521539
sq,64.1088069915772,67.9596906840801,195.536941289902,196.289004758,1813538206
sq,67.2373980522156,71.1003147602081,255.108490586281,209.804370999336,1813554873
sq,71.3191339015961,74.4571846961975,294.041976332664,242.93527007103,1813571540
sq,76.0238055229187,78.344149017334,317.143827676773,223.258674144745,1813588207
sq,81.0981067657471,81.9162878036499,299.19695854187,201.920092105866,1813604874
sq,85.885258102417,85.1470092773438,237.918138504028,204.779386520386,1813621541
sq,89.6919483184815,88.4234794616699,195.263624191284,187.678694725037,1813638208
sq,92.816166305542,91.4263385772705,148.92041683197,142.362833023071,1813654875
sq,95.1988929748535,93.7041439056397,112.99991607666,87.2845649719238,1813671542
sq,97.0068916320801,95.1006969451904,68.8321590423584,51.6456365585327,1813688209
sq,98.1082061767578,95.927027130127,44.0257787704468,24.6118307113647,1813704876
sq,98.812618637085,96.3208164215088,18.5383558273315,9.68813896179199,1813721543
sq,99.1092323303223,96.4758266448975,1.25217437744141,-27.6473760604858,1813738210
sq,99.1292671203613,96.0334686279297,-4.84573841094971,-21.6777324676514,1813754877
sq,99.0517353057861,95.6866249084473,-10.0958347320557,-26.8311500549316,1813771544
sq,98.8902019500732,95.2573265075684,-9.80353355407715,-32.6584577560425,1813788211
sq,98.733345413208,94.7347911834717,-7.82501697540283,-37.0438098907471,1813804878
sq,98.6081451416016,94.1420902252197,-10.4502439498901,-40.1015281677246,1813821545
sq,98.4409412384033,93.5004657745361,-14.4906044006348,-57.4740171432495,1813838212
sq,98.2090915679932,92.5808815002441,-19.9046134948731,-86.8561267852783,1813854879
sq,97.8906177520752,91.1911834716797,-30.2643775939941,-143.023729324341,1813871546
sq,97.4063877105713,88.9028038024902,-44.1731214523315,-192.12532043457,1813888213
sq,96.699617767334,85.8287986755371,-59.9664449691773,-238.925099372864,1813904880
sq,95.7401546478272,82.0059970855713,-83.6886167526245,-250.153362751007,1813921547
sq,94.4011367797852,78.0035432815552,-132.534265518189,-265.310525894165,1813938214
sq,92.2805885314941,73.7585748672485,-211.049437522888,-230.653367936611,1813954881
sq,88.9037975311279,70.0681209802628,-199.084401130676,-205.690570175648,1813971548
sq,85.7184471130371,66.7770718574524,-199.871778488159,-236.870259046555,1813988215
sq,82.5204986572266,62.9871477127075,-201.61098241806,-219.793677330017,1814004882
sq,79.2947229385376,59.4704488754272,-217.093124985695,-219.597399234772,1814021549
sq,75.8212329387665,55.9568904876709,-263.455852866173,-179.612457752228,1814038216
sq,71.6059392929077,53.0830911636353,-277.135223150253,-186.664521694183,1814054883
sq,67.1717757225037,50.0964588165283,-266.761332750321,-177.31785774231,1814071550
sq,62.9035943984985,47.2593730926514,-229.606688022613,-128.369927406311,1814088217
sq,59.2298873901367,45.2054542541504,-197.846055030823,-90.6623601913452,1814104884
sq,56.0643505096436,43.7548564910889,-174.337983131409,-99.4112491607666,1814121551
sq,53.274942779541,42.1642765045166,-156.738042831421,-82.0506811141968,1814138218
sq,50.7671340942383,40.8514656066895,-80.497145652771,-59.3391656875615,1814154885
sq,49.4791797637939,39.9020389556885,-93.9419269561763,-75.9124755859375,1814171552
sq,47.9761089324951,38.6874393463135,-116.258263587952,-97.1285104751583,1814188219
sq,46.1159767150879,37.1333831787109,-108.415126800537,-97.614049911499,1814204886
sq,44.3813346862793,35.571558380127,-98.7378358840938,-90.3089046478271,1814221553
sq,42.8015293121338,34.1266159057617,-100.919604301453,-103.859186172485,1814238220
sq,41.1868156433106,32.464868927002,-95.7267284393306,-122.200965881348,1814254887
sq,39.6551879882813,30.5096534729004,-93.7035083770756,-126.470804214477,1814271554
sq,38.1559318542481,28.4861206054687,-100.229740142823,-130.65481185913,1814288221
sq,36.5522560119629,26.3956436157227,-94.3729877471919,-124.186038970948,1814304888
sq,35.0422882080078,24.4086669921875,-94.3689346313472,-134.74416732788,1814321555
sq,33.5323852539063,22.2527603149414,-110.289573669434,-136.568307876587,1814338222
sq,31.7677520751953,20.067667388916,-120.233058929444,-131.290435791016,1814354889
sq,29.8440231323242,17.9670204162598,-125.162363052368,-126.397132873535,1814371556
sq,27.8414253234863,15.9446662902832,-126.771926879883,-131.466150283814,1814388223
sq,25.8130744934082,13.8412078857422,-129.975557327271,-122.191429138184,1814404890
sq,23.7334655761719,11.8861450195313,-143.780708312988,-131.076812744141,1814421557
sq,21.4329742431641,9.788916015625,-131.91270828247,-138.184070587158,1814438224
sq,19.3223709106445,7.57797088623047,-136.383295059205,-149.139404296875,1814454891
sq,17.1402381896973,5.19174041748047,-141.451120376587,-129.544258117676,1814471558
sq,14.8770202636719,3.11903228759766,-152.127027511597,-112.693309783936,1814488225
sq,12.4429878234863,1.31593933105469,-152.338743209839,-75.3035545349121,1814504892
sq,10.0055679321289,0.111082458496094,-144.153118133545,-46.1521148681641,1814521559
sq,7.69911804199219,-0.627351379394531,-139.806747436523,-34.4343185424805,1814538226
sq,5.46221008300781,-1.17830047607422,-148.627281188965,-24.5075225830078,1814554893
sq,3.08417358398437,-1.57042083740234,-148.21195602417,-31.2333106994629,1814571560
sq,0.712782287597657,-2.07015380859375,-138.257026672363,-37.7411842346191,1814588227
sq,-1.49933013916016,-2.67401275634766,-125.583171844482,-16.3149833679199,1814604894
sq,-3.50866088867187,-2.93505249023437,-97.7916717529297,-14.5802497863769,1814621561
sq,-5.07332763671875,-3.16833648681641,-62.9367828369141,-74.9077796936035,1814638228
sq,-6.08031616210937,-4.36686096191406,-39.9327278137207,-41.7194366455078,1814654895
sq,-6.71923980712891,-5.03437194824219,-28.4047126770019,4.03118133544922,1814671562
sq,-7.17371520996094,-4.969873046875,7.24935531616211,23.1409072875977,1814688229
sq,-7.05772552490234,-4.59961853027344,32.0868492126465,26.2069702148438,1814704896
sq,-6.5443359375,-4.18030700683594,21.9545364379883,12.3586654663086,1814721563
sq,-6.19306335449219,-3.982568359375,0.737667083740234,0.732898712158203,1814738230
sq,-6.18126068115234,-3.97084197998047,-23.5509872436523,-23.1075286865234,1814754897
sq,-6.55807647705078,-4.34056243896484,-35.4499816894531,-30.7273864746094,1814771564
sq,-7.12527618408203,-4.83220062255859,-21.2750434875488,-12.730598449707,1814788231
sq,-7.46567687988281,-5.03589019775391,3.86142730712891,-5.49745559692383,1814804898
sq,-7.40389404296875,-5.12384948730469,13.4148597717285,16.6425704956055,1814821565
sq,-7.18925628662109,-4.857568359375,11.6038322448731,27.2774696350098,1814838232
sq,-7.00359497070312,-4.42112884521484,10.8609199523926,29.4570922851563,1814854899
sq,-6.82982025146484,-3.94981536865234,8.84866714477539,36.7741584777832,1814871566
sq,-6.68824157714844,-3.36142883300781,10.3240013122559,37.5733375549316,1814888233
sq,-6.52305755615234,-2.76025543212891,12.6185417175293,33.8783264160156,1814904900
sq,-6.32116088867187,-2.21820220947266,16.8981552124023,37.3101234436035,1814921567
sq,-6.05079040527344,-1.621240234375,20.3776359558106,46.933650970459,1814938234
sq,-5.72474822998047,-0.870301818847656,24.9419212341309,65.5288696289062,1814954901
sq,-5.32567749023437,0.178160095214844,26.6251564025879,86.7476463317871,1814971568
sq,-4.89967498779297,1.56612243652344,30.914306640625,108.109474182129,1814988235
sq,-4.40504608154297,3.2958740234375,34.3737602233887,125.113964080811,1815004902
sq,-3.85506591796875,5.29769744873047,39.3519401550293,133.231401443481,1815021569
sq,-3.22543487548828,7.42939987182617,49.4070053100586,160.654067993164,1815038236
sq,-2.43492279052734,9.9998649597168,64.9676322937012,173.176527023315,1815054903
sq,-1.39544067382813,12.7706893920898,84.721565246582,154.374599456788,1815071570
sq,-0.0398956298828121,15.2406829833984,111.242294311523,58.3844184875487,1815088237
sq,1.73998107910156,16.1748336791992,140.931606292725,58.9475631713872,1815104904
sq,3.99488677978516,17.1179946899414,172.073841094971,63.7860298156734,1815121571
sq,6.74806823730469,18.1385711669922,222.259283065796,-8.1937313079834,1815138238
sq,10.3042167663574,18.0074714660645,288.144826889038,35.0162982940674,1815154905
sq,14.914533996582,18.5677322387695,172.976732254028,59.4203472137451,1815171572
sq,17.6821617126465,19.5184577941895,115.254640579224,-28.5334587097172,1815188239
sq,19.5262359619141,19.061922454834,-18.1360244750981,-40.3556823730469,1815204906
sq,19.2360595703125,18.4162315368652,6.53529167175337,-86.8921279907222,1815221573
sq,19.3406242370605,17.0259574890137,-35.602331161499,-70.7957744598388,1815238240
sq,18.7709869384766,15.8932250976563,-34.0235233306885,-62.798261642456,1815254907
sq,18.2266105651855,14.8884529113769,1.62100791931197,-89.5094871520996,1815271574
sq,18.2525466918945,13.4563011169434,-16.0806179046635,-76.7157077789307,1815288241
sq,17.9952568054199,12.2288497924805,-65.5405521392822,-69.6017742156982,1815304908
sq,16.9466079711914,11.1152214050293,-51.6345500946045,-60.3916645050049,1815321575
sq,16.1204551696777,10.1489547729492,-65.1068687438959,-58.0885410308838,1815338242
sq,15.0787452697754,9.21953811645508,-56.7572116851816,-50.8000850677495,1815354909
sq,14.1706298828125,8.40673675537109,-57.8598976135249,-41.7845249176021,1815371576
sq,13.2448715209961,7.73818435668945,-61.7742538452148,-46.4878082275391,1815388243
sq,12.2564834594727,6.99437942504883,-59.5605373382568,-51.6953468322754,1815404910
sq,11.3035148620606,6.16725387573242,-52.2165298461914,-52.3102283477783,1815421577
sq,10.4680503845215,5.33029022216797,-43.9620018005375,-57.1088790893555,1815438244
sq,9.76465835571288,4.41654815673828,-39.8972034454341,-64.326286315918,1815454911
sq,9.12630310058594,3.38732757568359,-37.3687744140625,-71.8669891357422,1815471578
sq,8.52840270996094,2.23745574951172,-36.8342399597168,-72.4449157714844,1815488245
sq,7.93905487060547,1.07833709716797,-34.2001914978027,-71.0740089416504,1815504912
sq,7.39185180664063,-0.0588470458984371,-36.6215705871582,-64.812183380127,1815521579
sq,6.80590667724609,-1.09584197998047,-44.5146560668945,-62.4661445617676,1815538246
sq,6.09367218017578,-2.09530029296875,-58.5546493530273,-55.1705360412598,1815554913
sq,5.15679779052734,-2.97802886962891,-67.664623260498,-42.0804023742676,1815571580
sq,4.07416381835938,-3.65131530761719,-78.9308547973633,-22.1366882324219,1815588247
sq,2.81127014160156,-4.00550231933594,-85.0276947021484,-1.57785415649414,1815604914
sq,1.45082702636719,-4.03074798583984,-84.0916633605957,8.9116096496582,1815621581
sq,0.105360412597657,-3.88816223144531,-82.6287269592285,1.70230865478516,1815638248
sq,-1.21669921875,-3.86092529296875,-73.8449096679687,-10.4537010192871,1815654915
sq,-2.3982177734375,-4.02818450927734,-57.3306083679199,-17.519474029541,1815671582
sq,-3.31550750732422,-4.30849609375,-29.0923118591309,-16.5319442749023,1815688249
sq,-3.78098449707031,-4.57300720214844,2.39992141723633,-3.14855575561523,1815704916
sq,-3.74258575439453,-4.62338409423828,24.9900817871094,9.84048843383789,1815721583
sq,-3.34274444580078,-4.46593627929687,19.3285942077637,25.5427360534668,1815738250
sq,-3.03348693847656,-4.05725250244141,6.98661804199219,43.2443618774414,1815754917
sq,-2.92170104980469,-3.36534271240234,-6.68668746948242,63.2195472717285,1815771584
sq,-3.02868804931641,-2.35382995605469,-10.9415054321289,80.589771270752,1815788251
sq,-3.20375213623047,-1.06439361572266,-0.752449035644531,96.7311859130859,1815804918
sq,-3.21579132080078,0.483305358886719,16.5057182312012,119.321346282959,1815821585
sq,-2.95169982910156,2.39244689941406,31.156063079834,145.798206329345,1815838252
sq,-2.45320281982422,4.72521820068359,49.2038726806641,161.544561386109,1815854919
sq,-1.66594085693359,7.30993118286133,66.0409927368164,180.509567260742,1815871586
sq,-0.609284973144531,10.1980842590332,83.2490921020508,197.214126586914,1815888253
sq,0.722700500488282,13.3535102844238,103.91902923584,165.556907653809,1815904920
sq,2.38540496826172,16.0024208068848,130.11360168457,122.685194015503,1815921587
sq,4.46722259521484,17.9653839111328,157.864093780518,99.8284816741943,1815938254
sq,6.99304809570313,19.5626396179199,197.472810745239,145.64323425293,1815954921
sq,10.1526130676269,21.8929313659668,244.655609130859,169.739484786987,1815971588
sq,14.0671028137207,24.6087631225586,265.38348197937,160.654783248902,1815988255
sq,18.3132385253906,27.179239654541,225.059986114502,144.39058303833,1816004922
sq,21.9141983032227,29.4894889831543,168.781280517578,149.901151657104,1816021589
sq,24.6146987915039,31.887907409668,141.061305999755,132.608652114868,1816038256
sq,26.8716796875,34.0096458435059,105.23796081543,119.178295135498,1816054923
sq,28.5554870605469,35.9164985656738,112.261772155762,101.391315460205,1816071590
sq,30.3516754150391,37.5387596130371,100.647211074829,86.6464376449585,1816088257
sq,31.9620307922363,38.9251026153564,113.262414932251,76.7761468887334,1816104924
sq,33.7742294311523,40.1535209655762,127.465724945068,137.46690750122,1816121591
sq,35.8136810302734,42.3529914855957,174.226999282837,137.825727462769,1816138258
sq,38.6013130187988,44.558203125,124.123334884644,134.960889816284,1816154925
sq,40.5872863769531,46.7175773620606,79.5058012008667,94.8868989944458,1816171592
sq,41.859379196167,48.2357677459717,72.2478628158569,77.029824256897,1816188259
sq,43.0153450012207,49.468244934082,144.583463668823,243.35789680481,1816204926
sq,45.3286804199219,53.361971282959,161.899089813232,251.581907272339,1816221593
sq,47.9190658569336,57.3872817993164,98.3284711837769,219.213873147965,1816238260
sq,49.492321395874,60.8947037696838,85.1953029632568,2277.15370059013,1816254927
sq,50.8554462432861,97.329162979126,132.317781448364,-74.4121074676514,1816271594
sq,52.97253074646,96.1385692596436,143.041491508484,-86.673378944397,1816288261
sq,55.2611946105957,94.7517951965332,233.393311500549,-130.701184272766,1816304928
sq,58.9954875946045,92.660576248169,226.835250854492,-106.218218803406,1816321595
sq,62.6248516082764,90.9610847473145,300.977170467377,-156.816959381103,1816338262
sq,67.4404863357544,88.4520133972168,352.858366444707,-196.707367897034,1816354929
sq,73.0862201988697,85.3046955108643,362.8571908921,-226.226806640625,1816371596
sq,78.8919352531433,81.6850666046143,312.952429056168,-235.889375209808,1816388263
sq,83.899174118042,77.9108366012573,244.116485118866,-244.793862104416,1816404930
sq,87.8050378799439,73.9941348075867,222.127377986908,-222.920045256615,1816421597
sq,91.3590759277344,70.4274140834808,221.996545791626,-245.012745261192,1816438264
sq,94.9110206604004,66.5072101593018,163.020849227905,-280.165880918503,1816454931
sq,97.5193542480469,62.0245560646057,120.240092277527,-234.959095716476,1816471598
sq,99.4431957244873,58.2652105331421,89.5786285400391,-213.184833526611,1816488265
sq,100.876453781128,54.8542531967163,80.6399583816528,-225.587546825409,1816504932
sq,102.166693115234,51.2448524475098,53.2069206237793,-196.149826049805,1816521599
sq,103.018003845215,48.1064552307129,29.9698114395142,-191.516637802124,1816538266
sq,103.497520828247,45.0421890258789,15.3580904006958,-40.5416488647461,1816554933
sq,103.743250274658,44.393522644043,5.78558444976807,-55.4078817367554,1816571600
sq,103.835819625854,43.5069965362549,3.05461883544922,-84.7851037979126,1816588267
sq,103.884693527222,42.1504348754883,3.10003757476807,-79.573392868042,1816604934
sq,103.934294128418,40.8772605895996,-4.07540798187256,-58.6811304092407,1816621601
sq,103.869087600708,39.9383625030518,-5.96261024475098,-110.270500183105,1816638268
sq,103.773685836792,38.1740345001221,-10.2850198745728,-97.0708131790161,1816654935
sq,103.609125518799,36.6209014892578,-19.8214054107666,-89.8647308349609,1816671602
sq,103.291983032227,35.1830657958984,-30.9996604919434,-108.503103256226,1816688269
sq,102.795988464356,33.4470161437988,-44.670820236206,-119.491815567017,1816704936
sq,102.081255340576,31.5351470947266,-63.9647245407104,-117.843389511108,1816721603
sq,101.057819747925,29.6496528625488,-89.2651081085205,-114.234685897828,1816738270
sq,99.6295780181885,27.8218978881836,-138.465762138367,-124.320030212402,1816754937
sq,97.4141258239746,25.8327774047852,-174.254894256592,-126.349210739136,1816771604
sq,94.6260475158691,23.811190032959,-192.181468009949,-127.34055519104,1816788271
sq,91.55114402771,21.7737411499023,-182.223320007324,-133.13889503479,1816804938
sq,88.6355709075928,19.6435188293457,-193.6936378479,-132.396221160889,1816821605
sq,85.5364727020264,17.5251792907715,-247.384905815125,-130.355834960937,1816838272
sq,81.5783142089844,15.4394859313965,-295.34275829792,-135.086774826049,1816854939
sq,76.8528300762177,13.2780975341797,-290.112666785717,-139.962196350098,1816871606
sq,72.2110274076462,11.0387023925781,-230.605445802212,-133.975267410278,1816888273
sq,68.5213402748108,8.89509811401367,-206.603497266769,-136.270523071289,1816904940
sq,65.2156843185425,6.71476974487305,-187.800943851471,-139.418125152588,1816921607
sq,62.2108692169189,4.48407974243164,-182.886600494385,-150.944471359253,1816938274
sq,59.2846836090088,2.06896820068359,-163.957118988037,-150.074005126953,1816954941
sq,56.6613697052002,-0.332215881347656,-103.807330131531,-104.250907897949,1816971608
sq,55.0004524230957,-2.00023040771484,-103.851556777954,-58.8388442993164,1816988275
sq,53.3388275146484,-2.94165191650391,-103.538036346435,-51.8970489501953,1817004942
sq,51.6822189331055,-3.77200469970703,-103.162646293641,-47.0342636108398,1817021609
sq,50.0316165924072,-4.52455291748047,-104.902863502502,-28.4829139709473,1817038276
sq,48.3531707763672,-4.98027954101562,-103.934764862061,-6.05249404907227,1817054943
sq,46.6902145385742,-5.07711944580078,-98.8547801971436,-0.142574310302734,1817071610
sq,45.1085380554199,-5.07940063476562,-102.838277816773,-12.786865234375,1817088277
sq,43.4631256103516,-5.28399047851562,-106.168508529663,-35.099983215332,1817104944
sq,41.7644294738769,-5.84559020996094,-102.44607925415,-43.8237190246582,1817121611
sq,40.1252922058106,-6.54676971435547,-115.882873535156,-30.7612419128418,1817138278
sq,38.2711662292481,-7.03894958496094,-126.866340637207,-14.3489837646484,1817154945
sq,36.2413047790527,-7.26853332519531,-129.446268081665,5.25903701782227,1817171612
sq,34.1701644897461,-7.18438873291016,-132.579326629639,10.2181434631348,1817188279
sq,32.0488952636719,-7.0208984375,-140.895843505859,19.0348625183106,1817204946
sq,29.7945617675781,-6.71634063720703,-144.224405288696,22.5834846496582,1817221613
sq,27.486971282959,-6.3550048828125,-140.265703201293,16.8366432189941,1817238280
sq,25.2427200317383,-6.08561859130859,-142.697095870972,1.80530548095703,1817254947
sq,22.9595664978027,-6.05673370361328,-142.7161693573,-10.4751586914062,1817271614
sq,20.6761077880859,-6.22433624267578,-135.571241378784,-15.8214569091797,1817288281
sq,18.5069679260254,-6.47747955322266,-138.849496841431,-14.4634246826172,1817304948
sq,16.2853759765625,-6.70889434814453,-139.165878295898,-11.2276077270508,1817321615
sq,14.0587219238281,-6.88853607177734,-145.715236663818,-6.26754760742187,1817338282
sq,11.727278137207,-6.98881683349609,-151.999950408936,-1.41763687133789,1817354949
sq,9.29527893066406,-7.0114990234375,-167.237281799316,2.06422805786133,1817371616
sq,6.619482421875,-6.97847137451172,-167.201995849609,5.45740127563477,1817388283
sq,3.94425048828125,-6.89115295410156,-131.751537322998,10.3526115417481,1817404950
sq,1.83622589111328,-6.72551116943359,-126.889228820801,18.4559822082519,1817421617
sq,-0.194001770019531,-6.43021545410156,-144.127368927002,29.4790267944336,1817438284
sq,-2.50003967285156,-5.95855102539062,-119.95792388916,43.4627532958984,1817454951
sq,-4.41936645507812,-5.26314697265625,-93.8611030578613,58.5927963256836,1817471618
sq,-5.92114410400391,-4.32566223144531,-26.5922546386719,70.8537101745605,1817488285
sq,-6.34662017822266,-3.19200286865234,15.5038833618164,78.8102149963379,1817504952
sq,-6.09855804443359,-1.93103942871094,16.9787406921387,90.0092124938965,1817521619
sq,-5.82689819335937,-0.490892028808593,-5.45167922973633,108.509063720703,1817538286
sq,-5.91412506103516,1.24525299072266,-26.4816284179688,137.035846710205,1817554953
sq,-6.33783111572266,3.43782653808594,-30.1499366760254,178.606986999511,1817571620
sq,-6.82023010253906,6.29553833007812,-14.6636962890625,191.776990890503,1817588287
sq,-7.05484924316406,9.36397018432617,-0.759601593017578,155.570030212402,1817604954
sq,-7.06700286865234,11.8530906677246,5.84936141967773,112.856388092041,1817621621
sq,-6.9734130859375,13.6587928771973,1.93643569946289,98.0029106140137,1817638288
sq,-6.94243011474609,15.2268394470215,-3.83663177490234,125.699281692505,1817654955
sq,-7.00381622314453,17.2380279541016,-5.54132461547852,158.918857574463,1817671622
sq,-7.09247741699219,19.780729675293,0.03814697265625,195.781230926514,1817688289
sq,-7.09186706542969,22.9132293701172,4.33969497680664,214.489936828613,1817704956
sq,-7.02243194580078,26.345068359375,3.21865081787109,198.145866394043,1817721623
sq,-6.97093353271484,29.5154022216797,0.0205039978027344,118.243217468261,1817738290
sq,-6.97060546875,31.4072937011719,1.56927108764648,52.722930908204,1817754957
sq,-6.94549713134766,32.2508605957031,5.84745407104492,72.5617408752437,1817771624
sq,-6.85193786621094,33.411848449707,8.03184509277344,160.5806350708,1817788291
sq,-6.72342834472656,35.9811386108398,11.0063552856445,125.138878822327,1817804958
sq,-6.54732666015625,37.9833606719971,15.8877372741699,106.856346130371,1817821625
sq,-6.29312286376953,39.693062210083,23.4012603759766,125.8544921875,1817838292
sq,-5.91870269775391,41.706734085083,32.6604843139648,86.3500833511361,1817854959
sq,-5.39613494873047,43.0883354187012,42.5453186035156,95.9969758987422,1817871626
sq,-4.71540985107422,44.6242870330811,52.8030395507813,116.929411888123,1817888293
sq,-3.87056121826172,46.495157623291,61.5358352661133,112.501978874207,1817904960
sq,-2.88598785400391,48.2951892852783,76.0631561279297,85.563063621521,1817921627
sq,-1.66897735595703,49.6641983032226,93.0657386779785,77.4061679840088,1817938294
sq,-0.179925537109375,50.9026969909668,118.945121765137,277.422964572906,1817954961
sq,1.72319641113281,55.3414644241333,148.058414459228,202.636480331421,1817971628
sq,4.09213104248047,58.583648109436,181.808948516846,214.240342378616,1817988295
sq,7.00107421875,62.0114935874939,224.583625793457,206.917420029641,1818004962
sq,10.5944122314453,65.3221723079681,231.73189163208,206.796072423458,1818021629
sq,14.3021224975586,68.6309094667435,182.774066925049,215.983413159847,1818038296
sq,17.2265075683594,72.086644077301,131.385803222656,217.898726463318,1818054963
sq,19.3286804199219,75.5730237007141,88.4747505187988,187.46617436409,1818071630
sq,20.7442764282227,78.5724824905396,99.2190837860107,197.596549987793,1818088297
sq,22.3317817687988,81.7340272903442,118.572235107422,190.916478633881,1818104964
sq,24.2289375305176,84.7886909484863,142.648935317993,177.987456321716,1818121631
sq,26.5113204956055,87.6364902496338,86.6053104400639,128.226280212402,1818138298
sq,27.8970054626465,89.6881107330322,120.543241500855,72.1012353897095,1818154965
sq,29.8256973266602,90.8417304992676,188.549995422363,50.499677658081,1818171632
sq,32.842497253418,91.6497253417969,140.557050704957,24.8270034790039,1818188299
sq,35.0914100646973,92.0469573974609,130.780696868896,9.57417488098145,1818204966
sq,37.1839012145996,92.2001441955566,100.27575492859,-120.641112327576,1818221633
sq,38.788313293457,90.2698863983154,99.1530418395992,-37.8279685974121,1818238300
sq,40.3747619628906,89.6646389007568,119.192600250244,-54.9893379211426,1818254967
sq,42.2818435668945,88.7848094940186,132.135391235352,-89.2273187637329,1818271634
sq,44.3960098266601,87.3571723937988,123.762726783752,-131.624102592468,1818288301
sq,46.3762134552002,85.2511867523193,131.873726844788,-174.932599067688,1818304968
sq,48.4861930847168,82.4522651672363,94.9076414108272,-185.139834880829,1818321635
sq,50.00471534729,79.4900278091431,77.9057741165161,-200.347185134888,1818338302
sq,51.2512077331543,76.2844728469849,125.356316566467,-273.465201258659,1818354969
sq,53.2569087982178,71.9090296268463,189.17191028595,-275.630995631218,1818371636
sq,56.283659362793,67.4989336967468,144.626975059509,-241.9373691082,1818388303
sq,58.5976909637451,63.6279357910156,154.477059841156,-203.448742628098,1818404970
sq,61.0693239212036,60.3727559089661,284.678846597672,-223.492652177811,1818421637
sq,65.6241854667664,56.7968734741211,346.332862973213,-258.003890514374,1818438304
sq,71.1655112743378,52.6688112258911,323.14433157444,-219.379842281342,1818454971
sq,76.3358205795288,49.1587337493896,288.643836975098,-192.934632301331,1818471638
sq,80.9541219711304,46.0717796325684,256.812930107117,-185.13035774231,1818488305
sq,85.0631288528442,43.1096939086914,207.175016403198,-36.1918210983272,1818504972
sq,88.3779291152954,42.5306247711182,172.091662883758,-22.4076509475712,1818521639
sq,91.1313957214356,42.172102355957,158.909320831299,-68.6787366867065,1818538306
sq,93.6739448547363,41.0732425689697,128.804683685303,-113.07942867279,1818554973
sq,95.7348197937012,39.2639717102051,86.1347913742065,-56.4984083175659,1818571640
sq,97.1129764556885,38.359997177124,52.0251989364624,-105.330944061279,1818588307
sq,97.9453796386719,36.6747020721436,36.780595779419,-106.103539466858,1818604974
sq,98.5338691711426,34.9770454406738,33.1629514694214,-91.7060375213623,1818621641
sq,99.0644763946533,33.509748840332,23.9369869232178,-112.03122138977,1818638308
sq,99.4474681854248,31.7172492980957,16.170859336853,-107.634544372558,1818654975
sq,99.7062019348145,29.9950965881348,10.4155540466309,-109.278917312622,1818671642
sq,99.8728507995606,28.2466339111328,4.14776802062988,-115.681648254395,1818688309
sq,99.9392150878906,26.3957275390625,1.88887119293213,-113.49081993103,1818704976
sq,99.9694370269775,24.579874420166,-0.875473022460937,-119.497776031495,1818721643
sq,99.9554294586182,22.6679100036621,-6.74188137054443,-134.648323059082,1818738310
sq,99.8475593566895,20.5135368347168,-15.9085988998413,-129.675149917603,1818754977
sq,99.593021774292,18.4387344360352,-28.0299186706543,-126.31106376648,1818771644
sq,99.1445430755615,16.4177574157715,-41.1422252655029,-130.727767944335,1818788311
sq,98.4862674713135,14.3261131286621,-56.8300485610962,-135.241031646728,1818804978
sq,97.5769866943359,12.1622566223144,-79.3497562408447,-133.245944976807,1818821645
sq,96.3073905944824,10.0303215026856,-99.6712446212769,-126.846075057983,1818838312
sq,94.712650680542,8.00078430175781,-118.515491485596,-126.604795455933,1818854979
sq,92.8164028167725,5.97510757446289,-135.328888893127,-117.666959762573,1818871646
sq,90.6511405944824,4.09243621826172,-148.703813552856,-115.883827209473,1818888313
sq,88.2718795776367,2.23829498291016,-159.791052341461,-107.522964477539,1818904980
sq,85.7152227401733,0.517927551269532,-165.939211845398,-88.6940956115723,1818921647
sq,83.060195350647,-0.901177978515625,-215.690821409225,-65.300464630127,1818938314
sq,79.6091422080994,-1.94598541259766,-241.083934903145,-49.9868392944336,1818954981
sq,75.7517992496491,-2.74577484130859,-272.3328769207,-59.4272613525391,1818971648
sq,71.3944732189179,-3.69661102294922,-230.027750134468,-75.904369354248,1818988315
sq,67.7140292167664,-4.91108093261719,-199.714571237564,-81.4876556396484,1819004982
sq,64.5185960769653,-6.21488342285156,-176.885783672333,-75.1528739929199,1819021649
sq,61.688423538208,-7.41732940673828,-162.565469741821,-50.2562522888184,1819038316
sq,59.0873760223389,-8.22142944335937,-187.379956245422,-23.2763290405273,1819054983
sq,56.0892967224121,-8.59385070800781,-138.242363929749,8.87823104858398,1819071650
sq,53.8774188995361,-8.45179901123047,-69.3582296371456,32.0844650268555,1819088317
sq,52.7676872253418,-7.93844757080078,-95.0676202774052,22.6759910583496,1819104984
sq,51.2466053009033,-7.57563171386719,-103.713274002075,-2.65741348266602,1819121651
sq,49.5871929168701,-7.61815032958984,-97.9455709457402,-22.9363441467285,1819138318
sq,48.0200637817383,-7.9851318359375,-97.5897312164307,-26.1201858520508,1819154985
sq,46.4586280822754,-8.40305480957031,-107.382774353028,-13.9307975769043,1819171652
sq,44.7405036926269,-8.62594757080078,-102.633833885192,-1.40047073364258,1819188319
sq,43.0983623504639,-8.64835510253906,-99.1228818893433,7.00902938842773,1819204986
sq,41.5123962402344,-8.53621063232422,-114.022016525269,8.01801681518555,1819221653
sq,39.6880439758301,-8.40792236328125,-113.682746887207,8.38804244995117,1819238320
sq,37.8691200256348,-8.27371368408203,-112.261772155762,8.78190994262695,1819254987
sq,36.0729316711426,-8.133203125,-129.289627075195,9.63354110717773,1819271654
sq,34.0042976379395,-7.97906646728516,-139.537572860718,7.5836181640625,1819288321
sq,31.771696472168,-7.85772857666016,-141.610622406005,7.88259506225586,1819304988
sq,29.5059265136719,-7.73160705566406,-151.273488998413,9.5672607421875,1819321655
sq,27.0855506896973,-7.57853088378906,-154.081344604492,15.3408050537109,1819338322
sq,24.6202491760254,-7.33307800292969,-154.026985168457,19.0291404724121,1819354989
sq,22.1558174133301,-7.02861175537109,-153.520822525024,23.4713554382324,1819371656
sq,19.6994842529297,-6.65307006835937,-156.806468963624,29.5624732971191,1819388323
sq,17.1905807495117,-6.18007049560547,-151.792287826538,37.2405052185059,1819404990
sq,14.7619041442871,-5.58422241210937,-150.968551635742,46.4062690734863,1819421657
sq,12.3464073181152,-4.84172210693359,-140.982389450073,57.2943687438965,1819438324
sq,10.0906890869141,-3.92501220703125,-137.297630310059,68.0580139160156,1819454991
sq,7.89392700195313,-2.836083984375,-124.369144439697,84.7220420837402,1819471658
sq,5.90402069091797,-1.48053131103516,-114.865779876709,99.799633026123,1819488325
sq,4.06616821289063,0.116262817382813,-115.221977233887,100.796699523926,1819504992
sq,2.22261657714844,1.72901000976562,-120.8815574646,102.471351623535,1819521659
sq,0.288511657714844,3.36855163574219,-110.815525054932,99.3485450744624,1819538326
sq,-1.48453674316406,4.95812835693359,-96.2023735046387,103.875160217286,1819554993
sq,-3.02377471923828,6.62013092041016,-87.0742797851562,109.396696090698,1819571660
sq,-4.41696319580078,8.37047805786133,-69.8423385620117,104.754447937012,1819588327
sq,-5.53444061279297,10.0465492248535,-49.1371154785156,102.92649269104,1819604994
sq,-6.32063446044922,11.6933731079102,-15.9392356872559,93.11842918396,1819621661
sq,-6.57566223144531,13.1832679748535,19.7696685791016,101.853609085082,1819638328
sq,-6.25934753417969,14.8129257202148,29.5696258544922,138.724803924561,1819654995
sq,-5.78623352050781,17.0325225830078,11.3415718078613,171.984910964965,1819671662
sq,-5.60476837158203,19.7842811584473,-19.2718505859375,139.078617095948,1819688329
sq,-5.91311798095703,22.0095390319824,-34.3880653381348,117.383480072022,1819704996
sq,-6.46332702636719,23.8876747131348,-29.8933982849121,128.941774368285,1819721663
sq,-6.94162139892578,25.9507431030273,-13.2632255554199,131.588459014893,1819738330
sq,-7.1538330078125,28.0561584472656,0.606536865234375,144.145011901855,1819754997
sq,-7.14412841796875,30.3624786376953,6.54458999633789,148.953914642334,1819771664
sq,-7.03941497802734,32.7457412719727,6.01291656494141,78.116655349731,1819788331
sq,-6.94320831298828,33.9956077575684,3.44038009643555,128.697395324707,1819804998
sq,-6.88816223144531,36.0547660827637,2.01702117919922,152.171730995178,1819821665
sq,-6.85588989257812,38.4895137786865,1.23262405395508,125.630855560303,1819838332
sq,-6.83616790771484,40.4996074676514,2.7918815612793,82.9141139984131,1819854999
sq,-6.79149780273437,41.826233291626,4.2719841003418,105.894804000855,1819871666
sq,-6.72314605712891,43.5205501556396,6.72006607055664,128.019213676453,1819888333
sq,-6.615625,45.5688575744629,8.80336761474609,92.4910306930542,1819905000
sq,-6.47477111816406,47.0487140655518,9.45425033569336,96.7357158660889,1819921667
sq,-6.32350311279297,48.5964855194092,11.9552612304687,83.9099884033203,1819938334
sq,-6.13221893310547,49.9390453338623,13.270378112793,101.218223571777,1819955001
sq,-5.91989288330078,51.5585369110107,15.5467987060547,122.186303138733,1819971668
sq,-5.67114410400391,53.5135177612305,18.3558464050293,237.058639526367,1819988335
sq,-5.37745056152344,57.3064559936523,21.8997001647949,197.39705324173,1820005002
sq,-5.02705535888672,60.46480884552,25.8383750915527,248.899817466736,1820021669
sq,-4.61364135742187,64.4472059249878,31.0568809509277,235.863857902586,1820038336
sq,-4.11673126220703,68.2210276514292,37.4908447265625,257.518148981035,1820055003
sq,-3.51687774658203,72.3413180351257,47.7027893066406,283.106714487076,1820071670
sq,-2.75363311767578,76.871025466919,61.8929862976074,276.351690292358,1820088337
sq,-1.76334533691406,81.2926525115967,82.9949378967285,255.583047866821,1820105004
sq,-0.435426330566406,85.3819812774658,113.16442489624,220.396518707275,1820121671
sq,1.37520446777344,88.9083255767822,157.334327697754,199.678897857666,1820138338
sq,3.8925537109375,92.1031879425049,201.76887512207,139.527678489685,1820155005
sq,7.12085571289063,94.3356307983398,248.216390609741,92.5496816635132,1820171672
sq,11.0923179626465,95.8164257049561,239.346027374268,47.1218824386597,1820188339
sq,14.9218544006348,96.5703758239746,200.699090957642,23.1418609619141,1820205006
sq,18.133039855957,96.9406455993652,133.689165115356,5.16653060913086,1820221673
sq,20.2720664978027,97.0233100891113,58.3245754241943,-8.15987586975098,1820238340
sq,21.2052597045898,96.8927520751953,126.037836074829,-14.786958694458,1820255007
sq,23.2218650817871,96.656160736084,119.19379234314,-21.5842723846436,1820271674
sq,25.1289657592773,96.3108123779297,135.079860687256,-25.7753133773804,1820288341
sq,27.2902435302734,95.8984073638916,174.491882324219,-26.7536640167236,1820305008
sq,30.0821136474609,95.470348739624,189.964294433594,-29.6876430511475,1820321675
sq,33.1215423583984,94.9953464508057,188.480615615845,-35.0062847137451,1820338342
sq,36.137232208252,94.4352458953857,128.603458404541,-44.0768003463745,1820355009
sq,38.1948875427246,93.7300170898438,128.324985504151,-57.8269958496094,1820371676
sq,40.248087310791,92.80478515625,140.610098838806,-72.8594064712524,1820388343
sq,42.4978488922119,91.63903465271,93.2393074035645,-93.3737754821777,1820405010
sq,43.9896778106689,90.1450542449951,80.0285339355469,-131.578207015991,1820421677
sq,45.2701343536377,88.0398029327393,95.7989692687988,-185.191631317139,1820438344
sq,46.8029178619385,85.076736831665,81.961989402771,-225.516080856323,1820455011
sq,48.1143096923828,81.4684795379639,103.837847709656,-232.211172580719,1820471678
sq,49.7757152557373,77.7531007766724,105.277180671692,-249.661445617676,1820488345
sq,51.4601501464844,73.7585176467896,120.860457420349,-260.069005191326,1820505012
sq,53.39391746521,69.5974135637283,109.84456539154,-267.206735908985,1820521679
sq,55.1514305114746,65.3221057891846,123.195052146912,-233.221173286438,1820538346
sq,57.1225513458252,61.5905670166016,147.35621213913,-208.242356777191,1820555013
sq,59.4802507400513,58.2586893081665,190.243899822235,-218.114256858826,1820571680
sq,62.524153137207,54.7688611984253,172.394037246704,-241.005599498749,1820588347
sq,65.2824577331543,50.9127716064453,219.17736530304,-237.345337867737,1820605014
sq,68.7892955780029,47.1152462005615,277.239454910159,-211.016416549683,1820621681
sq,73.2251268565655,43.7389835357666,302.27624066174,-199.368715286255,1820638348
sq,78.0615467071533,40.5490840911865,296.263456344604,-111.55903339386,1820655015
sq,82.801762008667,38.7641395568848,266.863286495209,-18.2696580886841,1820671682
sq,87.0715745925903,38.4718250274658,209.645330905914,-139.042615890503,1820688349
sq,90.425899887085,36.2471431732178,173.600196838379,-133.676409721375,1820705016
sq,93.203503036499,34.1083206176758,137.209296226501,-88.0136489868164,1820721683
sq,95.3988517761231,32.7001022338867,115.171909332275,-74.1555690765381,1820738350
sq,97.2416023254395,31.5136131286621,82.3792219161987,-86.3280296325679,1820755017
sq,98.5596698760986,30.132364654541,51.1162281036377,-126.152992248536,1820771684
sq,99.3775295257568,28.1139167785645,36.1495018005371,-106.673002243042,1820788351
sq,99.9559215545654,26.4071487426758,13.8431787490845,-85.9401226043701,1820805018
sq,100.177412414551,25.0321067810059,-4.4029951095581,-107.845067977906,1820821685
sq,100.106964492798,23.3065856933594,-13.6909484863281,-119.041442871094,1820838352
sq,99.8879093170166,21.4019226074219,-15.9463882446289,-121.17314338684,1820855019
sq,99.6327671051025,19.4631523132324,-18.2019472122192,-126.38545036316,1820871686
sq,99.341535949707,17.4409851074219,-20.7641124725342,-108.686923980712,1820888353
sq,99.0093101501465,15.7019943237305,-21.2020874023438,-120.091915130615,1820905020
sq,98.670076751709,13.7805236816406,-27.9572010040283,-135.103464126588,1820921687
sq,98.2227615356445,11.6188682556152,-41.3305759429932,-140.846252441406,1820938354
sq,97.5614723205566,9.36532821655273,-56.4838647842407,-134.590148925781,1820955021
sq,96.6577304840088,7.21188583374023,-74.3957757949829,-141.449451446533,1820971688
sq,95.4673980712891,4.9486946105957,-98.6697673797607,-141.938924789429,1820988355
sq,93.8886817932129,2.67767181396484,-136.569619178772,-141.587257385254,1821005022
sq,91.7035678863525,0.412275695800782,-208.947718143463,-137.820243835449,1821021689
sq,88.3604043960571,-1.79284820556641,-202.984690666199,-109.299659729004,1821038356
sq,85.112649345398,-3.54164276123047,-194.891035556793,-60.9688758850098,1821055023
sq,81.9943927764893,-4.51714477539062,-216.158270835876,-17.5437927246094,1821071690
sq,78.5358604431152,-4.79784545898437,-247.189708054066,-3.67021560668945,1821088357
sq,74.5808251142502,-4.85656890869141,-261.488534510136,-42.381763458252,1821105024
sq,70.397008562088,-5.53467712402344,-265.209332108498,-69.5948600769043,1821121691
sq,66.1536592483521,-6.64819488525391,-257.332861423493,-58.9561462402344,1821138358
sq,62.0363334655762,-7.59149322509766,-211.16840839386,-11.3844871520996,1821155025
sq,58.6576389312744,-7.77364501953125,-184.219002723694,28.5401344299316,1821171692
sq,55.7101348876953,-7.31700286865234,-177.740812301636,0.353813171386719,1821188359
sq,52.8662818908691,-7.31134185791016,-133.934378623963,20.2922821044922,1821205026
sq,50.7233318328857,-6.98666534423828,-77.1073102951045,-37.4259948730469,1821221693
sq,49.4896148681641,-7.58548126220703,-133.439183235169,-50.3296852111816,1821238360
sq,47.3545879364014,-8.39075622558594,-131.944417953491,-21.0537910461426,1821255027
sq,45.2434772491455,-8.72761688232422,-113.644480705261,4.41789627075195,1821271694
sq,43.4251655578613,-8.65693054199219,-99.9207496643071,16.8418884277344,1821288361
sq,41.8264335632324,-8.38746032714844,-101.240158081054,12.9890441894531,1821305028
sq,40.2065910339356,-8.17963562011719,-101.88102722168,9.49811935424805,1821321695
sq,38.5764945983887,-8.02766571044922,-99.2472171783447,4.54473495483398,1821338362
sq,36.9885391235351,-7.95494995117187,-103.495597839356,6.57558441162109,1821355029
sq,35.3326095581055,-7.84974060058594,-115.349292755126,6.3624382019043,1821371696
sq,33.4870208740234,-7.74794158935547,-128.024578094483,1.67131423950195,1821388363
sq,31.4386276245117,-7.72120056152344,-136.549711227417,0.136852264404297,1821405030
sq,29.253832244873,-7.71901092529297,-135.954141616821,3.14617156982422,1821421697
sq,27.0785659790039,-7.66867218017578,-133.671760559082,7.47776031494141,1821438364
sq,24.9398178100586,-7.54902801513672,-142.324686050415,11.5118026733398,1821455031
sq,22.662622833252,-7.36483917236328,-139.620304107666,16.7474746704102,1821471698
sq,20.4286979675293,-7.09687957763672,-142.004251480103,24.688720703125,1821488365
sq,18.1566299438477,-6.70186004638672,-154.450416564941,34.1706275939941,1821505032
sq,15.6854232788086,-6.15513000488281,-136.690139770508,46.8063354492188,1821521699
sq,13.4983810424805,-5.40622863769531,-131.730318069457,63.9448165893555,1821538366
sq,11.3906959533691,-4.38311157226562,-144.871950149537,89.9605751037598,1821555033
sq,9.07274475097656,-2.94374237060547,-147.029399871826,113.37947845459,1821571700
sq,6.72027435302734,-1.12967071533203,-147.745609283447,135.645389556885,1821588367
sq,4.35634460449219,1.04065551757812,-158.929347991943,149.721145629883,1821605034
sq,1.81347503662109,3.43619384765625,-154.256343841553,140.485763549805,1821621701
sq,-0.65462646484375,5.68396606445313,-133.949756622315,118.473768234253,1821638368
sq,-2.79782257080078,7.57954635620117,-116.338729858398,121.074676513672,1821655035
sq,-4.65924224853516,9.51674118041992,-94.0461158752441,109.569072723389,1821671702
sq,-6.16398010253906,11.2698463439941,-42.5658226013184,121.371030807495,1821688369
sq,-6.84503326416016,13.2117828369141,-6.1492919921875,126.123666763306,1821705036
sq,-6.94342193603516,15.2297615051269,38.5026931762695,143.984556198119,1821721703
sq,-6.32737884521484,17.5335144042969,45.2761650085449,149.75118637085,1821738370
sq,-5.60296020507812,19.9295333862305,17.0135498046875,185.606956481934,1821755037
sq,-5.33074340820312,22.8992446899414,-14.8839950561523,170.861005783081,1821771704
sq,-5.56888732910156,25.6330207824707,-51.5475273132324,105.121374130249,1821788371
sq,-6.39364776611328,27.3149627685547,-55.7899475097656,152.96196937561,1821805038
sq,-7.28628692626953,29.7623542785645,-16.9916152954102,159.022092819213,1821821705
sq,-7.55815277099609,32.3067077636719,14.9159431457519,155.478715896607,1821838372
sq,-7.31949768066406,34.7943672180176,26.8650054931641,128.161311149597,1821855039
sq,-6.88965759277344,36.8449481964111,19.0119743347168,115.563631057739,1821871706
sq,-6.58546600341797,38.693966293335,5.62381744384766,100.660681724548,1821888373
sq,-6.49548492431641,40.3045372009277,-6.67238235473633,95.7199335098267,1821905040
sq,-6.60224304199219,41.836056137085,-6.24608993530273,101.880311965942,1821921707
sq,-6.70218048095703,43.46614112854,1.74951553344727,70.9382295608521,1821938374
sq,-6.67418823242187,44.6011528015137,12.0420455932617,60.3561401367192,1821955041
sq,-6.48151550292969,45.5668510437012,16.5886878967285,81.9315910339351,1821971708
sq,-6.21609649658203,46.8777565002441,15.0227546691894,98.18434715271,1821988375
sq,-5.975732421875,48.4487060546875,11.5299224853516,226.832628250122,1822005042
sq,-5.79125366210937,52.0780281066895,11.6791725158691,199.815094470978,1822021709
sq,-5.60438690185547,55.2750696182251,14.6117210388184,228.386700153351,1822038376
sq,-5.37059936523437,58.9292568206787,16.4570808410644,314.68939781189,1822055043
sq,-5.10728607177734,63.9642871856689,16.8833732604981,353.819534182549,1822071710
sq,-4.83715209960937,69.6253997325897,23.6377716064453,313.877955079079,1822088377
sq,-4.45894775390625,74.647447013855,38.078784942627,267.199277877808,1822105044
sq,-3.84968719482422,78.9226354598999,57.654857635498,225.932478904724,1822121711
sq,-2.92720947265625,82.5375551223755,81.413745880127,211.494505405426,1822138378
sq,-1.62458953857422,85.9214672088623,110.994815826416,190.792083740234,1822155045
sq,0.151327514648438,88.9741405487061,134.679794311523,139.143109321594,1822171712
sq,2.30620422363281,91.2004302978516,141.93058013916,76.8380165100098,1822188379
sq,4.57709350585938,92.4298385620117,162.161827087402,51.252007484436,1822205046
sq,7.17168273925781,93.2498706817627,171.460151672363,24.5348215103149,1822221713
sq,9.91504516601563,93.6424278259277,175.275087356567,-1.65152549743652,1822238380
sq,12.7194465637207,93.6160034179688,179.277420043945,-12.2672319412231,1822255047
sq,15.5878852844238,93.4197277069092,162.215471267701,-10.8165740966797,1822271714
sq,18.183332824707,93.2466625213623,123.76070022583,-23.9779949188232,1822288381
sq,20.1635040283203,92.8630146026611,119.716167449951,-16.7765617370606,1822305048
sq,22.0789627075195,92.5945896148682,115.784168243409,-21.9597816467285,1822321715
sq,23.9315093994141,92.2432331085205,117.489814758301,-32.1058034896851,1822338382
sq,25.8113464355469,91.7295402526856,150.129079818726,-39.4144058227539,1822355049
sq,28.2134117126465,91.0989097595215,122.690439224243,-51.6144037246704,1822371716
sq,30.1764587402344,90.2730792999268,112.874269485474,-74.2323398590088,1822388383
sq,31.982447052002,89.0853618621826,177.858352661133,-116.751551628113,1822405050
sq,34.8281806945801,87.2173370361328,185.272693634033,-162.057280540466,1822421717
sq,37.7925437927246,84.6244205474854,59.6170425415043,-198.693633079529,1822438384
sq,38.7464164733887,81.4453224182129,42.4346923828125,-201.903462409973,1822455051
sq,39.4253715515137,78.2148670196533,153.917193412781,-262.854069471359,1822471718
sq,41.8880466461182,74.0092019081116,120.915055274963,-257.279947400093,1822488385
sq,43.8226875305176,69.8927227497101,108.833312988281,-250.046625733375,1822505052
sq,45.5640205383301,65.8919767379761,107.707500457764,-250.485360622406,1822521719
sq,47.2873405456543,61.8842109680176,100.635647773743,-223.034620285034,1822538386
sq,48.8975109100342,58.315657043457,151.412844657898,-247.025310993195,1822555053
sq,51.3201164245606,54.3632520675659,191.721558570862,-222.77957201004,1822571720
sq,54.3876613616943,50.7987789154053,228.043019771576,-174.640417098999,1822588387
sq,58.0363496780395,48.0045322418213,195.764243602753,-174.592018127441,1822605054
sq,61.1685775756836,45.2110599517822,299.329340457917,-72.6920366287231,1822621721
sq,65.9578470230103,44.0479873657226,386.246182024479,-42.9689884185791,1822638388
sq,72.1377859354019,43.3604835510254,366.307429969311,-79.384446144104,1822655055
sq,77.9987048149109,42.0903324127197,332.021862268448,-104.572534561157,1822671722
sq,83.3110546112061,40.4171718597412,260.063350200653,-83.0098390579224,1822688389
sq,87.4720682144165,39.0890144348145,199.797809123993,-94.2361354827876,1822705056
sq,90.6688331604004,37.5812362670898,179.178357124329,-100.715398788453,1822721723
sq,93.5356868743897,35.9697898864746,159.127473831177,-114.415407180786,1822738390
sq,96.0817264556885,34.139143371582,123.622059822083,-100.548505783081,1822755057
sq,98.0596794128418,32.5303672790527,72.3246335983276,-97.6421833038321,1822771724
sq,99.216873550415,30.9680923461914,42.731761932373,-119.908332824708,1822788391
sq,99.900581741333,29.0495590209961,31.3297510147095,-120.898723602295,1822805058
sq,100.401857757568,27.1151794433594,15.2018070220947,-142.796754837036,1822821725
sq,100.645086669922,24.8304313659668,4.19902801513672,-144.218921661376,1822838392
sq,100.712271118164,22.5229286193848,2.18033790588379,-134.755849838257,1822855059
sq,100.747156524658,20.3668350219727,-3.0672550201416,-125.97155570984,1822871726
sq,100.698080444336,18.3512901306152,-6.88087940216065,-131.162881851196,1822888393
sq,100.587986373901,16.2526840209961,-13.3364200592041,-140.182971954345,1822905060
sq,100.374603652954,14.0097564697266,-21.6786861419678,-127.542495727539,1822921727
sq,100.027744674683,11.9690765380859,-35.651445388794,-120.115518569946,1822938394
sq,99.4573215484619,10.0472282409668,-53.277850151062,-119.642496109008,1822955061
sq,98.6048759460449,8.13294830322266,-77.6903629302979,-110.996007919312,1822971728
sq,97.3618301391602,6.35701217651367,-109.098553657532,-109.563589096069,1822988395
sq,95.6162532806397,4.60399475097656,-142.397880554199,-110.376834869385,1823005062
sq,93.3378871917725,2.83796539306641,-169.180750846863,-107.627391815186,1823021729
sq,90.6309951782227,1.11592712402344,-165.42637348175,-99.2040634155273,1823038396
sq,87.9841732025147,-0.471337890625,-162.232160568237,-96.5876579284668,1823055063
sq,85.3884586334229,-2.01674041748047,-214.101195335388,-78.1464576721191,1823071730
sq,81.9628395080566,-3.26708374023437,-264.328390359878,-88.3550643920898,1823088397
sq,77.7335852622986,-4.68076477050781,-288.785248994827,-88.3626937866211,1823105064
sq,73.1130212783814,-6.09456787109375,-288.578152656555,-80.7461738586426,1823121731
sq,68.4957708358765,-7.38650665283203,-230.568945407867,-61.3260269165039,1823138398
sq,64.8066677093506,-8.36772308349609,-180.196881294251,-28.3284187316894,1823155065
sq,61.9235176086426,-8.82097778320312,-184.583783149719,12.1932029724121,1823171732
sq,58.9701770782471,-8.62588653564453,-213.806509971619,53.6527633666992,1823188399
sq,55.5492729187012,-7.76744232177734,-114.325523376465,33.0586433410645,1823205066
sq,53.7200645446777,-7.23850402832031,-103.059887886047,1.68228149414062,1823221733
sq,52.071106338501,-7.21158752441406,-122.151374816895,-28.3489227294922,1823238400
sq,50.1166843414307,-7.66517028808594,-110.623598098755,-60.1062774658203,1823255067
sq,48.3467067718506,-8.62687072753906,-99.7089147567749,-49.379825592041,1823271734
sq,46.7513641357422,-9.41694793701172,-102.645993232727,-15.1042938232422,1823288401
sq,45.1090282440186,-9.65861663818359,-99.8111963272095,4.37211990356445,1823305068
sq,43.5120491027832,-9.58866271972656,-93.5490131378174,11.3754272460937,1823321735
sq,42.0152648925781,-9.40665588378906,-100.162029266357,13.7500762939453,1823338402
sq,40.4126724243164,-9.18665466308594,-103.785037994384,17.763614654541,1823355069
sq,38.7521118164063,-8.90243682861328,-114.661693572998,13.7901306152344,1823371736
sq,36.9175247192383,-8.68179473876953,-123.080492019654,1.63507461547852,1823388403
sq,34.9482368469238,-8.65563354492187,-128.385782241821,-5.82551956176758,1823405070
sq,32.8940643310547,-8.74884185791016,-143.674373626709,-10.4913711547852,1823421737
sq,30.5952743530273,-8.91670379638672,-140.894889831543,-8.76760482788086,1823438404
sq,28.3409561157227,-9.05698547363281,-129.185676574707,-7.17258453369141,1823455071
sq,26.2739852905273,-9.17174682617187,-124.141216278076,-4.17518615722656,1823471738
sq,24.2877258300781,-9.2385498046875,-134.274482727051,-3.7846565246582,1823488405
sq,22.1393341064453,-9.29910430908203,-131.497859954834,-4.58765029907227,1823505072
sq,20.035368347168,-9.37250671386719,-127.015829086304,-4.24671173095703,1823521739
sq,18.0031150817871,-9.4404541015625,-124.889135360717,-3.45277786254883,1823538406
sq,16.0048889160156,-9.49569854736328,-129.206657409668,-1.11579895019531,1823555073
sq,13.9375823974609,-9.51355133056641,-135.551929473877,1.00135803222656,1823571740
sq,11.7687515258789,-9.49752960205078,-134.744644165039,3.44181060791016,1823588407
