Label,Left_Hip_q,Right_Hip_q,Left_Hip_qd,Right_Hip_qd,SampleTimeFine
sw,-79.1193237304687,-61.6608505249023,59.6042671203613,-30.7951679229736,2684665158
sw,-78.2012786865234,-61.4265556335449,56.4496307373046,-15.7950553894042,2684681825
sw,-77.2713546752929,-61.5192832946777,56.4267845153808,1.46914315223693,2684698492
sw,-76.3043975830078,-61.8609352111816,58.7762107849121,18.7056922912597,2684715159
sw,-75.2862243652343,-62.5111427307128,62.1804504394531,40.5125999450683,2684731826
sw,-74.1851119995117,-63.3967170715332,66.9427108764648,46.1585540771484,2684748493
sw,-73.0140991210937,-64.3731231689453,70.686538696289,34.054027557373,2684765160
sw,-71.8257217407226,-65.4001312255859,71.4368820190429,32.2491455078125,2684781827
sw,-70.7200012207031,-66.453140258789,66.0293655395507,41.5461235046386,2684798494
sw,-69.8871917724609,-67.3321762084961,49.3762969970703,37.9148864746093,2684815161
sw,-69.4696273803711,-67.9085998535156,24.6300659179687,25.5198612213134,2684831828
sw,-69.4040374755859,-68.260269165039,3.64144206047058,8.91182231903076,2684848495
sw,-69.6198654174804,-68.5876235961914,-13.1167974472045,1.74733936786651,2684865162
sw,-69.918212890625,-69.0448303222656,-17.8116035461425,16.9895057678222,2684881829
sw,-70.2628860473632,-69.5848770141601,-20.4450664520263,15.562289237976,2684898496
sw,-71.0929946899414,-70.5550765991211,-49.9188232421875,43.9577293395996,2684915163
sw,-72.3835220336914,-71.2410888671875,-77.9158096313476,29.6656436920166,2684931830
sw,-74.1287536621093,-71.7077255249023,-105.647506713867,10.9775743484497,2684948497
sw,-76.2021255493164,-72.3725814819336,-126.72280883789,15.7835960388183,2684965164
sw,-78.4654464721679,-73.2976608276367,-141.719284057617,29.8357734680175,2684981831
sw,-80.8064270019531,-74.3294448852539,-152.53173828125,37.7326622009277,2684998498
sw,-83.1690673828125,-75.3204727172851,-161.246337890625,38.7760047912597,2685015165
sw,-85.4088439941406,-76.226333618164,-165.016830444335,36.1356391906738,2685031832
sw,-87.0716247558593,-77.1385421752929,-161.805374145507,37.2259407043457,2685048499
sw,-86.9706878662109,-78.0851974487304,-150.879989624023,38.892349243164,2685065166
sw,-85.3933410644531,-79.0820236206054,-142.789367675781,43.1657371520996,2685081833
sw,-83.3563079833984,-80.0560455322265,-138.976348876953,44.8656463623046,2685098500
sw,-81.3626251220703,-80.9720916748046,-126.470520019531,47.0958518981933,2685115167
sw,-79.5578079223632,-81.9427795410156,-110.701560974121,54.9913520812988,2685131834
sw,-78.0109710693359,-83.0342712402343,-91.2823715209961,64.5149612426757,2685148501
sw,-76.6338653564453,-84.2026901245117,-77.2945175170898,69.8288421630859,2685165168
sw,-75.2904663085937,-85.4152526855468,-73.6696166992187,71.7508697509765,2685181835
sw,-73.9355392456054,-86.5776596069336,-75.5030746459961,66.9731674194336,2685198502
sw,-72.6459655761718,-87.6778030395507,-74.3834075927734,60.9118614196777,2685215169
sw,-71.5345764160156,-88.7518081665039,-67.2021255493164,55.496726989746,2685231836
sw,-70.5937728881836,-90.0,-60.6396980285644,55.320255279541,2685248503
sw,-69.7736434936523,-89.6500167846679,-55.309455871582,58.149429321289,2685265170
sw,-69.1847610473632,-88.2173233032226,-40.11572265625,66.24365234375,2685281837
sw,-68.9333419799804,-86.9163131713867,-17.6204013824462,72.9138717651367,2685298504
sw,-69.3227310180664,-85.6541366577148,22.0641899108886,72.4030303955078,2685315171
sw,-70.1147918701171,-84.4782028198242,48.4215927124023,66.8216018676757,2685331838
sw,-71.3987350463867,-83.4113235473632,78.3689804077148,59.4607849121093,2685348505
sw,-72.4788665771484,-82.5298156738281,60.3144493103027,47.6770248413085,2685365172
sw,-73.7283859252929,-81.9112930297851,63.7760391235351,31.8691959381103,2685381839
sw,-75.1525115966796,-81.4846115112304,69.7422409057617,21.9944896697998,2685398506
sw,-76.5603408813476,-81.1467895507812,65.1007537841796,18.9776973724365,2685415173
sw,-77.8591537475586,-80.8944778442382,60.0004806518554,16.0027637481689,2685431840
sw,-78.9632797241211,-80.8517913818359,51.0751075744628,4.21153020858764,2685448507
sw,-79.7344436645507,-81.0554122924804,30.2227516174316,-10.0096054077148,2685465174
sw,-80.531265258789,-81.4637451171875,35.5736083984375,-22.1397705078125,2685481841
sw,-81.5859756469726,-82.1301956176757,60.9001922607421,-37.3525314331054,2685498508
sw,-82.6527328491211,-83.1726379394531,60.5480690002441,-59.1941490173339,2685515175
sw,-83.2191314697265,-84.6057357788086,24.5006809234619,-81.2806396484375,2685531842
sw,-83.6138916015625,-86.3648223876953,19.5833511352539,-103.176040649414,2685548509
sw,-84.2138214111328,-87.8064422607421,34.2300453186035,-114.075065612792,2685565176
sw,-84.8930130004882,-87.2307739257812,33.5123596191406,-125.036888122558,2685581843
sw,-85.6044387817382,-84.949104309082,28.7725753784179,-135.658660888671,2685598510
sw,-86.4196395874023,-82.3128051757812,38.5346641540527,-138.084655761718,2685615177
sw,-87.4057998657226,-79.7692031860351,55.3342399597168,-139.106704711914,2685631844
sw,-88.528205871582,-77.3414230346679,64.9825439453125,-145.858795166015,2685648511
sw,-89.7085952758789,-75.0765228271484,57.9920959472656,-146.835708618164,2685665178
sw,-90.0,-72.8391952514648,48.5363273620605,-146.507034301757,2685681845
sw,-88.7573089599609,-70.6499481201171,47.1826095581054,-136.623138427734,2685698512
sw,-87.5609664916992,-68.5104751586914,53.4052658081054,-128.157897949218,2685715179
sw,-86.3967971801757,-66.4993133544921,52.6890411376953,-115.916847229003,2685731846
sw,-85.5049438476562,-64.7867279052734,41.0823097229003,-92.8685302734375,2685748513
sw,-84.8044281005859,-63.4652099609375,37.2610778808593,-67.5028915405273,2685765180
sw,-83.9927597045898,-62.4707603454589,50.5601043701171,-48.0873107910156,2685781847
sw,-82.8978729248046,-61.6063690185546,68.5419464111328,-42.7845115661621,2685798514
sw,-81.6527328491211,-60.7809677124023,76.6197891235351,-47.2545585632324,2685815181
sw,-80.4742279052734,-60.217918395996,71.9582748413086,-36.91939163208,2685831848
sw,-79.4626235961914,-60.067943572998,61.6715621948242,-13.3857336044311,2685848515
sw,-78.5225753784179,-60.287841796875,57.0683708190918,11.785569190979,2685865182
sw,-77.4113388061523,-60.7036018371582,67.3665084838867,24.1796875,2685881849
sw,-76.136245727539,-61.3129081726074,76.6124191284179,33.2984542846679,2685898516
sw,-74.8590927124023,-62.1776046752929,76.1403350830078,44.598892211914,2685915183
sw,-73.59765625,-63.0798988342285,75.3213195800781,34.9160842895507,2685931850
sw,-72.2479629516601,-64.1024398803711,80.4703903198242,36.6078796386718,2685948517
sw,-70.7861633300781,-65.2174606323242,86.6122131347656,47.6836891174316,2685965184
sw,-69.5150070190429,-66.2435760498046,74.5988540649414,45.3740119934082,2685981851
sw,-68.7748565673828,-67.0277862548828,42.6879577636718,32.8251304626464,2685998518
sw,-68.4807052612304,-67.5473022460937,16.127513885498,19.1195468902587,2686015185
sw,-68.370132446289,-68.1065216064453,5.29611349105835,22.1230278015136,2686031852
sw,-68.2965545654296,-68.5547332763671,3.23284220695495,10.5296325683593,2686048519
sw,-68.2181243896484,-69.0857543945312,3.5709364414215,11.8406352996826,2686065186
sw,-68.2028503417968,-70.1009750366211,-0.122595481574535,36.4870071411132,2686081853
sw,-68.5477752685546,-71.3540344238281,-21.7779273986816,61.7443656921386,2686098520
sw,-69.3451385498046,-71.9891891479492,-48.9616241455078,24.553409576416,2686115187
sw,-70.559341430664,-72.5215072631836,-73.9303894042968,15.8938179016113,2686131854
sw,-72.277473449707,-73.3223037719726,-104.245597839355,32.2497406005859,2686148521
sw,-74.3822937011718,-74.3312530517578,-128.135360717773,45.8551406860351,2686165188
sw,-76.6470184326171,-75.3636322021484,-139.218063354492,44.2861862182617,2686181855
sw,-79.0204772949218,-76.3933868408203,-148.161682128906,42.9952812194824,2686198522
sw,-81.2805480957031,-77.3857192993164,-145.56346130371,40.9036827087402,2686215189
sw,-83.4143295288086,-78.368782043457,-145.433944702148,43.2226638793945,2686231856
sw,-85.3577651977539,-79.3877258300781,-145.021453857421,48.1544494628906,2686248523
sw,-86.8539047241211,-80.4061126708984,-143.43879699707,48.1020202636718,2686265190
sw,-87.1602096557617,-81.3824996948242,-138.583755493164,45.1321716308593,2686281857
sw,-86.0230484008789,-82.2800216674804,-136.49560546875,42.2937660217285,2686298524
sw,-84.249641418457,-83.1447372436523,-133.569076538085,44.6036720275878,2686315191
sw,-82.2933959960937,-84.0832138061523,-129.461456298828,52.6365051269531,2686331858
sw,-80.3631591796875,-85.1375961303711,-121.443725585937,62.2341041564941,2686348525
sw,-78.5862350463867,-86.2683944702148,-109.01545715332,67.676773071289,2686365192
sw,-76.9759826660156,-87.363296508789,-97.1940612792968,64.5714569091796,2686381859
sw,-75.5421371459961,-88.3502883911132,-84.4610443115234,54.6375579833984,2686398526
sw,-74.4479675292968,-89.3744277954101,-62.7170104980468,48.5831871032714,2686415193
sw,-73.6548614501953,-90.0,-45.1561393737793,45.8612823486328,2686431860
sw,-73.013069152832,-89.3577575683593,-37.2392807006835,48.9191780090332,2686448527
sw,-72.3253326416015,-88.2349700927734,-40.8145866394043,55.1528434753418,2686465194
sw,-71.6760177612304,-87.1106643676757,-39.2391929626464,62.4199104309082,2686481861
sw,-71.297134399414,-85.9550399780273,-24.5108451843261,66.1599426269531,2686498528
sw,-71.4806518554687,-84.8162078857421,9.76232528686523,65.1336975097656,2686515195
sw,-72.0802993774414,-83.7490615844726,35.1787910461425,60.0916213989257,2686531862
sw,-73.0450592041015,-82.7386093139648,57.9379806518554,56.2192916870117,2686548529
sw,-73.7507019042968,-81.7799224853515,36.2570152282714,53.717357635498,2686565196
sw,-74.5765533447265,-80.9284973144531,39.0779113769531,48.2669792175293,2686581863
sw,-75.4254302978515,-80.2651596069336,37.7752609252929,38.5176963806152,2686598530
sw,-76.2007522583007,-79.8949279785156,36.1401901245117,22.4082279205322,2686615197
sw,-76.7937545776367,-79.8089828491211,27.8161525726318,5.84089708328247,2686631864
sw,-77.3375778198242,-79.9514999389648,24.2522926330566,-7.26591444015502,2686648531
sw,-78.0421295166015,-80.2981033325195,32.4329261779785,-18.7379302978515,2686665198
sw,-79.0790100097656,-80.7515716552734,55.5831718444824,-24.7784805297851,2686681865
sw,-80.1711120605468,-81.5331878662109,59.8218574523925,-44.3807220458984,2686698532
sw,-81.0532150268554,-82.8789978027343,45.9095268249511,-77.6110687255859,2686715199
sw,-81.6371002197265,-84.4798355102539,31.12424659729,-93.2664718627929,2686731866
sw,-82.3459396362304,-86.0613021850586,42.3068733215332,-99.2377090454101,2686748533
sw,-83.0869827270507,-87.2906494140625,39.6342086791992,-114.564849853515,2686765200
sw,-83.8644485473632,-86.853157043457,35.8992538452148,-130.400817871093,2686781867
sw,-84.7824478149414,-84.8961563110351,44.6332664489746,-134.140182495117,2686798534
sw,-85.8698577880859,-82.6162109375,59.7676124572753,-132.04133605957,2686815201
sw,-87.0345001220703,-80.3883285522461,67.0489730834961,-133.331222534179,2686831868
sw,-88.2031097412109,-78.2611007690429,67.1188812255859,-133.700988769531,2686848535
sw,-89.3571548461914,-76.1839370727539,64.5145416259765,-133.729385375976,2686865202
sw,-89.3848342895507,-74.0906066894531,64.5517883300781,-129.54898071289,2686881869
sw,-88.1117630004882,-72.0322723388671,61.5450172424316,-122.02864074707,2686898536
sw,-86.9293518066406,-69.9960632324218,51.8767890930175,-117.609138488769,2686915203
sw,-85.97314453125,-68.0558090209961,40.5763282775878,-109.217720031738,2686931870
sw,-85.1770401000976,-66.3662033081054,38.4707145690918,-92.4702606201171,2686948537
sw,-84.3927230834961,-65.0070419311523,46.041877746582,-72.2748870849609,2686965204
sw,-83.4553680419921,-63.9151077270507,60.3554649353027,-55.4422950744628,2686981871
sw,-82.3735046386718,-62.9751091003418,68.971076965332,-47.5441665649414,2686998538
sw,-81.2599411010742,-62.2811965942382,69.1517944335937,-35.3155479431152,2687015205
sw,-80.2026290893554,-61.9468193054199,64.9220581054687,-16.7787380218505,2687031872
sw,-79.1988525390625,-61.9829635620117,61.451675415039,3.3008005619049,2687048539
sw,-78.2119598388671,-62.2095146179199,60.4549407958984,14.7686519622802,2687065206
sw,-77.1651992797851,-62.4743194580078,63.5971145629882,14.436406135559,2687081873
sw,-76.115493774414,-63.0817489624023,63.3940887451171,33.4678077697753,2687098540
sw,-75.1740646362304,-63.8784217834472,56.7086791992187,29.6353588104248,2687115207
sw,-74.3238754272461,-64.9778060913086,50.8733291625976,42.2135581970214,2687131874
sw,-73.5069351196289,-66.1009521484375,48.4769592285156,43.7484130859375,2687148541
sw,-72.6929244995117,-67.0620040893554,48.0580024719238,34.0139617919921,2687165208
sw,-71.9495010375976,-67.8417053222656,43.8979568481445,29.7030868530273,2687181875
sw,-71.3780899047851,-68.4422988891601,33.7126884460449,23.9111232757568,2687198542
sw,-71.0116500854492,-68.8404998779296,21.4733142852783,10.2074728012084,2687215209
sw,-70.8523864746093,-69.3865280151367,9.27826786041259,20.5133552551269,2687231876
sw,-70.8386154174804,-70.061538696289,0.856534838676452,34.0868797302246,2687248543
sw,-71.1994857788086,-70.6320190429687,-21.3999366760253,18.0477466583251,2687265210
sw,-72.1568374633789,-71.5835647583007,-57.1807098388671,41.1880760192871,2687281877
sw,-73.4880981445312,-72.3802719116211,-79.696304321289,33.3061485290527,2687298544
sw,-75.1534194946289,-72.9728088378906,-99.7490844726562,17.6825542449951,2687315211
sw,-77.1542510986328,-73.5762863159179,-121.529609680175,11.928970336914,2687331878
sw,-79.4550628662109,-74.4232788085937,-143.439895629882,25.4552135467529,2687348545
sw,-81.8530960083007,-75.4273147583007,-154.300170898437,38.5147476196289,2687365212
sw,-84.3739547729492,-76.4193649291992,-166.616714477539,42.4296569824218,2687381879
sw,-86.7926483154296,-77.3754196166992,-171.162673950195,43.418529510498,2687398546
sw,-87.9700088500976,-78.3232040405273,-166.579605102539,41.9949150085449,2687415213
sw,-86.5191802978515,-79.2597732543945,-154.021682739257,40.3253440856933,2687431880
sw,-84.4208984375,-80.2264175415039,-141.675231933593,44.375991821289,2687448547
sw,-82.2862472534179,-81.2336196899414,-133.58528137207,49.4605827331543,2687465214
sw,-80.3551864624023,-82.2422790527343,-117.646591186523,53.0726623535156,2687481881
sw,-78.7328186035156,-83.2406845092773,-96.2840805053711,56.169506072998,2687498548
sw,-77.3559265136718,-84.2697830200195,-78.8492584228515,60.161392211914,2687515215
sw,-76.0991058349609,-85.3698425292968,-68.7936248779296,64.7869644165039,2687531882
sw,-74.8676605224609,-86.5022888183593,-64.9895401000976,66.1698608398437,2687548549
sw,-73.6984100341796,-87.6235656738281,-61.1976089477539,64.2870864868164,2687565216
sw,-72.6302413940429,-88.6971893310546,-58.4580383300781,59.0703926086425,2687581883
sw,-71.6515808105468,-90.0,-58.4888153076171,53.7585754394531,2687598550
sw,-70.7804107666015,-89.8356781005859,-56.5624732971191,53.6113853454589,2687615217
sw,-70.2036972045898,-88.4893646240234,-38.8860130310058,56.3052291870117,2687631884
sw,-69.8659515380859,-87.3412628173828,-22.1420402526855,61.6409912109375,2687648551
sw,-70.1063079833984,-86.1557006835937,12.3520603179931,66.519302368164,2687665218
sw,-70.9243545532226,-84.9689254760742,49.3691902160644,67.9675521850586,2687681885
sw,-72.0061264038086,-83.8083114624023,66.1522674560546,66.2923736572265,2687698552
sw,-72.9338150024414,-82.7329635620117,51.9172859191894,59.988842010498,2687715219
sw,-73.8580017089843,-81.856575012207,45.4059715270996,47.6158828735351,2687731886
sw,-74.8417358398437,-81.2029266357421,44.1667137145996,35.2338218688964,2687748553
sw,-75.8803939819336,-80.760269165039,49.1514930725097,24.3321170806884,2687765220
sw,-76.8009338378906,-80.5336990356445,47.3412437438964,13.2600383758544,2687781887
sw,-77.433479309082,-80.4509582519531,31.0131568908691,6.42484140396118,2687798554
sw,-77.9791030883789,-80.5255813598632,21.6767463684082,-2.42067551612854,2687815221
sw,-78.8441772460937,-80.7266769409179,44.6598243713378,-10.7980604171752,2687831888
sw,-79.8821945190429,-81.1556701660156,60.2977104187011,-24.8183059692382,2687848555
sw,-80.7375183105468,-82.0612564086914,45.4110717773437,-52.6865997314453,2687865222
sw,-81.2279968261718,-83.3738632202148,22.9069862365722,-74.9848098754882,2687881889
sw,-81.8881454467773,-84.8576049804687,39.2643661499023,-82.6255187988281,2687898556
sw,-82.6861114501953,-86.5290374755859,44.129051208496,-95.7062759399414,2687915223
sw,-83.5486450195312,-88.0570068359375,40.1951370239257,-111.345954895019,2687931890
sw,-84.4880065917968,-87.5375671386718,43.7818756103515,-125.054740905761,2687948557
sw,-85.5921173095703,-85.3041458129882,57.4313583374023,-128.488952636718,2687965224
sw,-86.8348617553711,-82.9224395751953,70.1964874267578,-128.078323364257,2687981891
sw,-88.1060714721679,-80.6445999145507,73.4923324584961,-130.31867980957,2687998558
sw,-89.3459854125976,-78.4324951171875,65.4724731445312,-131.438339233398,2688015225
sw,-90.0,-76.2478561401367,63.2957878112793,-132.163803100585,2688031892
sw,-88.6203079223632,-74.0819549560546,62.2330780029296,-127.959350585937,2688048559
sw,-87.4023361206054,-71.9825744628906,55.9701652526855,-119.053245544433,2688065226
sw,-86.3182601928711,-69.9567108154296,49.754295349121,-111.906959533691,2688081893
sw,-85.3395233154296,-68.0171279907226,47.40523147583,-105.355102539062,2688098560
sw,-84.3567733764648,-66.2394638061523,52.9418067932128,-92.1077423095703,2688115227
sw,-83.2957763671875,-64.7684555053711,62.4338035583496,-70.3434906005859,2688131894
sw,-82.1354598999023,-63.590087890625,70.0456314086914,-54.1481323242187,2688148561
sw,-80.96484375,-62.6620407104492,71.0963821411132,-43.3935470581054,2688165228
sw,-79.8378067016601,-61.9268264770507,69.0379867553711,-38.8161392211914,2688181895
sw,-78.734146118164,-61.4735946655273,67.2761917114257,-25.8007717132568,2688198562
sw,-77.6378021240234,-61.384666442871,65.9243545532226,-3.85352873802185,2688215229
sw,-76.5122528076171,-61.5540351867675,66.98974609375,12.1121854782104,2688231896
sw,-75.3516693115234,-61.8121604919433,68.9735565185546,16.6864929199218,2688248563
sw,-74.2150726318359,-62.2907676696777,67.4693908691406,27.4929542541503,2688265230
sw,-73.098518371582,-62.8741950988769,66.0935516357421,24.5911922454834,2688281897
sw,-71.9766845703125,-63.6835708618164,66.474006652832,30.4826602935791,2688298564
sw,-70.8136444091796,-64.6794509887695,68.8934936523437,41.8976707458496,2688315231
sw,-69.7188873291015,-65.6302261352539,64.6530075073242,40.1615982055664,2688331898
sw,-68.8962783813476,-66.2546997070312,48.2896041870117,20.2225093841552,2688348565
sw,-68.4232864379882,-66.608642578125,27.4116039276123,6.04659223556518,2688365232
sw,-68.2303237915039,-67.0432968139648,10.6511993408203,12.9504604339599,2688381899
sw,-68.2072677612304,-67.5595245361328,0.458500504493713,15.5415325164794,2688398566
sw,-68.2155456542968,-68.1522369384765,-1.32346415519714,17.5052509307861,2688415233
sw,-68.3907470703125,-69.1546478271484,-11.3092746734619,36.1514625549316,2688431900
sw,-69.02734375,-70.2728958129882,-39.1682167053222,47.0814704895019,2688448567
sw,-70.1429290771484,-71.0516281127929,-68.0770874023437,31.6551094055175,2688465234
sw,-71.8008346557617,-71.6469421386718,-100.889244079589,18.8686695098876,2688481901
sw,-73.9383697509765,-72.3865585327148,-130.535537719726,23.8599300384521,2688498568
sw,-76.3531112670898,-73.3504028320312,-149.025848388671,35.4148979187011,2688515235
sw,-78.8196868896484,-74.4121475219726,-155.239944458007,42.84273147583,2688531902
sw,-81.1492309570312,-75.4457397460937,-150.36912536621,42.5886497497558,2688548569
sw,-83.3479309082031,-76.3684997558593,-147.230880737304,35.4987754821777,2688565236
sw,-85.3546447753906,-77.2970504760742,-145.531860351562,36.0386428833007,2688581903
sw,-86.8461380004882,-78.2863616943359,-144.121597290039,42.0026969909668,2688598570
sw,-87.038589477539,-79.3199768066406,-141.210754394531,47.4100151062011,2688615237
sw,-85.8012466430664,-80.3661651611328,-136.28271484375,50.5600433349609,2688631904
sw,-84.0495529174804,-81.3428421020507,-127.441902160644,48.9246177673339,2688648571
sw,-82.2526397705078,-82.2802734375,-115.929168701171,50.3918418884277,2688665238
sw,-80.5217056274414,-83.2679824829101,-105.391571044921,55.5775451660156,2688681905
sw,-78.939453125,-84.3739547729492,-92.8468780517578,63.9270324707031,2688698572
sw,-77.5412063598632,-85.5577239990234,-80.7255554199218,69.6762313842773,2688715239
sw,-76.2626266479492,-86.7487564086914,-74.3819351196289,70.1381912231445,2688731906
sw,-75.059814453125,-87.8788299560546,-72.285774230957,64.3463592529296,2688748573
sw,-73.909927368164,-88.9605255126953,-71.4818725585937,56.4771423339843,2688765240
sw,-72.8556137084961,-90.0,-67.8793258666992,50.8938446044921,2688781907
sw,-71.971694946289,-89.80517578125,-58.3470573425293,50.6165771484375,2688798574
sw,-71.2714233398437,-88.5363311767578,-45.9617652893066,52.551513671875,2688815241
sw,-70.8133010864257,-87.5198287963867,-31.3978977203369,54.9647140502929,2688831908
sw,-70.8768081665039,-86.5165939331054,-0.172272279858589,56.6710395812988,2688848575
sw,-71.1559829711914,-85.5155029296875,13.9619436264038,56.9889373779296,2688865242
sw,-71.613899230957,-84.5410537719726,23.6723079681396,54.785717010498,2688881909
sw,-72.1207580566406,-83.6394958496093,25.2203044891357,49.7546730041503,2688898576
sw,-72.7173385620117,-82.8423385620117,28.1493797302246,43.4742584228515,2688915243
sw,-73.5378723144531,-82.1981811523437,38.3698768615722,34.7857093811035,2688931910
sw,-74.2658233642578,-81.6878814697265,29.3602066040039,28.2799243927001,2688948577
sw,-74.9751815795898,-81.3146362304687,29.1926212310791,21.7766532897949,2688965244
sw,-75.563720703125,-81.1158218383789,24.6955757141113,12.2719211578369,2688981911
sw,-76.1045379638671,-81.0896301269531,23.6498050689697,2.1920108795166,2688998578
sw,-77.0530014038086,-81.1859741210937,50.3173751831054,-5.07079887390136,2689015245
sw,-78.3883666992187,-81.4692230224609,79.3245849609375,-16.5279369354248,2689031912
sw,-79.5063781738281,-82.0545349121093,64.3028869628906,-33.9114151000976,2689048579
sw,-80.1969680786132,-83.0399322509765,36.723876953125,-55.5399703979492,2689065246
sw,-80.8106384277343,-84.3030929565429,37.8086814880371,-70.2325210571289,2689081913
sw,-81.5530319213867,-85.7689971923828,46.2452888488769,-82.0941848754882,2689098580
sw,-82.3427810668945,-87.3296585083007,39.6758346557617,-95.3448791503906,2689115247
sw,-83.1918182373046,-88.119873046875,34.5334129333496,-112.150436401367,2689131914
sw,-84.1525955200195,-86.5839614868164,43.8410911560058,-125.496788024902,2689148581
sw,-85.2063369750976,-84.204719543457,56.5667457580566,-126.910446166992,2689165248
sw,-86.3622894287109,-81.8024978637695,66.1558380126953,-129.348937988281,2689181915
sw,-87.5338363647461,-79.5301437377929,68.4648361206054,-130.930633544921,2689198582
sw,-88.7312850952148,-77.3672866821289,67.3715896606445,-128.369323730468,2689215249
sw,-90.0,-75.2292175292968,65.8291549682617,-131.149749755859,2689231916
sw,-89.1635055541992,-73.1446762084961,63.71529006958,-126.538902282714,2689248583
sw,-87.911750793457,-71.1122360229492,53.3422126770019,-119.954612731933,2689265250
sw,-86.9570846557617,-69.1872406005859,37.7417297363281,-110.593643188476,2689281917
sw,-86.1774597167968,-67.3958892822265,31.9456481933593,-99.4884948730468,2689298584
sw,-85.3981094360351,-65.9036026000976,40.6863403320312,-77.4716339111328,2689315251
sw,-84.5319137573242,-64.7424392700195,52.3525619506835,-56.4537048339843,2689331918
sw,-83.5116729736328,-63.8220672607421,63.5788841247558,-43.8311500549316,2689348585
sw,-82.373779296875,-62.995059967041,71.3760147094726,-44.1541481018066,2689365252
sw,-81.2522201538086,-62.2771377563476,70.2498321533203,-45.2029762268066,2689381919
sw,-80.173469543457,-61.8546180725097,66.6539459228515,-29.1006813049316,2689398586
sw,-79.118667602539,-61.7627029418945,63.5350494384765,-8.74596405029296,2689415253
sw,-78.0702514648437,-61.9839057922363,62.2117614746093,10.9693803787231,2689431920
sw,-77.0489959716796,-62.4031753540039,60.2175636291503,23.6618766784667,2689448587
sw,-76.0823593139648,-62.973388671875,57.0407981872558,29.5682106018066,2689465254
sw,-75.11279296875,-63.6927795410156,57.3777275085449,31.6154155731201,2689481921
sw,-74.0845413208007,-64.4668197631836,60.8840255737304,29.5248069763183,2689498588
sw,-73.0324172973632,-65.2345504760742,62.0352210998535,27.4844398498535,2689515255
sw,-72.0492858886718,-66.0255355834961,57.7370910644531,33.5982322692871,2689531922
sw,-71.2388153076171,-66.7254867553711,47.4922714233398,30.3725051879882,2689548589
sw,-70.7277526855468,-67.0944747924804,29.7818374633789,5.72608757019043,2689565256
sw,-70.5831298828125,-67.5161437988281,7.85852622985839,11.4972858428955,2689581923
sw,-70.7178421020507,-68.0956115722656,-9.00543117523193,20.3989524841308,2689598590
sw,-70.9112167358398,-68.6996536254882,-12.4682178497314,20.3128700256347,2689615257
sw,-71.1437377929687,-69.5103149414062,-14.7892570495605,23.8596420288085,2689631924
sw,-71.7961502075195,-70.5047302246093,-40.2331771850585,40.8415374755859,2689648591
sw,-72.9850692749023,-71.3766403198242,-72.6852188110351,38.4917259216308,2689665258
sw,-74.697036743164,-72.0983276367187,-104.583610534667,28.4784259796142,2689681925
sw,-76.7976303100586,-72.8649139404296,-129.524978637695,24.74263381958,2689698592
sw,-79.2372894287109,-73.8016738891601,-153.276580810546,31.1791381835937,2689715259
sw,-81.7037887573242,-74.8518524169921,-161.199447631835,38.6768531799316,2689731926
sw,-84.007209777832,-75.8532791137695,-160.491165161132,41.4693336486816,2689748593
sw,-86.1158752441406,-76.7566604614257,-168.109313964843,39.4135971069335,2689765260
sw,-87.1940460205078,-77.6377716064453,-169.723754882812,38.980224609375,2689781927
sw,-86.1093215942382,-78.5473556518554,-164.693161010742,40.7004508972168,2689798594
sw,-84.1018295288086,-79.4823837280273,-150.516342163085,44.0174369812011,2689815261
sw,-81.955093383789,-80.3724899291992,-140.610519409179,44.9766235351562,2689831928
sw,-79.9611282348632,-81.248664855957,-124.466125488281,48.0308685302734,2689848595
sw,-78.2625274658203,-82.2049179077148,-102.397804260253,55.2908172607421,2689865262
sw,-76.8963851928711,-83.2777786254882,-79.2508468627929,64.6480407714843,2689881929
sw,-75.7512588500976,-84.4396591186523,-63.3951034545898,71.1781311035156,2689898596
sw,-74.6469345092773,-85.6812591552734,-59.1097221374511,76.3646011352539,2689915263
sw,-73.5528564453125,-86.9037704467773,-58.2422180175781,74.6958694458007,2689931930
sw,-72.5785369873046,-88.0222702026367,-53.4106864929199,67.1965637207031,2689948597
sw,-71.7354354858398,-89.0022048950195,-51.1368751525878,61.473388671875,2689965264
sw,-70.9368057250976,-89.3025512695312,-54.5669021606445,59.6725845336914,2689981931
sw,-70.2008438110351,-88.3668594360351,-53.8768692016601,65.0753173828125,2689998598
sw,-69.8093490600586,-87.1475524902343,-30.102518081665,71.1935729980468,2690015265
sw,-69.9605712890625,-85.854377746582,6.02658891677856,74.6620864868164,2690031932
sw,-70.5920791625976,-84.6062088012695,38.7957458496093,71.8606719970703,2690048599
sw,-71.4359893798828,-83.4371490478515,53.0142135620117,66.9022979736328,2690065266
sw,-72.2910919189453,-82.3595428466796,49.0057144165039,61.4650230407714,2690081933
sw,-72.9571075439453,-81.3760681152343,30.4033508300781,56.161937713623,2690098600
sw,-73.8526763916015,-80.5441284179687,41.0489997863769,46.6998558044433,2690115267
sw,-74.8020782470703,-79.8885269165039,45.8871192932128,36.6049575805664,2690131934
sw,-75.6171798706054,-79.435317993164,41.3548545837402,26.2034950256347,2690148601
sw,-76.1850357055664,-79.2404403686523,27.9959392547607,12.5190181732177,2690165268
sw,-76.7732696533203,-79.3734588623046,25.9105243682861,-6.05720520019531,2690181935
sw,-77.8510513305664,-79.7459487915039,58.6873970031738,-20.5380458831787,2690198602
sw,-79.0630569458007,-80.3465728759765,68.0100555419921,-34.2531814575195,2690215269
sw,-80.1153335571289,-81.3734283447265,53.8542327880859,-60.0883293151855,2690231936
sw,-80.958999633789,-82.8398208618164,45.8735694885253,-85.5919494628906,2690248603
sw,-81.7263565063476,-84.4536972045898,45.6097259521484,-95.097183227539,2690265270
sw,-82.7040863037109,-86.0535507202148,55.6764869689941,-105.217697143554,2690281937
sw,-83.8469009399414,-87.1318740844726,55.8947944641113,-119.213714599609,2690298604
sw,-84.9882354736328,-86.4977035522461,50.9230690002441,-134.470306396484,2690315271
sw,-86.1768951416015,-84.4636688232421,59.2168731689453,-137.405532836914,2690331938
sw,-87.4982223510742,-82.1694717407226,73.0866165161132,-138.928817749023,2690348605
sw,-88.8960647583007,-79.8825988769531,78.7717208862304,-144.562805175781,2690365272
sw,-90.0,-77.5993118286132,74.5985565185546,-146.468383789062,2690381939
sw,-88.801887512207,-75.3393630981445,70.6935348510742,-146.618087768554,2690398606
sw,-87.44189453125,-73.1736450195312,68.1227188110351,-138.200790405273,2690415273
sw,-86.1771545410156,-71.0971527099609,61.2192268371582,-127.455619812011,2690431940
sw,-85.1985397338867,-69.0972213745117,44.17529296875,-117.019996643066,2690448607
sw,-84.3955612182617,-67.1978607177734,37.153953552246,-105.715698242187,2690465274
sw,-83.6102142333984,-65.516128540039,42.8766746520996,-85.4644317626953,2690481941
sw,-82.7050552368164,-64.1944503784179,54.285846710205,-59.6471939086914,2690498608
sw,-81.5260162353515,-63.1946372985839,72.6908798217773,-42.0526008605957,2690515275
sw,-80.181411743164,-62.4125747680664,82.7246475219726,-33.5425643920898,2690531942
sw,-78.9203872680664,-61.7949981689453,76.8957901000976,-30.5777130126953,2690548609
sw,-77.7774887084961,-61.4977340698242,68.7067718505859,-17.0832786560058,2690565276
sw,-76.6816177368164,-61.5565490722656,65.1219863891601,3.72017788887023,2690581943
sw,-75.5194244384765,-61.7971076965332,68.9163360595703,16.7009105682373,2690598610
sw,-74.2386627197265,-62.0975723266601,76.1604766845703,19.3447666168212,2690615277
sw,-72.9203186035156,-62.7084465026855,78.4498748779296,37.9201202392578,2690631944
sw,-71.637954711914,-63.5425262451171,76.2558288574218,44.1254196166992,2690648611
sw,-70.4132461547851,-64.3909683227539,72.6456985473632,30.6998767852783,2690665278
sw,-69.2968368530273,-65.2898559570312,65.9045944213867,32.8206520080566,2690681945
sw,-68.3401870727539,-66.2021865844726,56.2701759338378,43.2531356811523,2690698612
sw,-67.6613235473632,-66.9063186645507,39.7204208374023,36.6348266601562,2690715279
sw,-67.408821105957,-67.2689895629882,14.0776948928833,9.02025604248046,2690731946
sw,-67.5384445190429,-67.6218109130859,-8.82280826568603,2.43636035919189,2690748613
sw,-67.8332290649414,-68.2753601074218,-18.7317848205566,25.1965599060058,2690765280
sw,-68.4183120727539,-69.1111297607421,-36.2561302185058,33.6377334594726,2690781947
sw,-69.3875274658203,-70.0091934204101,-59.5060005187988,35.069538116455,2690798614
sw,-70.6993331909179,-70.8511962890625,-80.417854309082,34.4407501220703,2690815281
sw,-72.4354248046875,-71.6612701416015,-106.877395629882,26.8317070007324,2690831948
sw,-74.5486602783203,-72.4947738647461,-131.302520751953,22.3182334899902,2690848615
sw,-76.8787765502929,-73.4814453125,-147.54345703125,31.820930480957,2690865282
sw,-79.1994552612304,-74.6242752075195,-151.972930908203,43.5041275024414,2690881949
sw,-81.4384231567382,-75.7400665283203,-150.910720825195,46.4621810913085,2690898616
sw,-83.5874862670898,-76.7351684570312,-148.962463378906,43.76265335083,2690915283
sw,-85.5947341918945,-77.7229080200195,-150.855484008789,43.8216285705566,2690931950
sw,-86.9561233520507,-78.7412948608398,-150.406951904296,43.3485488891601,2690948617
sw,-86.6981430053711,-79.7879867553711,-144.519256591796,45.0579643249511,2690965284
sw,-85.1653594970703,-80.8085403442382,-136.762588500976,45.958568572998,2690981951
sw,-83.3043518066406,-81.7712860107421,-128.753234863281,47.7716560363769,2690998618
sw,-81.4807662963867,-82.7521362304687,-115.797485351562,54.5732917785644,2691015285
sw,-79.8937225341796,-83.824478149414,-95.4176559448242,63.2985954284668,2691031952
sw,-78.5639953613281,-84.9735260009765,-76.8562469482421,68.2966156005859,2691048619
sw,-77.3823318481445,-86.1202545166015,-67.7294616699218,67.2422409057617,2691065286
sw,-76.1954727172851,-87.1893768310546,-69.274673461914,60.444164276123,2691081953
sw,-74.9911346435546,-88.1971282958984,-72.3745498657226,54.1338920593261,2691098620
sw,-73.84765625,-89.2330627441406,-70.9743728637695,49.8792037963867,2691115287
sw,-72.8843536376953,-90.0,-61.5608177185058,50.7029953002929,2691131954
sw,-72.1941299438476,-89.1800460815429,-44.7693710327148,56.8076248168945,2691148621
sw,-71.7665863037109,-87.9509201049804,-28.4550991058349,63.8564491271972,2691165288
sw,-71.7233734130859,-86.7672348022461,-5.95956659317016,66.5393524169921,2691181955
sw,-72.0356826782226,-85.6288833618164,14.3701648712158,64.8853378295898,2691198622
sw,-72.6210479736328,-84.5304794311523,33.0778846740722,62.5128135681152,2691215289
sw,-73.3732070922851,-83.477066040039,44.0972480773925,59.393569946289,2691231956
sw,-73.8980178833007,-82.5262298583984,24.327199935913,52.9297790527343,2691248623
sw,-74.6950607299804,-81.7166061401367,37.3567390441894,44.3652572631835,2691265290
sw,-75.5202026367187,-81.0639190673828,33.4457550048828,35.6748085021972,2691281957
sw,-76.4432144165039,-80.6044311523437,43.0242080688476,25.6897640228271,2691298624
sw,-77.0802383422851,-80.4008178710937,30.2740154266357,12.24458694458,2691315291
sw,-77.6592330932617,-80.4384460449218,23.3954677581787,-0.640590667724609,2691331958
sw,-78.6610260009765,-80.6873626708984,49.8997459411621,-12.7114276885986,2691348625
sw,-79.926025390625,-81.0911788940429,70.2486801147461,-22.6491870880126,2691365292
sw,-81.0880661010742,-81.9649581909179,65.0341567993164,-51.4561004638671,2691381959
sw,-81.8675994873046,-83.4257125854492,40.7429580688476,-84.7672424316406,2691398626
sw,-82.4797134399414,-85.1059951782226,34.1934356689453,-95.7410888671875,2691415293
sw,-83.2466049194336,-86.9006729125976,43.6037673950195,-105.493499755859,2691431960
sw,-84.1021270751953,-88.283088684082,40.1609306335449,-116.762916564941,2691448627
sw,-85.0805206298828,-87.2117462158203,42.8954238891601,-133.932891845703,2691465294
sw,-86.2591705322265,-84.7068710327148,59.6791343688964,-139.438156127929,2691481961
sw,-87.5910873413086,-82.1162643432617,74.7476730346679,-136.343032836914,2691498628
sw,-89.0338973999023,-79.671401977539,79.3402633666992,-137.638442993164,2691515295
sw,-90.0,-77.4065246582031,69.6792907714843,-134.195877075195,2691531962
sw,-89.0490036010742,-75.2368545532226,58.7475929260253,-134.359542846679,2691548629
sw,-87.8219223022461,-73.1168060302734,59.7016258239746,-129.761276245117,2691565296
sw,-86.577033996582,-71.0481872558593,58.985008239746,-122.602180480957,2691581963
sw,-85.5011138916015,-68.9922561645507,48.4480514526367,-119.016281127929,2691598630
sw,-84.6594009399414,-66.9615631103515,39.2573204040527,-116.007690429687,2691615297
sw,-83.9051666259765,-65.1663284301757,40.481761932373,-99.4622573852539,2691631964
sw,-83.0477752685546,-63.7276992797851,50.796272277832,-77.2752685546875,2691648631
sw,-82.0185165405273,-62.5974159240722,62.6684761047363,-58.9205589294433,2691665298
sw,-80.9091033935546,-61.6294479370117,67.0604476928711,-50.3449516296386,2691681965
sw,-79.9083938598632,-60.8959732055664,60.1175918579101,-37.6036529541015,2691698632
sw,-79.0290908813476,-60.5203666687011,52.1444282531738,-17.7749328613281,2691715299
sw,-78.1663742065429,-60.4320068359375,50.7568283081054,-1.24663770198822,2691731966
sw,-77.2066268920898,-60.5236930847168,57.0483665466308,10.8873567581176,2691748633
sw,-76.1508178710937,-60.6988067626953,63.0215682983398,12.6631917953491,2691765300
sw,-75.114517211914,-61.0707702636718,61.7510223388671,21.3292541503906,2691781967
sw,-74.1476440429687,-61.7763786315918,57.6681060791015,39.2485160827636,2691798634
sw,-73.2441253662109,-62.7567062377929,53.5767593383789,49.1769409179687,2691815301
sw,-72.3804168701171,-63.8760795593261,51.0579986572265,53.0051116943359,2691831968
sw,-71.495376586914,-64.9275512695312,52.0013732910156,45.180850982666,2691848635
sw,-70.5673675537109,-65.7922134399414,54.0682334899902,33.4411354064941,2691865302
sw,-69.7735443115234,-66.6150970458984,46.2279434204101,37.2940330505371,2691881969
sw,-69.2695693969726,-67.2695007324218,29.6069374084472,26.6471691131591,2691898636
sw,-69.09912109375,-67.8862991333007,10.0432424545288,20.405174255371,2691915303
sw,-69.1725311279296,-68.5805206298828,-4.70479583740234,26.1709823608398,2691931970
sw,-69.3198699951171,-69.3455352783203,-9.40046691894531,29.9262924194335,2691948637
sw,-69.6471786499023,-70.3022384643554,-20.3840179443359,38.5838432312011,2691965304
sw,-70.5814666748046,-71.264892578125,-56.9870834350585,46.0875015258789,2691981971
sw,-72.1072540283203,-71.9015274047851,-92.5813369750976,25.2636814117431,2691998638
sw,-74.0540390014648,-72.5660018920898,-118.260437011718,21.6550731658935,2692015305
sw,-76.3780670166015,-73.4900894165039,-142.552154541015,31.6937999725341,2692031972
sw,-78.8280715942382,-74.6153945922851,-153.09732055664,42.2852592468261,2692048639
sw,-81.1039352416992,-75.7510986328125,-146.048553466796,46.5704841613769,2692065306
sw,-83.2527313232421,-76.7917404174804,-141.840301513671,45.5365676879882,2692081973
sw,-85.3776397705078,-77.7953948974609,-145.628067016601,44.9430961608886,2692098640
sw,-87.2029190063476,-78.805305480957,-149.451095581054,44.9914207458496,2692115307
sw,-87.5220413208007,-79.8505706787109,-144.704177856445,47.1207580566406,2692131974
sw,-86.1466979980468,-80.8742599487304,-135.01448059082,48.3215942382812,2692148641
sw,-84.4112854003906,-81.8309097290039,-122.717002868652,48.1561889648437,2692165308
sw,-82.7150344848632,-82.7674102783203,-109.068542480468,50.5557174682617,2692181975
sw,-81.1203536987304,-83.7696380615234,-96.5655670166015,57.0273475646972,2692198642
sw,-79.6305618286132,-84.8800582885742,-86.3594207763671,66.2889556884765,2692215309
sw,-78.1909790039062,-86.0570220947265,-82.1820983886718,72.4718017578125,2692231976
sw,-76.7827911376953,-87.196907043457,-80.2993545532226,70.0428009033203,2692248643
sw,-75.4237594604492,-88.2215042114257,-77.6623611450195,61.0317306518554,2692265310
sw,-74.1894989013671,-89.0878601074218,-72.0801773071289,53.6573257446289,2692281977
sw,-73.1683883666992,-89.3918762207031,-61.8796157836914,51.7320861816406,2692298644
sw,-72.3076934814453,-88.5698776245117,-53.6703605651855,56.8512840270996,2692315311
sw,-71.6481628417968,-87.4723739624023,-41.9067573547363,63.6978721618652,2692331978
sw,-71.2399215698242,-86.2641983032226,-26.5687141418457,70.0470581054687,2692348645
sw,-71.2484741210937,-85.0862579345703,-2.30196452140808,68.5568389892578,2692365312
sw,-71.7847595214843,-84.0085830688476,33.4024658203125,62.4878997802734,2692381979
sw,-72.531509399414,-82.9352035522461,45.2721900939941,61.8216361999511,2692398646
sw,-73.3741836547851,-81.9058837890625,47.1376342773437,58.800983428955,2692415313
sw,-74.1821975708007,-81.069595336914,40.5974617004394,46.9620475769043,2692431980
sw,-75.1455459594726,-80.4290695190429,45.8393898010253,35.4144821166992,2692448647
sw,-76.3224182128906,-79.9107055664062,58.5440025329589,29.1298446655273,2692465314
sw,-77.2119522094726,-79.5281143188476,40.8752365112304,22.3187255859375,2692481981
sw,-77.7691802978515,-79.3622589111328,23.4037494659423,11.2392787933349,2692498648
sw,-78.4533767700195,-79.4657287597656,34.5512313842773,-4.13232612609863,2692515315
sw,-79.54150390625,-79.8916625976562,63.083927154541,-23.9324989318847,2692531982
sw,-80.6606216430664,-80.7196884155273,63.8222579956054,-48.4470176696777,2692548649
sw,-81.4880218505859,-82.1435012817382,42.2244110107421,-84.156753540039,2692565316
sw,-82.1067352294921,-83.9355087280273,31.4516067504882,-105.283020019531,2692581983
sw,-82.8427276611328,-85.7518615722656,37.8895111083984,-111.072616577148,2692598650
sw,-83.811164855957,-87.1861038208007,49.5689277648925,-120.177299499511,2692615317
sw,-84.9541091918945,-86.9504699707031,58.3450965881347,-127.576995849609,2692631984
sw,-86.1918334960937,-85.1660461425781,64.331916809082,-131.685012817382,2692648651
sw,-87.5028381347656,-83.0471267700195,71.3098678588867,-127.128944396972,2692665318
sw,-88.9135818481445,-80.8743743896484,76.8606948852539,-130.779006958007,2692681985
sw,-90.0,-78.6360473632812,73.2993469238281,-135.67544555664,2692698652
sw,-88.909439086914,-76.4046554565429,67.878173828125,-136.448089599609,2692715319
sw,-87.682014465332,-74.2857208251953,62.8387260437011,-127.282272338867,2692731986
sw,-86.4568481445312,-72.3165283203125,60.4527702331543,-116.274925231933,2692748653
sw,-85.2767791748046,-70.4441680908203,57.7034263610839,-108.817161560058,2692765320
sw,-84.2476959228515,-68.6680755615234,53.0160751342773,-101.301513671875,2692781987
sw,-83.3043212890625,-67.0527954101562,52.5886611938476,-89.3826675415039,2692798654
sw,-82.3070831298828,-65.6861343383789,58.3541717529296,-71.1506042480468,2692815321
sw,-81.1865539550781,-64.5809020996093,66.9497985839843,-55.392463684082,2692831988
sw,-80.0914688110351,-63.6852722167968,65.4197540283203,-44.038948059082,2692848655
sw,-79.0844039916992,-62.9800682067871,59.674503326416,-35.7716903686523,2692865322
sw,-78.1411590576171,-62.5281753540039,55.5162734985351,-25.3644332885742,2692881989
sw,-77.1998138427734,-62.3377151489257,55.3751335144043,-11.1748008728027,2692898656
sw,-76.2079315185546,-62.4257583618164,58.8378028869628,6.44732046127319,2692915323
sw,-75.1401901245117,-62.6410255432128,63.6354446411132,12.6385040283203,2692931990
sw,-74.0233078002929,-63.0674591064453,66.3585739135742,25.2998809814453,2692948657
sw,-72.836929321289,-63.766502380371,70.6539840698242,37.8068542480468,2692965324
sw,-71.5395431518554,-64.6886367797851,77.2896270751953,41.094856262207,2692981991
sw,-70.2573089599609,-65.6505737304687,76.1333236694336,36.5748558044433,2692998658
sw,-69.2113342285156,-66.4619216918945,61.7229232788085,28.9142818450927,2693015325
sw,-68.5023345947265,-67.1712951660156,41.3513450622558,37.1385650634765,2693031992
sw,-68.1047439575195,-67.5933151245117,22.725751876831,20.2947731018066,2693048659
sw,-68.0516052246093,-67.8303070068359,2.24684357643127,-1.65961623191833,2693065326
sw,-68.1848449707031,-68.2611007690429,-8.72452449798584,9.96523475646972,2693081993
sw,-68.3797912597656,-68.9484786987304,-12.5254116058349,30.7302951812744,2693098660
sw,-68.9123001098632,-69.7947769165039,-33.1727790832519,28.3184814453125,2693115327
sw,-70.0258407592773,-70.8270416259765,-68.387710571289,40.4565124511718,2693131994
sw,-71.5128479003906,-71.7088317871093,-91.251220703125,34.1120910644531,2693148661
sw,-73.4540252685546,-72.4066696166992,-119.965637207031,22.2150325775146,2693165328
sw,-75.826789855957,-73.1785278320312,-148.343795776367,25.1502971649169,2693181995
sw,-78.4276428222656,-74.2000274658203,-166.155822753906,39.8233947753906,2693198662
sw,-80.9728088378906,-75.3326263427734,-167.851409912109,47.6272048950195,2693215329
sw,-83.3513565063476,-76.3706130981445,-163.646499633789,43.0238723754882,2693231996
sw,-85.5136260986328,-77.293098449707,-162.665130615234,35.4235343933105,2693248663
sw,-86.975601196289,-78.2283172607421,-164.217880249023,35.9304084777832,2693265330
sw,-86.5363235473632,-79.2170867919921,-159.034637451171,41.4591445922851,2693281997
sw,-84.7301712036132,-80.2821807861328,-151.619796752929,49.3447914123535,2693298664
sw,-82.5737609863281,-81.3233871459961,-146.035217285156,51.3729248046875,2693315331
sw,-80.4682388305664,-82.2996673583984,-133.28482055664,51.7373847961425,2693331998
sw,-78.5540237426757,-83.3102416992187,-115.889419555664,57.4043655395507,2693348665
sw,-76.8421401977539,-84.396255493164,-100.40502166748,64.0853195190429,2693365332
sw,-75.3419876098632,-85.5559997558593,-86.4352493286132,70.2942352294921,2693381999
sw,-73.9355697631836,-86.7060394287109,-80.5380935668945,70.1765365600586,2693398666
sw,-72.5561981201171,-87.8171691894531,-79.376350402832,67.5983963012695,2693415333
sw,-71.2306747436523,-88.8161849975586,-77.5390930175781,62.7893142700195,2693432000
sw,-70.0757064819336,-89.3492813110351,-70.3911895751953,59.1787796020507,2693448667
sw,-69.2570495605468,-88.7205352783203,-51.5589332580566,57.7647972106933,2693465334
sw,-68.7535934448242,-87.6516494750976,-32.1499595642089,63.8491706848144,2693482001
sw,-68.7197799682617,-86.4520492553711,-3.55070757865905,69.8564758300781,2693498668
sw,-69.2680053710937,-85.2915649414062,34.9730072021484,67.3023223876953,2693515335
sw,-70.0049438476562,-84.265640258789,44.8542709350585,58.8920173645019,2693532002
sw,-71.1152725219726,-83.32861328125,64.2262191772461,53.1150016784668,2693548669
sw,-72.2104568481445,-82.4905242919921,58.0102195739746,46.7048721313476,2693565336
sw,-73.4249038696289,-81.7838973999023,61.3014259338378,38.11376953125,2693582003
sw,-74.6301956176757,-81.2498321533203,52.695457458496,28.537971496582,2693598670
sw,-75.8891296386718,-80.9518280029296,58.5765571594238,17.2426490783691,2693615337
sw,-76.9305648803711,-80.91455078125,49.55078125,3.95755553245544,2693632004
sw,-77.6673965454101,-81.184944152832,30.6681308746337,-14.0272846221923,2693648671
sw,-78.3300247192382,-81.7153549194336,24.3949337005615,-30.1057910919189,2693665338
sw,-79.3373336791992,-82.4577178955078,54.4215927124023,-43.1393165588378,2693682005
sw,-80.6187744140625,-83.5072860717773,78.4725875854492,-61.0104751586914,2693698672
sw,-81.6654891967773,-84.9320678710937,58.9927406311035,-83.7149276733398,2693715339
sw,-82.1613540649414,-86.6953582763671,19.2341690063476,-111.690612792968,2693732006
sw,-82.8423690795898,-87.8460540771484,34.8021507263183,-126.397636413574,2693748673
sw,-83.6366882324218,-86.6209564208984,42.1676406860351,-137.44856262207,2693765340
sw,-84.4525299072265,-84.0158157348632,40.0715293884277,-149.180694580078,2693782007
sw,-85.4792251586914,-81.1582870483398,52.2385559082031,-149.15281677246,2693798674
sw,-86.6540908813476,-78.4156265258789,63.0986328125,-152.557403564453,2693815341
sw,-87.928970336914,-75.9254760742187,70.4419784545898,-152.05467224121,2693832008
sw,-89.2675170898437,-73.6245040893554,69.923843383789,-145.967010498046,2693848675
sw,-90.0,-71.4370346069336,55.2623901367187,-133.651931762695,2693865342
sw,-89.105842590332,-69.349380493164,50.9964904785156,-119.976875305175,2693882009
sw,-87.8682479858398,-67.3062744140625,57.3130264282226,-111.569183349609,2693898676
sw,-86.6932296752929,-65.378059387207,57.4154090881347,-100.9189453125,2693915343
sw,-85.7353820800781,-63.7408485412597,48.602180480957,-86.5661697387695,2693932010
sw,-84.9291305541992,-62.4153633117675,45.1281471252441,-73.6055679321289,2693948677
sw,-84.0230636596679,-61.2408142089843,55.1551208496093,-67.7826309204101,2693965344
sw,-82.9358901977539,-60.1506004333496,66.9447326660156,-65.370491027832,2693982011
sw,-81.7127609252929,-59.2824897766113,74.3607406616211,-51.4027366638183,2693998678
sw,-80.5487823486328,-58.7831001281738,69.9669799804687,-27.233190536499,2694015345
sw,-79.5177841186523,-58.6780548095703,61.2871322631835,-4.21014070510864,2694032012
sw,-78.5621185302734,-58.8485412597656,56.4529113769531,12.3701848983764,2694048679
sw,-77.6151046752929,-59.0231704711914,55.9511184692382,8.05481147766113,2694065346
sw,-76.6330261230468,-59.3374862670898,58.0983200073242,15.3580608367919,2694082013
sw,-75.638671875,-59.8733978271484,58.6512298583984,28.0580120086669,2694098680
sw,-74.6219482421875,-60.5588951110839,59.9596138000488,28.466983795166,2694115347
sw,-73.5572509765625,-61.5137367248535,62.7252807617187,39.3509140014648,2694132014
sw,-72.5949020385742,-62.5952339172363,56.3238868713378,41.9064788818359,2694148681
sw,-71.9259262084961,-63.58935546875,38.7653083801269,36.8348350524902,2694165348
sw,-71.5112991333007,-64.4141311645507,23.6244945526123,32.8842124938964,2694182015
sw,-71.2413711547851,-65.2824783325195,15.0565404891967,44.0472412109375,2694198682
sw,-71.0438690185546,-65.9678192138671,10.794822692871,27.1530227661132,2694215349
sw,-70.8759689331054,-66.6781234741211,9.09331893920898,18.8333663940429,2694232016
sw,-70.809700012207,-67.8863525390625,3.08233261108398,53.7934913635253,2694248683
sw,-71.0070419311523,-68.954605102539,-12.6946105957031,37.9758987426757,2694265350
sw,-71.8070526123046,-69.9573822021484,-49.0224380493164,39.4178886413574,2694282017
sw,-73.2864151000976,-70.827766418457,-89.9742279052734,35.472915649414,2694298684
sw,-75.2441940307617,-71.5937423706054,-119.098655700683,27.0533771514892,2694315351
sw,-77.6128845214843,-72.540298461914,-145.114349365234,39.3609657287597,2694332018
sw,-80.1314010620117,-73.64208984375,-157.811660766601,45.4956741333007,2694348685
sw,-82.4636535644531,-74.7098083496093,-155.022720336914,42.4684143066406,2694365352
sw,-84.5319137573242,-75.6132888793945,-155.414611816406,30.674669265747,2694382019
sw,-86.1456222534179,-76.4471435546875,-164.835464477539,27.8796081542968,2694398686
sw,-86.429443359375,-77.3141860961914,-173.103118896484,33.7264251708984,2694415353
sw,-84.9787063598632,-78.2583465576171,-170.440383911132,41.28218460083,2694432020
sw,-82.9192504882812,-79.2287368774414,-157.308883666992,43.7596244812011,2694448687
sw,-80.7233276367187,-80.1675491333007,-148.07861328125,44.8555335998535,2694465354
sw,-78.6679992675781,-81.0762176513671,-131.406646728515,47.5912399291992,2694482021
sw,-76.8790130615234,-82.0806198120117,-110.788589477539,56.6460762023925,2694498688
sw,-75.3388137817382,-83.2026901245117,-93.0407791137695,65.3137664794921,2694515355
sw,-73.9726943969726,-84.4198837280273,-80.496353149414,71.3718338012695,2694532022
sw,-72.6334152221679,-85.6954345703125,-77.0788345336914,74.3954086303711,2694548689
sw,-71.3921813964843,-86.9831237792968,-69.7689361572265,73.3910903930664,2694565356
sw,-70.3633117675781,-88.2493362426757,-57.5614967346191,69.6998214721679,2694582023
sw,-69.5436706542968,-89.7244644165039,-48.0083770751953,67.2412567138671,2694598690
sw,-68.8712463378906,-90.0,-43.269287109375,66.6786575317382,2694615357
sw,-68.4054794311523,-88.3437728881836,-32.6032905578613,68.8783798217773,2694632024
sw,-68.2737503051757,-87.0469970703125,-13.1810903549194,71.1747283935546,2694648691
sw,-68.7734222412109,-85.7956085205078,29.7574977874755,70.5390472412109,2694665358
sw,-69.4029083251953,-84.5902786254882,39.0048789978027,68.3155136108398,2694682025
sw,-70.1854095458984,-83.4940414428711,42.7208099365234,61.574462890625,2694698692
sw,-70.9984893798828,-82.6087188720703,38.8677368164062,48.9206924438476,2694715359
sw,-72.0618591308593,-81.9139556884765,54.5009078979492,37.8475112915039,2694732026
sw,-73.3086776733398,-81.3407897949218,62.1784706115722,31.3847293853759,2694748693
sw,-74.4772033691406,-80.8400421142578,52.7734642028808,29.0151348114013,2694765360
sw,-75.5038909912109,-80.5048141479492,42.9446334838867,20.8470230102539,2694782027
sw,-76.4698715209961,-80.422607421875,42.1169700622558,6.49938821792602,2694798694
sw,-77.4380493164062,-80.63720703125,43.7020454406738,-11.1824550628662,2694815361
sw,-78.5882949829101,-80.9872512817382,62.0156860351562,-19.3063602447509,2694832028
sw,-79.9012603759765,-81.6122512817382,76.7929382324218,-36.1762657165527,2694848695
sw,-80.8636932373046,-82.7572784423828,49.7718429565429,-66.2860336303711,2694865362
sw,-81.4224090576171,-84.3274993896484,25.0484066009521,-89.4154968261718,2694882029
sw,-82.3899841308593,-86.0674667358398,56.604320526123,-98.2104034423828,2694898696
sw,-83.4944076538086,-87.8451461791992,60.7286262512207,-109.340179443359,2694915363
sw,-84.5856475830078,-88.1826400756836,52.5429077148437,-125.516136169433,2694932030
sw,-85.7289657592773,-85.93408203125,58.6102638244628,-136.445541381835,2694948697
sw,-86.964370727539,-83.2698516845703,70.0337295532226,-133.675399780273,2694965364
sw,-88.3357620239257,-80.7398223876953,78.6973190307617,-134.351776123046,2694982031
sw,-90.0,-78.3897857666015,75.3282318115234,-137.03807067871,2694998698
sw,-89.4032440185546,-76.1437530517578,67.8347778320312,-139.776718139648,2695015365
sw,-88.020881652832,-73.9016342163086,66.9044876098632,-140.830108642578,2695032032
sw,-86.6922760009765,-71.7107162475586,63.8769493103027,-132.401336669921,2695048699
sw,-85.4507217407226,-69.6102676391601,57.8204956054687,-120.409408569335,2695065366
sw,-84.4054946899414,-67.5739517211914,49.5018272399902,-111.907592773437,2695082033
sw,-83.492805480957,-65.7377014160156,48.1533889770507,-95.3577804565429,2695098700
sw,-82.5395431518554,-64.2860260009765,56.5499954223632,-69.7168960571289,2695115367
sw,-81.4234390258789,-63.1639900207519,69.5308074951171,-50.7266464233398,2695132034
sw,-80.2778091430664,-62.1471939086914,71.6808242797851,-50.1054992675781,2695148701
sw,-79.3560256958007,-61.2667274475097,56.915283203125,-47.4019546508789,2695165368
sw,-78.5875701904296,-60.7446365356445,45.4824752807617,-28.7016639709472,2695182035
sw,-77.8199081420898,-60.678123474121,44.0833892822265,-3.23537445068359,2695198702
sw,-76.9423599243164,-60.8950653076171,51.0689506530761,15.3090839385986,2695215369
sw,-75.9223861694336,-61.2288208007812,60.4689559936523,23.7968959808349,2695232036
sw,-74.8859252929687,-61.6697387695312,61.7521781921386,29.1147842407226,2695248703
sw,-73.9231948852539,-62.2586784362793,57.5225982666015,29.3391666412353,2695265370
sw,-73.0064086914062,-63.0915374755859,54.6832008361816,32.5200500488281,2695282037
sw,-72.1233139038086,-64.2063369750976,52.4473075866699,46.8857727050781,2695298704
sw,-71.237564086914,-65.4740447998046,52.3858337402343,59.7038650512695,2695315371
sw,-70.3745346069336,-66.663215637207,50.919204711914,58.9019813537597,2695332038
sw,-69.6723022460937,-67.5456161499023,41.3807678222656,42.3019561767578,2695348705
sw,-69.2211456298828,-68.2092590332031,26.5687198638916,28.4913825988769,2695365372
sw,-69.0700149536132,-68.7443618774414,8.78435039520263,14.9378719329833,2695382039
sw,-69.1879501342773,-69.2342529296875,-7.30974626541137,14.5562076568603,2695398706
sw,-69.5748748779296,-69.6647644042968,-23.5979385375976,8.74052810668945,2695415373
sw,-70.4647064208984,-70.3202438354492,-54.1699104309082,20.9075450897216,2695432040
sw,-71.789680480957,-71.0662689208984,-80.7349395751953,34.6006317138671,2695448707
sw,-73.3798141479492,-71.6378326416015,-97.149429321289,20.795783996582,2695465374
sw,-75.3026123046875,-72.3060073852539,-118.503616333007,17.1300315856933,2695482041
sw,-77.5467758178711,-73.2455596923828,-141.544860839843,25.0638771057128,2695498708
sw,-79.8345336914062,-74.3264083862304,-151.800155639648,34.6603240966796,2695515375
sw,-81.9805603027343,-75.2941360473632,-151.69253540039,33.7323570251464,2695532042
sw,-84.0526504516601,-76.2016143798828,-156.09814453125,37.2591361999511,2695548709
sw,-85.7761840820312,-77.0837478637695,-156.935272216796,39.1696510314941,2695565376
sw,-86.3728561401367,-78.0139617919921,-147.943786621093,40.3894920349121,2695582043
sw,-85.5982513427734,-78.9615478515625,-136.396850585937,38.4144210815429,2695598710
sw,-84.0644607543945,-79.8939590454101,-132.951187133789,37.9042015075683,2695615377
sw,-82.2586669921875,-80.7832260131836,-129.073867797851,40.1125564575195,2695632044
sw,-80.5380096435546,-81.6534881591796,-112.729118347167,45.7241401672363,2695648711
sw,-78.9912109375,-82.5997543334961,-95.3416748046875,55.6173248291015,2695665378
sw,-77.5855712890625,-83.6593170166015,-84.7249908447265,63.7215461730957,2695682045
sw,-76.2505493164062,-84.8194961547851,-81.5790557861328,68.3527603149414,2695698712
sw,-74.9147872924804,-85.9721145629882,-81.8938293457031,65.6398773193359,2695715379
sw,-73.6220397949218,-87.0072250366211,-78.3435287475586,56.629295349121,2695732046
sw,-72.4537811279296,-87.9550323486328,-69.9247360229492,49.6844863891601,2695748713
sw,-71.4662322998046,-88.9577026367187,-58.6637458801269,49.7149085998535,2695765380
sw,-70.7588272094726,-90.0,-41.2170829772949,54.7365074157714,2695782047
sw,-70.3866653442382,-89.3694381713867,-19.8978729248046,59.876609802246,2695798714
sw,-70.162612915039,-88.108039855957,-12.217490196228,63.3043746948242,2695815381
sw,-70.134407043457,-87.0013427734375,-3.26767182350158,61.6817245483398,2695832048
sw,-70.3600463867187,-85.9647827148437,11.8156461715698,58.9181060791015,2695848715
sw,-70.9124603271484,-85.0007247924804,34.8808250427246,54.428367614746,2695865382
sw,-71.5009613037109,-84.1176376342773,35.6918792724609,49.0910186767578,2695882049
sw,-72.1033935546875,-83.2650146484375,28.4812545776367,47.1128501892089,2695898716
sw,-73.0241470336914,-82.3763885498046,44.5155868530273,49.5460777282714,2695915383
sw,-73.9307250976562,-81.5211486816406,42.2764091491699,48.2887115478515,2695932050
sw,-74.7360305786132,-80.8141021728515,33.38228225708,39.9568824768066,2695948717
sw,-75.5154342651367,-80.3070755004882,34.3818817138671,28.7237911224365,2695965384
sw,-76.2266693115234,-80.0292663574218,33.7641487121582,15.9007663726806,2695982051
sw,-77.0542373657226,-79.9240341186523,41.4240264892578,6.64131689071655,2695998718
sw,-78.0430068969726,-79.973030090332,53.780891418457,-2.09015393257141,2696015385
sw,-79.081558227539,-80.2195434570312,60.1644325256347,-13.6501865386962,2696032052
sw,-80.0191497802734,-80.8062133789062,54.5035209655761,-33.6800231933593,2696048719
sw,-80.5703506469726,-81.9083709716796,29.5487003326416,-63.7402687072753,2696065386
sw,-81.1238937377929,-83.4224319458007,29.8961200714111,-86.5299224853515,2696082053
sw,-81.9472885131836,-85.1750564575195,44.3750038146972,-98.9985046386718,2696098720
sw,-82.9262084960937,-86.9400253295898,48.398941040039,-105.511863708496,2696115387
sw,-83.9469909667968,-88.0411529541015,46.2834815979003,-122.498313903808,2696132054
sw,-85.0664443969726,-86.5708694458007,55.6546096801757,-133.703964233398,2696148721
sw,-86.3448410034179,-84.1396408081054,73.7888412475586,-131.528366088867,2696165388
sw,-87.534309387207,-81.7425308227539,75.0207595825195,-134.860748291015,2696182055
sw,-88.5207748413086,-79.4681701660156,65.5370407104492,-140.878662109375,2696198722
sw,-89.3694381713867,-77.2579193115234,59.4842147827148,-139.962600708007,2696215389
sw,-89.1284484863281,-75.0323028564453,55.9134254455566,-135.733657836914,2696232056
sw,-88.0891036987304,-72.8572006225586,53.4203910827636,-124.750480651855,2696248723
sw,-87.1022033691406,-70.7225875854492,46.9714393615722,-117.676498413085,2696265390
sw,-86.2421951293945,-68.6661682128906,42.2187538146972,-111.372642517089,2696282057
sw,-85.3890914916992,-66.7563552856445,45.3104209899902,-103.759757995605,2696298724
sw,-84.4872970581054,-65.1182556152343,50.584171295166,-88.0184783935546,2696315391
sw,-83.5380172729492,-63.7329063415527,54.9082832336425,-73.1187667846679,2696332058
sw,-82.5072937011718,-62.5424118041992,60.6335372924804,-62.1205368041992,2696348725
sw,-81.4170532226562,-61.6533241271972,64.8804473876953,-44.8698616027832,2696365392
sw,-80.2912292480468,-61.1594200134277,67.5991134643554,-21.5540390014648,2696382059
sw,-79.1032257080078,-61.0089569091796,71.4259338378906,-2.82881760597229,2696398726
sw,-77.9041366577148,-61.0194015502929,71.5977706909179,7.76994371414184,2696415393
sw,-76.7248306274414,-61.07568359375,69.9247970581054,10.0565490722656,2696432060
sw,-75.5660018920898,-61.1996841430664,68.3576278686523,9.70735645294189,2696448727
sw,-74.441177368164,-61.6047286987304,66.3097229003906,24.957010269165,2696465394
sw,-73.3339004516601,-62.2438087463378,65.5133743286132,35.0169525146484,2696482061
sw,-72.2282791137695,-62.971996307373,65.4583511352539,29.2877655029296,2696498728
sw,-71.1536026000976,-63.9583511352539,63.3377876281738,43.9826316833496,2696515395
sw,-70.1795578002929,-64.8809509277343,57.1323509216308,43.0035324096679,2696532062
sw,-69.4551467895507,-65.5975341796875,42.2195205688476,31.3176841735839,2696548729
sw,-69.0519866943359,-66.2877655029296,23.1451320648193,27.8661136627197,2696565396
sw,-68.9803771972656,-66.9614791870117,3.53512501716613,25.9812068939209,2696582063
sw,-69.2051620483398,-67.7963409423828,-14.3226833343505,36.1768646240234,2696598730
sw,-69.7892608642578,-68.7564544677734,-36.1548767089843,39.6145782470703,2696615397
sw,-70.8166427612304,-69.6855010986328,-63.1142196655273,28.2772998809814,2696632064
sw,-72.099853515625,-70.6147994995117,-79.1054992675781,35.362937927246,2696648731
sw,-73.7311248779296,-71.2918014526367,-101.192146301269,23.9316291809082,2696665398
sw,-75.8468551635742,-71.9542541503906,-132.20637512207,21.2667064666748,2696682065
sw,-78.3031234741211,-72.833137512207,-155.921173095703,30.5011043548584,2696698732
sw,-80.7714157104492,-73.9552764892578,-163.185943603515,43.0408210754394,2696715399
sw,-82.9936065673828,-75.016242980957,-158.322082519531,39.9199714660644,2696732066
sw,-84.8913192749023,-75.9481506347656,-154.809158325195,32.4630050659179,2696748733
sw,-86.1654968261718,-76.8541107177734,-159.079040527343,34.7780532836914,2696765400
sw,-85.9603729248046,-77.764892578125,-159.529022216796,38.3059997558593,2696782067
sw,-84.5034561157226,-78.7033157348632,-152.596557617187,41.9366874694824,2696798734
sw,-82.6112747192382,-79.6192626953125,-142.78450012207,41.2213516235351,2696815401
sw,-80.6497650146484,-80.4849853515625,-133.077209472656,40.3552436828613,2696832068
sw,-78.8820648193359,-81.3409271240234,-116.280014038085,43.7033996582031,2696848735
sw,-77.3566741943359,-82.3035430908203,-97.5761947631836,53.19038772583,2696865402
sw,-75.9876861572265,-83.3899002075195,-85.1139221191406,62.8599739074707,2696882069
sw,-74.7115325927734,-84.5347442626953,-76.5730056762695,67.3334732055664,2696898736
sw,-73.4787368774414,-85.7016296386718,-71.2480010986328,68.1423110961914,2696915403
sw,-72.3330459594726,-86.7867965698242,-64.6858825683593,61.6768341064453,2696932070
sw,-71.3402786254882,-87.7800979614257,-56.3691749572753,54.378734588623,2696948737
sw,-70.5749893188476,-88.7932586669921,-44.9576835632324,52.9338760375976,2696965404
sw,-70.1240997314453,-90.0,-27.3176021575927,55.6502532958984,2696982071
sw,-69.8844604492187,-89.2897567749023,-15.6204757690429,61.5454711914062,2696998738
sw,-69.9051284790039,-88.0395584106445,-1.39488840103149,66.6832504272461,2697015405
sw,-70.2515792846679,-86.8636932373046,19.1432571411132,66.9767684936523,2697032072
sw,-70.7626037597656,-85.7167816162109,29.3062629699707,66.0668716430664,2697048739
sw,-71.5100936889648,-84.6260070800781,41.8250503540039,62.6043739318847,2697065406
sw,-72.3662109375,-83.5929946899414,43.2212829589843,58.5544815063476,2697082073
sw,-73.3328475952148,-82.6551361083984,48.6828575134277,52.3118858337402,2697098740
sw,-74.5042724609375,-81.8361740112304,60.5585327148437,45.5861663818359,2697115407
sw,-75.6384353637695,-81.146255493164,54.0838432312011,39.2713432312011,2697132074
sw,-76.6292266845703,-80.5557708740234,45.641300201416,34.7661819458007,2697148741
sw,-77.4312515258789,-80.1686325073242,38.3846130371093,23.1782703399658,2697165408
sw,-78.036148071289,-80.0715789794921,26.5471439361572,6.18470525741577,2697182075
sw,-78.8318099975586,-80.1797790527343,41.3097534179687,-5.78056526184082,2697198742
sw,-79.9262771606445,-80.495132446289,67.7989425659179,-17.7359237670898,2697215409
sw,-81.0103454589843,-81.2543869018554,63.034812927246,-44.5110206604003,2697232076
sw,-81.6296615600586,-82.5278778076171,27.3601913452148,-74.879280090332,2697248743
sw,-82.252685546875,-84.0588150024414,31.8966827392578,-88.2994079589843,2697265410
sw,-83.0951309204101,-85.6372680664062,46.6138458251953,-91.2228164672851,2697282077
sw,-84.1155700683593,-87.1249237060546,53.067138671875,-100.199989318847,2697298744
sw,-85.1830596923828,-87.5917434692382,53.2858657836914,-119.152381896972,2697315411
sw,-86.2955169677734,-85.952766418457,57.1378517150878,-126.998077392578,2697332078
sw,-87.5410690307617,-83.6895370483398,67.963508605957,-123.855644226074,2697348745
sw,-88.8478469848632,-81.4478378295898,72.5101699829101,-128.040649414062,2697365412
sw,-90.0,-79.2729797363281,65.7760925292968,-130.836776733398,2697382079
sw,-89.2621917724609,-77.1023712158203,58.5176734924316,-133.006622314453,2697398746
sw,-88.1688003540039,-74.9391555786132,52.5292930603027,-129.080612182617,2697415413
sw,-87.0674896240234,-72.8400115966796,51.7777519226074,-119.229766845703,2697432080
sw,-86.0531539916992,-70.7978210449218,46.5246315002441,-112.005905151367,2697448747
sw,-85.1702575683593,-68.8627624511718,42.4958572387695,-104.221038818359,2697465414
sw,-84.3810348510742,-67.1107635498046,41.9728317260742,-94.5519714355468,2697482081
sw,-83.5645294189453,-65.5877609252929,46.9611473083496,-81.3581619262695,2697498748
sw,-82.6521224975586,-64.2856216430664,54.624526977539,-67.8772430419921,2697515415
sw,-81.607795715332,-63.1972465515136,62.9656562805175,-55.1705703735351,2697532082
sw,-80.520523071289,-62.396915435791,65.1204528808593,-38.326545715332,2697548749
sw,-79.4970474243164,-61.9299278259277,60.8790206909179,-21.6415290832519,2697565416
sw,-78.5045166015625,-61.7855110168457,58.9913825988769,-5.26591825485229,2697582083
sw,-77.4908370971679,-61.8430747985839,60.4044876098632,7.75834560394287,2697598750
sw,-76.4252395629882,-61.9071083068847,63.7692413330078,5.46277141571044,2697615417
sw,-75.3299789428711,-62.0828475952148,65.4171447753906,8.90082931518554,2697632084
sw,-74.2580490112304,-62.5519790649414,63.9069519042968,21.4741058349609,2697648751
sw,-73.2331085205078,-63.28759765625,60.9340438842773,28.3181171417236,2697665418
sw,-72.2277908325195,-64.260269165039,59.6589012145996,40.4884414672851,2697682085
sw,-71.2845458984375,-65.1696395874023,55.6935272216796,33.7979431152343,2697698752
sw,-70.5158386230468,-66.0958404541015,45.1024322509765,38.3796272277832,2697715419
sw,-69.938735961914,-67.0505676269531,33.7786445617675,48.2235946655273,2697732086
sw,-69.5189666748046,-67.7350921630859,24.5233650207519,29.6341361999511,2697748753
sw,-69.3056335449218,-68.236572265625,12.2498617172241,14.0500078201293,2697765420
sw,-69.321533203125,-68.8793106079101,-1.53311359882354,27.9880676269531,2697782087
sw,-69.5852966308593,-69.3851776123046,-16.4023494720459,17.5430965423584,2697798754
sw,-70.0831680297851,-69.9880752563476,-30.7638835906982,13.8510732650756,2697815421
sw,-71.1451873779296,-70.8127975463867,-65.2228546142578,32.3680992126464,2697832088
sw,-72.5533065795898,-71.6055831909179,-86.3797607421875,28.8725833892822,2697848755
sw,-74.3011093139648,-72.4247207641601,-107.690231323242,24.6098461151123,2697865422
sw,-76.4148712158203,-73.3707962036132,-132.572067260742,25.4151268005371,2697882089
sw,-78.6693344116211,-74.497802734375,-147.260009765625,37.5067405700683,2697898756
sw,-80.746711730957,-75.6078720092773,-145.607452392578,39.9773597717285,2697915423
sw,-82.5626754760742,-76.6373672485351,-139.43310546875,40.414737701416,2697932090
sw,-84.0983123779296,-77.5898361206054,-136.871917724609,39.4814796447753,2697948757
sw,-85.111083984375,-78.532600402832,-133.994323730468,39.2302436828613,2697965424
sw,-85.2850341796875,-79.4810714721679,-128.035125732421,39.1385231018066,2697982091
sw,-84.6887588500976,-80.4069519042968,-120.355079650878,39.3537368774414,2697998758
sw,-83.5865631103515,-81.2949142456054,-116.904396057128,41.9578704833984,2698015425
sw,-82.2345428466796,-82.1886215209961,-113.838836669921,48.1690940856933,2698032092
sw,-80.8015365600586,-83.1348800659179,-108.642395019531,55.2661895751953,2698048759
sw,-79.374885559082,-84.1488723754882,-99.9693450927734,59.7962455749511,2698065426
sw,-78.0204086303711,-85.2361755371093,-89.9494476318359,63.4264831542968,2698082093
sw,-76.7281341552734,-86.3090133666992,-82.8162765502929,60.0456085205078,2698098760
sw,-75.4897079467773,-87.3539581298828,-77.0713729858398,55.7813453674316,2698115427
sw,-74.2828140258789,-88.4238052368164,-75.0512466430664,55.8869972229003,2698132094
sw,-73.1400680541992,-89.7650985717773,-71.9785690307617,57.2978210449218,2698148761
sw,-72.1186447143554,-90.0,-63.6983032226562,58.408576965332,2698165428
sw,-71.3177413940429,-88.7017059326171,-47.6190490722656,58.7397384643554,2698182095
sw,-70.7307434082031,-87.5914154052734,-32.6224746704101,60.076488494873,2698198762
sw,-70.4104614257812,-86.505874633789,-18.1930274963378,61.4217147827148,2698215429
sw,-70.4247665405273,-85.4478302001953,-0.912586152553558,60.3850326538085,2698232096
sw,-70.6256408691406,-84.3452911376953,9.81729984283447,62.8849258422851,2698248763
sw,-70.9755554199218,-83.2014770507812,16.6383056640625,64.6578674316406,2698265430
sw,-71.7619857788086,-82.0899429321289,39.1740608215332,61.8073463439941,2698282097
sw,-72.7609100341796,-81.0852508544921,49.1475257873535,55.2588539123535,2698298764
sw,-73.8342895507812,-80.2330474853515,50.8196258544921,47.2922286987304,2698315431
sw,-74.9598007202148,-79.5666122436523,53.7756462097168,37.9673080444335,2698332098
sw,-75.9124755859375,-79.1089706420898,43.3000259399414,27.1848964691162,2698348765
sw,-76.6760482788086,-78.8736572265625,32.2171554565429,15.0708808898925,2698365432
sw,-77.3978195190429,-78.8866882324218,29.2185153961181,0.991721808910369,2698382099
sw,-78.3919296264648,-79.0860137939453,49.4374465942382,-10.6436977386474,2698398766
sw,-79.6179733276367,-79.5266876220703,70.7657775878906,-25.2491016387939,2698415433
sw,-80.5925979614257,-80.5671463012695,53.6347961425781,-61.019905090332,2698432100
sw,-81.0828018188476,-82.1628875732421,19.95747756958,-92.5501556396484,2698448767
sw,-81.7887649536132,-83.969741821289,38.7699813842773,-102.643348693847,2698465434
sw,-82.7361755371093,-85.7805404663086,53.270164489746,-104.463226318359,2698482101
sw,-83.8793258666992,-87.3408966064453,59.0122756958007,-114.165206909179,2698498768
sw,-85.1851730346679,-87.2641983032226,65.667495727539,-129.683639526367,2698515435
sw,-86.5915985107421,-85.2573165893554,72.9634475708007,-131.172302246093,2698532102
sw,-87.9695281982421,-82.9360885620117,74.8335189819336,-132.935226440429,2698548769
sw,-89.3247833251953,-80.6379776000976,74.065200805664,-142.081451416015,2698565436
sw,-90.0,-78.3035125732421,64.3841018676757,-146.505249023437,2698582103
sw,-88.7258911132812,-75.9685745239257,59.7570114135742,-145.617263793945,2698598770
sw,-87.5069961547851,-73.6764984130859,62.319221496582,-136.305038452148,2698615437
sw,-86.307746887207,-71.4009170532226,59.4818840026855,-129.81330871582,2698632104
sw,-85.232063293457,-69.2182235717773,52.2582817077636,-118.432411193847,2698648771
sw,-84.2328948974609,-67.246711730957,52.0182609558105,-102.622108459472,2698665438
sw,-83.1637115478515,-65.5387725830078,60.8169479370117,-87.4530410766601,2698682105
sw,-82.0130310058593,-64.0631256103515,68.4071655273437,-75.1535568237304,2698698772
sw,-80.811279296875,-62.7503013610839,71.9868545532226,-67.3536529541015,2698715439
sw,-79.6060409545898,-61.7203483581543,71.7733383178711,-51.2940063476562,2698732106
sw,-78.4789123535156,-61.0647964477539,66.7023010253906,-28.443826675415,2698748773
sw,-77.3999252319336,-60.8032722473144,63.5086631774902,-5.20049715042114,2698765440
sw,-76.3425827026367,-60.8330726623535,61.982852935791,15.1393775939941,2698782107
sw,-75.3041763305664,-60.8610305786132,61.212532043457,10.4416093826293,2698798774
sw,-74.2544784545898,-60.9301567077636,62.1571655273437,6.98552179336547,2698815441
sw,-73.23828125,-61.2667427062988,60.2433624267578,18.6597251892089,2698832108
sw,-72.2451934814453,-61.9019241333007,58.9296073913574,29.3831596374511,2698848775
sw,-71.236457824707,-62.8252220153808,59.738899230957,43.5052261352539,2698865442
sw,-70.2427062988281,-63.877513885498,58.5696449279785,46.3254928588867,2698882109
sw,-69.392219543457,-64.8423080444336,49.8877601623535,42.6472778320312,2698898776
sw,-68.8158569335937,-65.6441650390625,33.6938819885253,35.8066902160644,2698915443
sw,-68.4933395385742,-66.3207092285156,18.6113491058349,23.563232421875,2698932110
sw,-68.401626586914,-66.9959335327148,4.7422399520874,23.8833808898925,2698948777
sw,-68.471435546875,-67.7102508544921,-4.7782244682312,25.9205055236816,2698965444
sw,-68.9537124633789,-68.669937133789,-29.7153263092041,40.7905845642089,2698982111
sw,-70.0289840698242,-69.6061477661132,-65.7697677612304,30.4386558532714,2698998778
sw,-71.3228607177734,-70.5104827880859,-79.4865036010742,31.3312969207763,2699015445
sw,-72.8515701293945,-71.2483367919921,-94.5929336547851,25.1591567993164,2699032112
sw,-74.8688583374023,-71.8611526489257,-125.804992675781,16.6323719024658,2699048779
sw,-77.2615127563476,-72.6612396240234,-151.854431152343,22.7847652435302,2699065446
sw,-79.7338638305664,-73.7149658203125,-163.172134399414,34.3488082885742,2699082113
sw,-81.963638305664,-74.8151092529296,-157.005157470703,41.0767440795898,2699098780
sw,-84.0300140380859,-75.7750778198242,-157.42024230957,37.5200653076171,2699115447
sw,-85.6423873901367,-76.6429672241211,-156.363967895507,32.1494598388671,2699132114
sw,-86.1535110473632,-77.5198211669921,-145.730316162109,32.6689949035644,2699148781
sw,-85.4524002075195,-78.4658660888671,-137.132141113281,37.6179161071777,2699165448
sw,-83.9483871459961,-79.4607238769531,-137.357009887695,43.4585418701171,2699182115
sw,-82.214973449707,-80.4132766723632,-129.602798461914,45.5397453308105,2699198782
sw,-80.4970550537109,-81.3498306274414,-117.724311828613,49.2821083068847,2699215449
sw,-78.9575881958007,-82.3117599487304,-99.5499572753906,54.9413337707519,2699232116
sw,-77.6269912719726,-83.3601150512695,-82.6865158081054,62.2289657592773,2699248783
sw,-76.436164855957,-84.4886474609375,-72.3437042236328,67.8766174316406,2699265450
sw,-75.2838745117187,-85.6122894287109,-70.2203826904296,68.0667190551757,2699282117
sw,-74.1173934936523,-86.6730422973632,-71.5568771362304,63.1155586242675,2699298784
sw,-73.0159912109375,-87.6664505004882,-68.2154312133789,56.2508964538574,2699315451
sw,-72.1166229248046,-88.6135101318359,-55.7480430603027,50.9222793579101,2699332118
sw,-71.5561904907226,-89.5146331787109,-33.1826972961425,54.6281700134277,2699348785
sw,-71.3216247558593,-89.0767745971679,-11.8803415298461,62.1994476318359,2699365452
sw,-71.3162155151367,-87.9155044555664,1.43285655975341,68.9688568115234,2699382119
sw,-71.3685073852539,-86.7263107299804,2.28474164009094,69.4128646850586,2699398786
sw,-71.4763946533203,-85.5788879394531,2.65016198158264,66.582290649414,2699415453
sw,-71.9284057617187,-84.4705429077148,24.9157695770263,63.8612785339355,2699432120
sw,-72.5559005737304,-83.440559387207,32.473346710205,58.2051658630371,2699448787
sw,-73.4046554565429,-82.5165405273437,44.5083923339843,51.2003364562988,2699465454
sw,-74.4547271728515,-81.6835784912109,57.258056640625,46.5641365051269,2699482121
sw,-75.4053268432617,-80.9939422607421,47.2580986022949,39.6543998718261,2699498788
sw,-76.2472229003906,-80.4263229370117,38.9840583801269,33.2983512878418,2699515455
sw,-76.9969100952148,-80.0185394287109,34.727195739746,24.7703971862792,2699532122
sw,-77.6625366210937,-79.8528442382812,30.8868370056152,11.0262031555175,2699548789
sw,-78.5286712646484,-79.8908081054687,45.3550758361816,-1.46744430065155,2699565456
sw,-79.6296005249023,-80.104736328125,60.9413948059082,-12.1655054092407,2699582123
sw,-80.66015625,-80.7654953002929,52.7120094299316,-38.6946029663085,2699598790
sw,-81.4968032836914,-81.8739700317382,39.3324851989746,-65.1003646850586,2699615457
sw,-82.2852554321289,-83.3150787353515,42.0797119140625,-84.4445037841796,2699632124
sw,-83.1073608398437,-84.8943176269531,45.5767745971679,-94.3554306030273,2699648791
sw,-84.0012283325195,-86.416633605957,46.4386024475097,-104.463417053222,2699665458
sw,-85.0153274536132,-87.1767959594726,49.9281501770019,-115.252410888671,2699682125
sw,-86.1179885864257,-86.2072372436523,54.3775634765625,-128.141998291015,2699698792
sw,-87.3212432861328,-84.1968765258789,63.7277908325195,-130.285858154296,2699715459
sw,-88.6531753540039,-82.0382461547851,73.1482543945312,-127.400115966796,2699732126
sw,-90.0,-79.8998184204101,69.9700927734375,-130.963317871093,2699748793
sw,-89.5050506591796,-77.7448806762695,58.3954620361328,-134.092727661132,2699765460
sw,-88.2889099121093,-75.5951538085937,55.0272254943847,-133.35025024414,2699782127
sw,-87.1271743774414,-73.5032196044921,56.5369567871093,-123.895729064941,2699798794
sw,-86.0525588989257,-71.4798202514648,51.2073211669921,-114.283424377441,2699815461
sw,-85.1455841064453,-69.5251235961914,42.8409118652343,-107.035957336425,2699832128
sw,-84.3328552246093,-67.6745223999023,41.5535545349121,-101.269622802734,2699848795
sw,-83.4742431640625,-66.0154953002929,48.6361351013183,-91.586929321289,2699865462
sw,-82.522834777832,-64.580207824707,56.3614768981933,-79.4801712036132,2699882129
sw,-81.5255584716796,-63.3230209350585,59.5838317871093,-68.4218597412109,2699898796
sw,-80.5729370117187,-62.3065567016601,56.2564620971679,-52.0536346435546,2699915463
sw,-79.6851196289062,-61.6030464172363,52.0528602600097,-33.2482948303222,2699932130
sw,-78.795669555664,-61.2445640563964,52.3615264892578,-15.1345567703247,2699948797
sw,-77.8558273315429,-61.1607933044433,55.568130493164,-3.13848042488098,2699965464
sw,-76.839370727539,-61.268684387207,60.3376922607421,7.85573434829711,2699982131
sw,-75.7799224853515,-61.3811912536621,62.7437362670898,7.24366331100463,2699998798
sw,-74.7172241210937,-61.6467628479003,62.7778053283691,13.7907991409301,2700015465
sw,-73.6397399902343,-62.2691192626953,63.9321556091308,32.8911819458007,2700032132
sw,-72.4932785034179,-63.1424407958984,68.7702407836914,44.4002532958984,2700048799
sw,-71.2330780029296,-64.0767974853515,75.8677978515625,41.6774787902832,2700065466
sw,-69.9405136108398,-64.9822769165039,77.2815933227539,36.0971450805664,2700082133
sw,-68.8095779418945,-66.0027160644531,66.9767227172851,53.8968658447265,2700098800
sw,-67.9866256713867,-66.7396850585937,48.3606033325195,36.7994079589843,2700115467
sw,-67.4932556152343,-67.1364059448242,28.6938667297363,7.58131027221679,2700132134
sw,-67.2600173950195,-67.5661468505859,13.3926801681518,15.3539905548095,2700148801
sw,-67.1927413940429,-68.0362243652343,3.58066606521606,20.5428314208984,2700165468
sw,-67.1643676757812,-68.5266189575195,1.28284609317779,15.9944744110107,2700182135
sw,-67.2754440307617,-69.2436904907226,-7.06781101226806,18.5212497711181,2700198802
sw,-67.9117279052734,-70.2263107299804,-38.8947296142578,41.6681098937988,2700215469
sw,-68.9432754516601,-71.0318603515625,-62.8761405944824,37.8052864074707,2700232136
sw,-70.282730102539,-71.7587127685546,-81.3964462280273,27.6439685821533,2700248803
sw,-72.0084381103515,-72.4748153686523,-104.685394287109,18.8879508972167,2700265470
sw,-74.0166931152343,-73.3746795654296,-122.950553894042,29.2791538238525,2700282137
sw,-76.2279968261718,-74.4472198486328,-138.13703918457,43.2615699768066,2700298804
sw,-78.3801345825195,-75.5543823242187,-138.708404541015,49.5444221496582,2700315471
sw,-80.4390411376953,-76.5783767700195,-136.86912536621,45.7048187255859,2700332138
sw,-82.4942321777343,-77.5324249267578,-141.476867675781,38.8460540771484,2700348805
sw,-84.4205474853515,-78.4772338867187,-142.620529174804,36.5953941345214,2700365472
sw,-85.9733352661132,-79.4265670776367,-138.760192871093,38.315574645996,2700382139
sw,-86.7473754882812,-80.3975753784179,-134.478713989257,43.3181343078613,2700398806
sw,-86.1801223754882,-81.3504409790039,-138.441101074218,46.0530052185058,2700415473
sw,-84.6066818237304,-82.2493133544921,-138.159698486328,46.5738334655761,2700432140
sw,-82.7345581054687,-83.1564483642578,-130.759445190429,50.6657371520996,2700448807
sw,-80.9200057983398,-84.1217727661132,-116.889411926269,56.2512588500976,2700465474
sw,-79.2903518676757,-85.1507949829101,-101.056419372558,61.4611930847168,2700482141
sw,-77.825927734375,-86.199348449707,-88.3557510375976,62.8804588317871,2700498808
sw,-76.450454711914,-87.2321853637695,-81.6380386352539,60.8561401367187,2700515475
sw,-75.1242523193359,-88.255500793457,-77.3983459472656,60.2263603210449,2700532142
sw,-73.8514785766601,-89.1611709594726,-73.3766632080078,60.612621307373,2700548809
sw,-72.6732864379882,-89.1482009887695,-67.4730224609375,62.0281639099121,2700565476
sw,-71.7743682861328,-88.2026748657226,-49.7912902832031,63.358283996582,2700582143
sw,-71.2532196044921,-87.0701599121093,-25.3604660034179,66.3475570678711,2700598810
sw,-70.9468536376953,-85.865119934082,-14.333833694458,69.5760498046875,2700615477
sw,-70.9659271240234,-84.6287078857421,3.73963952064514,71.6690216064453,2700632144
sw,-71.1526565551757,-83.4253234863281,12.061463356018,69.5458297729492,2700648811
sw,-71.7392501831054,-82.2768173217773,34.6052093505859,65.6329879760742,2700665478
sw,-72.519058227539,-81.2182846069336,43.9071540832519,59.8724365234375,2700682145
sw,-73.5152359008789,-80.2931137084961,54.9986457824707,52.2924041748046,2700698812
sw,-74.6627731323242,-79.4862594604492,63.2298431396484,46.0068740844726,2700715479
sw,-75.7034606933593,-78.8609771728515,51.8860168457031,35.9657249450683,2700732146
sw,-76.6070098876953,-78.405517578125,44.6719398498535,26.8561267852783,2700748813
sw,-77.3713760375976,-78.2207336425781,39.9978599548339,11.6048126220703,2700765480
sw,-78.1811218261718,-78.3857192993164,42.48872756958,-8.74469470977783,2700782147
sw,-79.2728652954101,-78.8845596313476,61.7880783081054,-28.4627170562744,2700798814
sw,-80.3214263916015,-79.708511352539,60.6707611083984,-47.5971908569335,2700815481
sw,-81.1321945190429,-80.9693908691406,41.3673095703125,-73.8881454467773,2700832148
sw,-81.7933120727539,-82.586929321289,32.9029502868652,-95.1047973632812,2700848815
sw,-82.534423828125,-84.316665649414,37.925796508789,-103.792747497558,2700865482
sw,-83.4422836303711,-85.9526214599609,45.0675315856933,-112.626564025878,2700882149
sw,-84.4984359741211,-86.849609375,49.5746192932128,-124.382255554199,2700898816
sw,-85.6874389648437,-85.9828262329101,58.7101020812988,-138.745727539062,2700915483
sw,-87.0367431640625,-83.9969100952148,74.594985961914,-133.989105224609,2700932150
sw,-88.3390502929687,-81.8362731933593,78.570442199707,-134.320083618164,2700948817
sw,-89.3477783203125,-79.6234512329101,72.2890396118164,-139.887268066406,2700965484
sw,-89.1475143432617,-77.3796615600586,62.2853279113769,-140.195526123046,2700982151
sw,-88.1410140991211,-75.1409301757812,59.3909072875976,-134.513046264648,2700998818
sw,-87.0055923461914,-72.9862518310546,58.2777976989746,-125.570121765136,2701015485
sw,-85.9754791259765,-70.9004287719726,50.1731185913085,-120.777786254882,2701032152
sw,-85.1383666992187,-68.925048828125,40.3746910095214,-112.695678710937,2701048819
sw,-84.3698120117187,-67.1519927978515,40.020450592041,-99.9595108032226,2701065486
sw,-83.5588073730468,-65.6197967529296,45.2204895019531,-85.41552734375,2701082153
sw,-82.6560745239257,-64.2760391235351,52.5240745544433,-74.3332824707031,2701098820
sw,-81.6370315551757,-63.0764350891113,60.7129516601562,-65.3607635498046,2701115487
sw,-80.6167373657226,-62.1287269592285,60.9104118347168,-49.0197410583496,2701132154
sw,-79.6788864135742,-61.5397644042968,55.8341331481933,-27.6647968292236,2701148821
sw,-78.7858657836914,-61.2926635742187,52.935562133789,-8.97319221496582,2701165488
sw,-77.8750457763671,-61.2397003173828,53.8465042114257,2.09888648986816,2701182155
sw,-76.9228363037109,-61.2078819274902,56.2674407958984,1.58323502540588,2701198822
sw,-75.9521789550781,-61.2699928283691,57.3377380371093,3.50418066978454,2701215489
sw,-74.9293136596679,-61.5739021301269,60.5936088562011,16.2921924591064,2701232156
sw,-73.8541564941406,-62.1653366088867,63.8930854797363,27.3213119506835,2701248823
sw,-72.7762985229492,-63.0923500061035,63.9985923767089,43.7870368957519,2701265490
sw,-71.7163467407226,-64.0609359741211,62.7196044921875,42.5502433776855,2701282157
sw,-70.7278900146484,-65.123306274414,58.2950706481933,45.977066040039,2701298824
sw,-69.8950424194336,-66.0699386596679,49.0771217346191,44.1947174072265,2701315491
sw,-69.2867431640625,-66.7539749145507,35.7534828186035,28.4904136657714,2701332158
sw,-68.9971237182617,-67.3742218017578,16.557331085205,26.0426158905029,2701348825
sw,-69.0029678344726,-67.8781585693359,-1.19754791259765,16.6251792907714,2701365492
sw,-69.2687759399414,-68.4600143432617,-16.7555103302001,19.7620639801025,2701382159
sw,-69.7384948730468,-69.387222290039,-29.3154354095459,38.795799255371,2701398826
sw,-70.7172317504882,-70.4567337036132,-60.4805679321289,42.3069839477539,2701415493
sw,-72.0307464599609,-71.3423767089843,-81.2688980102539,37.0672492980957,2701432160
sw,-73.5994110107421,-71.8763427734375,-98.0962982177734,12.6580934524536,2701448827
sw,-75.5529098510742,-72.4563522338867,-124.663177490234,13.5461130142211,2701465494
sw,-77.797737121582,-73.2588500976562,-148.751602172851,25.4358577728271,2701482161
sw,-80.0120391845703,-74.2401275634765,-157.52310180664,34.8296127319335,2701498828
sw,-81.9585647583007,-75.225959777832,-151.190643310546,37.2846946716308,2701515495
sw,-83.6820220947265,-76.1052169799804,-150.745910644531,33.5348968505859,2701532162
sw,-84.9698181152343,-76.9226379394531,-154.005264282226,29.0919952392578,2701548829
sw,-85.178466796875,-77.7523117065429,-150.888412475585,30.0883426666259,2701565496
sw,-84.3059158325195,-78.6190719604492,-141.903778076171,34.8979988098144,2701582163
sw,-82.8078918457031,-79.5503692626953,-138.547821044921,43.2399063110351,2701598830
sw,-81.0864334106445,-80.4754028320312,-132.03791809082,47.2868537902832,2701615497
sw,-79.4689407348632,-81.3941497802734,-114.494598388671,49.9421997070312,2701632164
sw,-78.0410919189453,-82.3696670532226,-95.5990600585937,54.7617416381835,2701648831
sw,-76.7799530029296,-83.448989868164,-81.9586410522461,62.0917892456054,2701665498
sw,-75.5910568237304,-84.6170120239257,-76.9813079833984,68.5299758911132,2701682165
sw,-74.3578033447265,-85.8178405761718,-79.7037277221679,70.7170181274414,2701698832
sw,-73.0689849853515,-86.9746322631836,-82.7782821655273,67.3249969482421,2701715499
sw,-71.8511352539062,-88.0766525268554,-77.9961700439453,61.7945747375488,2701732166
sw,-70.8737716674804,-89.1949768066406,-61.9508056640625,57.2348594665527,2701748833
sw,-70.3113479614257,-90.0,-33.5005264282226,56.8595428466796,2701765500
sw,-70.0887145996093,-88.9468688964843,-10.3678216934204,61.9922866821289,2701782167
sw,-70.0541000366211,-87.6930160522461,0.347216129302978,67.7809143066406,2701798834
sw,-70.0972824096679,-86.460220336914,2.70829153060913,70.0335540771484,2701815501
sw,-70.3327713012695,-85.3175964355468,12.3862600326538,65.2403030395507,2701832168
sw,-70.8606491088867,-84.322151184082,28.3735389709472,56.4334106445312,2701848835
sw,-71.5851745605468,-83.4685668945312,33.088279724121,47.9963264465332,2701865502
sw,-72.66357421875,-82.7481231689453,54.7864418029785,39.9252166748046,2701882169
sw,-73.8725128173828,-82.1366348266601,60.6323013305664,33.5540885925293,2701898836
sw,-75.0394744873046,-81.6292877197265,54.1435470581054,28.5983638763427,2701915503
sw,-76.1623764038086,-81.2639846801757,49.1550025939941,22.1358833312988,2701932170
sw,-77.2174530029296,-81.061279296875,46.5265922546386,13.6984825134277,2701948837
sw,-78.2259216308593,-81.0782165527343,44.8796958923339,0.824457585811615,2701965504
sw,-79.4264984130859,-81.288330078125,60.3724174499511,-11.0889511108398,2701982171
sw,-80.8510208129882,-81.7611236572265,79.9086608886718,-27.2472229003906,2701998838
sw,-82.0645751953125,-82.8059844970703,66.9076461791992,-61.2728843688964,2702015505
sw,-82.7516708374023,-84.2766571044921,33.2680015563964,-85.8700180053711,2702032172
sw,-83.3961563110351,-85.8293762207031,33.8630561828613,-92.5342254638671,2702048839
sw,-84.2955245971679,-87.2327499389648,51.6977386474609,-100.165771484375,2702065506
sw,-85.1980438232421,-87.5335922241211,45.6953506469726,-109.664451599121,2702082173
sw,-86.1758728027343,-85.9987564086914,46.4746856689453,-122.425704956054,2702098840
sw,-87.23876953125,-83.6762771606445,56.3303146362304,-126.169403076171,2702115507
sw,-88.3653030395507,-81.3250427246093,65.7866439819336,-127.190322875976,2702132174
sw,-89.6336288452148,-79.0663986206054,72.2301712036132,-136.087478637695,2702148841
sw,-89.4259719848632,-76.8908920288086,63.5617561340332,-137.070648193359,2702165508
sw,-88.3630294799804,-74.7977828979492,54.8797492980957,-132.578903198242,2702182175
sw,-87.2841567993164,-72.7483901977539,52.4043884277343,-125.665496826171,2702198842
sw,-86.1198043823242,-70.7176361083984,54.156883239746,-119.946006774902,2702215509
sw,-85.0454025268554,-68.7519454956054,49.1611022949218,-112.255058288574,2702232176
sw,-84.167366027832,-66.94580078125,43.2684020996093,-102.053001403808,2702248843
sw,-83.3412094116211,-65.4222946166992,47.7115402221679,-86.6930160522461,2702265510
sw,-82.4047241210937,-64.1417236328125,56.904197692871,-71.7176284790039,2702282177
sw,-81.3534164428711,-62.9944877624511,63.2861900329589,-61.4486122131347,2702298844
sw,-80.2935409545898,-61.9818077087402,63.4411811828613,-54.1142768859863,2702315511
sw,-79.3323669433593,-61.2338562011718,57.0339012145996,-40.2291831970214,2702332178
sw,-78.4714202880859,-60.7870864868164,50.9138069152832,-22.8560733795166,2702348845
sw,-77.6361007690429,-60.6058044433593,49.729076385498,-7.81013679504394,2702365512
sw,-76.7369995117187,-60.5855903625488,53.5936088562011,2.55253839492797,2702382179
sw,-75.7499923706054,-60.5974044799804,58.4977073669433,2.09643387794494,2702398846
sw,-74.7678909301757,-60.7788162231445,58.0379829406738,10.0191812515258,2702415513
sw,-73.7803497314453,-61.2789611816406,58.652229309082,27.2113780975341,2702432180
sw,-72.7430267333984,-62.0653076171875,61.7243728637695,39.0044059753418,2702448847
sw,-71.6951065063476,-63.0826530456543,62.0746803283691,45.9620742797851,2702465514
sw,-70.6708984375,-64.30419921875,60.4913253784179,52.2542114257812,2702482181
sw,-69.7746505737304,-65.3898391723632,52.863353729248,43.5601119995117,2702498848
sw,-69.1245651245117,-66.2196578979492,38.2235603332519,33.680793762207,2702515515
sw,-68.753433227539,-67.0342330932617,21.7719192504882,42.5096740722656,2702532182
sw,-68.6502151489257,-67.7997741699218,5.74413347244262,33.2462272644043,2702548849
sw,-68.7660751342773,-68.4982452392578,-7.50682353973388,21.4393424987792,2702565516
sw,-69.0098114013671,-69.1420288085937,-15.0612449645996,20.9019031524658,2702582183
sw,-69.4741287231445,-69.7631607055664,-28.3832912445068,15.6889085769653,2702598850
sw,-70.4514465332031,-70.5271835327148,-59.7617454528808,28.6990013122558,2702615517
sw,-71.735725402832,-71.1297073364257,-78.8111953735351,24.1853790283203,2702632184
sw,-73.3060684204101,-71.6946029663086,-96.8437881469726,18.3282279968261,2702648851
sw,-75.2668151855468,-72.4175109863281,-122.07322692871,20.1302547454834,2702665518
sw,-77.4412078857421,-73.426887512207,-139.068054199218,35.5260276794433,2702682185
sw,-79.5334320068359,-74.4420166015625,-140.800750732421,37.4249801635742,2702698852
sw,-81.4341812133789,-75.4006881713867,-135.961196899414,37.6962738037109,2702715519
sw,-83.199462890625,-76.3104705810546,-134.891891479492,36.8280372619628,2702732186
sw,-84.7692794799804,-77.2303390502929,-137.910552978515,36.466064453125,2702748853
sw,-85.7127532958984,-78.2140502929687,-136.016540527343,39.1765480041503,2702765520
sw,-85.677993774414,-79.2176666259765,-127.666839599609,41.7925872802734,2702782187
sw,-84.8596649169921,-80.2040481567382,-123.743904113769,45.193546295166,2702798854
sw,-83.6058883666992,-81.1675872802734,-117.99348449707,50.0715904235839,2702815521
sw,-82.2301940917968,-82.1713027954101,-107.712486267089,57.8460350036621,2702832188
sw,-80.7944641113281,-83.2391204833984,-100.135101318359,63.1590728759765,2702848855
sw,-79.314468383789,-84.3334426879882,-93.9425048828125,65.006103515625,2702865522
sw,-77.8367462158203,-85.423713684082,-89.2133636474609,64.564697265625,2702882189
sw,-76.4142761230468,-86.5058212280273,-84.4182739257812,63.1143417358398,2702898856
sw,-75.0601501464843,-87.5428237915039,-80.3697814941406,58.7406578063964,2702915523
sw,-73.8723602294921,-88.5698776245117,-70.5701217651367,58.2726669311523,2702932190
sw,-72.8880386352539,-89.5198974609375,-58.9259948730468,58.0499687194824,2702948857
sw,-72.0387496948242,-89.1293487548828,-50.4818458557128,61.2276725769043,2702965524
sw,-71.2960357666015,-88.0023803710937,-43.5049629211425,66.1180648803711,2702982191
sw,-70.7809066772461,-86.8401184082031,-29.6288356781005,67.1789474487304,2702998858
sw,-70.6232528686523,-85.7129364013671,-9.82186508178711,65.3612213134765,2703015525
sw,-70.9210433959961,-84.6054763793945,15.3244276046752,64.3027038574218,2703032192
sw,-71.3797073364257,-83.5175323486328,24.562816619873,62.6770057678222,2703048859
sw,-71.9919738769531,-82.4774932861328,31.2862491607666,58.784194946289,2703065526
sw,-72.816047668457,-81.4752807617187,42.3504791259765,55.9213371276855,2703082193
sw,-73.7618103027343,-80.5549774169921,49.4216918945312,51.4011650085449,2703098860
sw,-74.8259582519531,-79.7989959716796,51.9505043029785,42.7129211425781,2703115527
sw,-75.8535995483398,-79.3016967773437,47.859764099121,28.7395133972167,2703132194
sw,-76.6727142333984,-79.0404663085937,36.8174514770507,16.4973850250244,2703148861
sw,-77.2979278564453,-78.9233932495117,27.7125015258789,8.63338565826416,2703165528
sw,-78.0233764648437,-79.0054779052734,35.41353225708,-4.02114391326904,2703182195
sw,-79.0910263061523,-79.3497543334961,60.9455261230468,-20.2349452972412,2703198862
sw,-80.0928192138671,-80.1926803588867,57.0350837707519,-49.8859634399414,2703215529
sw,-80.7853927612304,-81.6016998291015,35.8769874572753,-82.5716018676757,2703232196
sw,-81.3254318237304,-83.3160781860351,29.7765064239501,-99.7027587890625,2703248863
sw,-82.0521621704101,-85.1608200073242,41.2720375061035,-110.795631408691,2703265530
sw,-82.9641647338867,-86.7521362304687,45.0914268493652,-121.630661010742,2703282197
sw,-84.020278930664,-86.8835983276367,47.0530967712402,-135.289611816406,2703298864
sw,-85.1596069335937,-85.0442581176757,53.7042770385742,-146.312133789062,2703315531
sw,-86.4005508422851,-82.5708084106445,67.4589920043945,-145.352981567382,2703332198
sw,-87.6167373657226,-80.0778045654296,71.5677947998046,-147.980743408203,2703348865
sw,-88.6833038330078,-77.6426086425781,67.0795745849609,-149.73779296875,2703365532
sw,-89.6215438842773,-75.2506103515625,60.5711822509765,-147.432540893554,2703382199
sw,-89.0717010498046,-72.9327774047851,58.3005638122558,-137.81396484375,2703398866
sw,-87.9093170166015,-70.7663803100586,53.8950080871582,-124.490211486816,2703415533
sw,-86.8356018066406,-68.6803359985351,46.1126899719238,-119.044204711914,2703432200
sw,-85.9409790039062,-66.7100296020507,38.4585227966308,-111.122253417968,2703448867
sw,-85.0987930297851,-64.9518051147461,41.2101783752441,-98.1268997192382,2703465534
sw,-84.2006912231445,-63.4758033752441,50.7908325195312,-81.2489624023437,2703482201
sw,-83.1684417724609,-62.2884902954101,62.2871742248535,-63.9541549682617,2703498868
sw,-81.9886932373046,-61.3162155151367,71.5240707397461,-51.3163452148437,2703515535
sw,-80.8238830566406,-60.6412124633789,70.4049987792968,-33.4162788391113,2703532202
sw,-79.7511444091796,-60.3270034790039,64.985969543457,-14.7090463638305,2703548869
sw,-78.7259140014648,-60.3243904113769,62.078010559082,0.194689378142356,2703565536
sw,-77.6858749389648,-60.5003471374511,62.2533302307128,11.8774518966674,2703582203
sw,-76.6439437866211,-60.6688003540039,61.5550804138183,9.64214515686035,2703598870
sw,-75.660041809082,-61.0231704711914,57.837791442871,18.7312088012695,2703615537
sw,-74.6585083007812,-61.6684875488281,59.2238273620605,34.5935173034668,2703632204
sw,-73.5644989013671,-62.512351989746,65.1739730834961,37.4902839660644,2703648871
sw,-72.3799133300781,-63.6870193481445,70.7060394287109,54.0646667480468,2703665538
sw,-71.2154083251953,-64.8607482910156,69.4766769409179,51.6048698425293,2703682205
sw,-70.2374191284179,-65.8141098022461,58.0904235839843,37.0296630859375,2703698872
sw,-69.6061325073242,-66.4999618530273,37.2470550537109,26.145860671997,2703715539
sw,-69.3478698730468,-67.0455093383789,14.8579378128051,24.1664981842041,2703732206
sw,-69.3509140014648,-67.5913696289062,-0.863737285137176,22.5009078979492,2703748873
sw,-69.4952011108398,-68.0386581420898,-9.25289154052734,10.5552644729614,2703765540
sw,-69.7097778320312,-68.5204315185546,-13.5187149047851,15.149429321289,2703782207
sw,-69.9158782958984,-69.1579055786132,-13.3375244140625,14.1301078796386,2703798874
sw,-70.6058731079101,-70.1139144897461,-42.9493103027343,41.4227027893066,2703815541
sw,-71.8046569824218,-70.7436752319336,-73.9081420898437,25.402042388916,2703832208
sw,-73.3223114013671,-71.2470321655273,-93.7573623657226,13.8343391418457,2703848875
sw,-75.1677627563476,-72.0190811157226,-115.532051086425,20.9673252105712,2703865542
sw,-77.3811950683593,-73.0865097045898,-141.65412902832,34.349552154541,2703882209
sw,-79.6261978149414,-74.243537902832,-150.592361450195,41.9797782897949,2703898876
sw,-81.7306213378906,-75.3130722045898,-151.118728637695,40.0531349182128,2703915543
sw,-83.6841583251953,-76.2714614868164,-154.814727783203,38.2341728210449,2703932210
sw,-85.1915664672851,-77.1874923706054,-157.781188964843,37.1406860351562,2703948877
sw,-85.6071090698242,-78.1332473754882,-152.894012451171,37.6351432800293,2703965544
sw,-84.8990402221679,-79.0960464477539,-139.649810791015,37.5529403686523,2703982211
sw,-83.5226516723632,-80.0757598876953,-136.432250976562,41.073917388916,2703998878
sw,-81.7969741821289,-81.0402679443359,-134.092620849609,45.9598655700683,2704015545
sw,-79.9810943603515,-82.0056610107421,-128.033340454101,52.4716682434082,2704032212
sw,-78.1998062133789,-83.0554733276367,-119.746315002441,61.1228256225585,2704048879
sw,-76.5543899536132,-84.2077331542968,-107.849655151367,68.2076034545898,2704065546
sw,-75.0435180664062,-85.3935546875,-96.8719482421875,68.6800689697265,2704082213
sw,-73.6268768310546,-86.5513381958007,-88.7747802734375,65.2537841796875,2704098880
sw,-72.2362060546875,-87.631233215332,-85.4526824951171,58.2862129211425,2704115547
sw,-70.8907012939453,-88.7104797363281,-81.9276046752929,55.01167678833,2704132214
sw,-69.7464370727539,-90.0,-69.0731124877929,55.6182441711425,2704148881
sw,-69.0297088623046,-89.7851104736328,-42.330394744873,58.6725463867187,2704165548
sw,-68.6833572387695,-88.3696136474609,-19.6480121612548,62.8888931274414,2704182215
sw,-68.5918273925781,-87.2399749755859,-5.09841299057006,62.6803741455078,2704198882
sw,-68.7232666015625,-86.1846389770507,7.51800298690795,59.8949470520019,2704215549
sw,-69.2181549072265,-85.1728591918945,30.5502204895019,57.7012939453125,2704232216
sw,-69.9151840209961,-84.174690246582,40.3440856933593,56.6905708312988,2704248883
sw,-70.8496932983398,-83.1815414428711,49.2801322937011,55.7997245788574,2704265550
sw,-72.1102752685546,-82.2542572021484,67.2393493652343,50.8611984252929,2704282217
sw,-73.5220794677734,-81.4891281127929,76.474250793457,41.3817977905273,2704298884
sw,-74.8465805053711,-80.9357986450195,67.3740081787109,30.9750785827636,2704315551
sw,-76.0640563964843,-80.5695190429687,56.823974609375,21.7650470733642,2704332218
sw,-77.1570510864257,-80.4450454711914,50.184642791748,8.20735263824462,2704348885
sw,-77.9887161254882,-80.5999984741211,34.620735168457,-7.68779563903808,2704365552
sw,-78.8155136108398,-80.9765090942382,38.2038192749023,-20.04341506958,2704382219
sw,-79.8159408569336,-81.6552276611328,58.3313255310058,-38.3677597045898,2704398886
sw,-80.8428344726562,-82.8280487060546,63.9122924804687,-68.2500991821289,2704415553
sw,-81.3608016967773,-84.3054275512695,24.2276210784912,-85.3464050292968,2704432220
sw,-81.8343963623046,-85.9002151489257,21.0834846496582,-92.4435882568359,2704448887
sw,-82.7140121459961,-87.4176025390625,48.4931907653808,-102.787940979003,2704465554
sw,-83.7465591430664,-87.638427734375,52.8098678588867,-118.850021362304,2704482221
sw,-84.8387832641601,-85.6494903564453,52.5046958923339,-132.162414550781,2704498888
sw,-85.9632797241211,-83.0500869750976,58.5943489074707,-126.6328125,2704515555
sw,-87.1879119873046,-80.5147323608398,68.9651260375976,-129.420379638671,2704532222
sw,-88.5027618408203,-78.1411666870117,74.1887130737304,-137.430694580078,2704548889
sw,-90.0,-75.9015731811523,65.7279205322265,-137.263519287109,2704565556
sw,-89.9233856201171,-73.7226791381836,57.9101409912109,-132.868606567382,2704582223
sw,-88.3956298828125,-71.5754852294921,54.2968444824218,-126.370742797851,2704598890
sw,-87.1845703125,-69.4790573120117,52.8533058166503,-119.953422546386,2704615557
sw,-86.1688613891601,-67.5177688598632,43.8693237304687,-110.20255279541,2704632224
sw,-85.3820877075195,-65.7570724487304,37.872215270996,-99.0240478515625,2704648891
sw,-84.6287460327148,-64.2138442993164,43.5590476989746,-86.9470901489257,2704665558
sw,-83.768325805664,-62.8781700134277,52.4378509521484,-73.8941955566406,2704682225
sw,-82.7825393676757,-61.7682151794433,59.5142936706543,-58.3731002807617,2704698892
sw,-81.7555236816406,-60.8814659118652,61.8197898864746,-44.216739654541,2704715559
sw,-80.798713684082,-60.2138481140136,57.8595390319824,-32.7444763183593,2704732226
sw,-79.9203872680664,-59.7909088134765,53.5575714111328,-21.8857860565185,2704748893
sw,-79.0615615844726,-59.606575012207,52.5345001220703,-11.3176984786987,2704765560
sw,-78.127082824707,-59.5541954040527,56.6949501037597,-5.83248043060302,2704782227
sw,-77.145523071289,-59.5642852783203,58.6337814331054,-3.13662266731262,2704798894
sw,-76.1992111206054,-59.8657417297363,55.9931678771972,16.4680938720703,2704815561
sw,-75.3167572021484,-60.4120597839355,52.1491317749023,30.0886669158935,2704832228
sw,-74.4347457885742,-61.1017875671386,52.2947311401367,30.6542205810546,2704848895
sw,-73.478530883789,-61.9562377929687,56.7070274353027,33.798957824707,2704865562
sw,-72.4855651855468,-62.9072723388671,58.8193435668945,35.6084365844726,2704882229
sw,-71.5842742919921,-63.8767547607421,53.2290916442871,38.9049949645996,2704898896
sw,-70.882568359375,-64.8682708740234,41.2420539855957,41.9705276489257,2704915563
sw,-70.4476928710937,-65.8874740600586,25.3030338287353,43.6695404052734,2704932230
sw,-70.2160263061523,-66.7673721313476,13.0894775390625,32.8410911560058,2704948897
sw,-70.1363067626953,-67.5466613769531,3.87873077392578,23.9569149017334,2704965564
sw,-70.1378326416015,-68.3721389770507,-0.888710737228393,23.9204940795898,2704982231
sw,-70.4641647338867,-69.3810119628906,-20.672040939331,31.9718570709228,2704998898
sw,-71.3670806884765,-70.3121337890625,-55.926959991455,32.7129859924316,2705015565
sw,-72.5093841552734,-70.9288101196289,-70.8510055541992,24.5683403015136,2705032232
sw,-74.0304107666015,-71.4447402954101,-94.4438400268554,17.7120685577392,2705048899
sw,-76.0946578979492,-72.2257537841796,-128.666610717773,26.8568706512451,2705065566
sw,-78.3831710815429,-73.229507446289,-146.489685058593,35.9480094909668,2705082233
sw,-80.5162963867187,-74.2181243896484,-144.015411376953,34.4026107788085,2705098900
sw,-82.5416030883789,-75.092041015625,-145.892120361328,32.1820602416992,2705115567
sw,-84.4609146118164,-75.9045715332031,-153.721221923828,30.4407634735107,2705132234
sw,-85.8982620239257,-76.7490234375,-156.164886474609,34.59614944458,2705148901
sw,-86.0741500854492,-77.6629180908203,-151.8037109375,40.794204711914,2705165568
sw,-85.0451278686523,-78.5975265502929,-141.500091552734,42.7653427124023,2705182235
sw,-83.3881454467773,-79.4651260375976,-136.87825012207,39.6398239135742,2705198902
sw,-81.6254196166992,-80.249282836914,-124.2587890625,38.3876686096191,2705215569
sw,-79.9311981201171,-81.1183013916015,-111.207916259765,48.2956657409668,2705232236
sw,-78.3629913330078,-82.1726303100586,-98.4814376831054,62.0240249633789,2705248903
sw,-76.933235168457,-83.3910522460937,-86.8753662109375,72.3749160766601,2705265570
sw,-75.5812606811523,-84.6805114746093,-79.7949600219726,75.8597564697265,2705282237
sw,-74.2536239624023,-85.9229278564453,-76.7566223144531,71.6970291137695,2705298904
sw,-72.9847412109375,-87.0808029174804,-73.8814392089843,64.6078109741211,2705315571
sw,-71.8441696166992,-88.1778030395507,-68.7185363769531,58.869140625,2705332238
sw,-70.8214035034179,-89.3297271728515,-65.0721435546875,57.2929573059082,2705348905
sw,-69.9595108032226,-90.0,-57.0109596252441,60.5439720153808,2705365572
sw,-69.3926086425781,-88.7723617553711,-38.6656684875488,65.3667602539062,2705382239
sw,-69.3443298339843,-87.5332794189453,-6.1446738243103,68.9497756958007,2705398906
sw,-69.706558227539,-86.3484802246093,21.1122550964355,68.56591796875,2705415573
sw,-70.0327377319336,-85.2568283081054,15.3968362808227,62.5937194824218,2705432240
sw,-70.5492401123046,-84.2807006835937,25.3694667816162,54.489761352539,2705448907
sw,-71.1759185791015,-83.4097137451171,29.9910774230957,47.7317848205566,2705465574
sw,-72.0733261108398,-82.6698532104492,44.943748474121,40.1257171630859,2705482241
sw,-73.0951461791992,-82.1276321411132,47.1631927490234,29.1794872283935,2705498908
sw,-74.0231018066406,-81.744644165039,38.5561065673828,21.6175670623779,2705515575
sw,-74.8780441284179,-81.4828338623046,37.316104888916,17.6604709625244,2705532242
sw,-75.7481079101562,-81.3696060180664,40.4389266967773,9.92829322814941,2705548909
sw,-76.743179321289,-81.496337890625,47.4537849426269,-5.6129412651062,2705565576
sw,-77.9427871704101,-81.8750534057617,64.346435546875,-21.9053382873535,2705582243
sw,-79.2568435668945,-82.6754455566406,73.5326843261718,-47.2115859985351,2705598910
sw,-80.3520126342773,-83.9187850952148,60.942268371582,-71.4763946533203,2705615577
sw,-81.0199661254882,-85.3384780883789,37.4556236267089,-80.2447357177734,2705632244
sw,-81.8104553222656,-86.8456954956054,47.3243293762207,-89.8028259277343,2705648911
sw,-82.7554626464843,-87.9957275390625,50.0112228393554,-107.979804992675,2705665578
sw,-83.7232437133789,-86.974250793457,42.6356658935546,-128.142745971679,2705682245
sw,-84.7111282348632,-84.4029769897461,43.5860786437988,-142.689514160156,2705698912
sw,-85.8462677001953,-81.6114501953125,59.8383255004882,-140.392608642578,2705715579
sw,-87.1891021728515,-79.0146865844726,76.5080337524414,-139.693359375,2705732246
sw,-88.5213088989257,-76.6079330444336,75.6630706787109,-141.187835693359,2705748913
sw,-90.0,-74.2944793701171,69.7439193725586,-144.477676391601,2705765580
sw,-89.4345626831054,-71.992431640625,65.9595031738281,-140.625350952148,2705782247
sw,-88.0036468505859,-69.7360076904296,62.1970291137695,-130.782196044921,2705798914
sw,-86.8201141357421,-67.5801544189453,51.0458641052246,-120.890304565429,2705815581
sw,-85.8647384643554,-65.5519638061523,39.1813049316406,-112.279792785644,2705832248
sw,-85.0697021484375,-63.7856826782226,36.2940330505371,-97.1152801513671,2705848915
sw,-84.3056411743164,-62.3556785583496,42.5539016723632,-78.586067199707,2705865582
sw,-83.3439483642578,-61.2271881103515,59.7659950256347,-60.4100036621093,2705882249
sw,-82.1072845458984,-60.3130302429199,77.3481063842773,-47.7129821777343,2705898916
sw,-80.820068359375,-59.6671333312988,79.9240264892578,-33.1873359680175,2705915583
sw,-79.6900482177734,-59.4064254760742,69.5619659423828,-13.3837795257568,2705932250
sw,-78.7325744628906,-59.4910087585449,57.8673248291015,5.48264122009277,2705948917
sw,-77.7982025146484,-59.7127647399902,56.0173301696777,12.2921838760375,2705965584
sw,-76.7877197265625,-60.0564460754394,60.2381896972656,18.9985046386718,2705982251
sw,-75.7880172729492,-60.5914268493652,58.8336372375488,28.8400993347167,2705998918
sw,-74.9379425048828,-61.3951225280761,49.8934211730957,34.091381072998,2706015585
sw,-74.1937789916992,-62.4646072387695,43.9440307617187,38.0968551635742,2706032252
sw,-73.4853515625,-63.7543792724609,41.7341575622558,54.3099670410156,2706048919
sw,-72.7635116577148,-64.9873275756836,42.398696899414,48.8117332458496,2706065586
sw,-72.0543899536132,-66.1443405151367,41.5614738464355,50.1373023986816,2706082253
sw,-71.4564819335937,-66.9917678833007,34.6613960266113,34.4831008911132,2706098920
sw,-71.0593032836914,-67.577278137207,22.7075023651123,15.5327758789062,2706115587
sw,-70.8914718627929,-68.2753067016601,9.43143653869628,26.0615100860595,2706132254
sw,-70.9499588012695,-69.059211730957,-3.69754266738891,37.2767219543457,2706148921
sw,-71.4262771606445,-69.9132232666015,-28.8351764678955,32.3743629455566,2706165588
sw,-72.3452529907226,-70.9218292236328,-55.7629928588867,47.5324592590332,2706182255
sw,-73.6185150146484,-71.7433013916015,-77.1385269165039,39.9876098632812,2706198922
sw,-75.2877502441406,-72.5341262817382,-100.991600036621,29.8330364227294,2706215589
sw,-77.4741516113281,-73.3795013427734,-133.448989868164,22.7144260406494,2706232256
sw,-79.9582901000976,-74.4237899780273,-155.598709106445,32.073989868164,2706248923
sw,-82.344856262207,-75.5970687866211,-157.397811889648,42.7493057250976,2706265590
sw,-84.5471725463867,-76.6775588989257,-155.953262329101,44.5133666992187,2706282257
sw,-86.4228057861328,-77.6494827270507,-159.193557739257,41.4762573242187,2706298924
sw,-87.0526428222656,-78.6047897338867,-163.100463867187,40.166633605957,2706315591
sw,-85.6651458740234,-79.5895690917968,-163.549255371093,41.7126579284668,2706332258
sw,-83.5559692382812,-80.5946044921875,-154.247604370117,43.8537864685058,2706348925
sw,-81.2976684570312,-81.6009674072265,-146.090957641601,46.7947196960449,2706365592
sw,-79.1733779907226,-82.5521545410156,-132.088577270507,49.6214599609375,2706382259
sw,-77.3408966064453,-83.5002899169921,-112.539443969726,54.4017944335937,2706398926
sw,-75.7790222167968,-84.4854888916015,-94.1358489990234,60.117576599121,2706415593
sw,-74.4354171752929,-85.508918762207,-78.2638549804687,65.0125656127929,2706432260
sw,-73.1606750488281,-86.5115966796875,-71.0718383789062,65.5465240478515,2706448927
sw,-71.9689483642578,-87.4299850463867,-62.9773635864257,61.1580467224121,2706465594
sw,-70.9793090820312,-88.2403106689453,-49.7989387512207,56.1783905029296,2706482261
sw,-70.2037353515625,-88.7612533569336,-38.9637451171875,54.0579185485839,2706498928
sw,-69.5641403198242,-88.4893646240234,-36.6883392333984,57.4829330444335,2706515595
sw,-69.1189880371093,-87.5893020629882,-30.673843383789,63.0144577026367,2706532262
sw,-69.1066360473632,-86.5034637451171,-5.08829259872436,65.9787368774414,2706548929
sw,-69.5432891845703,-85.3889236450195,24.0352268218994,65.7994079589843,2706565596
sw,-70.2824172973632,-84.2886581420898,46.0788421630859,64.0210952758789,2706582263
sw,-71.4038619995117,-83.2802276611328,69.3286819458007,57.5212936401367,2706598930
sw,-72.6504516601562,-82.3618469238281,67.7270126342773,51.5212440490722,2706615597
sw,-73.8640060424804,-81.5117492675781,59.879825592041,47.4990005493164,2706632264
sw,-75.1080245971679,-80.8157958984375,58.8902320861816,39.1348457336425,2706648931
sw,-76.2660064697265,-80.340705871582,53.6260643005371,27.3994712829589,2706665598
sw,-77.0968704223632,-80.1443176269531,36.812515258789,12.2807254791259,2706682265
sw,-77.862319946289,-80.2753677368164,35.3180084228515,-6.580979347229,2706698932
sw,-78.927261352539,-80.6358413696289,54.7384910583496,-20.6789989471435,2706715599
sw,-80.163948059082,-81.2857131958007,69.0596008300781,-38.3103256225585,2706732266
sw,-81.2248153686523,-82.460090637207,54.8131141662597,-69.2416915893554,2706748933
sw,-81.9312591552734,-84.0164337158203,33.0746154785156,-91.710708618164,2706765600
sw,-82.6044235229492,-85.6530532836914,38.5350074768066,-100.597946166992,2706782267
sw,-83.5457916259765,-87.0520477294921,55.3409156799316,-112.316612243652,2706798934
sw,-84.5541458129882,-87.0365447998046,50.1729850769043,-119.508697509765,2706815601
sw,-85.6946105957031,-85.2328491210937,52.5016555786132,-133.316467285156,2706832268
sw,-86.995735168457,-82.7632675170898,64.6427154541015,-133.974670410156,2706848935
sw,-88.3675765991211,-80.314826965332,74.0175399780273,-135.501602172851,2706865602
sw,-90.0,-78.0173645019531,75.6746826171875,-139.546295166015,2706882269
sw,-89.4987640380859,-75.8339004516601,63.5208473205566,-137.376876831054,2706898936
sw,-88.3586044311523,-73.6956024169921,57.2873382568359,-131.592544555664,2706915603
sw,-87.2017974853515,-71.6329040527343,58.6881217956543,-120.722778320312,2706932270
sw,-86.0909423828125,-69.606819152832,54.5948486328125,-115.566955566406,2706948937
sw,-85.2116546630859,-67.6490936279296,41.8737411499023,-108.299087524414,2706965604
sw,-84.5251083374023,-65.8915634155273,33.486530303955,-94.4388809204101,2706982271
sw,-83.8193359375,-64.4115524291992,38.8123130798339,-79.4114990234375,2706998938
sw,-82.997444152832,-63.1730079650878,47.9399795532226,-66.5811309814453,2707015605
sw,-82.0356063842773,-62.1226119995117,57.0908966064453,-55.7590751647949,2707032272
sw,-80.974868774414,-61.2992210388183,63.2743453979492,-43.329532623291,2707048939
sw,-79.9276657104492,-60.8056373596191,62.4219551086425,-24.2578868865966,2707065606
sw,-78.9354095458984,-60.6799049377441,59.2131080627441,-4.0330171585083,2707082273
sw,-77.9449081420898,-60.826675415039,59.1657562255859,9.94759273529052,2707098940
sw,-76.9230575561523,-61.1227569580078,61.020637512207,19.3765144348144,2707115607
sw,-75.8275909423828,-61.417869567871,65.3353729248046,14.0492982864379,2707132274
sw,-74.6627578735351,-61.8809051513671,69.1294403076171,17.8468341827392,2707148941
sw,-73.4991378784179,-62.6832695007324,68.8303070068359,32.9399108886718,2707165608
sw,-72.3705520629882,-63.7290382385253,66.6076736450195,45.7571296691894,2707182275
sw,-71.3231735229492,-64.7319107055664,61.6688842773437,39.3308448791503,2707198942
sw,-70.4484176635742,-65.5439147949218,51.2858047485351,29.6251773834228,2707215609
sw,-69.8240966796875,-66.2254638671875,36.4562530517578,30.5720424652099,2707232276
sw,-69.463150024414,-66.8637313842773,20.9026527404785,30.3268871307373,2707248943
sw,-69.3502883911132,-67.3260726928711,6.05056095123291,10.2516784667968,2707265610
sw,-69.4056701660156,-67.7322540283203,-4.01366662979126,4.14158964157104,2707282277
sw,-69.554328918457,-68.3921813964843,-9.62336254119873,27.6976108551025,2707298944
sw,-69.9722290039062,-69.3359909057617,-26.0037307739257,37.4174537658691,2707315611
sw,-71.1129608154296,-70.3454895019531,-69.7458114624023,44.90279006958,2707332278
sw,-72.6911544799804,-71.0998764038086,-96.3845672607421,30.5840644836425,2707348945
sw,-74.5519104003906,-71.7649002075195,-114.545623779296,19.7939014434814,2707365612
sw,-76.8028488159179,-72.5610656738281,-141.261886596679,19.8620872497558,2707382279
sw,-79.2651824951171,-73.5402374267578,-161.017440795898,28.898530960083,2707398946
sw,-81.5754089355468,-74.6269989013671,-161.446166992187,37.9171142578125,2707415613
sw,-83.7172470092773,-75.6459732055664,-163.395584106445,37.6363067626953,2707432280
sw,-85.5249557495117,-76.5423736572265,-168.976577758789,32.1784286499023,2707448947
sw,-86.1554489135742,-77.4359283447265,-166.988540649414,33.2204360961914,2707465614
sw,-85.2061309814453,-78.3788223266601,-154.114334106445,36.9280738830566,2707482281
sw,-83.4842529296875,-79.3512573242187,-144.901702880859,41.2148323059082,2707498948
sw,-81.5063400268554,-80.277229309082,-138.402526855468,43.5215682983398,2707515615
sw,-79.5734939575195,-81.1324615478515,-126.661735534667,45.8829727172851,2707532282
sw,-77.8385543823242,-82.0191345214843,-109.13345336914,51.8267745971679,2707548949
sw,-76.3752212524414,-83.0120315551757,-88.3283538818359,60.4079704284668,2707565616
sw,-75.1426162719726,-84.1091766357421,-72.0450439453125,68.2721252441406,2707582283
sw,-74.0208663940429,-85.2724990844726,-63.544132232666,73.3308029174804,2707598950
sw,-72.9272003173828,-86.4002227783203,-61.560073852539,70.5171966552734,2707615617
sw,-71.8862991333007,-87.4203262329101,-59.6580352783203,63.6499595642089,2707632284
sw,-70.9323654174804,-88.312515258789,-57.5246391296386,57.8440322875976,2707648951
sw,-70.2043151855468,-88.9159240722656,-46.1358337402343,57.2912063598632,2707665618
sw,-69.7740249633789,-88.5912475585937,-28.1247024536132,62.4375877380371,2707682285
sw,-69.7003631591796,-87.5774765014648,-6.45987367630004,69.069953918457,2707698952
sw,-69.8881225585937,-86.4107894897461,10.522759437561,70.4489593505859,2707715619
sw,-70.1814041137695,-85.2404098510742,15.1380434036254,68.9106140136718,2707732286
sw,-71.0713195800781,-84.0884552001953,51.3945922851562,66.7928390502929,2707748953
sw,-71.9139099121093,-83.0544891357421,41.7700691223144,58.7281455993652,2707765620
sw,-72.9440155029296,-82.3123168945312,50.2187690734863,40.8124046325683,2707782287
sw,-74.0386886596679,-81.8544235229492,51.0047874450683,24.4627704620361,2707798954
sw,-75.0725402832031,-81.6124572753906,45.6033363342285,12.6962165832519,2707815621
sw,-75.9697570800781,-81.5610580444336,38.5812187194824,2.58279776573181,2707832288
sw,-76.6911239624023,-81.6235885620117,30.6592674255371,-2.97839975357055,2707848955
sw,-77.5405578613281,-81.8712158203125,39.9365997314453,-13.4671020507812,2707865622
sw,-78.7264785766601,-82.3812484741211,68.6597366333007,-29.1516056060791,2707882289
sw,-79.8626708984375,-83.3016586303711,63.0036277770996,-53.5547866821289,2707898956
sw,-80.5308303833007,-84.6870346069336,26.5072860717773,-81.6898193359375,2707915623
sw,-81.1396408081054,-86.2595291137695,29.3425273895263,-97.079475402832,2707932290
sw,-82.0829010009765,-87.6079711914062,54.3801956176757,-107.874351501464,2707948957
sw,-83.1229705810546,-87.4465637207031,56.4958038330078,-115.421440124511,2707965624
sw,-84.2562484741211,-85.4905471801757,57.7948760986328,-132.979354858398,2707982291
sw,-85.5377960205078,-82.8954925537109,67.4234771728515,-136.870132446289,2707998958
sw,-86.8116836547851,-80.3355178833007,69.2168655395507,-131.835311889648,2708015625
sw,-88.0435562133789,-77.9965286254882,71.2293243408203,-129.51318359375,2708032292
sw,-89.1133117675781,-75.8663101196289,69.8082275390625,-125.647872924804,2708048959
sw,-89.3678894042968,-73.8370132446289,65.7147216796875,-120.780517578125,2708065626
sw,-88.3647003173828,-71.8203506469726,66.2391052246093,-116.026145935058,2708082293
sw,-87.1458358764648,-69.8564224243164,66.515151977539,-110.421737670898,2708098960
sw,-86.0515670776367,-67.9616775512695,55.3429794311523,-106.259170532226,2708115627
sw,-85.1116409301757,-66.2260131835937,46.9756126403808,-96.9437561035156,2708132294
sw,-84.1983642578125,-64.7163848876953,49.2741928100585,-84.9730453491211,2708148961
sw,-83.2105712890625,-63.4484367370605,57.0164527893066,-70.7215576171875,2708165628
sw,-82.0825958251953,-62.4106483459472,66.8045349121093,-55.7388229370117,2708182295
sw,-80.8530578613281,-61.5381736755371,73.0473251342773,-47.1442604064941,2708198962
sw,-79.6102600097656,-60.8689537048339,73.9811706542968,-37.2684326171875,2708215629
sw,-78.460578918457,-60.5225105285644,68.4525680541992,-20.7633457183837,2708232296
sw,-77.4180908203125,-60.5242195129394,61.99361038208,-1.55480790138244,2708248963
sw,-76.3602981567382,-60.7321434020996,62.7081642150878,9.32592010498046,2708265630
sw,-75.2338485717773,-61.0087051391601,66.6697845458984,8.85469055175781,2708282297
sw,-74.0688781738281,-61.4914474487304,68.8304138183593,22.6530113220214,2708298964
sw,-72.9246673583984,-62.205711364746,67.5134735107421,29.8127479553222,2708315631
sw,-71.7659912109375,-63.1481590270996,68.3749084472656,34.6175422668457,2708332298
sw,-70.5931320190429,-64.0887451171875,69.2274551391601,31.4990673065185,2708348965
sw,-69.5234985351562,-65.1030883789062,63.0746955871582,39.3583831787109,2708365632
sw,-68.7455215454101,-66.1177597045898,45.5412139892578,48.5718460083007,2708382299
sw,-68.3027954101562,-66.8047409057617,25.3921852111816,31.513765335083,2708398966
sw,-68.1085128784179,-67.136360168457,10.490511894226,7.22243499755859,2708415633
sw,-68.0175247192382,-67.3783111572265,4.28788757324218,-1.45388674736022,2708432300
