Label,Left_Hip_q,Right_Hip_q,Left_Hip_qd,Right_Hip_qd,SampleTimeFine
sw,-67.7947463989257,-68.7171096801757,26.7802467346191,5.43625879287719,2145054366
sw,-67.5098648071289,-68.7386703491211,16.5048332214355,-12.30064868927,2145071033
sw,-67.3697128295898,-68.9756393432617,7.91870784759521,3.72443890571594,2145087700
sw,-67.4036102294921,-69.3667907714843,-2.49817490577697,4.22815418243408,2145104367
sw,-67.6430740356445,-70.1041717529296,-14.7016353607177,19.4302597045898,2145121034
sw,-68.1299972534179,-70.8756790161132,-29.3513832092285,31.5237693786621,2145137701
sw,-68.9279479980468,-71.223518371582,-48.3989067077636,1.58563232421875,2145154368
sw,-70.1110305786132,-71.5976257324218,-71.9534912109375,5.13206481933593,2145171035
sw,-71.6869049072265,-72.2062530517578,-96.1995544433593,17.0394096374511,2145187702
sw,-73.6844329833984,-73.0620956420898,-123.015495300292,25.7613620758056,2145204369
sw,-75.9728698730468,-74.0298233032226,-143.241348266601,29.8300590515136,2145221036
sw,-78.3069839477539,-74.9769134521484,-149.673782348632,29.7719650268554,2145237703
sw,-80.4653701782226,-75.8798217773437,-142.840255737304,29.4495773315429,2145254370
sw,-82.4684982299804,-76.797866821289,-140.18472290039,35.2438850402832,2145271037
sw,-84.3702621459961,-77.7315597534179,-146.604248046875,39.0689544677734,2145287704
sw,-85.825942993164,-78.6799392700195,-146.665313720703,40.1707191467285,2145304371
sw,-86.2618865966796,-79.6186752319336,-139.663223266601,41.3164138793945,2145321038
sw,-85.4771041870117,-80.5064086914062,-132.673477172851,41.2445106506347,2145337705
sw,-84.0788421630859,-81.3580322265625,-127.513267517089,43.1045608520507,2145354372
sw,-82.408447265625,-82.2833709716796,-123.584800720214,50.7715492248535,2145371039
sw,-80.6898574829101,-83.3720016479492,-113.362327575683,62.1260910034179,2145387706
sw,-79.0908813476562,-84.5822525024414,-100.2681350708,69.6798477172851,2145404373
sw,-77.612190246582,-85.7977523803711,-92.0407943725586,69.7011032104492,2145421040
sw,-76.1349411010742,-86.9307556152343,-91.7180252075195,63.4710578918457,2145437707
sw,-74.6650848388671,-87.9746475219726,-90.8136901855468,55.9056777954101,2145454374
sw,-73.2922668457031,-89.0148391723632,-83.8341217041015,52.1360168457031,2145471041
sw,-72.1034622192382,-90.0,-71.2626419067382,52.9140129089355,2145487708
sw,-71.1037826538086,-89.4717712402343,-58.5021209716796,56.1816978454589,2145504375
sw,-70.3305511474609,-88.2326507568359,-44.1232452392578,60.6526947021484,2145521042
sw,-69.7218780517578,-87.1788101196289,-34.8470039367675,59.1805419921875,2145537709
sw,-69.2921371459961,-86.2505416870117,-27.7171955108642,53.0194015502929,2145554376
sw,-69.1243057250976,-85.3404922485351,-13.2741374969482,52.0242500305175,2145571043
sw,-69.2899856567382,-84.3694305419921,9.64341354370117,55.1841011047363,2145587710
sw,-69.4884719848632,-83.308479309082,10.8761568069458,59.7856712341308,2145604377
sw,-69.682373046875,-82.2688064575195,6.57017564773559,57.4235458374023,2145621044
sw,-70.209243774414,-81.3722686767578,24.6295433044433,49.2679061889648,2145637711
sw,-70.9189529418945,-80.6451416015625,34.0916595458984,41.017463684082,2145654378
sw,-71.7042617797851,-80.0569763183593,36.0932846069335,34.2764854431152,2145671045
sw,-72.5130004882812,-79.6031265258789,40.2252197265625,26.8181285858154,2145687712
sw,-73.2872085571289,-79.297737121582,42.9399070739746,18.6563549041748,2145704379
sw,-74.011245727539,-79.0949020385742,40.2720222473144,13.3707542419433,2145721046
sw,-74.7766799926757,-79.0872497558593,37.2730522155761,1.42789387702941,2145737713
sw,-75.8153228759765,-79.3965911865234,51.9774055480957,-17.7948551177978,2145754380
sw,-77.084976196289,-80.1242294311523,70.4880065917968,-42.2026977539062,2145771047
sw,-78.1198348999023,-81.248779296875,55.0421867370605,-65.3156127929687,2145787714
sw,-78.7844314575195,-82.7186737060546,37.0435409545898,-84.3887100219726,2145804381
sw,-79.3553771972656,-84.4373931884765,32.9551696777343,-99.3504867553711,2145821048
sw,-80.2131652832031,-86.1215209960937,47.9989624023437,-104.819816589355,2145837715
sw,-81.2665786743164,-87.3848419189453,52.0016860961914,-118.366333007812,2145854382
sw,-82.369155883789,-86.8183822631836,49.1028976440429,-128.470779418945,2145871049
sw,-83.4481811523437,-84.872802734375,50.0500030517578,-124.745796203613,2145887716
sw,-84.5863037109375,-82.6795959472656,59.7866325378418,-133.782943725585,2145904383
sw,-85.7924346923828,-80.4829940795898,67.638557434082,-140.886978149414,2145921050
sw,-87.0587615966796,-78.2929229736328,72.8899002075195,-142.483184814453,2145937717
sw,-88.4098434448242,-76.0966491699218,74.6691665649414,-136.675201416015,2145954384
sw,-90.0,-73.9229507446289,67.07080078125,-129.281692504882,2145971051
sw,-89.3694381713867,-71.7902908325195,52.349494934082,-120.773918151855,2145987718
sw,-88.2520217895507,-69.77490234375,35.9404220581054,-109.501663208007,2146004385
sw,-87.3806533813476,-67.9443435668945,26.1798763275146,-97.2433319091796,2146021052
sw,-86.5982055664062,-66.3499069213867,33.4028396606445,-84.2181091308593,2146037719
sw,-85.7618713378906,-64.9357376098632,50.08540725708,-75.2348251342773,2146054386
sw,-84.79248046875,-63.6123657226562,64.8144149780273,-69.1654510498046,2146071053
sw,-83.6880111694336,-62.4706115722656,73.3307266235351,-58.9141235351562,2146087720
sw,-82.5887603759765,-61.688232421875,69.4699172973632,-38.7913246154785,2146104387
sw,-81.6033096313476,-61.2403526306152,60.2270317077636,-21.407127380371,2146121054
sw,-80.7184829711914,-60.9858436584472,53.138427734375,-10.6751165390014,2146137721
sw,-79.8052597045898,-60.6899948120117,54.167121887207,-17.6810607910156,2146154388
sw,-78.7745285034179,-60.4432754516601,60.5177917480468,-17.9507045745849,2146171055
sw,-77.696044921875,-60.5813865661621,63.351016998291,7.12008190155029,2146187722
sw,-76.6425094604492,-61.050308227539,62.3879203796386,26.5348682403564,2146204389
sw,-75.5931701660156,-61.7242546081543,62.6904907226562,34.5525321960449,2146221056
sw,-74.4968490600586,-62.6501426696777,65.8519897460937,46.3211021423339,2146237723
sw,-73.3039779663086,-63.5255622863769,71.3883895874023,34.1306381225585,2146254390
sw,-72.0522842407226,-64.2992553710937,74.4914932250976,24.7756595611572,2146271057
sw,-70.9110488891601,-64.9919815063476,67.7346038818359,26.8817062377929,2146287724
sw,-70.072769165039,-65.7127380371093,49.8116226196289,37.427864074707,2146304391
sw,-69.4823455810546,-66.3939437866211,34.7593269348144,35.9559440612793,2146321058
sw,-69.0492477416992,-66.8976974487304,25.2011947631835,18.5039634704589,2146337725
sw,-68.74169921875,-67.4606628417968,17.5783710479736,17.525535583496,2146354392
sw,-68.6065292358398,-68.0840682983398,7.21484327316284,18.1727046966552,2146371059
sw,-68.4850845336914,-68.8945922851562,6.49904918670654,24.2717475891113,2146387726
sw,-68.3832702636718,-70.1059494018554,5.47220849990844,55.6794700622558,2146404393
sw,-68.5614929199218,-71.0145797729492,-11.5976190567016,40.2049903869628,2146421060
sw,-69.0638580322265,-71.5203475952148,-31.2322330474853,11.0259218215942,2146437727
sw,-69.9484024047851,-72.0265426635742,-54.2332000732421,10.4283905029296,2146454394
sw,-71.1704330444336,-72.7374114990234,-74.8973312377929,22.909610748291,2146471061
sw,-72.7260665893554,-73.5927963256836,-96.5601348876953,30.864990234375,2146487728
sw,-74.602783203125,-74.5101776123046,-118.907257080078,34.1728057861328,2146504395
sw,-76.6015472412109,-75.4527893066406,-129.868896484375,35.4369277954101,2146521062
sw,-78.510383605957,-76.3417358398437,-127.23656463623,32.3060226440429,2146537729
sw,-80.3003692626953,-77.2324523925781,-122.868988037109,33.7941093444824,2146554396
sw,-82.0971145629882,-78.1980743408203,-128.721313476562,40.1283416748046,2146571063
sw,-83.8693771362304,-79.2166290283203,-136.334182739257,44.4460411071777,2146587730
sw,-85.3652725219726,-80.2297592163086,-137.555068969726,45.53169631958,2146604397
sw,-86.1543731689453,-81.1736755371093,-134.186752319335,44.2925605773925,2146621064
sw,-85.8717575073242,-82.0640716552734,-129.934204101562,45.0587539672851,2146637731
sw,-84.7656860351562,-82.9756622314453,-125.219009399414,49.9379043579101,2146654398
sw,-83.2579345703125,-83.9244613647461,-119.320922851562,53.6881408691406,2146671065
sw,-81.6365127563476,-84.9080352783203,-109.442329406738,56.6972045898437,2146687732
sw,-80.0850982666015,-85.8810653686523,-97.1109924316406,56.6787071228027,2146704399
sw,-78.6140747070312,-86.8073959350586,-89.3978118896484,52.6670608520507,2146721066
sw,-77.1471405029296,-87.6548156738281,-89.494888305664,45.7031822204589,2146737733
sw,-75.7324676513671,-88.4355239868164,-87.197021484375,40.6259880065918,2146754400
sw,-74.4455261230468,-89.3104476928711,-79.0335845947265,42.4286994934082,2146771067
sw,-73.2849884033203,-90.0,-71.1921997070312,47.5683288574218,2146787734
sw,-72.2734069824218,-89.3124389648437,-62.2192344665527,53.4245986938476,2146804401
sw,-71.4192276000976,-88.1726531982421,-52.631248474121,59.1164283752441,2146821068
sw,-70.6468353271484,-87.0832901000976,-49.4022674560546,61.4464721679687,2146837735
sw,-70.0377807617187,-86.0290145874023,-41.6633033752441,60.061595916748,2146854402
sw,-69.6973648071289,-85.0135116577148,-25.2542362213134,57.2338485717773,2146871069
sw,-69.6223602294921,-84.0174560546875,-7.42436599731445,55.7521133422851,2146887736
sw,-69.8139038085937,-83.0490188598632,9.89648056030273,54.2080612182617,2146904403
sw,-70.3070983886718,-82.1802902221679,25.1266841888427,48.7364044189453,2146921070
sw,-70.8531036376953,-81.3973236083984,25.7482280731201,44.1641502380371,2146937737
sw,-71.6510543823242,-80.7274627685546,41.0576705932617,38.0573120117187,2146954404
sw,-72.4562149047851,-80.1819839477539,35.4201049804687,31.6097717285156,2146971071
sw,-73.2238311767578,-79.7848358154296,31.6917572021484,23.4004688262939,2146987738
sw,-73.9508743286132,-79.5574111938476,32.6631851196289,14.0899467468261,2147004405
sw,-74.7897109985351,-79.5155334472656,45.3617973327636,3.47550153732299,2147021072
sw,-75.853759765625,-79.6341857910156,57.607681274414,-5.85290718078613,2147037739
sw,-77.0321350097656,-79.9981689453125,59.3571052551269,-20.0983982086181,2147054406
sw,-78.2937469482421,-80.7288208007812,65.6641387939453,-41.8433418273925,2147071073
sw,-79.6037826538086,-81.9084014892578,75.867919921875,-68.2177658081054,2147087740
sw,-80.3131256103515,-83.5081939697265,43.1909828186035,-91.3501358032226,2147104407
sw,-80.796875,-85.3045654296875,26.5988483428955,-103.450881958007,2147121074
sw,-81.42041015625,-87.052978515625,31.6975555419921,-113.021873474121,2147137741
sw,-82.2703628540039,-87.8317489624023,38.6458091735839,-124.138458251953,2147154408
sw,-83.2387084960937,-86.3995742797851,43.0941200256347,-131.079956054687,2147171075
sw,-84.2074203491211,-84.1533660888671,47.5643653869628,-127.332771301269,2147187742
sw,-85.298599243164,-81.8634643554687,60.3758392333984,-123.942550659179,2147204409
sw,-86.508674621582,-79.6557693481445,69.6268157958984,-125.736068725585,2147221076
sw,-87.7418975830078,-77.5323486328125,71.0177764892578,-126.845260620117,2147237743
sw,-89.0784683227539,-75.4930267333984,72.2321701049804,-123.021759033203,2147254410
sw,-90.0,-73.5834197998046,69.1609420776367,-112.655303955078,2147271077
sw,-88.4571838378906,-71.7045364379882,61.7262229919433,-108.753517150878,2147287744
sw,-87.3304672241211,-69.8687286376953,45.3801536560058,-104.295524597167,2147304411
sw,-86.4989929199218,-68.2082977294921,28.3387222290039,-92.0816040039062,2147321078
sw,-85.7881164550781,-66.8228302001953,29.2166576385498,-74.5105514526367,2147337745
sw,-85.0455245971679,-65.6141586303711,41.3542747497558,-63.6216468811035,2147354412
sw,-84.1424484252929,-64.4798889160156,57.5690841674804,-60.2314910888671,2147371079
sw,-83.0591506958007,-63.46870803833,69.7826156616211,-55.7406501770019,2147387746
sw,-81.9386138916015,-62.7260131835937,70.8338165283203,-43.9101867675781,2147404413
sw,-80.9657974243164,-62.2969627380371,60.1623153686523,-29.2676277160644,2147421080
sw,-80.1275939941406,-62.0679855346679,50.9823532104492,-19.2586631774902,2147437747
sw,-79.2718353271484,-61.9098243713378,51.3041877746582,-16.7168312072753,2147454414
sw,-78.3137588500976,-61.9688262939453,56.7700767517089,-1.35560393333435,2147471081
sw,-77.2756576538086,-62.3841552734375,61.5132980346679,24.2560729980468,2147487748
sw,-76.2054672241211,-62.9797630310058,63.5834732055664,31.6712455749511,2147504415
sw,-75.1668319702148,-63.7528839111328,61.7114906311035,37.2410087585449,2147521082
sw,-74.1574249267578,-64.5678024291992,60.3382339477539,32.8344573974609,2147537749
sw,-73.08740234375,-65.3632431030273,64.1666946411132,27.5670204162597,2147554416
sw,-71.9850616455078,-66.185432434082,65.9004287719726,34.1000213623046,2147571083
sw,-70.9440765380859,-66.8782653808593,62.085765838623,30.7441272735595,2147587750
sw,-70.1251220703125,-67.3829040527343,48.7621955871582,21.4840431213378,2147604417
sw,-69.554573059082,-67.804084777832,33.7558250427246,16.6967144012451,2147621084
sw,-69.1278915405273,-68.1179504394531,25.1653861999511,3.86814880371093,2147637751
sw,-68.8328399658203,-68.4869003295898,17.3564300537109,6.43919229507446,2147654418
sw,-68.7201232910156,-68.9897994995117,6.28377819061279,12.6393375396728,2147671085
sw,-68.668228149414,-69.6162109375,2.54722142219543,12.3121633529663,2147687752
sw,-68.6461334228515,-70.6004791259765,0.822305023670196,42.1666374206543,2147704419
sw,-68.9799118041992,-71.2587432861328,-20.7394924163818,25.381628036499,2147721086
sw,-69.824966430664,-71.730110168457,-51.7239456176757,10.8208980560302,2147737753
sw,-71.0634689331054,-72.3658981323242,-75.5800323486328,20.196397781372,2147754420
sw,-72.7481460571289,-73.2586517333984,-103.093841552734,32.4888305664062,2147771087
sw,-74.8886947631836,-74.2797775268554,-131.975616455078,40.3346633911132,2147787754
sw,-77.2459716796875,-75.2877883911132,-147.303939819335,41.5164756774902,2147804421
sw,-79.5429458618164,-76.2267074584961,-145.990844726562,39.1654243469238,2147821088
sw,-81.7209014892578,-77.1212997436523,-142.080520629882,37.3557167053222,2147837755
sw,-83.7642288208007,-78.0513076782226,-140.674346923828,39.4461288452148,2147854422
sw,-85.5518188476562,-79.0430755615234,-138.817825317382,43.6208038330078,2147871089
sw,-86.7316970825195,-80.0706481933593,-135.849319458007,47.323875427246,2147887756
sw,-86.7637863159179,-81.1016540527343,-132.065216064453,49.420051574707,2147904423
sw,-85.632827758789,-82.0703887939453,-129.225402832031,49.2115097045898,2147921090
sw,-84.0225372314453,-83.0447845458984,-123.398704528808,53.4912490844726,2147937757
sw,-82.2233276367187,-84.1250686645507,-119.928367614746,62.0830307006835,2147954424
sw,-80.411636352539,-85.3258895874023,-111.585136413574,70.2267608642578,2147971091
sw,-78.6950759887695,-86.612678527832,-100.403823852539,75.1350021362304,2147987758
sw,-77.0894241333007,-87.8784637451171,-91.7173385620117,72.3767929077148,2148004425
sw,-75.6221084594726,-89.1095733642578,-83.7567520141601,64.8564682006836,2148021092
sw,-74.2845230102539,-90.0,-78.0342102050781,60.7451133728027,2148037759
sw,-73.0505676269531,-89.0681228637695,-74.1859970092773,62.1898078918457,2148054426
sw,-71.9485931396484,-87.7547607421875,-68.6754760742187,68.7160720825195,2148071093
sw,-71.00830078125,-86.4611129760742,-58.9922485351562,71.9948806762695,2148087760
sw,-70.222427368164,-85.2350616455078,-49.50044631958,69.0772933959961,2148104427
sw,-69.6223831176757,-84.0840148925781,-39.3959693908691,65.5252685546875,2148121094
sw,-69.1812896728515,-82.9999389648437,-29.9202136993408,62.5636940002441,2148137761
sw,-69.2961120605468,-81.9464111328125,5.13291120529174,60.5255165100097,2148154428
sw,-69.963020324707,-80.9476623535156,38.9187889099121,55.9160423278808,2148171095
sw,-70.653823852539,-80.0802993774414,38.3518257141113,47.005199432373,2148187762
sw,-71.5505828857421,-79.3697357177734,49.9248962402343,37.738899230957,2148204429
sw,-72.5822067260742,-78.7448806762695,52.5786247253418,34.0501060485839,2148221096
sw,-73.6135635375976,-78.2137603759765,46.773941040039,30.0592727661132,2148237763
sw,-74.6302642822265,-77.8352127075195,48.5927124023437,22.8002128601074,2148254430
sw,-75.4110794067382,-77.5898742675781,40.3436164855957,16.3075103759765,2148271097
sw,-75.9395980834961,-77.4470977783203,26.9028892517089,10.840292930603,2148287764
sw,-76.5508422851562,-77.4514389038086,32.4271430969238,2.33778357505798,2148304431
sw,-77.3474502563476,-77.7794723510742,43.2458572387695,-17.9477462768554,2148321098
sw,-78.2370452880859,-78.5513305664062,49.592960357666,-45.4545593261718,2148337765
sw,-79.044563293457,-79.7735366821289,49.5256843566894,-71.6452484130859,2148354432
sw,-79.6028213500976,-81.4422378540039,32.2191581726074,-95.1417236328125,2148371099
sw,-80.2992553710937,-83.2643203735351,35.8430671691894,-102.925521850585,2148387766
sw,-81.2310180664062,-85.1625595092773,45.785659790039,-115.070411682128,2148404433
sw,-82.3662414550781,-86.8043899536132,52.1397399902343,-131.402786254882,2148421100
sw,-83.4559631347656,-86.8619995117187,49.7678642272949,-136.053146362304,2148437767
sw,-84.5940551757812,-85.2745819091796,58.4150352478027,-134.82859802246,2148454434
sw,-85.8530120849609,-83.1962356567382,72.6735076904296,-141.411575317382,2148471101
sw,-87.100112915039,-81.0204925537109,78.1517868041992,-143.600265502929,2148487768
sw,-88.2044143676757,-78.8300857543945,73.3172531127929,-146.268676757812,2148504435
sw,-89.1284484863281,-76.6353225708007,64.0303802490234,-143.843215942382,2148521102
sw,-89.1089096069336,-74.4844436645507,56.1818580627441,-135.425018310546,2148537769
sw,-88.2166671752929,-72.4160995483398,49.0306015014648,-121.311714172363,2148554436
sw,-87.2878341674804,-70.4160690307617,42.0276794433593,-107.756217956542,2148571103
sw,-86.4226989746093,-68.5616683959961,38.5367012023925,-94.4606552124023,2148587770
sw,-85.4804000854492,-66.9495010375976,47.8835639953613,-79.3807678222656,2148604437
sw,-84.3876953125,-65.5676345825195,63.2852020263671,-68.0542602539062,2148621104
sw,-83.1781234741211,-64.3119277954101,73.1016998291015,-64.1308517456054,2148637771
sw,-82.0088348388671,-63.2081985473632,70.7951049804687,-59.8891067504882,2148654438
sw,-80.9581680297851,-62.3636589050293,62.5173835754394,-47.1168365478515,2148671105
sw,-80.0340957641601,-61.8640708923339,53.6250419616699,-25.1262474060058,2148687772
sw,-79.1694717407226,-61.7058906555175,49.7704124450683,-2.75801587104797,2148704439
sw,-78.2446670532226,-61.7878608703613,53.4922256469726,10.6738748550415,2148721106
sw,-77.2513046264648,-62.2110862731933,58.1560363769531,29.5845413208007,2148737773
sw,-76.1975479125976,-62.7618293762207,62.3814506530761,28.5369873046875,2148754440
sw,-75.0928955078125,-63.3729743957519,65.6011199951171,21.6588382720947,2148771107
sw,-73.970947265625,-64.1449890136718,66.5313339233398,29.5046138763427,2148787774
sw,-72.8772277832031,-65.0449676513671,64.64794921875,39.0851783752441,2148804441
sw,-71.8381423950195,-66.0369262695312,61.2273139953613,49.7726249694824,2148821108
sw,-70.8886795043945,-66.8800659179687,55.6631813049316,46.9123344421386,2148837775
sw,-70.1145095825195,-67.4393463134765,45.1042938232421,31.8752632141113,2148854442
sw,-69.5382003784179,-67.7901992797851,33.4676933288574,16.2939929962158,2148871109
sw,-69.1390304565429,-68.0360641479492,23.0557975769042,2.43616652488708,2148887776
sw,-68.9675521850586,-68.4748840332031,9.52657318115234,12.7832889556884,2148904443
sw,-68.9905700683593,-69.0758666992187,-2.09607100486755,15.0013971328735,2148921110
sw,-69.1831359863281,-69.9483642578125,-12.2317466735839,29.3044452667236,2148937777
sw,-69.9308395385742,-71.0263977050781,-45.6060714721679,53.5073890686035,2148954444
sw,-71.0862655639648,-71.4684982299804,-70.3281631469726,10.0689048767089,2148971111
sw,-72.4394073486328,-71.6614685058593,-82.666763305664,-3.86860084533691,2148987778
sw,-74.1780548095703,-72.2345962524414,-107.275787353515,21.2364082336425,2149004445
sw,-76.3717193603515,-73.161994934082,-137.01284790039,40.0816688537597,2149021112
sw,-78.8617858886718,-74.112075805664,-158.349151611328,33.114631652832,2149037779
sw,-81.3320007324218,-74.9827499389648,-160.711639404296,25.7078628540039,2149054446
sw,-83.6843795776367,-75.7680740356445,-157.964553833007,23.3343620300292,2149071113
sw,-85.7990036010742,-76.5706253051757,-154.882888793945,28.5511951446533,2149087780
sw,-87.161376953125,-77.4687881469726,-150.775970458984,37.602195739746,2149104447
sw,-86.7558670043945,-78.4717636108398,-145.613876342773,47.2975463867187,2149121114
sw,-85.0592651367187,-79.5064926147461,-141.716567993164,51.1091537475585,2149137781
sw,-83.1620407104492,-80.4736862182617,-130.45408630371,50.3970260620117,2149154448
sw,-81.3108596801757,-81.3574142456054,-118.714263916015,48.7690658569335,2149171115
sw,-79.6345672607421,-82.2650299072265,-101.183670043945,51.7487564086914,2149187782
sw,-78.1923599243164,-83.323974609375,-82.5606460571289,61.6359977722168,2149204449
sw,-76.957275390625,-84.537727355957,-68.7424011230468,70.7883987426757,2149221116
sw,-75.7537155151367,-85.7846221923828,-67.64208984375,73.3324966430664,2149237783
sw,-74.4544601440429,-86.9245147705078,-75.221923828125,66.8804321289062,2149254450
sw,-73.1307296752929,-87.9473876953125,-78.9266281127929,57.2376060485839,2149271117
sw,-71.9286422729492,-88.9330291748046,-72.9117889404296,51.1628150939941,2149287784
sw,-70.9642868041992,-90.0,-59.2326774597168,49.1961326599121,2149304451
sw,-70.2170944213867,-89.5607604980468,-47.4119262695312,49.7376289367675,2149321118
sw,-69.5776748657226,-88.5562591552734,-42.7996559143066,48.9129676818847,2149337785
sw,-68.998420715332,-87.6425857543945,-41.379280090332,50.185562133789,2149354452
sw,-68.7342987060546,-86.7055130004882,-20.7890014648437,53.0670890808105,2149371119
sw,-69.0536270141601,-85.7320785522461,18.2616558074951,55.8384552001953,2149387786
sw,-69.5856399536132,-84.7298736572265,31.3525009155273,57.3231163024902,2149404453
sw,-70.0991287231445,-83.7656173706054,28.4420204162597,54.5338249206543,2149421120
sw,-70.6754074096679,-82.8845138549804,30.6323986053466,49.1058540344238,2149437787
sw,-71.3852615356445,-82.1281967163086,36.1582221984863,42.1530952453613,2149454454
sw,-72.0957794189453,-81.4919204711914,31.8592205047607,36.2017974853515,2149471121
sw,-72.8537902832031,-80.9962539672851,35.1978416442871,28.8378849029541,2149487788
sw,-73.5432662963867,-80.7232284545898,34.2293891906738,16.4328346252441,2149504455
sw,-74.0970001220703,-80.6122817993164,27.111572265625,7.59387254714965,2149521122
sw,-74.7930145263671,-80.5776290893554,36.5006637573242,3.53275990486145,2149537789
sw,-75.8367156982421,-80.6539154052734,60.9100379943847,-2.89772129058837,2149554456
sw,-76.7769699096679,-80.9518966674804,53.4098663330078,-16.4898300170898,2149571123
sw,-77.7781753540039,-81.6348266601562,51.7989311218261,-39.24951171875,2149587790
sw,-78.7545166015625,-82.7949981689453,53.308738708496,-67.7931747436523,2149604457
sw,-79.2974243164062,-84.2414627075195,30.057689666748,-86.4917678833007,2149621124
sw,-79.9926834106445,-85.6944808959961,40.1623878479003,-96.1751480102539,2149637791
sw,-80.8828582763671,-86.8179550170898,44.9265480041503,-113.394081115722,2149654458
sw,-81.8804702758789,-86.5140686035156,43.8768882751464,-125.943061828613,2149671125
sw,-82.917007446289,-84.8216171264648,46.3195762634277,-127.570610046386,2149687792
sw,-84.0391845703125,-82.7707824707031,57.9455070495605,-128.408447265625,2149704459
sw,-85.2679061889648,-80.7251510620117,69.1806716918945,-130.251083374023,2149721126
sw,-86.4667587280273,-78.7650604248046,69.236701965332,-129.013412475585,2149737793
sw,-87.6708984375,-76.814468383789,69.4924163818359,-128.46450805664,2149754460
sw,-88.9833602905273,-74.8309555053711,68.5964889526367,-126.068054199218,2149771127
sw,-90.0,-72.819839477539,63.8822479248046,-123.582481384277,2149787794
sw,-88.8732604980468,-70.8716354370117,52.5379447937011,-112.628448486328,2149804461
sw,-87.8585357666015,-69.1503219604492,39.1161499023437,-93.535888671875,2149821128
sw,-87.0054626464843,-67.6773910522461,34.6148147583007,-78.8395385742187,2149837795
sw,-86.1484756469726,-66.4247894287109,43.6943550109863,-66.2069244384765,2149854462
sw,-85.2043380737304,-65.2948913574218,56.5204315185546,-61.0798835754394,2149871129
sw,-84.1081771850586,-64.2434997558593,69.1737747192382,-60.2887954711914,2149887796
sw,-82.8957748413086,-63.3738098144531,76.1678085327148,-53.3181838989257,2149904463
sw,-81.7427215576171,-62.8579978942871,71.1885833740234,-33.9779663085937,2149921130
sw,-80.7138595581054,-62.6582832336425,62.5004386901855,-15.9584302902221,2149937797
sw,-79.7744369506836,-62.7497291564941,55.8559303283691,2.25023818016052,2149954464
sw,-78.8551254272461,-63.0409049987793,53.8345527648925,14.3643045425415,2149971131
sw,-77.8757934570312,-63.5314826965332,57.5512351989746,25.7675819396972,2149987798
sw,-76.8204803466796,-64.2790145874023,62.5330581665039,37.5482521057128,2150004465
sw,-75.7265701293945,-65.2067260742187,65.0408782958984,37.4960975646972,2150021132
sw,-74.6117248535156,-66.2735290527343,66.3264617919921,41.2197685241699,2150037799
sw,-73.457405090332,-67.2041549682617,68.4935836791992,32.2215728759765,2150054466
sw,-72.3187789916992,-68.0052871704101,67.3177261352539,35.0087013244628,2150071133
sw,-71.2780990600586,-68.6793594360351,61.3453636169433,36.7134323120117,2150087800
sw,-70.3871231079101,-69.0146331787109,52.4010429382324,14.5910329818725,2150104467
sw,-69.6655960083007,-69.1461868286132,42.1863555908203,-1.66071891784667,2150121134
sw,-69.2070999145507,-69.3208847045898,26.5915794372558,1.03533971309661,2150137801
sw,-69.0120010375976,-69.4898834228515,10.9853773117065,-0.761850714683532,2150154468
sw,-68.9291915893554,-69.9074478149414,4.26019620895385,2.46914958953857,2150171135
sw,-68.9388275146484,-70.8598022460937,-1.34502732753753,42.9600944519043,2150187802
sw,-69.2265014648437,-71.4180908203125,-18.1959991455078,24.3800163269042,2150204469
sw,-70.0047988891601,-71.8253784179687,-47.7861366271972,14.1543245315551,2150221136
sw,-71.3379135131836,-72.3932189941406,-81.0776214599609,17.5666637420654,2150237803
sw,-73.0841827392578,-73.2031326293945,-106.027648925781,27.8718242645263,2150254470
sw,-75.122200012207,-74.1517715454101,-124.416923522949,34.180809020996,2150271137
sw,-77.364013671875,-75.1400146484375,-138.850311279296,38.0710182189941,2150287804
sw,-79.5693054199218,-76.0974502563476,-139.673294067382,37.7181243896484,2150304471
sw,-81.6183547973632,-77.0061645507812,-133.591186523437,36.0166893005371,2150321138
sw,-83.568862915039,-77.9293594360351,-132.89224243164,37.8677253723144,2150337805
sw,-85.3987884521484,-78.8916473388671,-135.217849731445,41.0548667907714,2150354472
sw,-86.822265625,-79.8718338012695,-135.683792114257,43.4069519042968,2150371139
sw,-87.0984268188476,-80.8022155761718,-135.623901367187,42.4276542663574,2150387806
sw,-85.95068359375,-81.6549682617187,-130.72964477539,40.8378982543945,2150404473
sw,-84.2950134277343,-82.5005340576171,-120.267471313476,44.071491241455,2150421140
sw,-82.5461807250976,-83.4531784057617,-110.249847412109,53.2091751098632,2150437807
sw,-80.8625335693359,-84.5192718505859,-98.5270690917968,61.2578773498535,2150454474
sw,-79.3464889526367,-85.6385726928711,-85.4619369506836,64.3954238891601,2150471141
sw,-77.9292449951171,-86.7517700195312,-79.7649612426757,62.9416007995605,2150487808
sw,-76.5260314941406,-87.7591171264648,-80.646369934082,54.6786804199218,2150504475
sw,-75.1617126464843,-88.6841888427734,-80.3403778076171,48.193115234375,2150521142
sw,-73.8994522094726,-89.7482147216796,-76.4337997436523,46.6199073791503,2150537809
sw,-72.8256912231445,-90.0,-66.935302734375,49.1897201538085,2150554476
sw,-71.9334259033203,-88.8388748168945,-57.4003448486328,53.1126823425293,2150571143
sw,-71.1431732177734,-87.7845993041992,-52.3137397766113,58.1999816894531,2150587810
sw,-70.5227661132812,-86.7344589233398,-42.8333511352539,59.6798362731933,2150604477
sw,-70.3037033081054,-85.698257446289,-18.3538646697998,59.5216979980468,2150621144
sw,-70.6268615722656,-84.6475219726562,16.3074703216552,60.2522201538085,2150637811
sw,-71.1745452880859,-83.5407485961914,30.8740577697753,62.5412559509277,2150654478
sw,-71.8804168701171,-82.4360275268554,39.7096710205078,61.4104690551757,2150671145
sw,-72.5709762573242,-81.4557342529296,35.9769668579101,53.6120452880859,2150687812
sw,-73.3432312011718,-80.7255783081054,34.8106956481933,39.9937133789062,2150704479
sw,-74.1338119506836,-80.2242279052734,32.1272621154785,28.1520366668701,2150721146
sw,-74.955581665039,-79.9011077880859,39.7455520629882,19.3554801940917,2150737813
sw,-75.5025253295898,-79.730110168457,29.3000984191894,11.7711563110351,2150754480
sw,-75.757827758789,-79.657730102539,9.14321136474609,6.1408085823059,2150771147
sw,-76.1859741210937,-79.712158203125,16.7437896728515,-1.93748927116394,2150787814
sw,-76.9974975585937,-79.9553298950195,44.9564208984375,-13.2747592926025,2150804481
sw,-77.9104766845703,-80.467658996582,53.1888465881347,-29.1894378662109,2150821148
sw,-78.7424850463867,-81.2955703735351,41.4430847167968,-46.1471099853515,2150837815
sw,-79.4416809082031,-82.4400939941406,34.8725090026855,-63.4637947082519,2150854482
sw,-80.1498870849609,-83.8654403686523,41.9524688720703,-80.5380706787109,2150871149
sw,-80.9766845703125,-85.4529113769531,50.2621688842773,-98.6019210815429,2150887816
sw,-81.9134750366211,-86.6860198974609,47.7054252624511,-115.52651977539,2150904483
sw,-82.8619995117187,-86.4107894897461,40.2142372131347,-125.834953308105,2150921150
sw,-83.7900390625,-84.7963638305664,37.9874992370605,-128.758605957031,2150937817
sw,-84.8898696899414,-82.8591918945312,55.1384048461914,-133.425399780273,2150954484
sw,-86.111083984375,-80.8931655883789,69.0594711303711,-136.007095336914,2150971151
sw,-87.2647628784179,-78.9062881469726,68.8748245239257,-134.520370483398,2150987818
sw,-88.3424758911132,-76.8222045898437,64.8966598510742,-133.294570922851,2151004485
sw,-89.41650390625,-74.7162399291992,61.3186454772949,-127.68448638916,2151021152
sw,-89.4290466308593,-72.6289367675781,55.8806571960449,-121.944366455078,2151037819
sw,-88.462905883789,-70.6638641357421,45.0707130432128,-107.853187561035,2151054486
sw,-87.6837921142578,-68.9457702636718,30.8792133331298,-90.3250579833984,2151071153
sw,-86.9478988647461,-67.4594650268554,29.4813365936279,-76.5839309692382,2151087820
sw,-86.1294021606445,-66.1520385742187,40.9599800109863,-67.6472396850586,2151104487
sw,-85.1297073364257,-64.9455108642578,58.3674430847168,-65.0288619995117,2151121154
sw,-83.9676895141601,-63.8813743591308,70.9656677246093,-60.6938934326171,2151137821
sw,-82.7308349609375,-63.0856971740722,76.2121963500976,-47.9803428649902,2151154488
sw,-81.5180511474609,-62.6339263916015,74.2363967895507,-29.0020961761474,2151171155
sw,-80.374755859375,-62.4680862426757,68.8818817138671,-12.1020078659057,2151187822
sw,-79.2965774536132,-62.5919227600097,64.0504760742187,5.68981218338012,2151204489
sw,-78.2118072509765,-62.9319229125976,63.6622734069824,17.3047370910644,2151221156
sw,-77.0901870727539,-63.4495429992675,65.6675033569336,23.765266418457,2151237823
sw,-75.9216918945312,-64.2348480224609,68.9589691162109,34.800853729248,2151254490
sw,-74.7010192871093,-65.0600051879882,72.5730819702148,32.0655212402343,2151271157
sw,-73.4268646240234,-65.7902755737304,75.7124938964843,24.8743362426757,2151287824
sw,-72.1397247314453,-66.5149154663086,76.0987014770507,29.9004688262939,2151304491
sw,-71.0274963378906,-67.1349639892578,65.2162017822265,32.5732536315918,2151321158
sw,-70.2214660644531,-67.4131088256836,46.8941993713378,12.7699728012084,2151337825
sw,-69.6616439819336,-67.4791107177734,32.381290435791,-1.66189885139465,2151354492
sw,-69.2830047607421,-67.6951599121093,21.5714492797851,3.21398258209228,2151371159
sw,-69.0538330078125,-68.0582580566406,12.7349224090576,10.1280679702758,2151387826
sw,-68.9348907470703,-68.5176391601562,6.20793771743774,6.67007112503051,2151404493
sw,-68.8677978515625,-69.4366302490234,3.06249260902404,31.9768047332763,2151421160
sw,-68.9123916625976,-70.4575805664062,-3.7855806350708,48.5212860107421,2151437827
sw,-69.2030410766601,-71.0483474731445,-18.7757492065429,20.2039489746093,2151454494
sw,-69.9830551147461,-71.539436340332,-48.3290939331054,10.5614442825317,2151471161
sw,-71.3707809448242,-72.2264709472656,-85.2338943481445,19.6204223632812,2151487828
sw,-73.2640609741211,-73.1675643920898,-116.682838439941,31.8456077575683,2151504495
sw,-75.3903350830078,-74.2352218627929,-132.480407714843,38.9798469543457,2151521162
sw,-77.632080078125,-75.2968521118164,-141.801895141601,39.0631828308105,2151537829
sw,-79.7858276367187,-76.273811340332,-139.179733276367,33.2627868652343,2151554496
sw,-81.8240890502929,-77.2471923828125,-136.116378784179,32.6060905456543,2151571163
sw,-83.8262329101562,-78.2802047729492,-140.815017700195,39.2499885559082,2151587830
sw,-85.6125564575195,-79.3709182739257,-143.291320800781,47.3035163879394,2151604497
sw,-86.7864913940429,-80.4887771606445,-142.235366821289,52.6212844848632,2151621164
sw,-86.5519638061523,-81.6236572265625,-142.415771484375,56.2687721252441,2151637831
sw,-85.1616744995117,-82.6585617065429,-133.528457641601,52.1850929260253,2151654498
sw,-83.397705078125,-83.6773376464843,-124.564620971679,55.7508583068847,2151671165
sw,-81.5557098388671,-84.7886886596679,-114.743354797363,63.856704711914,2151687832
sw,-79.8197250366211,-85.9670639038086,-99.4119262695312,68.9950637817382,2151704499
sw,-78.2945175170898,-87.1179885864257,-82.7696990966796,66.567886352539,2151721166
sw,-76.9109420776367,-88.2326507568359,-74.7926406860351,62.2499618530273,2151737833
sw,-75.5726776123046,-89.3654251098632,-74.7224807739257,58.2668495178222,2151754500
sw,-74.2636795043945,-90.0,-76.9451370239257,54.766975402832,2151771167
sw,-73.035285949707,-88.8216476440429,-75.5923538208007,55.4296340942382,2151787834
sw,-71.9208679199218,-87.7207641601562,-70.6307754516601,58.1064758300781,2151804501
sw,-70.9517364501953,-86.6044311523437,-61.5817222595214,61.7281341552734,2151821168
sw,-70.192756652832,-85.4528350830078,-48.411994934082,65.7970123291015,2151837835
sw,-69.7623825073242,-84.3600006103515,-28.4405040740966,62.717788696289,2151854502
sw,-69.8215103149414,-83.3527679443359,-0.590623199939727,57.1944694519043,2151871169
sw,-70.3126678466796,-82.408447265625,26.9047241210937,52.5396995544433,2151887836
sw,-71.0635604858398,-81.5059051513671,46.0763206481933,49.1524276733398,2151904503
sw,-71.7928466796875,-80.7203826904296,41.6614532470703,41.4546775817871,2151921170
sw,-72.6247482299804,-80.1251220703125,38.9754829406738,31.7468795776367,2151937837
sw,-73.5475463867187,-79.7272415161132,38.0719566345214,23.0306243896484,2151954504
sw,-74.4490432739257,-79.5142364501953,40.8683128356933,13.8828048706054,2151971171
sw,-75.0233612060546,-79.4855041503906,27.7888965606689,3.76054334640502,2151987838
sw,-75.3350448608398,-79.6115341186523,15.4160499572753,-5.90764284133911,2152004505
sw,-75.9199447631836,-79.9380340576171,29.5129985809326,-18.1934070587158,2152021172
sw,-76.957275390625,-80.5694351196289,54.769187927246,-35.693546295166,2152037839
sw,-78.1227722167968,-81.5554962158203,62.1804313659668,-55.3209228515625,2152054506
sw,-79.0643081665039,-82.8165740966796,49.0946388244628,-71.9751815795898,2152071173
sw,-79.5988998413086,-84.3893356323242,27.6523704528808,-96.2185592651367,2152087840
sw,-80.1808929443359,-85.8517837524414,33.6488609313964,-108.066352844238,2152104507
sw,-80.9683685302734,-86.6173629760742,41.0109138488769,-121.258956909179,2152121174
sw,-81.8860092163086,-85.8271179199218,38.7276611328125,-137.063827514648,2152137841
sw,-83.0079345703125,-83.8865432739257,47.8030700683593,-144.310134887695,2152154508
sw,-84.2750244140625,-81.6203536987304,62.0625495910644,-147.80386352539,2152171175
sw,-85.56005859375,-79.2999420166015,71.7108459472656,-148.206420898437,2152187842
sw,-86.7756042480468,-77.0310897827148,73.6072387695312,-143.252883911132,2152204509
sw,-87.8554306030273,-74.8729019165039,69.2117233276367,-133.376571655273,2152221176
sw,-88.8652954101562,-72.8689270019531,68.1256866455078,-121.843910217285,2152237843
sw,-88.9897384643554,-70.8835983276367,70.1090087890625,-116.858024597167,2152254510
sw,-88.089614868164,-68.9908142089843,59.291576385498,-104.048454284667,2152271177
sw,-87.2891387939453,-67.340103149414,39.3155097961425,-86.4723358154296,2152287844
sw,-86.6307678222656,-65.984130859375,29.3353939056396,-70.3895492553711,2152304511
sw,-85.9329299926757,-64.8306503295898,35.2758979797363,-59.7944068908691,2152321178
sw,-85.0513000488281,-63.7529792785644,50.3569374084472,-57.1500244140625,2152337845
sw,-83.9448928833007,-62.7721633911132,65.7205352783203,-55.1047630310058,2152354512
sw,-82.6781234741211,-62.1270103454589,75.8806915283203,-36.5099868774414,2152371179
sw,-81.4401473999023,-61.8400840759277,74.1583023071289,-15.4874219894409,2152387846
sw,-80.2938079833984,-61.8292579650878,68.381233215332,-0.267832040786743,2152404513
sw,-79.2071990966796,-61.9998130798339,64.2379608154296,9.00661754608154,2152421180
sw,-78.127700805664,-62.271183013916,63.4290504455566,11.1665573120117,2152437847
sw,-77.0296859741211,-62.8477897644043,64.4557342529296,26.8139343261718,2152454514
sw,-75.9509201049804,-63.639850616455,63.5703811645507,34.5118293762207,2152471181
sw,-74.8641510009765,-64.5119705200195,64.2061004638671,35.6175346374511,2152487848
sw,-73.7593078613281,-65.4997253417968,65.1611328125,40.8411979675293,2152504515
sw,-72.6634445190429,-66.4209289550781,64.4838409423828,37.2652282714843,2152521182
sw,-71.6971588134765,-67.0591049194336,56.6510963439941,26.105411529541,2152537849
sw,-70.9629821777343,-67.4866714477539,42.7970390319824,20.6141548156738,2152554516
sw,-70.4383087158203,-67.6736450195312,30.4065952301025,1.28991556167602,2152571183
sw,-70.0210571289062,-67.8263931274414,24.0842247009277,-6.12076568603515,2152587850
sw,-69.6689300537109,-68.2470932006836,20.2229633331298,12.2240447998046,2152604517
sw,-69.4651184082031,-68.9452438354492,11.1599292755126,24.0487098693847,2152621184
sw,-69.3784942626953,-69.8718566894531,3.89913773536682,33.5425033569335,2152637851
sw,-69.6597900390625,-70.8816757202148,-18.3930301666259,46.2589378356933,2152654518
sw,-70.4497146606445,-71.4660034179687,-49.132999420166,20.1481895446777,2152671185
sw,-71.6568984985351,-71.8576583862304,-74.7713241577148,4.2954249382019,2152687852
sw,-73.2727737426757,-72.4458312988281,-100.852218627929,13.9944896697998,2152704519
sw,-75.3071365356445,-73.2604904174804,-128.789443969726,23.6972732543945,2152721186
sw,-77.6281280517578,-74.1863708496093,-149.801925659179,29.6493110656738,2152737853
sw,-79.9679336547851,-75.1102294921875,-153.594146728515,30.7180957794189,2152754520
sw,-82.1940078735351,-75.9692230224609,-149.044128417968,28.8675804138183,2152771187
sw,-84.3053588867187,-76.8060989379882,-149.50193786621,29.211462020874,2152787854
sw,-86.0903930664062,-77.6780242919921,-151.581497192382,33.6799354553222,2152804521
sw,-86.7734146118164,-78.5978088378906,-152.869766235351,39.8433990478515,2152821188
sw,-85.7985458374023,-79.5633316040039,-148.500656127929,44.7744979858398,2152837855
sw,-83.9725341796875,-80.5108642578125,-144.53172302246,46.1773681640625,2152854522
sw,-81.9699935913086,-81.3944931030273,-135.580123901367,45.7139091491699,2152871189
sw,-80.0106201171875,-82.2999954223632,-123.696556091308,49.9926872253418,2152887856
sw,-78.2948532104492,-83.3360290527343,-102.553283691406,59.4389152526855,2152904523
sw,-76.8981475830078,-84.5306930541992,-79.8517684936523,69.7713317871093,2152921190
sw,-75.7359390258789,-85.7918319702148,-64.6735382080078,74.1562881469726,2152937857
sw,-74.606086730957,-87.0064392089843,-63.3646621704101,69.6746749877929,2152954524
sw,-73.466812133789,-88.1664505004882,-65.8646240234375,63.4385986328125,2152971191
sw,-72.3606948852539,-89.3538131713867,-66.6713790893554,57.5980644226074,2152987858
sw,-71.3800582885742,-90.0,-62.0331306457519,58.4093551635742,2153004525
sw,-70.5400085449218,-88.8844299316406,-54.4869956970214,60.0092658996582,2153021192
sw,-69.9066848754882,-87.7545852661132,-41.0154724121093,58.7701797485351,2153037859
sw,-69.5115051269531,-86.7208786010742,-26.7916774749755,56.5660438537597,2153054526
sw,-69.4804763793945,-85.7106094360351,-6.74412298202514,56.2062301635742,2153071193
sw,-69.6490783691406,-84.6994323730468,5.67255115509033,55.6942291259765,2153087860
sw,-70.2707748413086,-83.7551574707031,33.4443702697753,50.568058013916,2153104527
sw,-70.7999572753906,-82.9513244628906,25.6500282287597,41.83935546875,2153121194
sw,-71.4512786865234,-82.2724914550781,32.626895904541,35.2237358093261,2153137861
sw,-72.2576446533203,-81.7279663085937,38.6445655822753,29.0593948364257,2153154528
sw,-73.0226211547851,-81.3122406005859,33.1795349121093,23.2654361724853,2153171195
sw,-73.8084564208984,-80.9846115112304,35.9257583618164,19.0777683258056,2153187862
sw,-74.4573593139648,-80.7518463134765,28.4247322082519,13.9353742599487,2153204529
sw,-74.9648971557617,-80.6373291015625,21.8668460845947,7.52433013916015,2153221196
sw,-75.7614059448242,-80.648193359375,42.6142234802246,0.615211606025695,2153237863
sw,-76.88232421875,-80.7731018066406,64.7263107299804,-6.4466586112976,2153254530
sw,-77.9457778930664,-81.1022720336914,56.4166069030761,-19.9439601898193,2153271197
sw,-78.9454879760742,-81.8309097290039,49.3934059143066,-42.5877418518066,2153287864
sw,-79.6701736450195,-82.9386749267578,37.9555702209472,-61.320442199707,2153304531
sw,-80.2505950927734,-84.2858810424804,30.8026714324951,-72.8403854370117,2153321198
sw,-80.9674911499023,-85.811279296875,39.6514434814453,-85.4242324829101,2153337865
sw,-81.822525024414,-87.3152542114257,43.3702316284179,-99.9042053222656,2153354532
sw,-82.7927932739257,-87.6016693115234,45.4245452880859,-107.1240234375,2153371199
sw,-83.8335037231445,-85.9952316284179,50.2533073425293,-111.763175964355,2153387866
sw,-85.0034637451171,-83.8331832885742,63.1404342651367,-115.274154663085,2153404533
sw,-86.2445373535156,-81.6851654052734,71.3204574584961,-120.847251892089,2153421200
sw,-87.4073104858398,-79.6789398193359,68.3183441162109,-123.283042907714,2153437867
sw,-88.5776977539062,-77.7787246704101,67.1245574951171,-122.265960693359,2153454534
sw,-90.0,-75.8809127807617,68.7546615600586,-120.850593566894,2153471201
sw,-89.1555862426757,-74.0017623901367,65.3925552368164,-116.370483398437,2153487868
sw,-88.0023803710937,-72.1053009033203,53.5725364685058,-115.234230041503,2153504535
sw,-87.1662139892578,-70.1930084228515,36.6581840515136,-112.306945800781,2153521202
sw,-86.4717483520507,-68.4870376586914,30.5068759918212,-94.2089767456054,2153537869
sw,-85.7630310058593,-67.0810470581054,36.4608726501464,-74.0101776123046,2153554536
sw,-84.8857269287109,-65.8936462402343,50.7033081054687,-61.4844818115234,2153571203
sw,-83.86279296875,-64.8021774291992,61.0188674926757,-58.7305908203125,2153587870
sw,-82.835220336914,-63.7602996826171,61.487434387207,-59.7253189086914,2153604537
sw,-81.885025024414,-62.8719482421875,56.8945808410644,-53.4447326660156,2153621204
sw,-80.9983978271484,-62.317211151123,52.5351486206054,-33.8842697143554,2153637871
sw,-80.0809936523437,-62.0848770141601,54.2214965820312,-14.8208770751953,2153654538
sw,-79.0253372192382,-62.0941581726074,62.2807998657226,-0.452794104814529,2153671205
sw,-77.840217590332,-62.2140769958496,69.9731140136718,3.76809835433959,2153687872
sw,-76.6322860717773,-62.4293365478515,71.6416778564453,8.17774009704589,2153704539
sw,-75.4719619750976,-62.8061790466308,68.9818344116211,17.7974891662597,2153721206
sw,-74.3177185058593,-63.3047065734863,68.5299987792968,21.168285369873,2153737873
sw,-73.1535415649414,-64.0987930297851,69.1203079223632,36.1816711425781,2153754540
sw,-72.0008544921875,-64.97705078125,68.21533203125,38.2437858581543,2153771207
sw,-70.9044494628906,-65.6780395507812,64.4872131347656,24.6685543060302,2153787874
sw,-69.9837417602539,-66.1388168334961,53.6802291870117,12.2970161437988,2153804541
sw,-69.3729858398437,-66.5129699707031,35.3450050354003,10.5554065704345,2153821208
sw,-69.0394592285156,-66.9531784057617,18.9870643615722,17.4367294311523,2153837875
sw,-68.8694229125976,-67.2564392089843,9.15338039398193,4.95610094070434,2153854542
sw,-68.8001556396484,-67.7409210205078,3.12513017654418,11.0623245239257,2153871209
sw,-68.7551727294921,-68.5529022216796,1.70116937160491,25.5397491455078,2153887876
sw,-68.7812576293945,-69.6725082397461,-2.62357974052429,40.0768737792968,2153904543
sw,-69.0153350830078,-70.8057479858398,-15.234914779663,49.8528137207031,2153921210
sw,-69.6596984863281,-71.5606460571289,-40.1360092163085,30.1262226104736,2153937877
sw,-70.7454299926757,-72.0690536499023,-66.9404678344726,14.0171308517456,2153954544
sw,-72.2750549316406,-72.6707992553711,-94.7485809326171,17.6418132781982,2153971211
sw,-74.2108306884765,-73.5344772338867,-121.211868286132,30.6678028106689,2153987878
sw,-76.4350433349609,-74.5870971679687,-141.142349243164,41.3704833984375,2154004545
sw,-78.7930145263671,-75.654800415039,-152.456115722656,42.8215942382812,2154021212
sw,-81.0742568969726,-76.6277389526367,-151.627365112304,37.3786468505859,2154037879
sw,-83.2246017456054,-77.5909881591796,-151.5966796875,36.8420295715332,2154054546
sw,-85.0950393676757,-78.6223449707031,-150.815994262695,42.6003646850585,2154071213
sw,-86.2938232421875,-79.7095260620117,-147.435256958007,49.061351776123,2154087880
sw,-86.2554016113281,-80.7985229492187,-143.967895507812,51.811538696289,2154104547
sw,-85.0508651733398,-81.7779159545898,-139.189529418945,49.0560989379882,2154121214
sw,-83.3179244995117,-82.6845321655273,-133.967071533203,49.7337265014648,2154137881
sw,-81.4263229370117,-83.621109008789,-126.528900146484,54.4175720214843,2154154548
sw,-79.6419143676757,-84.6497573852539,-110.362449645996,61.058006286621,2154171215
sw,-78.0872116088867,-85.7635345458984,-90.2200012207031,66.2479553222656,2154187882
sw,-76.7584686279296,-86.8890075683593,-74.0113220214843,66.0260925292968,2154204549
sw,-75.4908294677734,-87.9577102661132,-70.9114532470703,60.3110237121582,2154221216
sw,-74.2316818237304,-88.9793243408203,-72.9064483642578,53.0556411743164,2154237883
sw,-73.0182266235351,-90.0,-72.9214706420898,48.9075126647949,2154254550
sw,-71.976318359375,-89.6986923217773,-64.8749084472656,50.4971275329589,2154271217
sw,-71.1940155029296,-88.4322738647461,-50.7631950378418,56.2480964660644,2154287884
sw,-70.6041488647461,-87.2997055053711,-40.0039520263671,61.7356071472168,2154304551
sw,-70.1252822875976,-86.1627349853515,-33.6109237670898,64.4893188476562,2154321218
sw,-69.855354309082,-85.0413665771484,-20.9944801330566,64.375129699707,2154337885
sw,-70.0721817016601,-83.9356002807617,9.54227542877197,63.2607879638671,2154354552
sw,-70.7674407958984,-82.8630065917968,39.2170028686523,60.176959991455,2154371219
sw,-71.6812896728515,-81.959243774414,50.9548950195312,49.0897521972656,2154387886
sw,-72.5545654296875,-81.3187713623046,46.8771324157714,33.1151580810546,2154404553
sw,-73.5126190185546,-80.9116592407226,46.266746520996,20.3226928710937,2154421220
sw,-74.4726257324218,-80.6216583251953,40.1822814941406,15.6881732940673,2154437887
sw,-75.4077911376953,-80.4436264038086,41.1685523986816,11.2102088928222,2154454554
sw,-76.0908203125,-80.4433364868164,32.7478904724121,1.98805058002471,2154471221
sw,-76.6711654663086,-80.5984954833984,30.4019374847412,-6.97842597961425,2154487888
sw,-77.5481872558593,-80.8953018188476,49.5518188476562,-15.6384887695312,2154504555
sw,-78.6206512451171,-81.4530715942382,60.4181060791015,-32.1439476013183,2154521222
sw,-79.634048461914,-82.4334030151367,54.4457626342773,-56.9206848144531,2154537889
sw,-80.4306182861328,-83.8151473999023,45.1169319152832,-78.2041702270507,2154554556
sw,-81.1186981201171,-85.3851852416992,41.5475273132324,-88.7265090942382,2154571223
sw,-81.9332580566406,-86.9416198730468,46.7153816223144,-100.4019241333,2154587890
sw,-82.8861694335937,-87.6439056396484,46.2309494018554,-114.317375183105,2154604557
sw,-83.9240417480468,-86.3207015991211,45.8920936584472,-123.295364379882,2154621224
sw,-85.011116027832,-84.1232070922851,48.7562370300293,-123.326072692871,2154637891
sw,-86.1880798339843,-81.8849716186523,60.5747642517089,-126.135932922363,2154654558
sw,-87.4441146850586,-79.7166748046875,73.5573196411132,-130.71858215332,2154671225
sw,-88.5919494628906,-77.6130752563476,76.7222061157226,-132.507553100585,2154687892
sw,-89.2480087280273,-75.5398712158203,70.7928237915039,-131.528259277343,2154704559
sw,-88.6838912963867,-73.5488739013671,66.5540618896484,-123.993698120117,2154721226
sw,-87.6339645385742,-71.6478729248046,61.0586280822753,-115.947280883789,2154737893
sw,-86.6858901977539,-69.8290252685546,46.6291427612304,-107.714241027832,2154754560
sw,-85.9188919067382,-68.1302185058593,34.7182235717773,-94.919075012207,2154771227
sw,-85.2154998779296,-66.7014923095703,34.3277587890625,-73.8419113159179,2154787894
sw,-84.4251861572265,-65.5795059204101,43.1445007324218,-54.4296989440918,2154804561
sw,-83.4746932983398,-64.6858596801757,55.1930503845214,-42.9562072753906,2154821228
sw,-82.3894424438476,-63.8899536132812,64.9508361816406,-42.1175231933593,2154837895
sw,-81.2472076416015,-63.1705780029296,68.9159927368164,-43.4413681030273,2154854562
sw,-80.1836624145507,-62.6998138427734,63.8948135375976,-31.5320053100585,2154871229
sw,-79.2479934692382,-62.545066833496,55.9407539367675,-13.1538076400756,2154887896
sw,-78.3047714233398,-62.7224388122558,55.9623260498046,7.86216831207275,2154904563
sw,-77.2943115234375,-63.144287109375,59.3435516357421,21.6121406555175,2154921230
sw,-76.219009399414,-63.6544113159179,63.1151428222656,23.4343528747558,2154937897
sw,-75.1087570190429,-64.353515625,65.5797576904296,29.9149990081787,2154954564
sw,-73.926887512207,-65.1724777221679,70.2082290649414,33.8778839111328,2154971231
sw,-72.6812591552734,-66.0321731567382,73.9281997680664,38.1536636352539,2154987898
sw,-71.4240188598632,-66.859634399414,74.4141540527343,37.0334663391113,2155004565
sw,-70.2244262695312,-67.5325851440429,70.7984924316406,31.1999015808105,2155021232
sw,-69.2423019409179,-67.9337615966796,57.642780303955,18.3746585845947,2155037899
sw,-68.5807876586914,-68.224365234375,38.4505081176757,17.372968673706,2155054566
sw,-68.2162933349609,-68.3434982299804,20.7646007537841,-3.13477993011474,2155071233
sw,-68.0505065917968,-68.4701538085937,8.91987800598144,-9.78563404083252,2155087900
sw,-67.9818878173828,-68.8891143798828,3.00364303588867,8.75289535522461,2155104567
sw,-67.9694519042968,-69.5746307373046,-0.517288625240325,20.9298133850097,2155121234
sw,-68.0142745971679,-70.5527648925781,-4.11190271377563,46.7728691101074,2155137901
sw,-68.4575424194336,-71.1668853759765,-28.1942749023437,25.0857963562011,2155154568
sw,-69.5050964355468,-71.6351776123046,-64.6736450195312,13.1248416900634,2155171235
sw,-70.9405364990234,-72.2351837158203,-88.524543762207,15.7046041488647,2155187902
sw,-72.7621231079101,-73.0438766479492,-113.288452148437,27.593334197998,2155204569
sw,-74.889404296875,-73.9802627563476,-134.138946533203,35.2599563598632,2155221236
sw,-77.1578750610351,-74.9957504272461,-145.701034545898,40.2644844055175,2155237903
sw,-79.3710861206054,-75.9604034423828,-144.644149780273,35.4617538452148,2155254570
sw,-81.5270843505859,-76.8957824707031,-144.197402954101,33.7753143310546,2155271237
sw,-83.5868759155273,-77.8619766235351,-144.353713989257,37.2279891967773,2155287904
sw,-85.3905792236328,-78.8921279907226,-142.667648315429,43.1483268737793,2155304571
sw,-86.6261215209961,-79.9504165649414,-141.129425048828,47.0681991577148,2155321238
sw,-86.5342254638671,-80.9719543457031,-140.960144042968,48.6250343322753,2155337905
sw,-85.2495193481445,-81.9123764038086,-132.454711914062,49.4568519592285,2155354572
sw,-83.5982208251953,-82.8549346923828,-120.354202270507,54.3499755859375,2155371239
sw,-81.921272277832,-83.8524780273437,-108.705673217773,59.2408409118652,2155387906
sw,-80.4096069335937,-84.9224090576171,-91.6134948730468,63.6929702758789,2155404573
sw,-79.1365966796875,-86.0212326049804,-73.3444366455078,64.8207244873046,2155421240
sw,-77.973892211914,-87.1090393066406,-65.659423828125,62.6252136230468,2155437907
sw,-76.7711791992187,-88.2094345092773,-69.7182006835937,60.9350471496582,2155454574
sw,-75.5535659790039,-89.3741149902343,-73.3138275146484,59.6212348937988,2155471241
sw,-74.4393234252929,-90.0,-69.3973388671875,61.1686286926269,2155487908
sw,-73.4895248413086,-88.6652908325195,-61.2493324279785,60.8119201660156,2155504575
sw,-72.6438522338867,-87.5720672607421,-56.0355758666992,59.109764099121,2155521242
sw,-71.8142395019531,-86.4935684204101,-56.0080299377441,59.8651275634765,2155537909
sw,-71.0608749389648,-85.4030456542968,-52.9792022705078,61.8327865600585,2155554576
sw,-70.5645370483398,-84.3062896728515,-36.8354377746582,63.1129722595214,2155571243
sw,-70.6722793579101,-83.2238464355468,2.72205853462219,62.3559265136718,2155587910
sw,-71.233154296875,-82.1698989868164,32.2192230224609,60.2054214477539,2155604577
sw,-71.8526535034179,-81.2690505981445,35.5301628112793,50.2357177734375,2155621244
sw,-72.5771255493164,-80.5490493774414,41.6340370178222,39.5578346252441,2155637911
sw,-73.2046966552734,-79.9743423461914,25.9946670532226,31.9532032012939,2155654578
sw,-73.8599395751953,-79.5040512084961,23.8640613555908,27.0049076080322,2155671245
sw,-74.6822052001953,-79.1454391479492,39.748233795166,21.484899520874,2155687912
sw,-75.2679748535156,-78.9124984741211,32.3054275512695,15.111961364746,2155704579
sw,-75.6479415893554,-78.8083267211914,19.8101024627685,7.97137975692749,2155721246
sw,-76.2396392822265,-78.8602142333984,26.6683006286621,-1.76584923267364,2155737913
sw,-77.0712585449218,-79.1473007202148,42.1981086730957,-16.3893451690673,2155754580
sw,-78.1169967651367,-79.7858963012695,56.18550491333,-37.5375061035156,2155771247
sw,-79.0964050292968,-80.8489074707031,55.4340171813964,-61.8823547363281,2155787914
sw,-79.7404022216796,-82.1689758300781,36.2806167602539,-77.3342742919921,2155804581
sw,-80.4053573608398,-83.5524520874023,36.8639335632324,-85.3488998413086,2155821248
sw,-81.2556076049804,-84.9158172607421,44.4321022033691,-98.9850540161132,2155837915
sw,-82.2473449707031,-85.8269271850586,44.7060508728027,-114.382888793945,2155854582
sw,-83.2582550048828,-85.4296264648437,43.5134201049804,-119.626502990722,2155871249
sw,-84.3269119262695,-83.9680786132812,51.7551536560058,-121.636734008789,2155887916
sw,-85.5926971435546,-82.2156829833984,69.2564697265625,-127.658370971679,2155904583
sw,-86.9718551635742,-80.4040832519531,78.9270782470703,-133.130722045898,2155921250
sw,-88.3303604125976,-78.555908203125,78.4946594238281,-132.137268066406,2155937917
sw,-90.0,-76.6717987060546,77.4256362915039,-130.337341308593,2155954584
sw,-89.221923828125,-74.8005294799804,72.7109680175781,-123.460372924804,2155971251
sw,-87.8708190917968,-72.9563217163086,64.5282440185546,-116.778381347656,2155987918
sw,-86.8001022338867,-71.1053237915039,47.9018096923828,-112.918365478515,2156004585
sw,-86.0037994384765,-69.3667373657226,31.7095527648925,-98.8725280761718,2156021252
sw,-85.3309631347656,-67.9277114868164,28.9050579071044,-77.4579162597656,2156037919
sw,-84.5989532470703,-66.7740783691406,39.7219924926757,-61.6672096252441,2156054586
sw,-83.6660919189453,-65.7644882202148,55.9559898376464,-55.9861755371093,2156071253
sw,-82.5009307861328,-64.7720870971679,71.6211013793945,-59.1600723266601,2156087920
sw,-81.2843780517578,-63.8904380798339,74.436538696289,-57.6903457641601,2156104587
sw,-80.1798400878906,-63.2824478149414,66.9336471557617,-43.8426246643066,2156121254
sw,-79.1938171386718,-62.9916267395019,59.1042175292968,-22.8666248321533,2156137921
sw,-78.1703033447265,-63.0324020385742,60.8671569824218,-0.420253247022628,2156154588
sw,-77.0239791870117,-63.3007926940918,67.8570938110351,10.0518703460693,2156171255
sw,-75.7912521362304,-63.6332244873046,73.3327713012695,6.51705837249755,2156187922
sw,-74.4810409545898,-64.248420715332,78.1131439208984,22.3853244781494,2156204589
sw,-73.1621017456054,-65.1104888916015,78.4266128540039,38.6772079467773,2156221256
sw,-71.8100967407226,-65.9379119873046,80.2943954467773,32.3386611938476,2156237923
sw,-70.4624328613281,-66.668586730957,80.0298843383789,22.6426467895507,2156254590
sw,-69.2729873657226,-67.3132247924804,70.4496841430664,24.1224822998046,2156271257
sw,-68.3522033691406,-67.8512725830078,54.223087310791,22.0111656188964,2156287924
sw,-67.7123184204101,-68.1080856323242,37.5826301574707,2.40136742591857,2156304591
sw,-67.290283203125,-68.2031555175781,24.725715637207,-10.8071632385253,2156321258
sw,-67.082160949707,-68.4575271606445,11.8324584960937,0.506393313407898,2156337925
sw,-67.0003204345703,-68.8464050292968,4.09941482543945,6.36074542999267,2156354592
sw,-67.0524749755859,-69.3451232910156,-3.96396732330322,3.32562613487243,2156371259
sw,-67.2775497436523,-70.2958602905273,-14.4390592575073,39.9651565551757,2156387926
sw,-67.7942199707031,-71.0119476318359,-32.3643264770507,33.6343727111816,2156404593
sw,-68.7639236450195,-71.3846130371093,-59.9007682800293,8.64135456085205,2156421260
sw,-70.2132720947265,-71.8906478881836,-89.2216873168945,12.2967901229858,2156437927
sw,-72.0785522460937,-72.658935546875,-115.818931579589,20.8173561096191,2156454594
sw,-74.2916030883789,-73.6159210205078,-139.381301879882,30.392765045166,2156471261
sw,-76.6928634643554,-74.5867385864257,-155.262756347656,32.8656272888183,2156487928
sw,-78.9549865722656,-75.4871749877929,-151.114501953125,33.3092498779296,2156504595
sw,-81.0269012451171,-76.3506546020507,-144.005004882812,32.1171646118164,2156521262
sw,-82.9429779052734,-77.2618637084961,-142.419998168945,34.62109375,2156537929
sw,-84.601089477539,-78.2159194946289,-143.607238769531,37.3397560119628,2156554596
sw,-85.6933441162109,-79.2065200805664,-145.031860351562,41.2861099243164,2156571263
sw,-85.7758026123046,-80.2106246948242,-141.60317993164,45.6662712097168,2156587930
sw,-84.7774124145507,-81.1775512695312,-138.915405273437,48.132396697998,2156604597
sw,-83.1764907836914,-82.1608123779296,-133.696960449218,54.3750610351562,2156621264
sw,-81.388671875,-83.2330551147461,-122.926849365234,62.6588859558105,2156637931
sw,-79.6391830444336,-84.3925552368164,-108.949401855468,68.2434997558593,2156654598
sw,-78.0354309082031,-85.647834777832,-94.9460067749023,73.2514190673828,2156671265
sw,-76.5679855346679,-86.8899536132812,-85.5787506103515,71.3589324951171,2156687932
sw,-75.1805648803711,-88.0381622314453,-80.6166458129882,63.2497520446777,2156704599
sw,-73.8639831542968,-89.1613998413086,-76.7269821166992,54.6540489196777,2156721266
sw,-72.6873931884765,-90.0,-70.0993881225586,53.0431060791015,2156737933
sw,-71.7271881103515,-89.2412719726562,-59.7653312683105,56.6685752868652,2156754600
sw,-70.9510803222656,-88.0745086669921,-50.5505752563476,58.0438499450683,2156771267
sw,-70.3252639770507,-87.0633544921875,-42.1507682800293,55.7952308654785,2156787934
sw,-69.938117980957,-86.1200561523437,-28.3127250671386,53.7399444580078,2156804601
sw,-69.9091033935546,-85.2234497070312,-6.50139474868774,51.0904426574707,2156821268
sw,-70.3921890258789,-84.3326187133789,25.7872829437255,49.8276596069335,2156837935
sw,-71.27099609375,-83.4203491210937,48.6412658691406,49.2293243408203,2156854602
sw,-72.3067245483398,-82.5007705688476,58.2546691894531,48.4837684631347,2156871269
sw,-73.2316818237304,-81.6754379272461,45.6658706665039,43.5370712280273,2156887936
sw,-74.2650527954101,-81.0613708496093,45.0521965026855,33.5806579589843,2156904603
sw,-75.2935714721679,-80.6654205322265,42.4773902893066,22.9604816436767,2156921270
sw,-76.2994384765625,-80.4562301635742,49.7671241760253,13.7730894088745,2156937937
sw,-76.8742141723632,-80.3595352172851,28.1323623657226,8.25133514404296,2156954604
sw,-77.0045089721679,-80.3386306762695,-0.443139165639877,3.52291631698608,2156971271
sw,-77.3965835571289,-80.4194869995117,19.0156803131103,-3.41548919677734,2156987938
sw,-78.147964477539,-80.6713790893554,42.6455650329589,-14.8897800445556,2157004605
sw,-78.9261398315429,-81.2609024047851,49.0331687927246,-35.0946617126464,2157021272
sw,-79.4319305419921,-82.298828125,32.5010223388671,-58.9129486083984,2157037939
sw,-79.8116149902343,-83.6014175415039,22.2364997863769,-71.3756103515625,2157054606
sw,-80.5083389282226,-85.0990371704101,40.3828468322753,-83.706916809082,2157071273
sw,-81.3335418701171,-86.5882110595703,41.6006927490234,-100.612213134765,2157087940
sw,-82.2536468505859,-87.1065979003906,38.8448371887207,-113.698753356933,2157104607
sw,-83.2166442871093,-85.8764038085937,39.088809967041,-117.742378234863,2157121274
sw,-84.2345962524414,-83.9916915893554,47.8288612365722,-120.51594543457,2157137941
sw,-85.3918151855468,-82.0528564453125,64.402587890625,-127.274307250976,2157154608
sw,-86.5705795288086,-80.1199645996093,73.9710235595703,-131.197235107421,2157171275
sw,-87.6136169433593,-78.2005081176757,71.8439483642578,-129.152603149414,2157187942
sw,-88.5366058349609,-76.1885375976562,67.8099365234375,-127.908531188964,2157204609
sw,-89.051887512207,-74.1558532714843,60.991771697998,-122.312721252441,2157221276
sw,-88.5772857666015,-72.1524963378906,51.5297241210937,-114.838813781738,2157237943
sw,-87.7990417480468,-70.2820129394531,38.630744934082,-100.140434265136,2157254610
sw,-87.0955963134765,-68.6349182128906,28.846529006958,-84.842041015625,2157271277
sw,-86.3719406127929,-67.2313156127929,33.3367614746093,-72.1286010742187,2157287944
sw,-85.4787521362304,-65.9609680175781,49.3349800109863,-66.7700500488281,2157304611
sw,-84.345458984375,-64.7260818481445,67.4856033325195,-66.8186798095703,2157321278
sw,-83.0615539550781,-63.6036109924316,77.9464645385742,-63.5318183898925,2157337945
sw,-81.8134994506836,-62.7618560791015,75.6202316284179,-49.4962730407714,2157354612
sw,-80.7106704711914,-62.308853149414,66.0717697143554,-27.4580459594726,2157371279
sw,-79.7409591674804,-62.1884422302246,57.4173507690429,-7.9529914855957,2157387946
sw,-78.8003845214843,-62.3721389770507,55.1419448852539,10.8383684158325,2157404613
sw,-77.8437805175781,-62.5667724609375,55.9655647277832,6.62038421630859,2157421280
sw,-76.7937316894531,-63.0413970947265,61.7605857849121,22.3274173736572,2157437947
sw,-75.6815109252929,-63.8832321166992,65.5355529785156,40.0390739440918,2157454614
sw,-74.5124740600586,-64.6940612792968,68.9581909179687,28.602123260498,2157471281
sw,-73.2490005493164,-65.3670578002929,74.5036087036132,19.1319961547851,2157487948
sw,-71.9113998413086,-66.1326141357421,79.0010833740234,31.7569484710693,2157504615
sw,-70.6133956909179,-66.8262481689453,76.7680358886718,36.2742691040039,2157521282
sw,-69.6030960083007,-67.1216278076171,59.5152778625488,10.976463317871,2157537949
sw,-69.0088424682617,-67.3355407714843,34.4838905334472,6.00498008728027,2157554616
sw,-68.7752151489257,-67.5989303588867,12.7654542922973,1.99631917476654,2157571283
sw,-68.7538757324218,-68.0628509521484,0.0536523163318634,12.3732051849365,2157587950
sw,-68.7942504882812,-68.8244552612304,-3.58594751358032,23.9557209014892,2157604617
sw,-68.8193054199218,-70.0262832641601,-2.65879678726196,50.2864303588867,2157621284
sw,-68.9404296875,-71.0122451782226,-8.52652168273925,44.798469543457,2157637951
sw,-69.5199737548828,-71.5732345581054,-36.2373046875,15.0188703536987,2157654618
sw,-70.6562042236328,-72.0870590209961,-69.8818359375,11.7244987487792,2157671285
sw,-72.2716522216796,-72.8030700683593,-99.4496459960937,23.1304931640625,2157687952
sw,-74.2349395751953,-73.7306213378906,-122.375022888183,33.8131828308105,2157704619
sw,-76.363166809082,-74.7632141113281,-135.184738159179,39.1160583496093,2157721286
sw,-78.5478897094726,-75.7359237670898,-141.592346191406,36.1166877746582,2157737953
sw,-80.6636962890625,-76.6200103759765,-140.937316894531,31.6957359313964,2157754620
sw,-82.7241134643554,-77.517951965332,-144.433288574218,33.7513198852539,2157771287
sw,-84.6335983276367,-78.460823059082,-149.03076171875,37.6192550659179,2157787954
sw,-86.0521163940429,-79.4203720092773,-148.710632324218,41.072265625,2157804621
sw,-86.4235153198242,-80.3062133789062,-144.14158630371,40.1058654785156,2157821288
sw,-85.4419479370117,-81.0784378051757,-141.190063476562,38.1423797607421,2157837955
sw,-83.8107147216796,-81.8066711425781,-130.770904541015,40.1790084838867,2157854622
sw,-82.0812606811523,-82.5575103759765,-115.941658020019,43.4107208251953,2157871289
sw,-80.456184387207,-83.4439926147461,-99.5552062988281,51.88330078125,2157887956
sw,-79.0848693847656,-84.4549713134765,-79.0218505859375,58.9626274108886,2157904623
sw,-77.9544830322265,-85.5067749023437,-62.8496665954589,61.4887161254882,2157921290
sw,-76.840835571289,-86.5345153808593,-62.7282791137695,59.9191055297851,2157937957
sw,-75.597915649414,-87.5130462646484,-72.4025573730468,56.3454513549804,2157954624
sw,-74.338150024414,-88.4667282104492,-75.3426666259765,54.4420318603515,2157971291
sw,-73.2172012329101,-89.3873825073242,-68.9704208374023,56.3308448791503,2157987958
sw,-72.2811050415039,-89.2267074584961,-59.797794342041,61.1863441467285,2158004625
sw,-71.482666015625,-88.0868453979492,-52.7738380432128,67.69140625,2158021292
sw,-70.8407821655273,-86.8250350952148,-44.2312927246093,72.5951385498046,2158037959
sw,-70.4725799560546,-85.5457916259765,-27.7269134521484,73.7334518432617,2158054626
sw,-70.3166351318359,-84.2781677246093,-16.2609729766845,72.7498779296875,2158071293
sw,-70.5271759033203,-83.0167770385742,7.86861276626586,71.4808349609375,2158087960
sw,-71.1144256591796,-81.8474807739257,34.0126457214355,65.2708358764648,2158104627
sw,-71.6845550537109,-80.9540634155273,31.7381038665771,49.0969429016113,2158121294
sw,-72.3673477172851,-80.3649749755859,34.830810546875,32.6932640075683,2158137961
sw,-73.0679092407226,-79.9995422363281,31.5657024383544,21.2509651184082,2158154628
sw,-73.7063980102539,-79.7804641723632,28.2538146972656,13.6167364120483,2158171295
sw,-74.1796188354492,-79.6320648193359,21.7192764282226,9.74186515808105,2158187962
sw,-74.5410842895507,-79.5569381713867,18.639440536499,5.17871332168579,2158204629
sw,-75.0997848510742,-79.5885620117187,28.4629440307617,-1.92798721790313,2158221296
sw,-75.8889541625976,-79.8107833862304,40.9141197204589,-13.6492052078247,2158237963
sw,-76.9021987915039,-80.3313827514648,51.37939453125,-30.8169536590576,2158254630
sw,-78.0105285644531,-81.2655334472656,57.1605987548828,-53.8740310668945,2158271297
sw,-78.7444686889648,-82.5209426879882,38.8689460754394,-72.3222274780273,2158287964
sw,-79.3408050537109,-83.9488372802734,37.2400856018066,-84.865364074707,2158304631
sw,-80.2267227172851,-85.4302749633789,54.89155960083,-98.7575759887695,2158321298
sw,-81.2752380371093,-86.4546966552734,52.5867004394531,-112.776275634765,2158337965
sw,-82.3269348144531,-85.9704208374023,43.8294525146484,-121.010284423828,2158354632
sw,-83.4126892089843,-84.2438812255859,48.0855407714843,-126.760704040527,2158371299
sw,-84.6039886474609,-82.2289581298828,62.3563690185546,-132.737823486328,2158387966
sw,-85.8562698364257,-80.2432174682617,72.373420715332,-140.47964477539,2158404633
sw,-87.0783233642578,-78.3171844482421,76.1679763793945,-137.545303344726,2158421300
sw,-88.2613372802734,-76.3825149536132,77.9372940063476,-131.396713256835,2158437967
sw,-89.0943222045898,-74.4286575317382,75.6451568603515,-124.689842224121,2158454634
sw,-88.5959777832031,-72.4913635253906,68.8531875610351,-119.589317321777,2158471301
sw,-87.6945495605468,-70.5821685791015,52.9221534729003,-114.770759582519,2158487968
sw,-86.9018096923828,-68.737678527832,37.0416069030761,-105.06256866455,2158504635
sw,-86.139533996582,-67.1633605957031,33.9764785766601,-81.7979888916015,2158521302
sw,-85.3378067016601,-65.9245910644531,40.5521087646484,-61.4734115600585,2158537969
sw,-84.4246597290039,-64.9167251586914,52.3791275024414,-51.0934600830078,2158554636
sw,-83.3419189453125,-63.9807472229003,65.9290771484375,-51.9179954528808,2158571303
sw,-82.0740737915039,-63.095287322998,77.6546325683593,-55.2515678405761,2158587970
sw,-80.7567367553711,-62.4002418518066,79.6614685058593,-47.3661651611328,2158604637
sw,-79.549446105957,-62.0268287658691,72.3109436035156,-27.1517372131347,2158621304
sw,-78.4336547851562,-62.0405197143554,66.2162399291992,1.72120833396911,2158637971
sw,-77.2985382080078,-62.1582679748535,67.0421371459961,4.40321445465087,2158654638
sw,-76.0924987792968,-62.2911949157714,71.1830902099609,-0.189509943127632,2158671305
sw,-74.7799682617187,-62.7435646057128,77.5539474487304,18.6653747558593,2158687972
sw,-73.3766784667968,-63.3421630859375,83.0200576782226,25.9130020141601,2158704639
sw,-71.925048828125,-63.9011001586914,85.7644958496093,18.6608657836914,2158721306
sw,-70.6322708129882,-64.5315399169921,76.1944808959961,21.9358596801757,2158737973
sw,-69.6586456298828,-65.2033767700195,57.1431236267089,27.4226684570312,2158754640
sw,-68.9866180419921,-65.699592590332,39.05073928833,18.5851535797119,2158771307
sw,-68.5581817626953,-66.0805511474609,24.4083652496337,10.438865661621,2158787974
sw,-68.3542098999023,-66.404426574707,10.977180480957,2.02806782722473,2158804641
sw,-68.3286437988281,-66.9900512695312,0.321536123752594,17.6756496429443,2158821308
sw,-68.3608474731445,-67.9829559326171,-3.20236802101135,39.4035453796386,2158837975
sw,-68.4355773925781,-69.1363754272461,-5.86847782135009,42.2342414855957,2158854642
sw,-68.6058731079101,-70.2872619628906,-11.8659791946411,45.2460060119628,2158871309
sw,-69.0752487182617,-71.0968856811523,-30.2414760589599,30.7060031890869,2158887976
sw,-70.0429382324218,-71.6287536621093,-60.6758613586425,15.2481927871704,2158904643
sw,-71.5995635986328,-72.2813415527343,-97.459358215332,21.7325706481933,2158921310
sw,-73.5551376342773,-73.2023086547851,-123.880096435546,31.7691059112548,2158937977
sw,-75.6938400268554,-74.2819747924804,-138.221374511718,39.5198440551757,2158954644
sw,-77.9002380371093,-75.2545166015625,-146.716262817382,34.0353164672851,2158971311
sw,-80.0426864624023,-76.1326599121093,-147.632080078125,30.044937133789,2158987978
sw,-82.0661544799804,-77.0087966918945,-147.313842773437,31.175100326538,2159004645
sw,-83.9324645996093,-77.9263000488281,-148.880447387695,35.5469703674316,2159021312
sw,-85.3728485107421,-78.9204711914062,-145.709854125976,43.1085662841796,2159037979
sw,-85.9664840698242,-79.9059295654296,-140.221328735351,44.9869842529296,2159054646
sw,-85.3367919921875,-80.7997207641601,-139.947555541992,43.4386138916015,2159071313
sw,-83.924201965332,-81.6810073852539,-131.986602783203,47.134178161621,2159087980
sw,-82.2195434570312,-82.5925750732421,-123.308166503906,51.7500915527343,2159104647
sw,-80.4885940551757,-83.6224365234375,-110.83715057373,61.1933784484863,2159121314
sw,-78.9223251342773,-84.7564163208007,-92.297737121582,68.0889587402343,2159137981
sw,-77.608154296875,-85.8910598754882,-73.4754180908203,67.7967529296875,2159154648
sw,-76.4089202880859,-86.963394165039,-67.8664627075195,62.383861541748,2159171315
sw,-75.1628189086914,-87.9668350219726,-74.8412551879882,54.8254852294921,2159187982
sw,-73.8960189819336,-88.9489135742187,-79.385009765625,51.2333641052246,2159204649
sw,-72.7028503417968,-90.0,-76.857307434082,50.620548248291,2159221316
sw,-71.6653747558593,-89.3889846801757,-68.143196105957,52.6038398742675,2159237983
sw,-70.8504486083984,-88.3370513916015,-54.3941688537597,54.1309967041015,2159254650
sw,-70.254165649414,-87.3200759887695,-40.9649085998535,56.5925064086914,2159271317
sw,-69.9203033447265,-86.2909698486328,-25.7861232757568,58.6550025939941,2159287984
sw,-69.8684768676757,-85.2741241455078,-10.1499843597412,57.9039726257324,2159304651
sw,-70.2301177978515,-84.2482376098632,18.5513439178466,57.3985404968261,2159321318
sw,-71.017593383789,-83.2236175537109,44.7487030029296,56.1690673828125,2159337985
sw,-71.6190795898437,-82.3373336791992,29.8058223724365,47.5492668151855,2159354652
sw,-72.3310623168945,-81.6572952270507,32.4727706909179,37.0768585205078,2159371319
sw,-73.1202926635742,-81.1369857788086,33.410171508789,29.8790245056152,2159387986
sw,-73.8478317260742,-80.7944259643554,30.2098312377929,20.657485961914,2159404653
sw,-74.3884887695312,-80.6302795410156,21.6451110839843,11.0495834350585,2159421320
sw,-74.7139282226562,-80.6124038696289,10.6640443801879,2.68356561660766,2159437987
sw,-75.1741256713867,-80.7427139282226,21.4596061706542,-6.85921478271484,2159454654
sw,-76.1536407470703,-81.0614395141601,55.25923538208,-18.227252960205,2159471321
sw,-77.299072265625,-81.6509475708007,63.4582290649414,-33.6495056152343,2159487988
sw,-78.4063110351562,-82.4924011230468,58.5135879516601,-47.3863487243652,2159504655
sw,-79.1428451538086,-83.5475158691406,39.4767570495605,-60.5764846801757,2159521322
sw,-79.7125396728515,-84.8380279541015,32.8434791564941,-80.4264602661132,2159537989
sw,-80.4350967407226,-86.0912399291992,41.9643745422363,-99.5043640136718,2159554656
sw,-81.3030242919921,-86.5481567382812,40.5896492004394,-114.834251403808,2159571323
sw,-82.2534408569336,-85.4265441894531,35.9661979675293,-124.324142456054,2159587990
sw,-83.2317504882812,-83.373664855957,40.6138267517089,-128.794723510742,2159604657
sw,-84.3556594848632,-81.1680679321289,58.3837051391601,-133.914657592773,2159621324
sw,-85.6406326293945,-79.0290298461914,74.2036437988281,-137.540588378906,2159637991
sw,-86.9146652221679,-77.0283737182617,76.5761947631836,-133.176345825195,2159654658
sw,-88.1818923950195,-75.0842819213867,75.1421661376953,-130.109420776367,2159671325
sw,-89.5984649658203,-73.1790771484375,71.6831741333007,-125.628684997558,2159687992
sw,-89.2669830322265,-71.3072052001953,67.7519836425781,-119.166145324707,2159704659
sw,-88.0819396972656,-69.4433517456054,51.7578964233398,-114.695587158203,2159721326
sw,-87.2005386352539,-67.7377853393554,31.3914718627929,-98.6913070678711,2159737993
sw,-86.4126968383789,-66.368049621582,29.2814235687255,-73.9926376342773,2159754660
sw,-85.5824356079101,-65.2781524658203,41.2978897094726,-56.5679893493652,2159771327
sw,-84.6187591552734,-64.3345489501953,56.6452369689941,-50.4501914978027,2159787994
sw,-83.4991149902343,-63.4369621276855,70.263198852539,-52.5796585083007,2159804661
sw,-82.2227706909179,-62.6149826049804,81.1676483154296,-54.0385475158691,2159821328
sw,-80.9420166015625,-62.1175193786621,80.228271484375,-36.2655296325683,2159837995
sw,-79.8150100708007,-62.0114860534668,69.0691375732421,-11.5096216201782,2159854662
sw,-78.7290802001953,-62.1709556579589,64.8509140014648,3.55066466331481,2159871329
sw,-77.5893402099609,-62.3358039855957,66.9937896728515,-0.193108215928077,2159887996
sw,-76.409927368164,-62.7580871582031,69.1622848510742,12.8309383392333,2159904663
sw,-75.2569580078125,-63.3317413330078,68.1012344360351,23.1182746887207,2159921330
sw,-74.1252136230468,-63.9443283081054,67.0677032470703,23.9689083099365,2159937997
sw,-72.9683074951171,-64.5237350463867,68.4522705078125,18.4194774627685,2159954664
sw,-71.8422546386718,-65.1029357910156,66.5079574584961,20.3145580291748,2159971331
sw,-70.7814483642578,-65.6151657104492,62.5280723571777,20.3546352386474,2159987998
sw,-69.9066162109375,-65.9033889770507,51.3822555541992,6.36127710342407,2160004665
sw,-69.3315963745117,-66.1428527832031,33.5333099365234,4.46924829483032,2160021332
sw,-69.0703964233398,-66.5521087646484,14.7415189743042,9.84714221954345,2160037999
sw,-68.9919662475586,-67.1830825805664,3.77739310264587,16.0827865600585,2160054666
sw,-68.9227600097656,-68.0897979736328,3.21442818641662,28.2669734954834,2160071333
sw,-68.8060302734375,-69.090103149414,6.06923341751098,31.6480407714843,2160088000
sw,-69.0321044921875,-70.0635604858398,-14.78404712677,37.3206825256347,2160104667
sw,-69.7850570678711,-70.722183227539,-46.9164009094238,21.3157920837402,2160121334
sw,-71.0166091918945,-71.2379684448242,-76.8174591064453,17.5025787353515,2160138001
sw,-72.7572555541992,-71.8140563964843,-109.393692016601,17.7348537445068,2160154668
sw,-74.8555755615234,-72.5845031738281,-133.543792724609,24.0842113494873,2160171335
sw,-77.0751190185546,-73.4602508544921,-144.149993896484,29.8594360351562,2160188002
sw,-79.2800064086914,-74.2833862304687,-146.423767089843,28.2893486022949,2160204669
sw,-81.4789428710937,-75.0558624267578,-152.269989013671,25.6212329864501,2160221336
sw,-83.4965133666992,-75.8718490600586,-152.892822265625,28.6733455657959,2160238003
sw,-85.1483688354492,-76.7501983642578,-151.640045166015,35.2911338806152,2160254670
sw,-86.0690155029296,-77.7003936767578,-149.017227172851,43.4652023315429,2160271337
sw,-85.705451965332,-78.6763076782226,-147.281875610351,47.0571479797363,2160288004
sw,-84.2843017578125,-79.6259536743164,-144.841613769531,48.2625885009765,2160304671
sw,-82.3970794677734,-80.5515899658203,-139.610977172851,50.3394050598144,2160321338
sw,-80.3905944824218,-81.5468139648437,-130.022201538085,57.1059455871582,2160338005
sw,-78.5124740600586,-82.6547698974609,-113.014122009277,65.296646118164,2160354672
sw,-76.8952713012695,-83.8536911010742,-93.7940139770507,71.2676620483398,2160371339
sw,-75.5126647949218,-85.1122436523437,-80.0581588745117,74.7308883666992,2160388006
sw,-74.2356414794921,-86.326675415039,-75.9669418334961,70.5535278320312,2160404673
sw,-73.0040588378906,-87.4471817016601,-76.3657684326171,62.1847190856933,2160421340
sw,-71.8179626464843,-88.4993667602539,-76.2857818603515,55.3761825561523,2160438007
sw,-70.7705841064453,-89.8658294677734,-68.8739700317382,55.7537994384765,2160454674
sw,-70.0322570800781,-90.0,-48.9681167602539,57.675178527832,2160471341
sw,-69.6207656860351,-88.6997451782226,-27.5848598480224,61.0529174804687,2160488008
sw,-69.705093383789,-87.5894622802734,3.4981632232666,61.4490814208984,2160504675
sw,-70.0653610229492,-86.4970321655273,18.6064281463623,61.8626976013183,2160521342
sw,-70.7348480224609,-85.4587783813476,36.8154869079589,58.3042564392089,2160538009
sw,-71.3870391845703,-84.5098114013671,33.390453338623,52.7900009155273,2160554676
sw,-71.9617767333984,-83.644546508789,24.0224704742431,48.1448364257812,2160571343
sw,-72.8532180786132,-82.8622741699218,44.5171318054199,44.258243560791,2160588010
sw,-73.6721801757812,-82.2685852050781,35.6415214538574,33.7102546691894,2160604677
sw,-74.3153915405273,-81.940071105957,23.9397106170654,19.2218780517578,2160621344
sw,-74.7802734375,-81.8884811401367,14.4388303756713,4.28845262527465,2160638011
sw,-75.2357559204101,-82.0576171875,14.8802146911621,-7.37493371963501,2160654678
sw,-76.2166519165039,-82.4829788208007,50.0826568603515,-23.1307735443115,2160671345
sw,-77.5710983276367,-83.3282318115234,73.2697525024414,-48.7188491821289,2160688012
sw,-79.0139083862304,-84.7100219726562,75.4751815795898,-79.2426986694336,2160704679
sw,-80.1456298828125,-86.2120895385742,58.5771980285644,-87.0891723632812,2160721346
sw,-80.6629180908203,-87.54345703125,29.0087966918945,-100.628143310546,2160738013
sw,-81.2199096679687,-87.4351730346679,38.017292022705,-119.075698852539,2160754680
sw,-81.9110946655273,-85.5312118530273,42.6455688476562,-132.393905639648,2160771347
sw,-82.6950302124023,-83.053726196289,34.8736228942871,-133.822204589843,2160788014
sw,-83.6751937866211,-80.5035858154296,40.6235122680664,-131.728088378906,2160804681
sw,-84.656509399414,-78.005744934082,48.0156097412109,-132.103378295898,2160821348
sw,-85.7345581054687,-75.674087524414,61.2551803588867,-129.98387145996,2160838015
sw,-86.9177093505859,-73.4994583129882,68.8629074096679,-129.319778442382,2160854682
sw,-88.1587829589843,-71.4670333862304,71.2446212768554,-123.388572692871,2160871349
sw,-89.4380264282226,-69.5419158935546,69.5618438720703,-117.668846130371,2160888016
sw,-89.2114334106445,-67.6238861083984,70.7674789428711,-117.114181518554,2160904683
sw,-87.7593002319336,-65.8044738769531,71.6314010620117,-109.131271362304,2160921350
sw,-86.5249252319336,-64.1433181762695,59.2662277221679,-95.3655700683593,2160938017
sw,-85.6348419189453,-62.8224563598632,43.1389007568359,-71.078987121582,2160954684
sw,-84.914077758789,-61.900032043457,38.8706703186035,-48.6017570495605,2160971351
sw,-84.1915435791015,-61.2034339904785,43.1025161743164,-37.8191566467285,2160988018
sw,-83.211441040039,-60.5366287231445,60.0108757019043,-41.2970504760742,2161004685
sw,-81.9821090698242,-60.0006294250488,75.5148010253906,-38.8574409484863,2161021352
sw,-80.8467254638671,-59.7246627807617,70.5911712646484,-26.1814842224121,2161038019
sw,-79.9273147583007,-59.6599082946777,57.2750205993652,-14.5426425933837,2161054686
sw,-79.0967788696289,-59.7161598205566,50.8239555358886,-5.88762760162353,2161071353
sw,-78.1431655883789,-59.9320755004882,57.0205421447753,4.18873929977417,2161088020
sw,-77.0875701904296,-60.2913360595703,62.6966361999511,11.410038948059,2161104687
sw,-76.0096893310546,-60.841022491455,64.2022933959961,22.2594146728515,2161121354
sw,-74.9329071044921,-61.3469085693359,64.1412124633789,8.11241436004638,2161138021
sw,-73.8454895019531,-62.0285873413085,64.5345458984375,13.2200717926025,2161154688
sw,-72.7574844360351,-62.8396682739257,64.4558486938476,23.4782905578613,2161171355
sw,-71.7053298950195,-63.5703201293945,62.2246017456054,19.4700489044189,2161188022
sw,-70.8330078125,-64.2744750976562,51.5129966735839,19.6363449096679,2161204689
sw,-70.2257690429687,-65.1830749511718,35.5453376770019,36.4120178222656,2161221356
sw,-69.843765258789,-66.0358810424804,21.9474143981933,27.2680950164794,2161238023
sw,-69.6222305297851,-66.6602325439453,12.3675718307495,9.65688228607177,2161254690
sw,-69.5759811401367,-67.6072845458984,1.8506611585617,30.9460773468017,2161271357
sw,-69.5963592529296,-68.6993560791015,-2.37020182609558,38.2200698852539,2161288024
sw,-69.767463684082,-69.6420288085937,-11.6358785629272,40.8724098205566,2161304691
sw,-70.3545455932617,-70.246711730957,-36.9260330200195,29.7616558074951,2161321358
sw,-71.4383926391601,-70.8193664550781,-67.0949630737304,28.2753753662109,2161338025
sw,-72.9624862670898,-71.6548156738281,-94.70361328125,36.889533996582,2161354692
sw,-74.8431396484375,-72.6346054077148,-118.273796081542,39.0287361145019,2161371359
sw,-76.9614486694336,-73.6543426513671,-135.75064086914,39.0546569824218,2161388026
sw,-79.1307220458984,-74.5959320068359,-145.748458862304,34.0017471313476,2161404693
sw,-81.0869903564453,-75.4695205688476,-143.396652221679,29.8036975860595,2161421360
sw,-82.8127517700195,-76.4024505615234,-144.11766052246,36.6035118103027,2161438027
sw,-84.2242660522461,-77.4006881713867,-142.991394042968,44.9083290100097,2161454694
sw,-85.1880569458007,-78.4032363891601,-144.39224243164,47.2804412841796,2161471361
sw,-85.3359146118164,-79.3394546508789,-143.826568603515,43.6862983703613,2161488028
sw,-84.5349960327148,-80.1706924438476,-140.967681884765,40.2018585205078,2161504695
sw,-83.1260833740234,-80.9451599121093,-130.796722412109,41.3527069091796,2161521362
sw,-81.4764251708984,-81.8066253662109,-120.623107910156,50.193977355957,2161538029
sw,-79.798843383789,-82.7957077026367,-108.503753662109,59.5046424865722,2161554696
sw,-78.2142105102539,-83.88720703125,-94.2363204956054,65.6614074707031,2161571363
sw,-76.7796630859375,-85.0122146606445,-80.9173431396484,66.9522857666015,2161588030
sw,-75.4669799804687,-86.1003723144531,-73.9186172485351,63.6589126586914,2161604697
sw,-74.2521896362304,-87.1228790283203,-71.9533233642578,57.6631965637207,2161621364
sw,-73.0982360839843,-88.0964889526367,-72.5332794189453,52.5467910766601,2161638031
sw,-71.9888000488281,-89.1537399291992,-72.8196640014648,53.0385284423828,2161654698
sw,-70.9830245971679,-90.0,-68.2145309448242,59.3023872375488,2161671365
sw,-70.2216262817382,-89.0960464477539,-52.9039688110351,63.5934944152832,2161688032
sw,-69.6547012329101,-87.8249816894531,-39.0888786315918,67.291389465332,2161704699
sw,-69.2648696899414,-86.6241455078125,-28.8330154418945,68.2122192382812,2161721366
sw,-69.2704315185546,-85.5065689086914,-2.92487502098083,63.9979438781738,2161738033
sw,-69.3851928710937,-84.5005416870117,3.48059201240539,56.9673461914062,2161754700
sw,-69.6736373901367,-83.5584716796875,11.7355136871337,52.6505393981933,2161771367
sw,-70.2051467895507,-82.6735916137695,23.2694568634033,49.5185623168945,2161788034
sw,-71.0806732177734,-81.8769226074218,43.8349609375,44.6470680236816,2161804701
sw,-72.0617218017578,-81.2137451171875,47.3477668762207,37.5525703430175,2161821368
sw,-72.8723831176757,-80.7303466796875,32.0749778747558,28.5743103027343,2161838035
sw,-73.6030502319336,-80.4586334228515,27.3227500915527,17.4636096954345,2161854702
sw,-74.2825393676757,-80.4092102050781,27.165225982666,4.44420576095581,2161871369
sw,-74.8983154296875,-80.5360870361328,25.3919334411621,-6.46786165237426,2161888036
sw,-75.7227325439453,-80.8095703125,36.1164779663085,-15.5165386199951,2161904703
sw,-76.9925842285156,-81.2789764404296,65.2328262329101,-26.5953826904296,2161921370
sw,-78.4859771728515,-82.0898666381836,82.465950012207,-46.1388626098632,2161938037
sw,-79.7097930908203,-83.3459854125976,64.6741790771484,-71.8939590454101,2161954704
sw,-80.4378890991211,-84.8135986328125,37.0067825317382,-85.5902633666992,2161971371
sw,-81.1818771362304,-86.3257064819336,45.7828025817871,-98.2047119140625,2161988038
sw,-82.1613082885742,-87.3757934570312,61.1705055236816,-115.53409576416,2162004705
sw,-83.1402740478515,-86.5997543334961,48.907371520996,-133.682861328125,2162021372
sw,-84.0619506835937,-84.3624649047851,37.0294723510742,-142.566055297851,2162038039
sw,-85.065933227539,-81.7997970581054,45.9572372436523,-145.011642456054,2162054706
sw,-86.2826919555664,-79.3600387573242,66.7372589111328,-143.084823608398,2162071373
sw,-87.6458206176757,-77.1011505126953,78.0757598876953,-139.103210449218,2162088040
sw,-88.9663772583007,-74.9024276733398,73.4494171142578,-141.278030395507,2162104707
sw,-90.0,-72.7520523071289,72.0073547363281,-136.671188354492,2162121374
sw,-88.6222915649414,-70.6322937011718,73.6683654785156,-131.974655151367,2162138041
sw,-87.2104873657226,-68.5710144042968,66.9675216674804,-122.142974853515,2162154708
sw,-86.0364151000976,-66.5975875854492,51.3640594482421,-111.807136535644,2162171375
sw,-85.1310348510742,-64.8718795776367,36.2516784667968,-91.0125732421875,2162188042
sw,-84.3339691162109,-63.5391464233398,37.4813041687011,-63.6384162902832,2162204709
sw,-83.4770126342773,-62.5189361572265,49.4437789916992,-45.5114860534668,2162221376
sw,-82.3340759277343,-61.648941040039,71.3646621704101,-40.360481262207,2162238043
sw,-80.8822555541992,-60.8746147155761,91.3397369384765,-42.5888938903808,2162254710
sw,-79.5060195922851,-60.3708763122558,85.8352737426757,-33.2793350219726,2162271377
sw,-78.4000625610351,-60.1599235534668,67.7696304321289,-18.3794937133789,2162288044
sw,-77.4293060302734,-60.1617813110351,57.9557952880859,-1.84182238578796,2162304711
sw,-76.3855209350586,-60.3722267150878,61.3668251037597,11.4989910125732,2162321378
sw,-75.2819061279296,-60.9209938049316,65.0842666625976,31.5317497253417,2162338045
sw,-74.1488571166992,-61.5370216369628,67.3282012939453,27.5520401000976,2162354712
sw,-72.9572982788086,-62.3347740173339,71.1148376464843,31.8100318908691,2162371379
sw,-71.6930999755859,-63.3022689819335,75.4040374755859,40.268383026123,2162388046
sw,-70.4132537841796,-64.2691879272461,76.0721054077148,41.6495895385742,2162404713
sw,-69.2074279785156,-65.1507797241211,71.4194946289062,37.0102348327636,2162421380
sw,-68.2472076416015,-65.9146652221679,56.5739097595214,30.9877243041992,2162438047
sw,-67.5943832397461,-66.5163345336914,38.2495231628418,23.8104038238525,2162454714
sw,-67.205337524414,-67.0274047851562,22.6296520233154,13.7515115737915,2162471381
sw,-67.0583724975586,-67.5369644165039,8.21778392791748,11.1520500183105,2162488048
sw,-67.0960845947265,-68.3393936157226,-2.8866810798645,27.5016193389892,2162504715
sw,-67.1957626342773,-69.3599853515625,-6.72124624252319,37.8698844909668,2162521382
sw,-67.5088500976562,-70.1852874755859,-19.7653007507324,33.3368682861328,2162538049
sw,-68.3889389038086,-70.5498046875,-54.2853469848632,10.896237373352,2162554716
sw,-69.8850402832031,-70.9992752075195,-92.1375579833984,14.4970016479492,2162571383
sw,-71.6762542724609,-71.7176361083984,-111.373741149902,24.5915451049804,2162588050
sw,-73.7856979370117,-72.6593246459961,-132.458526611328,33.2119560241699,2162604717
sw,-76.1513290405273,-73.6693496704101,-151.012924194335,36.2486610412597,2162621384
sw,-78.4610290527343,-74.6594161987304,-151.920211791992,37.8276672363281,2162638051
sw,-80.5987091064453,-75.6022338867187,-146.94253540039,36.5659561157226,2162654718
sw,-82.5272216796875,-76.5519409179687,-141.839630126953,38.5245208740234,2162671385
sw,-84.230239868164,-77.5445556640625,-140.50503540039,41.3806648254394,2162688052
sw,-85.5018539428711,-78.6079635620117,-143.456604003906,47.1346969604492,2162704719
sw,-85.8412628173828,-79.6808090209961,-140.207275390625,50.4568328857421,2162721386
sw,-85.0421981811523,-80.6794509887695,-138.203903198242,49.9582939147949,2162738053
sw,-83.576789855957,-81.6473922729492,-131.181396484375,52.6194152832031,2162754720
sw,-81.8799209594726,-82.6805038452148,-120.952323913574,59.7682609558105,2162771387
sw,-80.246337890625,-83.7848968505859,-103.80760192871,66.9142990112304,2162788054
sw,-78.799201965332,-84.9268493652343,-87.7925033569336,70.9993057250976,2162804721
sw,-77.4576950073242,-86.0543975830078,-83.0118408203125,69.6788940429687,2162821388
sw,-76.0646743774414,-87.1180572509765,-88.2538757324218,63.3070564270019,2162838055
sw,-74.6841888427734,-88.0640716552734,-87.0146179199218,54.2889328002929,2162854722
sw,-73.4496002197265,-88.937255859375,-77.0610733032226,47.4430236816406,2162871389
sw,-72.4060821533203,-89.8733367919921,-65.2449188232421,47.1472511291503,2162888056
sw,-71.5567092895507,-89.2322998046875,-53.5506019592285,53.297508239746,2162904723
sw,-70.8987197875976,-88.1609115600586,-40.7963027954101,60.3537788391113,2162921390
sw,-70.4604339599609,-87.0362854003906,-27.6462249755859,64.9311218261718,2162938057
sw,-70.4025192260742,-85.9154434204101,-6.92482089996337,65.0672073364257,2162954724
sw,-70.5569458007812,-84.8210067749023,6.41295289993286,63.0949172973632,2162971391
sw,-71.0499267578125,-83.7879562377929,26.6197204589843,58.6834144592285,2162988058
sw,-71.7170944213867,-82.8875732421875,35.3150825500488,50.3773918151855,2163004725
sw,-72.4284439086914,-82.1212463378906,33.4398689270019,42.4389839172363,2163021392
sw,-73.3680801391601,-81.4960327148437,45.9366798400878,34.7562294006347,2163038059
sw,-74.256591796875,-81.088882446289,41.1860542297363,23.489387512207,2163054726
sw,-75.0873870849609,-80.865119934082,38.8131942749023,14.1682615280151,2163071393
sw,-75.7561874389648,-80.7943572998046,30.0888423919677,5.83268022537231,2163088060
sw,-76.4164047241211,-80.9059677124023,30.8852386474609,-5.63163661956787,2163104727
sw,-77.3535537719726,-81.2137832641601,48.8534202575683,-17.7296047210693,2163121394
sw,-78.592300415039,-81.8119964599609,71.0923080444336,-34.6846542358398,2163138061
sw,-79.7405166625976,-82.7629089355468,59.5978622436523,-55.0693817138671,2163154728
sw,-80.3968811035156,-83.9630126953125,27.8374271392822,-71.1105499267578,2163171395
sw,-80.8913116455078,-85.3072738647461,26.858678817749,-86.3743133544921,2163188062
sw,-81.6715698242187,-86.4608306884765,47.4717864990234,-98.4528045654296,2163204729
sw,-82.5500259399414,-86.6082305908203,46.8166542053222,-111.829551696777,2163221396
sw,-83.479621887207,-85.2143096923828,40.3475379943847,-122.189994812011,2163238063
sw,-84.4954757690429,-83.0913314819336,43.06982421875,-128.103134155273,2163254730
sw,-85.601318359375,-80.9120483398437,54.5685653686523,-132.35334777832,2163271397
sw,-86.8009033203125,-78.8477020263671,66.5870590209961,-134.08396911621,2163288064
sw,-87.9571380615234,-76.8948135375976,68.3716659545898,-135.575698852539,2163304731
sw,-89.0662384033203,-74.9500198364257,66.0941543579101,-133.868789672851,2163321398
sw,-89.7915802001953,-73.0249633789062,67.7815856933593,-125.341239929199,2163338065
sw,-88.5013198852539,-71.1151351928711,68.959243774414,-118.030700683593,2163354732
sw,-87.429458618164,-69.2344970703125,53.5445556640625,-109.550636291503,2163371399
sw,-86.6054077148437,-67.5853500366211,36.0226249694824,-88.7036895751953,2163388066
sw,-85.914192199707,-66.2474975585937,29.1669292449951,-69.3522872924804,2163404733
sw,-85.236587524414,-65.178237915039,32.6106338500976,-55.5547485351562,2163421400
sw,-84.4623260498046,-64.2489776611328,43.8427238464355,-50.015022277832,2163438067
sw,-83.4197158813476,-63.3775291442871,63.9593620300293,-50.3229942321777,2163454734
sw,-82.1360855102539,-62.6262779235839,79.2215499877929,-46.707405090332,2163471401
sw,-80.863784790039,-62.1952743530273,77.6522064208984,-29.1620693206787,2163488068
sw,-79.7579193115234,-62.1138038635253,66.6464080810546,-9.83947277069091,2163504735
sw,-78.7653198242187,-62.3775558471679,58.848575592041,13.8420982360839,2163521402
sw,-77.7894287109375,-62.7774772644043,57.1473655700683,20.4854774475097,2163538069
sw,-76.7621536254882,-63.1042556762695,60.1661071777343,6.01574039459228,2163554736
sw,-75.6726760864257,-63.8418617248535,64.3592376708984,29.8343925476074,2163571403
sw,-74.5455627441406,-64.8670120239257,66.6698150634765,47.0891876220703,2163588070
sw,-73.4149856567382,-65.8584899902343,66.6327896118164,42.5644149780273,2163604737
sw,-72.3065795898437,-66.6894607543945,65.1613693237304,29.4394569396972,2163621404
sw,-71.2190628051757,-67.4006881713867,64.0644989013671,27.9536209106445,2163638071
sw,-70.2736892700195,-67.8696899414062,55.6496124267578,18.0204010009765,2163654738
sw,-69.5635452270507,-68.1634292602539,41.5709152221679,10.7911386489868,2163671405
sw,-69.087043762207,-68.4645080566406,27.5894336700439,11.5141611099243,2163688072
sw,-68.7870864868164,-68.6475219726562,17.0247631072998,1.1057596206665,2163704739
sw,-68.6113357543945,-68.8081588745117,9.47059154510498,-5.14837980270385,2163721406
sw,-68.5114364624023,-69.3821182250976,4.83579921722412,12.8415403366088,2163738073
sw,-68.4773406982421,-70.378059387207,0.855907797813415,47.5633468627929,2163754740
sw,-68.5460891723632,-70.9844055175781,-5.37997245788574,25.8026180267334,2163771407
sw,-68.999038696289,-71.3853454589843,-28.4963188171386,10.2424793243408,2163788074
sw,-69.9936370849609,-71.9811477661132,-61.139419555664,16.6964626312255,2163804741
sw,-71.517707824707,-72.7813339233398,-93.6024398803711,25.3291873931884,2163821408
sw,-73.5340347290039,-73.6853103637695,-124.692504882812,30.4649353027343,2163838075
sw,-75.829719543457,-74.6381072998046,-143.709259033203,33.8136291503906,2163854742
sw,-78.1748733520507,-75.5939636230468,-149.000274658203,34.9225769042968,2163871409
sw,-80.3521881103515,-76.5390243530273,-141.374282836914,34.877082824707,2163888076
sw,-82.4252166748046,-77.5007629394531,-139.903259277343,37.2394676208496,2163904743
sw,-84.3127288818359,-78.4896163940429,-135.984054565429,40.3226737976074,2163921410
sw,-85.9068603515625,-79.5037536621093,-133.165954589843,43.0786437988281,2163938077
sw,-86.8323898315429,-80.4556503295898,-131.674179077148,41.4314002990722,2163954744
sw,-86.4296035766601,-81.3141098022461,-130.995086669921,40.273696899414,2163971411
sw,-85.0837478637695,-82.1475982666015,-123.896789550781,44.397045135498,2163988078
sw,-83.4174194335937,-83.0614395141601,-118.055259704589,52.5788841247558,2164004745
sw,-81.7047119140625,-84.0785140991211,-108.424446105957,60.2211036682128,2164021412
sw,-80.1141204833984,-85.1195068359375,-94.9131927490234,60.9651412963867,2164038079
sw,-78.6588897705078,-86.1203155517578,-85.576904296875,56.9677848815918,2164054746
sw,-77.24658203125,-87.1032180786132,-83.2158660888671,53.6500625610351,2164071413
sw,-75.8814468383789,-88.105972290039,-80.1988754272461,53.4158821105957,2164088080
sw,-74.6185302734375,-89.1908493041992,-74.1298904418945,54.4651794433593,2164104747
sw,-73.5374908447265,-90.0,-64.452163696289,55.4881515502929,2164121414
sw,-72.6148605346679,-89.1054077148437,-55.9912147521972,56.4591522216796,2164138081
sw,-71.8394241333007,-87.9447174072265,-47.4568481445312,60.4565467834472,2164154748
sw,-71.2091903686523,-86.8459548950195,-39.6956481933593,61.5400810241699,2164171415
sw,-70.7509765625,-85.8219528198242,-31.0123138427734,58.4099960327148,2164188082
sw,-70.5867309570312,-84.8609619140625,-15.139494895935,54.6669692993164,2164204749
sw,-70.9145202636718,-83.9143981933593,16.805471420288,53.2257690429687,2164221416
sw,-71.7495498657226,-83.021240234375,50.358112335205,49.1192779541015,2164238083
sw,-72.5455627441406,-82.2169189453125,47.7311401367187,43.3553161621093,2164254750
sw,-73.2975692749023,-81.512451171875,39.3100471496582,38.1060905456543,2164271417
sw,-74.0681762695312,-80.912239074707,32.6336555480957,33.8218002319335,2164288084
sw,-74.9610366821289,-80.5304565429687,39.7829704284668,22.3022918701171,2164304751
sw,-75.6340713500976,-80.4464645385742,31.4729290008544,6.30171823501586,2164321418
sw,-75.9579010009765,-80.5973663330078,14.0359659194946,-7.03123521804809,2164338085
sw,-76.3989562988281,-80.9317169189453,21.8322715759277,-17.9450798034667,2164354752
sw,-77.2519149780273,-81.483642578125,49.1004257202148,-30.7285938262939,2164371419
sw,-78.1085891723632,-82.3331756591796,47.9423789978027,-47.8430862426757,2164388086
sw,-78.8584671020507,-83.4737930297851,38.7803077697753,-64.1366424560546,2164404753
sw,-79.5479049682617,-84.8603134155273,38.0774803161621,-79.726089477539,2164421420
sw,-80.3837051391601,-86.3752822875976,52.8252410888671,-97.0335540771484,2164438087
sw,-81.3277893066406,-87.4255752563476,56.9276390075683,-116.028083801269,2164454754
sw,-82.4649353027343,-86.5669250488281,55.8412475585937,-130.265350341796,2164471421
sw,-83.6315155029296,-84.3970260620117,53.4335708618164,-132.997421264648,2164488088
sw,-84.8462600708007,-82.0439910888671,61.6312294006347,-133.883377075195,2164504755
sw,-86.1102752685546,-79.7587661743164,73.9553070068359,-137.836791992187,2164521422
sw,-87.3429565429687,-77.5485458374023,83.2012405395507,-140.562454223632,2164538089
sw,-88.2123947143554,-75.3698654174804,78.0717239379882,-138.52000427246,2164554756
sw,-88.4585876464843,-73.2375946044921,73.8662338256836,-133.010421752929,2164571423
sw,-87.9012756347656,-71.1167373657226,68.7041778564453,-125.275970458984,2164588090
sw,-87.0378646850586,-69.0989074707031,57.8251342773437,-110.25341796875,2164604757
sw,-86.2231750488281,-67.3236007690429,43.8238182067871,-91.9342041015625,2164621424
sw,-85.5093917846679,-65.8445587158203,34.8889999389648,-73.8262329101562,2164638091
sw,-84.7720565795898,-64.5712356567382,39.0326614379882,-62.5283317565918,2164654758
sw,-83.8294067382812,-63.4249649047851,54.8635025024414,-56.7475204467773,2164671425
sw,-82.5861434936523,-62.4236183166503,74.3246536254882,-51.7498397827148,2164688092
sw,-81.127212524414,-61.7282333374023,87.5183334350586,-37.0461997985839,2164704759
sw,-79.67724609375,-61.3782310485839,86.6909561157226,-18.8843517303466,2164721426
sw,-78.442756652832,-61.3782882690429,73.3478698730468,1.46729385852813,2164738093
sw,-77.4325256347656,-61.6583442687988,59.4743766784668,17.289644241333,2164754760
sw,-76.4991226196289,-61.9998664855957,54.5871658325195,15.8520221710205,2164771427
sw,-75.5244064331054,-62.5509147644043,57.0685806274414,24.1020755767822,2164788094
sw,-74.5096893310546,-63.3962097167968,59.6055030822753,38.2272453308105,2164804761
sw,-73.4810180664062,-64.4073410034179,60.4055671691894,43.9502944946289,2164821428
sw,-72.4446945190429,-65.4646530151367,60.880500793457,45.0381736755371,2164838095
sw,-71.3974304199218,-66.454849243164,61.5643196105957,43.095344543457,2164854762
sw,-70.4263000488281,-67.1391448974609,56.9821510314941,29.575942993164,2164871429
sw,-69.7093429565429,-67.5654983520507,41.7309875488281,16.9338703155517,2164888096
sw,-69.3437118530273,-67.8748321533203,20.6491641998291,1.70415163040161,2164904763
sw,-69.278450012207,-68.2799072265625,2.58537864685058,9.09879493713378,2164921430
sw,-69.4088668823242,-68.9586486816406,-9.24224662780761,27.5069427490234,2164938097
sw,-69.6976699829101,-69.8269348144531,-18.8684196472167,38.0555725097656,2164954764
sw,-70.2851181030273,-70.7050628662109,-36.9215240478515,41.2123298645019,2164971431
sw,-71.2982101440429,-71.3371276855468,-62.6759414672851,23.3148307800292,2164988098
sw,-72.8276748657226,-71.9593734741211,-94.7540740966796,17.1844825744628,2165004765
sw,-74.8412933349609,-72.7671966552734,-126.518699645996,25.306131362915,2165021432
sw,-77.0694427490234,-73.8188323974609,-144.212341308593,37.1949844360351,2165038099
sw,-79.3496170043945,-74.8824005126953,-154.609069824218,39.9760704040527,2165054766
sw,-81.5205764770507,-75.8113403320312,-154.9091796875,35.6497535705566,2165071433
sw,-83.5594406127929,-76.7182464599609,-154.066421508789,36.0313606262207,2165088100
sw,-85.3027648925781,-77.6793594360351,-150.547149658203,39.2677421569824,2165104767
sw,-86.2949295043945,-78.725830078125,-148.771072387695,45.1849174499511,2165121434
sw,-85.8841018676757,-79.7877960205078,-144.767700195312,49.2049102783203,2165138101
sw,-84.4329986572265,-80.7289428710937,-134.435165405273,47.4470748901367,2165154768
sw,-82.7276763916015,-81.6381607055664,-120.091491699218,51.7165718078613,2165171435
sw,-81.0419158935546,-82.6339340209961,-107.055770874023,59.7396621704101,2165188102
sw,-79.5524597167968,-83.7428588867187,-88.1890029907226,67.8562469482421,2165204769
sw,-78.3088836669921,-84.9048385620117,-68.5730895996093,72.5173950195312,2165221436
sw,-77.2205505371093,-86.0359268188476,-58.6461715698242,70.1248168945312,2165238103
sw,-76.0238952636718,-87.0348281860351,-68.7167434692382,59.7836685180664,2165254770
sw,-74.6638031005859,-87.9209518432617,-83.3898849487304,51.0059051513671,2165271437
sw,-73.330810546875,-88.7629852294921,-84.9394989013671,49.7532234191894,2165288104
sw,-72.1675186157226,-89.3022689819336,-77.2639541625976,54.2409706115722,2165304771
sw,-71.2641830444336,-88.7027587890625,-62.569034576416,61.478588104248,2165321438
sw,-70.5911178588867,-87.6527328491211,-47.8920936584472,65.1718521118164,2165338105
sw,-70.0389404296875,-86.5371704101562,-39.2995719909668,66.0292053222656,2165354772
sw,-69.7088088989257,-85.4241485595703,-25.7463359832763,65.185920715332,2165371439
sw,-69.9062728881836,-84.3322677612304,9.13699340820312,63.3387756347656,2165388106
sw,-70.5508346557617,-83.3141708374023,41.0194091796875,58.2864227294921,2165404773
sw,-71.3015975952148,-82.4303436279296,45.2705764770507,49.7846298217773,2165421440
sw,-71.8102111816406,-81.7033386230468,24.0766830444335,40.4896163940429,2165438107
sw,-72.4606018066406,-81.1088790893554,29.5042419433593,32.9689064025878,2165454774
sw,-73.2837524414062,-80.6656265258789,35.5551071166992,24.7962989807128,2165471441
sw,-74.1149978637695,-80.3837890625,36.0413551330566,16.5421066284179,2165488108
sw,-74.7324523925781,-80.2721099853515,26.0482959747314,7.78131294250488,2165504775
sw,-75.1794967651367,-80.2978134155273,16.9808101654052,-0.434687703847885,2165521442
sw,-75.8477783203125,-80.4747772216796,29.9419784545898,-10.0931510925292,2165538109
sw,-77.1044692993164,-80.8641967773437,71.4697570800781,-22.8017272949218,2165554776
sw,-78.4471130371093,-81.6601943969726,72.7462310791015,-46.2231864929199,2165571443
sw,-79.3606643676757,-82.8643035888671,39.7162551879882,-69.8279953002929,2165588110
sw,-80.0082321166992,-84.1776580810546,30.333662033081,-78.9737472534179,2165604777
sw,-80.7930603027343,-85.4668045043945,47.9443016052246,-88.6108627319336,2165621444
sw,-81.8017349243164,-86.4433975219726,57.9768333435058,-106.712699890136,2165638111
sw,-82.8761901855468,-86.1334075927734,51.9528884887695,-118.518737792968,2165654778
sw,-83.9908676147461,-84.4874420166015,52.075454711914,-123.91209411621,2165671445
sw,-85.1337738037109,-82.3833847045898,57.690128326416,-127.331008911132,2165688112
sw,-86.3742065429687,-80.2792739868164,68.7703475952148,-132.47915649414,2165704779
sw,-87.7018585205078,-78.2538909912109,76.2994384765625,-133.403533935546,2165721446
sw,-89.014045715332,-76.3188247680664,72.894416809082,-130.10122680664,2165738113
sw,-90.0,-74.3968429565429,68.8081283569336,-127.266723632812,2165754780
sw,-88.746337890625,-72.5146713256836,69.6688537597656,-121.864524841308,2165771447
sw,-87.467041015625,-70.671630859375,63.5390510559082,-115.025756835937,2165788114
sw,-86.4657669067382,-68.8743057250976,47.3056526184082,-107.288330078125,2165804781
sw,-85.6795806884765,-67.2428207397461,34.4557876586914,-90.2740783691406,2165821448
sw,-85.0244903564453,-65.9383773803711,30.2438144683837,-66.1211395263671,2165838115
sw,-84.3467483520507,-64.9370422363281,36.5874519348144,-49.0586051940918,2165854782
sw,-83.5268020629882,-64.1039733886718,48.3459358215332,-43.454116821289,2165871449
sw,-82.4749374389648,-63.328498840332,64.6941757202148,-46.4737319946289,2165888116
sw,-81.3160400390625,-62.7038230895996,71.9774322509765,-43.4477615356445,2165904783
sw,-80.2020263671875,-62.4088058471679,68.5553436279296,-24.5176067352294,2165921450
sw,-79.1846237182617,-62.4837341308593,61.2442016601562,-1.9591029882431,2165938117
sw,-78.2304916381836,-62.9420776367187,56.6865234375,24.6846275329589,2165954784
sw,-77.2609939575195,-63.4575119018554,57.838638305664,27.3872966766357,2165971451
sw,-76.197265625,-63.9582824707031,63.7588653564453,16.96138381958,2165988118
sw,-75.0625610351562,-64.7488174438476,67.5338821411132,30.7232971191406,2166004785
sw,-73.8981018066406,-65.6032562255859,68.8562927246093,35.0233573913574,2166021452
sw,-72.6890029907226,-66.3833847045898,71.4500274658203,28.7856712341308,2166038119
sw,-71.4691390991211,-66.9764633178711,72.1659698486328,17.5226516723632,2166054786
sw,-70.4016952514648,-67.3952255249023,63.1532402038574,14.5688343048095,2166071453
sw,-69.6432800292968,-67.7788925170898,44.8477210998535,15.6093168258667,2166088120
sw,-69.1968002319336,-68.0289993286132,26.3072338104248,-0.256486028432846,2166104787
sw,-69.0222015380859,-68.2137603759765,9.92379474639892,-7.05520725250244,2166121454
sw,-69.0401840209961,-68.7553176879882,-1.8185931444168,14.9905204772949,2166138121
sw,-69.0698776245117,-69.7006378173828,-2.67459893226623,34.9198188781738,2166154788
sw,-69.0926132202148,-70.7460327148437,-2.43918228149414,44.5301208496093,2166171455
sw,-69.5098419189453,-71.4440231323242,-26.4817104339599,28.7784557342529,2166188122
sw,-70.6297988891601,-71.9676361083984,-69.1494674682617,15.0285148620605,2166204789
sw,-72.2148284912109,-72.561050415039,-98.035415649414,14.3673524856567,2166221456
sw,-74.0325317382812,-73.3416366577148,-114.218360900878,21.6059608459472,2166238123
sw,-76.1810073852539,-74.3004989624023,-137.445770263671,33.8691482543945,2166254790
sw,-78.4540634155273,-75.3001632690429,-148.625,40.6233825683593,2166271457
sw,-80.6659317016601,-76.2511749267578,-147.194274902343,38.9749183654785,2166288124
sw,-82.769287109375,-77.2154388427734,-144.546188354492,39.0755615234375,2166304791
sw,-84.6868820190429,-78.2146453857421,-141.780578613281,40.0004577636718,2166321458
sw,-86.2326202392578,-79.2534942626953,-142.93618774414,44.9986610412597,2166338125
sw,-86.7534561157226,-80.3284606933593,-140.921646118164,51.2624168395996,2166354792
sw,-85.8272552490234,-81.3543243408203,-140.239501953125,53.1526336669921,2166371459
sw,-84.1130447387695,-82.3688201904296,-136.344985961914,58.4607772827148,2166388126
sw,-82.1747436523437,-83.382095336914,-130.595397949218,61.3502502441406,2166404793
sw,-80.3019104003906,-84.4035720825195,-116.903198242187,61.5809440612793,2166421460
sw,-78.6650085449218,-85.4573135375976,-96.6331329345703,63.9443473815918,2166438127
sw,-77.2405853271484,-86.5539474487304,-80.5072708129882,66.7648849487304,2166454794
sw,-75.9350967407226,-87.6688003540039,-72.1478729248046,67.4192123413086,2166471461
sw,-74.6845169067382,-88.7191619873046,-69.7067260742187,64.435676574707,2166488128
sw,-73.5093002319336,-89.3785018920898,-67.1785430908203,62.6384773254394,2166504795
sw,-72.5008163452148,-88.6544799804687,-59.8881454467773,65.9197921752929,2166521462
sw,-71.629409790039,-87.4890823364257,-53.5049095153808,69.4486923217773,2166538129
sw,-70.870979309082,-86.2789001464843,-47.438980102539,70.0604171752929,2166554796
sw,-70.3374557495117,-85.1055908203125,-33.6393508911132,67.8483505249023,2166571463
sw,-70.3407211303711,-83.971694946289,-1.48155236244201,65.7511825561523,2166588130
sw,-70.8284759521484,-82.8883209228515,30.1860961914062,62.3594627380371,2166604797
sw,-71.7526092529296,-81.8932037353515,60.9850540161132,56.0479164123535,2166621464
sw,-72.5642471313476,-81.0551452636718,48.7439956665039,45.961326599121,2166638131
sw,-73.4622268676757,-80.3766784667968,44.8858757019043,37.1552543640136,2166654798
sw,-74.4789810180664,-79.8958435058593,45.8597335815429,26.973066329956,2166671465
sw,-75.5319137573242,-79.6420059204101,50.5620689392089,15.0292472839355,2166688132
sw,-76.1927795410156,-79.586311340332,33.6107597351074,4.568932056427,2166704799
sw,-76.5579147338867,-79.7277603149414,17.7491130828857,-6.87419986724853,2166721466
sw,-77.03369140625,-80.0521469116211,19.6891288757324,-17.8296356201171,2166738133
sw,-77.8543472290039,-80.7014541625976,38.3875350952148,-37.2816276550293,2166754800
sw,-78.7746658325195,-81.769660949707,48.274242401123,-61.7589263916015,2166771467
sw,-79.5055847167968,-83.1896591186523,38.5584297180175,-82.8793792724609,2166788134
sw,-80.0049133300781,-84.6681060791015,26.5128955841064,-91.8025436401367,2166804801
sw,-80.633804321289,-85.9714889526367,37.4200706481933,-102.011169433593,2166821468
sw,-81.5518035888671,-86.4507751464843,50.5285148620605,-116.033401489257,2166838135
sw,-82.5663757324218,-85.3543014526367,46.0122261047363,-127.54800415039,2166854802
sw,-83.6679458618164,-83.3510513305664,48.4181594848632,-130.630630493164,2166871469
sw,-84.8618774414062,-81.2013854980468,59.2014503479003,-130.003952026367,2166888136
sw,-86.1303176879882,-79.1433868408203,70.8726959228515,-130.804824829101,2166904803
sw,-87.3572158813476,-77.1936950683593,75.6146850585937,-129.929168701171,2166921470
sw,-88.4097137451171,-75.2920761108398,72.432746887207,-127.956832885742,2166938137
sw,-89.1034393310546,-73.4451217651367,69.2258148193359,-121.03857421875,2166954804
sw,-88.6068878173828,-71.609748840332,65.3826828002929,-115.220649719238,2166971471
sw,-87.6740112304687,-69.7840347290039,53.6256408691406,-107.271354675292,2166988138
sw,-86.8121795654296,-68.1076736450195,41.6000480651855,-90.9390029907226,2167004805
sw,-86.0591583251953,-66.7362747192382,35.1661224365234,-70.0864486694336,2167021472
sw,-85.2916030883789,-65.6905288696289,40.7428665161132,-52.2306785583496,2167038139
sw,-84.3695678710937,-64.8265762329101,54.1659317016601,-45.0243377685546,2167054806
sw,-83.1406784057617,-64.0011978149414,73.9715118408203,-46.8957862854003,2167071473
sw,-81.6673278808593,-63.2161216735839,88.6332168579101,-49.3975677490234,2167088140
sw,-80.2667770385742,-62.6787147521972,83.972900390625,-36.6548538208007,2167104807
sw,-79.0588607788086,-62.4675369262695,71.8841934204101,-18.4795207977294,2167121474
sw,-77.990737915039,-62.5450134277343,63.021255493164,0.190360113978385,2167138141
sw,-76.9428329467773,-62.8494873046875,61.7168807983398,16.018741607666,2167154808
sw,-75.85302734375,-63.1014137268066,64.2306976318359,7.15994548797607,2167171475
sw,-74.7806243896484,-63.7195930480957,63.2580642700195,25.9578304290771,2167188142
sw,-73.7713317871093,-64.4369812011718,59.4512290954589,28.3270034790039,2167204809
sw,-72.7525405883789,-65.1322250366211,59.9711799621582,26.2196598052978,2167221476
sw,-71.6769332885742,-65.8240203857421,63.3354148864746,25.6361980438232,2167238143
sw,-70.658950805664,-66.4389190673828,59.8869705200195,24.9417190551757,2167254810
sw,-69.8275375366211,-66.8824157714843,48.7216644287109,18.5103397369384,2167271477
sw,-69.2540283203125,-67.1791839599609,33.2710227966308,4.55329942703247,2167288144
sw,-68.9505386352539,-67.4836349487304,17.0442771911621,-1.30247664451599,2167304811
sw,-68.8437347412109,-67.9748916625976,5.23956108093261,11.1515607833862,2167321478
sw,-68.8073120117187,-68.6835403442382,0.965952336788177,21.0540676116943,2167338145
sw,-68.7331314086914,-69.6438980102539,3.13240003585815,28.6311244964599,2167354812
sw,-68.816665649414,-70.6641235351562,-6.60774946212768,40.1111755371093,2167371479
sw,-69.373664855957,-71.304931640625,-35.4559783935546,20.8379230499267,2167388146
sw,-70.3980331420898,-71.8252182006836,-64.0906982421875,15.7203874588012,2167404813
sw,-71.8499603271484,-72.4549789428711,-91.3917465209961,18.4974861145019,2167421480
sw,-73.7172546386718,-73.2552108764648,-118.694786071777,23.9768123626709,2167438147
sw,-75.8408889770507,-74.1915206909179,-137.745895385742,32.7257080078125,2167454814
sw,-78.0313262939453,-75.1187438964843,-146.463256835937,34.331256866455,2167471481
sw,-80.1384353637695,-75.982681274414,-145.42349243164,30.8825359344482,2167488148
sw,-82.1330108642578,-76.872817993164,-145.982620239257,33.457218170166,2167504815
sw,-83.890998840332,-77.8157730102539,-144.649017333984,38.3181724548339,2167521482
sw,-85.2359313964843,-78.8235397338867,-143.518142700195,45.6845626831054,2167538149
sw,-85.8119812011718,-79.818603515625,-143.218780517578,47.9731178283691,2167554816
sw,-85.2377853393554,-80.7321853637695,-140.162307739257,46.9806976318359,2167571483
sw,-83.8273391723632,-81.6193389892578,-133.940780639648,48.4334449768066,2167588150
sw,-82.0348663330078,-82.5751647949218,-127.463554382324,53.9488182067871,2167604817
sw,-80.2556762695312,-83.6816787719726,-111.395812988281,64.0060348510742,2167621484
sw,-78.7556915283203,-84.9093780517578,-86.7623138427734,72.2484970092773,2167638151
sw,-77.5845565795898,-86.2209930419921,-65.0009384155273,76.8845748901367,2167654818
sw,-76.523811340332,-87.5428237915039,-60.9104652404785,75.9116058349609,2167671485
sw,-75.3752365112304,-88.8493728637695,-70.2465057373046,70.7379608154296,2167688152
sw,-74.1425704956054,-90.0,-78.4176788330078,63.7311706542968,2167704819
sw,-72.9366226196289,-89.3056411743164,-78.9995574951171,60.4057960510253,2167721486
sw,-71.8442687988281,-88.0594253540039,-73.6118927001953,61.9221687316894,2167738153
sw,-71.0347366333007,-86.9661712646484,-55.8339233398437,59.5054702758789,2167754820
sw,-70.4992294311523,-85.9457092285156,-37.4421768188476,56.750389099121,2167771487
sw,-70.2023849487304,-84.9453048706054,-23.1500644683837,56.0867309570312,2167788154
sw,-70.1028213500976,-83.8899688720703,-13.9056301116943,59.4115829467773,2167804821
sw,-70.4633483886718,-82.8955764770507,16.0955543518066,55.6792945861816,2167821488
sw,-71.0261688232421,-82.0011291503906,28.487319946289,50.5449104309082,2167838155
sw,-71.6484909057617,-81.242561340332,30.0472736358642,42.8714332580566,2167854822
sw,-72.513916015625,-80.6420364379882,43.8853797912597,33.6260375976562,2167871489
sw,-73.2664489746093,-80.2015838623046,30.9949893951416,24.3097610473632,2167888156
sw,-73.9879989624023,-79.9065628051757,27.0906562805175,16.5554313659667,2167904823
sw,-74.6025390625,-79.7602310180664,21.9502601623535,8.66450595855712,2167921490
sw,-75.0856475830078,-79.7808837890625,17.9271450042724,-0.430832982063293,2167938157
sw,-75.8386611938476,-79.9776763916015,37.6229019165039,-11.1866598129272,2167954824
sw,-77.0527572631836,-80.4029846191406,66.8541030883789,-24.6360569000244,2167971491
sw,-78.3067092895507,-81.1052322387695,65.1352920532226,-39.3148612976074,2167988158
sw,-79.3980255126953,-82.1094665527343,53.3548355102539,-54.8075103759765,2168004825
sw,-80.1076965332031,-83.3543014526367,34.8002052307128,-68.4990005493164,2168021492
sw,-80.7638397216796,-84.7769317626953,39.2416496276855,-83.1731643676757,2168038159
sw,-81.5304641723632,-86.2232208251953,49.2516479492187,-103.229331970214,2168054826
sw,-82.3578948974609,-86.8203582763671,40.629051208496,-117.914390563964,2168071493
sw,-83.2767562866211,-85.6613082885742,36.0934829711914,-125.354888916015,2168088160
sw,-84.2953567504882,-83.5500717163086,45.8904953002929,-128.722961425781,2168104827
sw,-85.4343032836914,-81.2997665405273,60.487075805664,-133.907424926757,2168121494
sw,-86.7091369628906,-79.1452407836914,72.4580383300781,-135.126480102539,2168138161
sw,-88.0352706909179,-77.1216049194336,77.3432159423828,-134.327056884765,2168154828
sw,-89.4841384887695,-75.1191253662109,78.9872589111328,-134.494995117187,2168171495
sw,-89.4781112670898,-73.1083755493164,79.0922546386718,-133.012725830078,2168188162
sw,-87.9557952880859,-71.1123046875,75.8479385375976,-128.544815063476,2168204829
sw,-86.8421096801757,-69.14404296875,52.5285682678222,-121.741249084472,2168221496
sw,-85.9699783325195,-67.3436584472656,33.5993843078613,-103.325859069824,2168238163
sw,-85.2096481323242,-65.8666458129882,29.0902023315429,-78.4060363769531,2168254830
sw,-84.454719543457,-64.7038803100586,37.1360092163085,-59.5594978332519,2168271497
sw,-83.5499801635742,-63.7223052978515,54.3048629760742,-50.7511100769043,2168288164
sw,-82.3298263549804,-62.7783737182617,77.2422256469726,-53.0410385131835,2168304831
sw,-80.8258590698242,-61.9766845703125,94.6647109985351,-51.4838714599609,2168321498
sw,-79.3378295898437,-61.5149192810058,92.3449783325195,-33.2957687377929,2168338165
sw,-78.0431213378906,-61.5033493041992,78.7978134155273,-4.15717840194702,2168354832
sw,-76.8751449584961,-61.6732635498046,69.7816772460937,6.88548469543457,2168371499
sw,-75.6551895141601,-61.9299697875976,72.5255661010742,9.23081588745117,2168388166
sw,-74.2951889038086,-62.624454498291,80.6547775268554,33.5896759033203,2168404833
sw,-72.8721466064453,-63.3852500915527,83.9957656860351,33.0779991149902,2168421500
sw,-71.5035400390625,-64.1122436523437,80.576301574707,24.4750576019287,2168438167
sw,-70.3501739501953,-64.7928619384765,68.0021667480468,23.6123828887939,2168454834
sw,-69.5458679199218,-65.4046249389648,47.322410583496,26.7201919555664,2168471501
sw,-69.0694732666015,-66.0262451171875,27.701072692871,26.141695022583,2168488168
sw,-68.803352355957,-66.4676742553711,14.9784307479858,7.60243415832519,2168504835
sw,-68.7358932495117,-66.9495468139648,3.05435037612915,6.5019998550415,2168521502
sw,-68.7991333007812,-67.8608703613281,-4.76273107528686,35.1049613952636,2168538169
sw,-68.9203414916992,-68.9914169311523,-8.27444171905517,44.2615509033203,2168554836
sw,-69.1639556884765,-70.1618423461914,-15.7296714782714,49.0874824523925,2168571503
sw,-69.9490203857421,-70.923095703125,-48.4319305419921,28.7928295135498,2168588170
sw,-71.3514633178711,-71.4248352050781,-85.9698104858398,15.9157953262329,2168604837
sw,-73.2376556396484,-72.0634536743164,-116.524848937988,21.4954471588134,2168621504
sw,-75.4976425170898,-72.9178771972656,-141.846557617187,29.7652645111084,2168638171
sw,-77.9788589477539,-74.0382308959961,-159.288589477539,44.2528648376464,2168654838
sw,-80.450210571289,-75.0962753295898,-164.19595336914,41.9083366394043,2168671505
sw,-82.8054885864257,-75.9828948974609,-164.674575805664,30.3631763458251,2168688172
sw,-84.9115371704101,-76.8883285522461,-166.767929077148,30.4333419799804,2168704839
sw,-86.2360534667968,-77.8501052856445,-164.435241699218,34.5333442687988,2168721506
sw,-86.048095703125,-78.9045639038086,-157.037292480468,44.2571334838867,2168738173
sw,-84.5696716308593,-79.9448623657226,-155.09553527832,48.8917999267578,2168754840
sw,-82.562385559082,-80.9089965820312,-147.17576599121,51.6301536560058,2168771507
sw,-80.4479293823242,-81.8677902221679,-137.808807373046,56.4471855163574,2168788174
sw,-78.4842529296875,-82.9208297729492,-120.399955749511,63.572280883789,2168804841
