Label,Left_Hip_q,Right_Hip_q,Left_Hip_qd,Right_Hip_qd,SampleTimeFine
sts,-33.8978767395019,-46.3595123291015,-116.508483886718,-112.10986328125,840673711
sts,-31.929536819458,-44.5432434082031,-116.465560913085,-110.454978942871,840690378
sts,-29.8873920440673,-42.7105178833007,-120.545570373535,-110.633247375488,840707045
sts,-27.8394470214843,-40.8353271484375,-120.537147521972,-112.936325073242,840723712
sts,-25.7517013549804,-38.9145317077636,-122.867919921875,-115.477462768554,840740379
sts,-23.6110553741455,-36.9188575744628,-126.702209472656,-119.654052734375,840757046
sts,-21.4338340759277,-34.9965019226074,-128.883712768554,-115.413261413574,840773713
sts,-19.3080615997314,-33.1385040283203,-125.332405090332,-111.616470336914,840790380
sts,-17.2731304168701,-31.2420578002929,-120.321884155273,-113.76821899414,840807047
sts,-15.2256288528442,-29.2993812561035,-121.527450561523,-116.555786132812,840823714
sts,-13.1260833740234,-27.3660984039306,-125.399169921875,-116.039398193359,840840381
sts,-11.1366071701049,-25.3982315063476,-119.339904785156,-118.250106811523,840857048
sts,-9.19648742675781,-23.4257946014404,-116.467727661132,-118.784339904785,840873715
sts,-7.30013275146484,-21.5173950195312,-113.826774597167,-114.988189697265,840890382
sts,-5.42829608917236,-19.6732864379882,-112.557075500488,-110.924499511718,840907049
sts,-3.61168336868286,-17.8396663665771,-109.322677612304,-110.008247375488,840923716
sts,-1.87509500980377,-16.045087814331,-104.513496398925,-107.415519714355,840940383
sts,-0.166558668017387,-14.3108434677124,-102.804985046386,-103.50658416748,840957050
sts,1.51239001750946,-12.6481142044067,-101.032279968261,-99.0746383666992,840973717
sts,3.13179993629455,-11.0397300720214,-97.2060394287109,-95.8691864013671,840990384
sts,4.67518901824951,-9.49565124511718,-92.5158233642578,-91.9169235229492,841007051
sts,6.2278504371643,-7.99534273147583,-92.986099243164,-89.009895324707,841023718
sts,7.7496657371521,-6.47757911682128,-91.4728851318359,-89.7642974853515,841040385
sts,9.23113536834716,-4.97204971313476,-89.6158599853515,-88.8305282592773,841057052
sts,10.6305084228515,-3.47734355926513,-85.3736343383789,-88.2726058959961,841073719
sts,11.9691352844238,-2.03750801086425,-81.5703048706054,-85.1538925170898,841090386
sts,13.2846803665161,-0.650094270706176,-80.2386398315429,-82.0586776733398,841107053
sts,14.55051612854,0.682347476482391,-77.273681640625,-78.8501586914062,841123720
sts,15.7760400772094,1.98221588134765,-74.4705429077148,-77.00537109375,841140387
sts,16.9622020721435,3.2757396697998,-71.8992462158203,-76.6956939697265,841157054
sts,18.1140079498291,4.57344913482666,-69.5076446533203,-76.8002700805664,841173721
sts,19.2363395690917,5.89821624755859,-67.5163269042968,-78.0929870605468,841190388
sts,20.3206939697265,7.18809127807617,-65.4337768554687,-75.768798828125,841207055
sts,21.3483066558837,8.43714618682861,-62.184024810791,-73.4982604980468,841223722
sts,22.2823657989501,9.58528232574462,-56.6636238098144,-67.586181640625,841240389
sts,23.1208992004394,10.6162109375,-51.2308959960937,-60.6765937805175,841257056
sts,23.860761642456,11.5437288284301,-45.560676574707,-54.5526847839355,841273723
sts,24.6385898590087,12.4067811965942,-47.631118774414,-50.8511009216308,841290390
sts,25.3155918121337,13.2436981201171,-41.1753730773925,-49.1779098510742,841307057
sts,25.9480667114257,13.9702615737915,-37.8848686218261,-42.7322616577148,841323724
sts,26.5374679565429,14.5881385803222,-35.1134986877441,-36.4686088562011,841340391
sts,27.0378532409667,15.1360578536987,-29.7725734710693,-32.3718681335449,841357058
sts,27.3792915344238,15.5815982818603,-20.8006954193115,-26.4111785888671,841373725
sts,27.7077922821044,15.942979812622,-20.159812927246,-21.7178421020507,841390392
sts,27.9371623992919,16.2302742004394,-14.6176891326904,-17.5162849426269,841407059
sts,28.0540714263916,16.4277553558349,-8.18585777282714,-12.2320547103881,841423726
sts,28.0986919403076,16.524034500122,-4.1686463356018,-6.42517709732055,841440393
sts,28.0594120025634,16.5418090820312,0.466285586357116,-1.96464753150939,841457060
sts,27.9100151062011,16.5062751770019,6.68872785568237,1.12765681743621,841473727
sts,27.6762962341308,16.3826446533203,11.6183586120605,6.3392539024353,841490394
sts,27.3653888702392,16.1865825653076,16.1646404266357,10.6412687301635,841507061
sts,26.9866752624511,15.9235496520996,20.1135463714599,14.8278503417968,841523728
sts,26.5480365753173,15.5848274230957,23.8061580657959,19.5939674377441,841540395
sts,26.0093364715576,15.1480770111083,29.9091396331787,25.5258388519287,841557062
sts,25.3659152984619,14.6280298233032,36.0858345031738,30.436616897583,841573729
sts,24.6529922485351,14.0221185684204,40.1104927062988,35.5540924072265,841590396
sts,23.8630924224853,13.3578567504882,44.5355377197265,38.882755279541,841607063
sts,22.9977111816406,12.6233139038085,48.8019485473632,42.9038696289062,841623730
sts,22.0406112670898,11.7855186462402,54.3404464721679,48.9980278015136,841640397
sts,21.0015411376953,10.845606803894,59.1950149536132,54.8663253784179,841657064
sts,19.8643856048584,9.8147611618042,64.9184265136718,60.0972099304199,841673731
sts,18.6640148162841,8.71476459503173,68.2883758544921,64.1634979248046,841690398
sts,17.3789386749267,7.53789234161376,72.9863586425781,68.8578796386718,841707065
sts,16.0392475128173,6.27210855484008,76.324951171875,74.2881469726562,841723732
sts,14.6642112731933,4.93702554702758,78.4942474365234,78.6260528564453,841740399
sts,13.208493232727,3.55547070503234,83.2258529663086,81.5513458251953,841757066
sts,11.6854639053344,2.11802101135253,87.4036254882812,85.0821151733398,841773733
sts,10.112678527832,0.634630799293518,90.4301986694336,88.0042877197265,841790400
sts,8.48891925811767,-0.901791274547576,93.5909881591796,91.4154357910156,841807067
sts,6.8036766052246,-2.49808549880981,97.5711059570312,95.2774963378906,841823734
sts,5.0748610496521,-4.14184856414794,100.103736877441,98.3604049682617,841840401
sts,3.29266715049743,-5.83026218414306,103.457687377929,101.146041870117,841857068
sts,1.45930683612823,-7.55519676208496,106.911170959472,103.443992614746,841873735
sts,-0.43625608086586,-9.29866218566894,110.704048156738,104.513565063476,841890402
sts,-2.38043189048767,-11.078366279602,113.836044311523,106.6123046875,841907069
sts,-4.39917993545532,-12.8999586105346,118.483375549316,109.140151977539,841923736
sts,-6.46098279953002,-14.7672367095947,121.172218322753,111.787979125976,841940403
sts,-8.56744575500488,-16.6854858398437,123.830963134765,114.610427856445,841957070
sts,-10.7424802780151,-18.6599502563476,127.910171508789,117.827323913574,841973737
sts,-12.8620529174804,-20.6363697052001,124.841873168945,118.208885192871,841990404
sts,-15.0136613845825,-22.631814956665,126.522956848144,119.690376281738,842007071
sts,-17.1802139282226,-24.6548519134521,127.429504394531,121.943138122558,842023738
sts,-19.4006519317626,-26.6914958953857,130.739166259765,123.307754516601,842040405
sts,-21.6318683624267,-28.8503837585449,131.57046508789,130.111221313476,842057072
sts,-23.8325119018554,-30.9337081909179,130.125503540039,126.571319580078,842073739
sts,-26.0550651550292,-32.9788818359375,131.89842224121,124.726196289062,842090406
sts,-28.3115501403808,-35.0708999633789,133.831008911132,127.737915039062,842107073
sts,-30.5997905731201,-37.1473541259765,135.481567382812,126.778953552246,842123740
sts,-32.9406433105468,-39.24658203125,139.188217163085,128.367309570312,842140407
sts,-35.25679397583,-41.4598197937011,137.574935913085,135.040100097656,842157074
sts,-37.5714378356933,-43.5104751586914,137.058929443359,125.19620513916,842173741
sts,-39.9304046630859,-45.4890937805175,138.644897460937,120.15835571289,842190408
sts,-42.4048500061035,-47.5161323547363,145.028869628906,121.954803466796,842207075
sts,-44.8645210266113,-49.4996147155761,143.578506469726,118.709587097167,842223742
sts,-47.3385009765625,-51.5794105529785,144.669662475585,125.182518005371,842240409
sts,-49.7348861694335,-53.6954765319824,139.494308471679,128.926437377929,842257076
sts,-52.0495300292968,-55.7496223449707,134.334320068359,126.089981079101,842273743
sts,-54.1958770751953,-57.6933364868164,124.890792846679,119.281440734863,842290410
sts,-56.123291015625,-59.5887069702148,113.054458618164,116.366004943847,842307077
sts,-57.8314361572265,-61.4221496582031,97.8011932373046,113.36058807373,842323744
sts,-59.3710289001464,-63.1746673583984,84.1137542724609,109.690849304199,842340411
sts,-60.8887863159179,-64.761604309082,82.2727584838867,99.3074493408203,842357078
sts,-62.304515838623,-66.1886215209961,76.9029312133789,88.7720184326171,842373745
sts,-63.6134452819824,-67.4873886108398,72.0494155883789,80.0621185302734,842390412
sts,-64.693374633789,-68.7365570068359,59.6739425659179,76.196174621582,842407079
sts,-65.6121063232421,-69.9090728759765,51.0624694824218,70.366828918457,842423746
sts,-66.4701690673828,-70.8716964721679,48.7558441162109,57.870849609375,842440413
sts,-67.1556777954101,-71.6086730957031,38.2567062377929,48.0644073486328,842457080
sts,-67.6843719482421,-72.1350326538086,29.2411270141601,38.6409339904785,842473747
sts,-68.1155395507812,-72.5954666137695,24.4172897338867,33.8140220642089,842490414
sts,-68.463638305664,-73.0777359008789,20.3703308105468,30.8391551971435,842507081
sts,-68.6964416503906,-73.5531539916992,14.0233058929443,27.4186840057373,842523748
sts,-68.8247680664062,-73.9200820922851,7.63395118713378,21.5587520599365,842540415
sts,-68.9325714111328,-74.1771850585937,4.94498682022094,15.8911561965942,842557082
sts,-69.0229797363281,-74.4338226318359,2.64198303222656,16.2163333892822,842573749
sts,-69.1904830932617,-74.7081832885742,8.72566604614257,16.5584545135498,842590416
sts,-69.3411483764648,-74.90625,8.07000732421875,11.5896883010864,842607083
sts,-69.3660583496093,-74.9627075195312,-0.18921385705471,2.18899679183959,842623750
sts,-69.3939971923828,-74.9967269897461,0.398706525564193,1.27317535877227,842640417
sts,-69.499755859375,-75.1253585815429,4.79744529724121,7.91711044311523,842657084
sts,-69.6223373413086,-75.3135223388671,5.75278520584106,11.7134342193603,842673751
sts,-69.6949615478515,-75.4236145019531,3.0012514591217,6.5979299545288,842690418
sts,-69.6971359252929,-75.4425964355468,-1.57997047901153,1.20891308784484,842707085
sts,-69.6660232543945,-75.4704360961914,-3.75046753883361,1.76029062271118,842723752
sts,-69.6221008300781,-75.5088653564453,-4.65012693405151,1.68053317070007,842740419
sts,-69.5327224731445,-75.4809341430664,-7.1833381652832,-2.3497986793518,842757086
sts,-69.3843994140625,-75.3824310302734,-10.627007484436,-6.71969747543335,842773753
sts,-69.1714401245117,-75.292236328125,-14.347541809082,-6.68049764633178,842790420
sts,-68.9191284179687,-75.2135543823242,-16.3981113433837,-7.15649843215942,842807087
sts,-68.6624145507812,-75.0699920654296,-16.5669860839843,-10.7643871307373,842823754
sts,-68.3956451416015,-74.8746261596679,-17.6952438354492,-11.9430665969848,842840421
sts,-68.1781387329101,-74.7038116455078,-14.9896783828735,-10.2563028335571,842857088
sts,-68.0093383789062,-74.5406723022461,-12.86128616333,-11.011658668518,842873755
sts,-67.8460540771484,-74.3188934326171,-13.2264699935913,-15.5444231033325,842890422
sts,-67.6229171752929,-74.0292434692382,-17.5572471618652,-19.7214908599853,842907089
sts,-67.3294601440429,-73.7069854736328,-22.1718349456787,-21.4353218078613,842923756
sts,-66.9644699096679,-73.3220443725586,-26.9243278503417,-24.5287475585937,842940423
sts,-66.5001068115234,-72.8403930664062,-33.7207794189453,-30.3315906524658,842957090
sts,-65.9864959716796,-72.2704086303711,-36.0007553100585,-36.472053527832,842973757
sts,-65.3798141479492,-71.655517578125,-40.3620529174804,-40.1748924255371,842990424
sts,-64.6217651367187,-71.0205001831054,-48.1321334838867,-42.6611862182617,843007091
sts,-63.80415725708,-70.3567657470703,-50.7334060668945,-45.398094177246,843023758
sts,-62.8583259582519,-69.653091430664,-58.5370903015136,-47.9670104980468,843040425
sts,-61.7569580078125,-68.8704528808593,-66.9321212768554,-51.2401161193847,843057092
sts,-60.4662170410156,-67.9950485229492,-77.7064208984375,-56.80078125,843073759
sts,-59.0967369079589,-66.9561233520507,-82.964111328125,-67.9140090942382,843090426
sts,-57.6933517456054,-65.7519226074218,-85.9638900756836,-78.3082046508789,843107093
sts,-56.1655769348144,-64.4393234252929,-93.0281677246093,-85.9753265380859,843123760
sts,-54.4829635620117,-63.0678100585937,-100.903678894042,-89.7501373291015,843140427
sts,-52.6865272521972,-61.6482925415039,-106.061599731445,-91.3323669433593,843157094
sts,-50.7263298034668,-60.15327835083,-114.587684631347,-96.0703735351562,843173761
sts,-48.7083282470703,-58.5535926818847,-118.643669128417,-103.226020812988,843190428
sts,-46.7043647766113,-56.7453422546386,-119.471412658691,-115.482994079589,843207095
sts,-44.637279510498,-54.7768058776855,-123.264045715332,-124.85538482666,843223762
sts,-42.4442024230957,-52.8701553344726,-129.075149536132,-119.921577453613,843240429
sts,-40.1954345703125,-51.0571479797363,-131.257431030273,-113.991264343261,843257096
sts,-37.8653221130371,-49.2701797485351,-136.217514038085,-112.165878295898,843273763
sts,-35.5934944152832,-47.3946266174316,-133.570327758789,-116.661163330078,843290430
sts,-33.3851928710937,-45.4568099975585,-130.777694702148,-119.50316619873,843307097
sts,-31.1347789764404,-43.5625305175781,-132.634017944335,-115.762435913085,843323764
sts,-28.8695468902587,-41.6876144409179,-133.674423217773,-113.891326904296,843340431
sts,-26.7562656402587,-39.8084564208984,-124.373321533203,-114.189720153808,843357098
sts,-24.756628036499,-38.0122642517089,-117.638427734375,-109.137870788574,843373765
sts,-22.8041381835937,-36.2436485290527,-114.944023132324,-106.603958129882,843390432
sts,-20.8296527862548,-34.4474449157714,-116.661766052246,-107.671226501464,843407099
sts,-18.8139820098876,-32.6143417358398,-119.894859313964,-109.7666015625,843423766
sts,-16.8443489074707,-30.7565155029296,-117.534881591796,-111.168228149414,843440433
sts,-14.9822406768798,-28.9788951873779,-110.77571105957,-106.789855957031,843457100
sts,-13.1874132156372,-27.2204360961914,-106.636291503906,-105.50682067871,843473767
sts,-11.4028062820434,-25.553897857666,-106.457397460937,-99.5441284179687,843490434
sts,-9.61894989013671,-23.893159866333,-106.517715454101,-99.3453598022461,843507101
sts,-7.82243299484252,-22.1105785369873,-107.039443969726,-107.163787841796,843523768
sts,-6.06190204620361,-20.3937530517578,-104.994094848632,-103.747665405273,843540435
sts,-4.39794588088989,-18.722053527832,-99.5714645385742,-101.146606445312,843557102
sts,-2.8338623046875,-17.1094875335693,-94.5374984741211,-97.6085052490234,843573769
sts,-1.31541574001312,-15.5574226379394,-92.0174713134765,-93.7124710083007,843590436
sts,0.131873980164527,-14.0522699356079,-87.1289520263671,-90.5453491210937,843607103
sts,1.51084351539611,-12.5913190841674,-82.5753173828125,-87.6630096435546,843623770
sts,2.84282302856445,-11.1961679458618,-79.431900024414,-83.3598937988281,843640437
sts,4.1420521736145,-9.87633037567138,-77.4561614990234,-78.4339218139648,843657104
sts,5.4331088066101,-8.59770965576171,-77.0003967285156,-75.9545745849609,843673771
sts,6.67767906188964,-7.3361849784851,-74.431655883789,-74.9540328979492,843690438
sts,7.90405225753784,-6.08350038528442,-73.1035461425781,-74.3685226440429,843707105
sts,9.126389503479,-4.84349870681762,-72.3406372070312,-73.4735031127929,843723772
sts,10.3212957382202,-3.58222675323486,-70.2725601196289,-74.58203125,843740439
sts,11.4868965148925,-2.31570243835449,-68.7731323242187,-74.8917465209961,843757106
sts,12.63325881958,-1.05467200279235,-68.2862396240234,-74.7984542846679,843773773
sts,13.7554874420166,0.254305243492126,-67.6513595581054,-77.7292327880859,843790440
sts,14.8291177749633,1.53299367427825,-65.6510314941406,-76.1428833007812,843807107
sts,15.8342704772949,2.63616061210632,-61.9313468933105,-65.460693359375,843823774
sts,16.8139324188232,3.77387118339538,-60.1525955200195,-67.088882446289,843840441
sts,17.7424850463867,4.88046503067016,-57.09765625,-65.4057006835937,843857108
sts,18.5998001098632,5.95753049850463,-53.01070022583,-63.7402763366699,843873775
sts,19.4244766235351,6.98652601242065,-51.1119308471679,-60.732192993164,843890442
sts,20.1757507324218,7.9538550376892,-46.9994964599609,-56.9661331176757,843907109
sts,20.8740882873535,8.88185310363769,-43.6436576843261,-54.7983131408691,843923776
sts,21.5574302673339,9.80278491973877,-42.3083114624023,-54.4344367980957,843940443
sts,22.2489871978759,10.6745805740356,-42.4212074279785,-51.3005714416503,843957110
sts,22.9067020416259,11.4772405624389,-40.4757575988769,-47.0945892333984,843973777
sts,23.5283336639404,12.2511539459228,-38.7599258422851,-45.4450531005859,843990444
sts,24.1490802764892,12.9974851608276,-38.636001586914,-43.6441345214843,844007111
sts,24.7330875396728,13.8135843276977,-35.9715118408203,-47.6677627563476,844023778
sts,25.27854347229,14.5115671157836,-33.5201873779296,-41.1372718811035,844040445
sts,25.7733612060546,15.0915613174438,-30.6390228271484,-34.3580436706543,844057112
sts,26.2140789031982,15.6099195480346,-27.445894241333,-30.8335342407226,844073779
sts,26.5946598052978,16.0887641906738,-23.9818744659423,-28.3701305389404,844090446
sts,26.8680973052978,16.5519962310791,-17.459825515747,-27.3246231079101,844107113
sts,27.0728607177734,16.9504947662353,-13.2426958084106,-23.4972286224365,844123780
sts,27.208568572998,17.2524471282959,-9.32439708709716,-17.7356147766113,844140447
sts,27.236400604248,17.4707374572753,-3.09104323387146,-12.8700561523437,844157114
sts,27.129280090332,17.5310649871826,4.75747632980346,-3.71669793128967,844173781
sts,26.9017124176025,17.433795928955,11.7886066436767,5.08416748046875,844190448
sts,26.5467300415039,17.1628742218017,19.0210170745849,14.9581623077392,844207115
sts,26.0836009979248,16.7121353149414,25.2030715942382,25.1508541107177,844223782
sts,25.5146293640136,16.0750617980957,31.3728485107421,35.8382606506347,844240449
sts,24.8283576965332,15.3304777145385,38.2167053222656,42.051887512207,844257116
sts,24.03977394104,14.5900220870971,44.3563613891601,41.9261627197265,844273783
sts,23.159080505371,13.7099056243896,49.9034767150878,50.1319770812988,844290450
sts,22.1793804168701,12.734972000122,55.7873458862304,55.9105148315429,844307117
sts,21.1042766571044,11.6847028732299,61.5414199829101,60.3483619689941,844323784
sts,19.9625797271728,10.5715999603271,65.4252243041992,64.0338973999023,844340451
sts,18.7569999694824,9.37998390197753,69.3865432739257,68.9070053100586,844357118
sts,17.4907245635986,8.1227741241455,72.8996658325195,72.9583663940429,844373785
sts,16.1432418823242,6.7869062423706,77.573257446289,77.6634674072265,844390452
sts,14.7415428161621,5.39478397369384,80.7278137207031,81.1266250610351,844407119
sts,13.300498008728,3.95263862609863,83.0229339599609,84.2165374755859,844423786
sts,11.8209581375122,2.46904206275939,85.359748840332,86.8123245239257,844440453
sts,10.2919435501098,0.953760921955108,88.0768737792968,88.7807006835937,844457120
sts,8.73269939422607,-0.599165618419647,89.8086318969726,91.0959243774414,844473787
sts,7.13795948028564,-2.17711567878723,92.2552032470703,92.7718811035156,844490454
sts,5.49690103530883,-3.78000307083129,95.4438705444336,94.4676132202148,844507121
sts,3.80746030807495,-5.39685535430908,98.3804168701171,95.5585098266601,844523788
sts,2.07874536514282,-7.02877902984619,100.60627746582,96.7660140991211,844540455
sts,0.306127101182937,-8.69026660919189,103.348556518554,98.7827529907226,844557122
sts,-1.53869318962097,-10.3815584182739,107.717025756835,100.903457641601,844573789
sts,-3.43434262275695,-12.1201848983764,110.865371704101,103.935806274414,844590456
sts,-5.3620548248291,-13.8808326721191,112.636962890625,105.462898254394,844607123
sts,-7.27066373825073,-15.6595420837402,111.09171295166,106.85610961914,844623790
sts,-9.22936534881591,-17.4374599456787,114.085800170898,107.065673828125,844640457
sts,-11.2263288497924,-19.2232704162597,116.544532775878,107.83893585205,844657124
sts,-13.2586421966552,-21.0562477111816,118.802520751953,110.838745117187,844673791
sts,-15.3650369644165,-22.9173946380615,123.626686096191,112.85984802246,844690458
sts,-17.5257778167724,-24.8200798034667,127.019866943359,115.915878295898,844707125
sts,-19.652452468872,-26.7725200653076,125.273658752441,119.176681518554,844723792
sts,-21.7782001495361,-28.8881721496582,125.636795043945,128.966400146484,844740459
sts,-23.9150600433349,-30.8427104949951,127.34806060791,120.540084838867,844757126
sts,-26.0778369903564,-32.8485679626464,130.349807739257,124.136329650878,844773793
sts,-28.307315826416,-34.8667602539062,135.41177368164,125.279396057128,844790460
sts,-30.5419692993164,-36.9124908447265,135.459762573242,127.367782592773,844807127
sts,-32.7847290039062,-39.0601043701171,135.615173339843,133.263626098632,844823794
sts,-35.0650520324707,-41.1654815673828,138.594680786132,130.948928833007,844840461
sts,-37.4482116699218,-43.3093109130859,145.36570739746,133.259185791015,844857128
sts,-39.8678512573242,-45.5009727478027,146.632705688476,135.614166259765,844873795
sts,-42.3463592529296,-47.6531181335449,149.501113891601,132.918884277343,844890462
sts,-44.7657852172851,-49.8025856018066,144.656005859375,132.563110351562,844907129
sts,-47.0548782348632,-51.9414825439453,134.40884399414,132.043304443359,844923796
sts,-49.2848739624023,-54.0910415649414,128.707595825195,132.472351074218,844940463
sts,-51.4570732116699,-56.2059249877929,124.240379333496,129.95767211914,844957130
sts,-53.4941101074218,-58.2455673217773,116.205863952636,125.280586242675,844973797
sts,-55.3412895202636,-60.156639099121,105.017288208007,117.625007629394,844990464
sts,-56.9638328552246,-61.8448219299316,91.0168762207031,105.142738342285,845007131
sts,-58.4121208190918,-63.342845916748,80.2168807983398,93.3817520141601,845023798
sts,-59.7189826965332,-64.6393508911132,71.789077758789,80.9236907958984,845040465
sts,-60.9259719848632,-65.8064880371093,66.4464645385742,72.6343154907226,845057132
sts,-62.0521736145019,-66.8814849853515,62.688549041748,65.8586502075195,845073799
sts,-63.0487785339355,-67.8232879638671,56.9878692626953,56.6043395996093,845090466
sts,-63.9024124145507,-68.643081665039,49.837833404541,50.041145324707,845107133
sts,-64.614761352539,-69.3920440673828,41.4726638793945,46.139793395996,845123800
sts,-65.1643142700195,-70.1613616943359,32.1213150024414,46.2069358825683,845140467
sts,-65.639907836914,-70.8692474365234,28.5514698028564,41.0976295471191,845157134
sts,-66.0594482421875,-71.4398193359375,26.2950611114501,34.1442070007324,845173801
sts,-66.4445190429687,-71.9082641601562,24.6276397705078,30.2587833404541,845190468
sts,-66.7900772094726,-72.3550567626953,21.1717815399169,28.4042682647705,845207135
sts,-67.0835266113281,-72.7494049072265,17.3297691345214,24.2390594482421,845223802
sts,-67.3590545654296,-73.0557556152343,15.910659790039,19.7243976593017,845240469
sts,-67.6438827514648,-73.2959289550781,15.6109504699707,17.2846908569335,845257136
sts,-67.9159393310546,-73.5547485351562,14.2199592590332,16.8559474945068,845273803
sts,-68.1274185180664,-73.8115463256836,10.1821870803833,14.7368354797363,845290470
sts,-68.1966171264648,-73.9451446533203,1.1611840724945,7.33124589920043,845307137
sts,-68.1143035888671,-73.9660720825195,-6.76066493988037,1.1832171678543,845323804
sts,-68.0762939453125,-74.0243606567382,-2.56030988693237,3.18497109413146,845340471
sts,-68.1010437011718,-74.1659851074218,0.0990635231137275,7.32148838043212,845357138
sts,-68.1161651611328,-74.2526550292968,-1.28641080856323,4.15382957458496,845373805
sts,-68.1210708618164,-74.1916885375976,-1.42731940746307,-3.76459288597106,845390472
sts,-68.085334777832,-74.0504531860351,-3.70270109176635,-6.76181840896606,845407139
sts,-68.029914855957,-73.9729309082031,-4.35568284988403,-2.8369402885437,845423806
sts,-67.9925155639648,-73.9999389648437,-3.93599438667297,1.16339981555938,845440473
sts,-67.9175262451171,-74.0410919189453,-6.81674432754516,0.536682248115539,845457140
sts,-67.7895889282226,-74.031265258789,-10.0959281921386,-3.62044501304626,845473807
sts,-67.6169815063476,-74.0073013305664,-12.5219783782958,-3.67597317695617,845490474
sts,-67.4633331298828,-74.0059127807617,-11.5432004928588,-0.878400266170501,845507141
sts,-67.2812881469726,-73.985610961914,-13.7240867614746,-1.5905487537384,845523808
sts,-67.0742950439453,-73.8507766723632,-14.7246160507202,-8.73201179504394,845540475
sts,-66.84912109375,-73.6168746948242,-15.687536239624,-15.014497756958,845557142
sts,-66.6458892822265,-73.4083480834961,-15.1176776885986,-14.853853225708,845573809
sts,-66.3967514038086,-73.2530899047851,-18.5992755889892,-12.9856357574462,845590476
sts,-65.9990005493164,-73.05615234375,-27.1103076934814,-15.2236928939819,845607143
sts,-65.5335464477539,-72.7968215942382,-29.5152549743652,-17.8487434387207,845623810
sts,-65.0843429565429,-72.5660934448242,-27.625,-16.9992351531982,845640477
sts,-64.6845932006836,-72.357925415039,-24.7119808197021,-17.3912906646728,845657144
sts,-64.2970352172851,-72.023078918457,-24.8633422851562,-24.527868270874,845673811
sts,-63.844627380371,-71.4979095458984,-29.9789409637451,-34.3398704528808,845690478
sts,-63.3143920898437,-70.9054641723632,-35.5284004211425,-38.4578170776367,845707145
sts,-62.7330284118652,-70.3747940063476,-39.6892318725585,-36.0587768554687,845723812
sts,-62.0944519042968,-69.9065704345703,-43.5549774169921,-34.4779624938964,845740479
sts,-61.2940826416015,-69.362190246582,-52.7847175598144,-40.4923858642578,845757146
sts,-60.3408851623535,-68.6203308105468,-61.5472717285156,-51.3978729248046,845773813
sts,-59.1858444213867,-67.6612396240234,-74.1854705810546,-62.3337059020996,845790480
sts,-57.8695449829101,-66.5429992675781,-84.3306655883789,-71.4351196289062,845807147
sts,-56.3841819763183,-65.3279113769531,-93.9109191894531,-78.1572647094726,845823814
sts,-54.6306991577148,-64.0396652221679,-108.183372497558,-84.2623748779296,845840481
sts,-52.6390953063964,-62.6231231689453,-120.210006713867,-92.0028686523437,845857148
sts,-50.5832824707031,-60.9463233947753,-121.20539855957,-107.221786499023,845873815
sts,-48.3967933654785,-59.0207862854003,-127.491889953613,-120.78271484375,845890482
sts,-46.2269058227539,-57.1178741455078,-126.620681762695,-117.656501770019,845907149
sts,-44.1355781555175,-55.3226509094238,-123.442184448242,-110.95718383789,845923816
sts,-42.0794448852539,-53.5725326538085,-122.115409851074,-110.125541687011,845940483
sts,-39.909008026123,-51.7793579101562,-129.164321899414,-114.222671508789,845957150
sts,-37.7177047729492,-49.9622001647949,-129.952041625976,-114.870384216308,845973817
sts,-35.6520271301269,-48.1403198242187,-123.680809020996,-114.767181396484,845990484
sts,-33.7017593383789,-46.3186950683593,-117.48762512207,-114.745170593261,846007151
sts,-31.7933940887451,-44.5355224609375,-113.139892578125,-112.362724304199,846023818
sts,-29.8955402374267,-42.7745971679687,-110.950279235839,-110.054473876953,846040485
sts,-27.9417381286621,-41.0340614318847,-114.522216796875,-107.052093505859,846057152
sts,-25.9559383392334,-39.3396987915039,-116.735694885253,-103.029426574707,846073819
sts,-24.0273265838623,-37.642951965332,-112.800819396972,-102.835548400878,846090486
sts,-22.1498298645019,-35.8231620788574,-110.217140197753,-109.823341369628,846107153
sts,-20.3498973846435,-33.9203796386718,-106.296958923339,-114.119400024414,846123820
sts,-18.5462570190429,-32.1255302429199,-106.905227661132,-107.001434326171,846140487
sts,-16.7747631072998,-30.3740215301513,-104.299972534179,-103.963676452636,846157154
sts,-15.0171422958374,-28.6606254577636,-103.313728332519,-101.841209411621,846173821
sts,-13.1906118392944,-26.9273986816406,-108.068244934082,-103.389404296875,846190488
sts,-11.3845500946044,-25.2075901031494,-107.379272460937,-102.709091186523,846207155
sts,-9.62508869171142,-23.5546779632568,-105.334640502929,-98.7633972167968,846223822
sts,-7.93010568618774,-21.9563484191894,-101.838760375976,-95.9157638549804,846240489
sts,-6.27587270736694,-20.378454208374,-99.4984436035156,-95.4946670532226,846257156
sts,-4.61064291000366,-18.7804698944091,-100.419631958007,-97.5115280151367,846273823
sts,-2.91087317466735,-17.1940593719482,-102.563102722167,-96.9231948852539,846290490
sts,-1.21961724758148,-15.6611318588256,-101.601661682128,-93.7003326416015,846307157
sts,0.458081781864166,-14.1678037643432,-100.909950256347,-91.1572341918945,846323824
sts,2.02410840988159,-12.7125415802001,-93.8767776489257,-88.2798156738281,846340491
sts,3.5214569568634,-11.2468070983886,-89.3500518798828,-87.8094100952148,846357158
sts,5.01763010025024,-9.68415451049804,-89.4910583496093,-92.2564163208007,846373825
sts,6.4251708984375,-8.30041122436523,-84.1710891723632,-81.3467788696289,846390492
sts,7.77416324615478,-6.9792513847351,-80.8381423950195,-77.6096420288086,846407159
sts,9.03055763244628,-5.68715763092041,-75.4506149291992,-76.1335372924804,846423826
sts,10.217170715332,-4.40006351470947,-71.4191055297851,-76.113410949707,846440493
sts,11.3913307189941,-3.12167620658874,-70.8825378417968,-75.6762008666992,846457160
sts,12.517388343811,-1.88599777221679,-68.3047256469726,-73.1776504516601,846473827
sts,13.5997037887573,-0.668260276317596,-65.9288482666015,-72.4204483032226,846490494
sts,14.634464263916,0.549259185791015,-63.0648727416992,-72.9517211914062,846507161
sts,15.6355056762695,1.79173493385314,-61.2443199157714,-75.1363677978515,846523828
sts,16.6171913146972,3.03584361076355,-60.0966072082519,-75.4963073730468,846540495
sts,17.6398315429687,4.19164943695068,-62.3046379089355,-70.1636505126953,846557162
sts,18.639455795288,5.24737167358398,-60.731346130371,-64.16943359375,846573829
sts,19.6018657684326,6.31559896469116,-58.2126770019531,-64.5428009033203,846590496
sts,20.5339488983154,7.42957925796508,-55.5506172180175,-66.8326950073242,846607163
sts,21.4717216491699,8.47440910339355,-55.2942543029785,-62.5400009155273,846623830
sts,22.3535842895507,9.48302173614502,-52.1384391784668,-60.2483139038085,846640497
sts,23.2166080474853,10.4561157226562,-51.0531425476074,-57.8604316711425,846657164
sts,24.0520668029785,11.3685464859008,-49.0380706787109,-53.9728889465332,846673831
sts,24.8373508453369,12.2314128875732,-46.0116806030273,-50.8709716796875,846690498
sts,25.530626296997,13.0422019958496,-40.474365234375,-47.8987731933593,846707165
sts,26.1991996765136,13.8006067276,-39.1996765136718,-45.012939453125,846723832
sts,26.9102230072021,14.5301504135131,-41.7343521118164,-43.5287399291992,846740499
sts,27.5301132202148,15.2010231018066,-36.7368125915527,-40.0320243835449,846757166
sts,28.0956420898437,15.8125810623168,-34.068862915039,-36.3404693603515,846773833
sts,28.6314048767089,16.4022331237792,-32.4606590270996,-34.9122734069824,846790500
sts,29.1131496429443,17.0035896301269,-29.3045234680175,-35.2186431884765,846807167
sts,29.5601921081542,17.6641330718994,-27.1383819580078,-38.312702178955,846823834
sts,29.9573497772216,18.2675552368164,-24.1006317138671,-34.9947280883789,846840501
sts,30.3191699981689,18.8308734893798,-22.2116413116455,-32.8544311523437,846857168
sts,30.6037616729736,19.3622913360595,-18.0169525146484,-31.0794467926025,846873835
sts,30.8158092498779,19.7816696166992,-13.9646787643432,-24.4116458892822,846890502
sts,30.9437007904052,20.0789947509765,-9.22621059417724,-17.3383331298828,846907169
sts,30.9384593963623,20.2456264495849,-1.35661494731903,-9.88347053527832,846923836
sts,30.7844009399414,20.2362766265869,7.12840747833251,0.0160271469503641,846940503
sts,30.4951190948486,20.0721015930175,14.5228281021118,8.61937522888183,846957170
sts,30.1084022521972,19.7477359771728,19.9559955596923,17.7975025177001,846973837
sts,29.6285552978515,19.2323207855224,24.8563861846923,28.9840965270996,846990504
sts,29.0586261749267,18.5473842620849,29.8189334869384,39.1484642028808,847007171
sts,28.4017753601074,17.7351665496826,34.694766998291,46.6264152526855,847023838
sts,27.6608982086181,17.0105514526367,40.0263404846191,41.9530639648437,847040505
sts,26.8272438049316,16.1802024841308,45.5433731079101,48.3037147521972,847057172
sts,25.9017143249511,15.2717723846435,50.870922088623,53.0855293273925,847073839
sts,24.8815059661865,14.3040962219238,56.3312492370605,57.0120086669921,847090506
sts,23.7784080505371,13.2628755569458,61.2380828857421,61.7044982910156,847107173
sts,22.5934867858886,12.1680927276611,66.1217727661132,64.9181518554687,847123840
sts,21.3353042602539,11.005952835083,70.6918411254882,68.9975280761718,847140507
sts,20.0456466674804,9.77121543884277,72.8310394287109,73.420539855957,847157174
sts,18.7024402618408,8.46390342712402,76.0085983276367,77.5972671508789,847173841
sts,17.2846927642822,7.0896897315979,80.2849807739257,81.4508590698242,847190508
sts,15.7960453033447,5.65342187881469,84.4961242675781,85.0296554565429,847207175
sts,14.2517023086547,4.15982770919799,87.3804473876953,88.2196044921875,847223842
sts,12.6420335769653,2.61612010002136,91.1161804199218,91.0069122314453,847240509
sts,10.9376964569091,1.04210305213928,96.5007247924804,92.6769256591796,847257176
sts,9.14410781860351,-0.581103980541229,101.49526977539,95.5101242065429,847273843
sts,7.29278707504272,-2.26922583580017,104.476692199707,99.34765625,847290510
sts,5.42512559890747,-3.99258160591125,105.301773071289,101.505477905273,847307177
sts,3.50340247154235,-5.75678396224975,108.451133728027,104.127006530761,847323844
sts,1.52400875091552,-7.56342649459838,112.488334655761,107.048950195312,847340511
sts,-0.515687108039856,-9.40601444244384,116.32201385498,109.928565979003,847357178
sts,-2.62210845947265,-11.3353996276855,120.900291442871,115.745223999023,847373845
sts,-4.78987503051757,-13.3094396591186,124.682441711425,118.664009094238,847390512
sts,-6.9822826385498,-15.2994375228881,127.086547851562,119.942962646484,847407179
sts,-9.16112995147705,-17.3029041290283,127.301177978515,121.47045135498,847423846
sts,-11.3082199096679,-19.3166217803955,126.573692321777,122.775932312011,847440513
sts,-13.4535160064697,-21.3314914703369,127.5126953125,123.267021179199,847457180
sts,-15.6403255462646,-23.3239955902099,130.786972045898,122.251823425292,847473847
sts,-17.8343124389648,-25.3489551544189,131.277450561523,124.233848571777,847490514
sts,-20.075698852539,-27.4111919403076,134.303268432617,126.302436828613,847507181
sts,-22.3254737854003,-29.625825881958,135.720306396484,135.309173583984,847523848
sts,-24.5917110443115,-31.6808147430419,136.439987182617,125.974670410156,847540515
sts,-26.8426094055175,-33.8210983276367,134.929794311523,130.731018066406,847557182
sts,-29.0687046051025,-35.984748840332,132.722671508789,132.03807067871,847573849
sts,-31.3376903533935,-38.1594848632812,135.574645996093,132.528137207031,847590516
sts,-33.6112670898437,-40.3691825866699,135.771942138671,134.313858032226,847607183
sts,-35.8864631652832,-42.6302604675293,134.65315246582,137.766662597656,847623850
sts,-38.2118644714355,-44.8794937133789,136.840621948242,137.930252075195,847640517
sts,-40.6037826538085,-47.0975341796875,140.957427978515,136.543334960937,847657184
sts,-42.9725532531738,-49.3095779418945,140.076202392578,136.47410583496,847673851
sts,-45.3012504577636,-51.4953804016113,138.186706542968,134.5673828125,847690518
sts,-47.5816574096679,-53.705337524414,134.91828918457,135.824523925781,847707185
sts,-49.8249549865722,-55.9289817810058,130.928756713867,137.033126831054,847723852
sts,-52.0770416259765,-58.0868034362793,129.421981811523,133.576873779296,847740519
sts,-54.2567405700683,-60.1207656860351,124.41047668457,126.139419555664,847757186
sts,-56.2656440734863,-61.9958114624023,113.676330566406,117.539115905761,847773853
sts,-58.0602684020996,-63.7256469726562,100.337974548339,108.867835998535,847790520
sts,-59.66646194458,-65.3861465454101,89.2646179199218,102.957557678222,847807187
sts,-61.0879135131835,-66.8999786376953,79.1651000976562,92.4958877563476,847823854
sts,-62.3083381652832,-68.2212371826171,68.431640625,80.5638351440429,847840521
sts,-63.3379859924316,-69.344741821289,59.2166481018066,69.1681365966796,847857188
sts,-64.1780319213867,-70.2766494750976,48.847915649414,58.1893196105957,847873855
sts,-64.8403701782226,-70.9871673583984,39.4603996276855,46.159870147705,847890522
sts,-65.3877944946289,-71.5226974487304,34.0394630432128,35.5165748596191,847907189
sts,-65.878677368164,-71.9477081298828,31.4320430755615,27.8290729522705,847923856
sts,-66.3006896972656,-72.2948913574218,27.2991561889648,22.1956672668457,847940523
sts,-66.5706481933593,-72.5542831420898,18.617971420288,16.5418834686279,847957190
sts,-66.7468719482421,-72.8260040283203,13.3706769943237,16.7932720184326,847973857
sts,-66.9009399414062,-73.1727752685546,11.0725660324096,21.1267280578613,847990524
sts,-67.0468978881836,-73.5161895751953,9.35453605651855,22.1591167449951,848007191
sts,-67.1722717285156,-73.7401962280273,7.99632024765014,16.000093460083,848023858
sts,-67.2928924560546,-73.8969192504882,7.72514486312866,12.1784152984619,848040525
sts,-67.500732421875,-74.1477432250976,11.7273645401,15.4048681259155,848057192
sts,-67.7015609741211,-74.4432830810546,10.0033197402954,15.6249713897705,848073859
sts,-67.8143844604492,-74.6090240478515,4.35333347320556,7.40229940414428,848090526
sts,-67.80810546875,-74.5748596191406,-2.23100733757019,-2.89001154899597,848107193
sts,-67.7547988891601,-74.5009689331054,-4.73298406600952,-4.82074880599975,848123860
sts,-67.7095108032226,-74.4603729248046,-3.77211022377014,-2.31829524040222,848140527
sts,-67.6644515991211,-74.432258605957,-3.55079078674316,-0.744100153446197,848157194
sts,-67.6075820922851,-74.3920364379882,-3.21632742881774,-1.45518624782562,848173861
sts,-67.5462036132812,-74.4317016601562,-3.80091285705566,1.87899386882781,848190528
sts,-67.4818801879882,-74.4931411743164,-5.25096225738525,2.29557156562805,848207195
sts,-67.3424911499023,-74.5097732543945,-9.87710666656494,0.0729897916316986,848223862
sts,-67.1522445678711,-74.4651718139648,-12.2595252990722,-2.64937758445739,848240529
sts,-66.9621429443359,-74.4232635498046,-11.6400556564331,-2.56197452545166,848257196
sts,-66.8570327758789,-74.3889465332031,-7.46505260467529,-3.64458513259887,848273863
sts,-66.8355102539062,-74.3237152099609,-3.5005395412445,-6.69280624389648,848290530
sts,-66.8483047485351,-74.2255477905273,-1.42721664905548,-8.31585884094238,848307197
sts,-66.8092498779296,-74.1393966674804,-4.30315113067626,-7.27511119842529,848323864
sts,-66.69677734375,-74.0863494873046,-8.8821792602539,-4.78381299972534,848340531
sts,-66.5568237304687,-74.0191040039062,-10.3626470565795,-4.85164737701416,848357198
sts,-66.4222412109375,-73.9163589477539,-9.43711757659912,-6.62023115158081,848373865
sts,-66.2731628417968,-73.783576965332,-10.2784452438354,-9.15328979492187,848390532
sts,-66.1372909545898,-73.62548828125,-9.78578281402587,-11.2074308395385,848407199
sts,-65.9764709472656,-73.4378356933593,-11.8133764266967,-12.9633493423461,848423866
sts,-65.7959899902343,-73.2139663696289,-13.0429401397705,-15.1624002456665,848440533
sts,-65.5665283203125,-72.9601135253906,-15.8842029571533,-17.4203872680664,848457200
sts,-65.2802429199218,-72.6904373168945,-18.5640449523925,-18.7824993133544,848473867
sts,-64.9543914794921,-72.4474639892578,-21.0008964538574,-17.1983489990234,848490534
sts,-64.5776290893554,-72.1987152099609,-25.0590877532959,-17.2937488555908,848507201
sts,-64.1450271606445,-71.9007186889648,-29.200210571289,-20.3354988098144,848523868
sts,-63.700885772705,-71.5307312011718,-30.6644458770751,-25.8667736053466,848540535
sts,-63.2654190063476,-71.0717163085937,-31.1123790740966,-32.5881958007812,848557202
sts,-62.753074645996,-70.494888305664,-35.9231986999511,-40.7046661376953,848573869
sts,-62.06196975708,-69.7407608032226,-45.2065620422363,-51.7686042785644,848590536
sts,-61.1997032165527,-68.7101440429687,-53.9603385925293,-65.5821914672851,848607203
sts,-60.2357864379882,-67.5814056396484,-59.747444152832,-69.5646667480468,848623870
sts,-59.197883605957,-66.5102310180664,-63.1365890502929,-66.6984100341796,848640537
sts,-58.0352363586425,-65.5181045532226,-70.3288421630859,-63.2566719055175,848657204
sts,-56.7193260192871,-64.4855117797851,-79.9894180297851,-67.9168624877929,848673871
sts,-55.2751579284668,-63.3643913269043,-85.8279495239257,-73.760139465332,848690538
sts,-53.710147857666,-62.2162017822265,-90.4986190795898,-75.3375473022461,848707205
sts,-52.0092544555664,-61.0486946105957,-97.9672317504882,-76.8765869140625,848723872
sts,-50.2369308471679,-59.7317199707031,-104.027366638183,-85.9034042358398,848740539
sts,-48.3618431091308,-58.2948951721191,-113.442573547363,-94.1012420654296,848757206
sts,-46.486961364746,-56.649803161621,-114.581672668457,-106.7587890625,848773873
sts,-44.580581665039,-54.8276557922363,-116.925109863281,-115.853233337402,848790540
sts,-42.5598258972168,-52.9859390258789,-122.566200256347,-115.261764526367,848807207
sts,-40.403335571289,-51.1775016784668,-129.533126831054,-112.764640808105,848823874
sts,-38.1703834533691,-49.3982582092285,-132.696182250976,-110.568687438964,848840541
sts,-35.8898010253906,-47.6884689331054,-134.60513305664,-106.188980102539,848857208
sts,-33.5958175659179,-45.8700294494628,-136.263198852539,-112.048782348632,848873875
sts,-31.3510913848876,-43.8977394104003,-134.46157836914,-120.294425964355,848890542
sts,-29.1298427581787,-41.8393211364746,-133.217391967773,-124.725975036621,848907209
sts,-26.9590644836425,-39.8131027221679,-129.033126831054,-122.331855773925,848923876
sts,-24.7939167022705,-37.8519439697265,-127.34326171875,-118.532836914062,848940543
sts,-22.5728874206542,-35.9375,-130.57192993164,-116.136329650878,848957210
sts,-20.4146823883056,-34.0561790466308,-127.278266906738,-114.192573547363,848973877
sts,-18.3682632446289,-32.1547050476074,-121.732849121093,-114.913261413574,848990544
sts,-16.3179359436035,-30.2068462371826,-122.197959899902,-117.267051696777,849007211
sts,-14.2381877899169,-28.2665100097656,-123.47705078125,-116.587791442871,849023878
sts,-12.1486454010009,-26.3519458770751,-123.396385192871,-115.184089660644,849040545
sts,-10.1364755630493,-24.4326782226562,-117.982437133789,-115.83332824707,849057212
sts,-8.16267299652099,-22.4492130279541,-115.800392150878,-119.78116607666,849073879
sts,-6.20055532455444,-20.6501121520996,-115.72314453125,-108.655517578125,849090546
sts,-4.33358716964721,-18.895896911621,-111.065727233886,-105.745849609375,849107213
sts,-2.56123995780944,-17.1434822082519,-105.86237335205,-105.9448928833,849123880
sts,-0.84290999174118,-15.3697900772094,-102.52244567871,-107.381919860839,849140547
sts,0.846928715705871,-13.6964435577392,-100.992935180664,-101.285751342773,849157214
sts,2.47543144226074,-12.0939331054687,-98.0710754394531,-96.5971298217773,849173881
sts,3.9870970249176,-10.4934768676757,-91.9612960815429,-96.2883758544921,849190548
sts,5.40749645233154,-8.95924758911132,-87.2895736694336,-92.1269302368164,849207215
sts,6.70695972442626,-7.4664659500122,-80.6554946899414,-89.2173690795898,849223882
sts,7.94861650466918,-5.99202156066894,-77.7093734741211,-87.5067672729492,849240549
sts,9.23267745971679,-4.53333520889282,-80.0270843505859,-85.8884582519531,849257216
sts,10.5150728225708,-3.04876089096069,-79.7271347045898,-86.7584991455078,849273883
sts,11.7591381072998,-1.67684650421142,-76.8855590820312,-80.2850494384765,849290550
sts,13.004614830017,-0.4231558740139,-76.0772476196289,-73.303726196289,849307217
sts,14.2393541336059,0.810221254825592,-74.7971496582031,-71.7237548828125,849323884
sts,15.3980627059936,2.02924633026123,-70.7333374023437,-70.497085571289,849340551
sts,16.4791240692138,3.27074217796325,-66.3703689575195,-71.5744552612304,849357218
sts,17.4912071228027,4.41288661956787,-62.0243530273437,-65.9786834716796,849373885
sts,18.435224533081,5.49997949600219,-57.3666038513183,-63.1189002990722,849390552
sts,19.3351078033447,6.59146642684936,-54.2999992370605,-63.4368095397949,849407219
sts,20.1981964111328,7.64171552658081,-52.0284538269043,-61.1769409179687,849423886
sts,20.9818458557128,8.60658740997314,-47.6302604675293,-56.5048904418945,849440553
sts,21.7104187011718,9.56463813781738,-44.8764190673828,-56.2168426513671,849457220
sts,22.4004802703857,10.4776515960693,-42.6347923278808,-53.6213111877441,849473887
sts,23.0579452514648,11.3692226409912,-40.6561737060546,-52.6144752502441,849490554
sts,23.7131690979003,12.2106609344482,-40.364761352539,-49.8273544311523,849507221
sts,24.3154239654541,12.9682931900024,-37.0874824523925,-45.0412979125976,849523888
sts,24.8704776763916,13.681957244873,-34.3872184753418,-42.5726623535156,849540555
sts,25.4134616851806,14.3369016647338,-33.7422180175781,-39.1553535461425,849557222
sts,25.9154891967773,14.9368438720703,-31.264850616455,-36.0076026916503,849573889
sts,26.3643932342529,15.4587469100952,-27.8731613159179,-31.3491477966308,849590556
sts,26.7425632476806,15.8959608078002,-23.1047115325927,-26.3567752838134,849607223
sts,27.0349731445312,16.2586822509765,-17.8370094299316,-21.9330120086669,849623890
sts,27.2418460845947,16.5422306060791,-12.8393230438232,-17.2917671203613,849640557
sts,27.3879489898681,16.7332153320312,-9.28081607818603,-11.7884168624877,849657224
sts,27.4687309265136,16.8625221252441,-5.31783723831176,-8.1826696395874,849673891
sts,27.4782123565673,16.9343090057373,-1.37035644054412,-4.85291528701782,849690558
sts,27.4231510162353,16.9349155426025,2.13937139511108,-0.766191124916076,849707225
sts,27.3208827972412,16.8575916290283,4.4851746559143,3.68832492828369,849723892
sts,27.1384601593017,16.7196006774902,8.7047700881958,7.16236877441406,849740559
sts,26.8724689483642,16.5339851379394,12.9150123596191,10.0320825576782,849757226
sts,26.5413379669189,16.2967224121093,15.8839139938354,13.0270328521728,849773893
sts,26.1593952178955,15.9919166564941,18.4195613861084,17.0396709442138,849790560
sts,25.7189292907714,15.6320648193359,21.8822059631347,20.2052116394042,849807227
sts,25.2192192077636,15.2396945953369,24.9150371551513,21.949384689331,849823894
sts,24.6543254852294,14.7813205718994,29.1686134338378,25.5921268463134,849840561
sts,24.062551498413,14.2623491287231,31.1510791778564,29.0554466247558,849857228
sts,23.4117374420166,13.678352355957,35.3764343261718,32.8597869873046,849873895
sts,22.717451095581,13.0337772369384,38.5588722229003,36.5684547424316,849890562
sts,21.9629917144775,12.3034257888793,42.6174926757812,41.805549621582,849907229
sts,21.1507015228271,11.5066871643066,46.6946220397949,45.9244956970214,849923896
sts,20.3066139221191,10.6557550430297,49.073429107666,49.2889175415039,849940563
sts,19.3944683074951,9.73655986785888,53.5209197998046,53.3831558227539,849957230
sts,18.4264812469482,8.7502384185791,56.9189262390136,57.3916206359863,849973897
sts,17.4221687316894,7.69543075561523,59.1302185058593,61.3561553955078,849990564
sts,16.3529376983642,6.58194017410278,62.92720413208,64.8645248413086,850007231
sts,15.2160501480102,5.40224361419677,66.3509826660156,68.9226379394531,850023898
sts,14.005178451538,4.16798830032348,70.1935806274414,72.2124252319336,850040565
sts,12.6902360916137,2.87055873870849,75.6747283935546,76.0179061889648,850057232
sts,11.290355682373,1.5145925283432,80.3281326293945,79.5441360473632,850073899
sts,9.80261993408203,0.0896486267447471,85.8029174804687,83.6360397338867,850090566
sts,8.20418453216552,-1.37828874588012,92.8703002929687,86.2678909301757,850107233
sts,6.55816936492919,-2.89897966384887,95.7893981933593,89.4441604614257,850123900
sts,4.85153627395629,-4.47512578964233,99.4287948608398,92.9377212524414,850140567
sts,3.10033583641052,-6.10581827163696,101.932342529296,96.5617904663086,850157234
sts,1.24362027645111,-7.7994041442871,108.262496948242,100.720069885253,850173901
sts,-0.669035255908966,-9.57380104064941,111.306831359863,105.908805847167,850190568
sts,-2.66492223739624,-11.4082469940185,116.362998962402,109.6343460083,850207235
sts,-4.71422863006591,-13.2618913650512,119.589073181152,110.946342468261,850223902
sts,-6.76556730270385,-15.1484289169311,119.70832824707,113.035926818847,850240569
sts,-8.84374713897705,-17.054141998291,121.620536804199,114.174407958984,850257236
sts,-10.9590129852294,-18.9624996185302,124.094856262207,114.729545593261,850273903
sts,-13.1387748718261,-20.907543182373,128.334564208984,117.446128845214,850290570
sts,-15.3646373748779,-23.0014171600341,131.052642822265,126.347023010253,850307237
sts,-17.6217727661132,-25.1061668395996,132.535278320312,127.156883239746,850323904
sts,-19.8866081237792,-27.2061176300048,132.654922485351,127.143409729003,850340571
sts,-22.1574630737304,-29.3066520690917,133.043228149414,127.357444763183,850357238
sts,-24.493574142456,-31.4569625854492,137.137649536132,130.202728271484,850373905
sts,-26.9242610931396,-33.6782035827636,143.879104614257,134.69448852539,850390572
sts,-29.3862361907959,-35.7858810424804,147.089248657226,128.400146484375,850407239
sts,-31.8112335205078,-38.0007934570312,145.445373535156,135.051544189453,850423906
sts,-34.2458534240722,-40.1528778076171,146.034362792968,131.895767211914,850440573
sts,-36.7180747985839,-42.3126716613769,147.933898925781,132.684219360351,850457240
sts,-39.2583694458007,-44.6094398498535,152.038635253906,140.554321289062,850473907
sts,-41.7760391235351,-46.8481292724609,150.03173828125,136.362594604492,850490574
sts,-44.2563514709472,-49.1270599365234,147.103485107421,138.247894287109,850507241
sts,-46.7103080749511,-51.4053268432617,146.034851074218,138.21824645996,850523908
sts,-49.1615486145019,-53.64741897583,147.645111083984,135.081756591796,850540575
sts,-51.5039634704589,-55.7790756225585,141.442123413085,126.90843963623,850557242
sts,-53.699779510498,-57.9317665100097,131.740844726562,126.396507263183,850573909
sts,-55.7800140380859,-60.0168304443359,122.181060791015,123.490631103515,850590576
sts,-57.6855926513671,-61.9569969177246,108.942649841308,117.251495361328,850607243
sts,-59.4211921691894,-63.7000885009765,97.7186431884765,106.881393432617,850623910
sts,-60.9915351867675,-65.3089065551757,88.7588119506836,98.1360397338867,850640577
sts,-62.3419189453125,-66.8133926391601,77.8106689453125,90.8019638061523,850657244
sts,-63.4463806152343,-68.1319732666015,64.292854309082,79.1570587158203,850673911
sts,-64.332275390625,-69.2661209106445,52.2368698120117,68.7320251464843,850690578
sts,-65.0429916381836,-70.2310409545898,42.1778602600097,60.2836189270019,850707245
sts,-65.6159057617187,-70.9833908081054,35.1870079040527,49.0830192565918,850723912
sts,-66.073486328125,-71.5625991821289,28.6711502075195,39.3678245544433,850740579
sts,-66.4535446166992,-72.0095443725586,24.2470645904541,31.0576591491699,850757246
sts,-66.7388534545898,-72.3793029785156,19.4496593475341,24.4475593566894,850773913
sts,-66.9409942626953,-72.7515487670898,15.3469533920288,23.5739059448242,850790580
sts,-67.1041030883789,-73.1822433471679,13.8512592315673,25.2976665496826,850807247
sts,-67.3322067260742,-73.6193466186523,16.9423561096191,24.9779529571533,850823914
sts,-67.5925369262695,-73.9879684448242,16.7193870544433,21.8637580871582,850840581
sts,-67.7868041992187,-74.3112030029296,11.4507598876953,20.8868675231933,850857248
sts,-67.8910598754882,-74.690673828125,5.96993112564086,23.9045047760009,850873915
sts,-67.9031906127929,-75.0506744384765,1.42427790164947,21.2123317718505,850890582
sts,-67.9571151733398,-75.2610473632812,3.88535022735595,11.052845954895,850907249
sts,-68.1006851196289,-75.2496032714843,8.00728130340576,-1.03137218952178,850923916
sts,-68.2308654785156,-75.1888580322265,7.06722927093505,-2.75739979743957,850940583
sts,-68.2818298339843,-75.2909088134765,2.61644601821899,6.78696489334106,850957250
sts,-68.2817764282226,-75.4602432250976,-1.17266488075256,9.23113346099853,850973917
sts,-68.2848281860351,-75.5302658081054,-1.23238050937652,3.27357816696167,850990584
sts,-68.2498703002929,-75.4958724975586,-3.73634362220764,-1.14779472351074,851007251
sts,-68.1670227050781,-75.5262756347656,-5.71285057067871,3.3424642086029,851023918
sts,-68.0817947387695,-75.6606521606445,-5.37723302841186,7.57756328582763,851040585
sts,-68.0747985839843,-75.7474212646484,-1.49491107463836,2.64061284065246,851057252
sts,-68.109375,-75.7103424072265,-0.382909893989563,-4.80087232589721,851073919
sts,-68.1611938476562,-75.654800415039,1.10461795330047,-3.99468445777893,851090586
sts,-68.208137512207,-75.6915664672851,1.84056103229522,1.73521542549133,851107253
sts,-68.2055130004882,-75.7517318725586,-1.81109976768493,2.00138282775878,851123920
sts,-68.2022476196289,-75.7344665527343,-3.36561226844787,-2.87525653839111,851140587
sts,-68.1838989257812,-75.6315536499023,-5.30344533920288,-7.34215116500854,851157254
sts,-68.1327362060546,-75.510498046875,-6.7419056892395,-7.36819887161254,851173921
sts,-68.0786361694336,-75.4551849365234,-6.7692584991455,-3.80951809883117,851190588
sts,-68.0390930175781,-75.4028778076171,-7.06270551681518,-4.42121315002441,851207255
sts,-67.981704711914,-75.3080291748046,-8.73807430267334,-7.91222524642944,851223922
sts,-67.8581161499023,-75.179443359375,-11.5910882949829,-9.66669750213623,851240589
sts,-67.6450424194336,-75.0341644287109,-15.733112335205,-9.12585830688476,851257256
sts,-67.3800048828125,-74.8852005004882,-20.0076179504394,-9.13258171081543,851273923
sts,-67.0944137573242,-74.7296676635742,-22.6115226745605,-10.0526943206787,851290590
sts,-66.758560180664,-74.5233001708984,-25.7387428283691,-13.5192995071411,851307257
sts,-66.3711471557617,-74.3256759643554,-26.8752365112304,-13.8331594467163,851323924
sts,-65.9660873413086,-74.2115936279296,-26.2231922149658,-9.68235969543457,851340591
sts,-65.5626525878906,-74.0906906127929,-25.5388641357421,-10.1043806076049,851357258
sts,-65.1770324707031,-73.8494720458984,-24.3466739654541,-15.8285226821899,851373925
sts,-64.8036270141601,-73.4612808227539,-23.3225116729736,-22.8898868560791,851390592
sts,-64.4537506103515,-73.0073013305664,-22.3147163391113,-27.0261936187744,851407259
sts,-64.147705078125,-72.5596542358398,-21.5800037384033,-27.7569007873535,851423926
sts,-63.8573303222656,-72.1510009765625,-21.3678913116455,-25.5106239318847,851440593
sts,-63.5009040832519,-71.841682434082,-25.0554485321044,-19.4977111816406,851457260
sts,-63.0822296142578,-71.6420211791992,-27.8409709930419,-13.2530870437622,851473927
sts,-62.6118736267089,-71.4578475952148,-31.2167682647705,-12.4790153503417,851490594
sts,-62.1494712829589,-71.1541519165039,-31.4502277374267,-19.8703460693359,851507261
sts,-61.6258392333984,-70.6660614013671,-36.3210830688476,-31.1599960327148,851523928
sts,-60.9175491333007,-69.986946105957,-48.0690841674804,-42.6390838623046,851540595
sts,-59.9793472290039,-69.1882629394531,-61.186897277832,-51.0006866455078,851557262
sts,-58.9323539733886,-68.3496322631836,-65.8795623779296,-53.3463668823242,851573929
sts,-57.8954010009765,-67.499771118164,-63.9238014221191,-53.8281326293945,851590596
sts,-56.7553176879882,-66.5045547485351,-69.1383514404296,-62.3252716064453,851607263
sts,-55.3920783996582,-65.2826919555664,-81.4547958374023,-75.6939163208007,851623930
sts,-53.7893714904785,-63.823673248291,-95.9385528564453,-90.4226379394531,851640597
sts,-52.0251541137695,-62.3659324645996,-105.700538635253,-91.4599304199218,851657264
sts,-50.185920715332,-61.0236358642578,-110.171340942382,-85.2041854858398,851673931
sts,-48.2033882141113,-59.606575012207,-118.939918518066,-89.6796493530273,851690598
sts,-46.2361373901367,-57.9764022827148,-117.296325683593,-103.213226318359,851707265
sts,-44.2428245544433,-56.1886596679687,-118.62052154541,-113.590255737304,851723932
sts,-42.1245880126953,-54.4345092773437,-125.267532348632,-111.567626953125,851740599
sts,-39.7219734191894,-52.7357521057128,-143.501693725585,-107.756660461425,851757266
sts,-37.1248359680175,-50.9753303527832,-156.667266845703,-111.150070190429,851773933
sts,-34.8855895996093,-49.1900253295898,-135.609237670898,-111.995132446289,851790600
sts,-33.0239486694335,-47.3787460327148,-113.020629882812,-112.169273376464,851807267
sts,-31.0525531768798,-45.6040725708007,-119.568489074707,-109.425407409667,851823934
sts,-28.9059963226318,-43.8964614868164,-129.063751220703,-105.163230895996,851840601
sts,-26.777811050415,-42.1909828186035,-126.802124023437,-104.651817321777,851857268
sts,-24.6492233276367,-40.4367141723632,-127.350616455078,-106.962051391601,851873935
sts,-22.6333618164062,-38.5649986267089,-120.301788330078,-113.452262878417,851890602
sts,-20.6736717224121,-36.6006469726562,-117.08617401123,-118.41349029541,851907269
sts,-18.6752853393554,-34.5373191833496,-119.706718444824,-123.578338623046,851923936
sts,-16.7010612487792,-32.5528564453125,-117.562393188476,-118.903488159179,851940603
sts,-14.7294921875,-30.628978729248,-116.97989654541,-115.595901489257,851957270
sts,-12.7673091888427,-28.7412357330322,-116.214126586914,-113.666236877441,851973937
sts,-10.837025642395,-26.8562469482421,-114.041862487792,-113.353530883789,851990604
sts,-8.95598602294921,-24.9580383300781,-111.60831451416,-114.07080078125,852007271
sts,-7.14989233016967,-23.1021633148193,-107.640037536621,-111.594383239746,852023938
sts,-5.36808490753173,-21.2140083312988,-106.016563415527,-113.293663024902,852040605
sts,-3.61773872375488,-19.3578834533691,-103.933929443359,-111.509712219238,852057272
sts,-1.9284416437149,-17.5047817230224,-100.416343688964,-111.329841613769,852073939
sts,-0.283853143453598,-15.6902799606323,-97.9642944335937,-109.04141998291,852090606
sts,1.34957683086395,-13.8998975753784,-97.3383407592773,-107.564804077148,852107273
sts,2.98131227493286,-12.2021589279174,-97.7349548339843,-101.922950744628,852123940
sts,4.56189823150634,-10.5975980758667,-95.1943740844726,-96.3253555297851,852140607
sts,6.07646131515502,-9.03316974639892,-91.1636276245117,-93.9416046142578,852157274
sts,7.54702425003051,-7.51446485519409,-88.2261734008789,-91.0523834228515,852173941
sts,9.04217147827148,-5.98696231842041,-89.960952758789,-91.3671798706054,852190608
sts,10.4866743087768,-4.47221040725708,-87.258674621582,-90.48828125,852207275
sts,11.8683900833129,-2.98242402076721,-83.2600479125976,-88.754280090332,852223942
sts,13.2201719284057,-1.54126524925231,-81.3757171630859,-85.4630584716796,852240609
sts,14.5390119552612,-0.128490164875984,-79.4355697631836,-83.609992980957,852257276
sts,15.779294013977,1.22629678249359,-74.9312591552734,-80.1993713378906,852273943
sts,16.9217910766601,2.54037523269653,-69.2942276000976,-77.7699966430664,852290610
sts,18.0292720794677,3.78153848648071,-66.7677154541015,-73.2780303955078,852307277
sts,19.1063003540039,4.98249149322509,-64.6953048706054,-70.9003524780273,852323944
sts,20.1422519683837,6.12153816223144,-61.9269638061523,-67.2019805908203,852340611
sts,21.1155605316162,7.23659324645996,-58.3106727600097,-65.7862319946289,852357278
sts,21.999828338623,8.30410385131836,-53.3657264709472,-63.1888809204101,852373945
sts,22.8213558197021,9.28863048553466,-49.8651695251464,-58.4570960998535,852390612
sts,23.5690574645996,10.1784677505493,-45.4646682739257,-52.830810546875,852407279
sts,24.2403488159179,10.9943675994873,-40.8158874511718,-48.4707717895507,852423946
sts,24.8280181884765,11.7465867996215,-36.0119934082031,-44.7878761291503,852440613
sts,25.3368015289306,12.4164524078369,-31.6023387908935,-39.8733787536621,852457280
sts,25.7788066864013,13.0250720977783,-27.7844638824462,-36.2190132141113,852473947
sts,26.1740093231201,13.5598039627075,-24.8875293731689,-31.9733486175537,852490614
sts,26.509141921997,13.9896650314331,-21.0908870697021,-25.9008808135986,852507281
sts,26.8044700622558,14.3318748474121,-18.4569702148437,-20.6571998596191,852523948
sts,27.0225830078125,14.6077632904052,-13.8841161727905,-16.7111759185791,852540615
sts,27.1550369262695,14.7972946166992,-8.77702522277832,-11.5544557571411,852557282
sts,27.2353153228759,14.9293384552001,-5.56423091888427,-8.16556072235107,852573949
sts,27.2614727020263,15.0060653686523,-2.33544278144836,-4.88719797134399,852590616
sts,27.2526626586914,15.0255880355834,-0.358155161142349,-1.58625864982604,852607283
sts,27.1893615722656,14.999659538269,2.81349778175354,1.00027203559875,852623950
sts,27.0850811004638,14.9119100570678,5.13902902603149,4.62696647644043,852640617
sts,26.930549621582,14.7878618240356,7.96368741989135,6.68542194366455,852657284
sts,26.6984424591064,14.633692741394,12.3107604980468,8.34536933898925,852673951
sts,26.4180526733398,14.4215383529663,14.9098663330078,11.7626457214355,852690618
sts,26.0854167938232,14.15070438385,17.8291053771972,15.2154140472412,852707285
sts,25.6879158020019,13.8244009017944,21.4352264404296,18.552490234375,852723952
sts,25.2257957458496,13.4483108520507,25.2938404083251,21.4470691680908,852740619
sts,24.7090854644775,13.0239276885986,28.2635803222656,24.3217964172363,852757286
sts,24.1102638244628,12.5177745819091,32.9697799682617,29.202184677124,852773953
sts,23.4501132965087,11.9450025558471,36.7896041870117,33.2853965759277,852790620
sts,22.7359504699707,11.3207120895385,40.0991134643554,36.4136390686035,852807287
sts,21.9494380950927,10.6405687332153,44.2217788696289,39.7709274291992,852823954
sts,21.0798835754394,9.87980270385742,49.1416664123535,44.6022987365722,852840621
sts,20.1453247070312,9.04586029052734,53.0371360778808,48.9319953918457,852857288
sts,19.1447582244873,8.1406545639038,56.8047370910644,53.157859802246,852873955
sts,18.0549144744873,7.16176748275756,61.8198432922363,57.5633735656738,852890622
sts,16.9071292877197,6.11209154129028,64.9142532348632,61.7317161560058,852907289
sts,15.6957540512084,4.9969367980957,68.9229965209961,65.5607681274414,852923956
sts,14.418170928955,3.82390546798706,73.1614227294921,69.0176849365234,852940623
sts,13.071138381958,2.5870406627655,77.6014404296875,72.974853515625,852957290
sts,11.6939649581909,1.27366816997528,79.6840744018554,77.7364883422851,852973957
sts,10.266767501831,-0.0907371863722801,82.9677047729492,81.0319900512695,852990624
sts,8.75961303710937,-1.49008798599243,87.824951171875,83.2633666992187,853007291
sts,7.19150114059448,-2.93576645851135,91.4731292724609,86.1432266235351,853023958
sts,5.58134031295776,-4.43600606918335,94.1996536254882,89.5734100341796,853040625
sts,3.90536999702453,-5.96228218078613,98.3089370727539,91.2884292602539,853057292
sts,2.16945648193359,-7.51099872589111,101.723999023437,92.7678756713867,853073959
sts,0.381805270910263,-9.0918607711792,104.621467590332,94.6514892578125,853090626
sts,-1.43996274471282,-10.7103757858276,106.20994567871,96.9798355102539,853107293
sts,-3.26388001441955,-12.3642110824584,105.521705627441,99.3120346069336,853123960
sts,-5.11318731307983,-14.0315752029418,106.293350219726,100.435989379882,853140627
sts,-7.01873254776001,-15.7289352416992,109.697776794433,102.603637695312,853157294
sts,-8.94698047637939,-17.4428749084472,111.247207641601,103.881553649902,853173961
sts,-10.9106884002685,-19.1984901428222,114.202156066894,106.617034912109,853190628
sts,-12.9798889160156,-20.9878997802734,121.959899902343,108.765258789062,853207295
sts,-15.0506887435913,-22.8764133453369,123.270286560058,114.270614624023,853223962
sts,-17.1239738464355,-24.8452434539794,123.69221496582,119.85789489746,853240629
sts,-19.2264366149902,-26.7306098937988,126.182762145996,115.148399353027,853257296
sts,-21.30464553833,-28.6877708435058,124.479881286621,119.521766662597,853273963
sts,-23.4413185119628,-30.6892280578613,128.138122558593,122.389503479003,853290630
sts,-25.6267204284667,-32.6880302429199,130.793487548828,122.493530273437,853307297
sts,-27.8658275604248,-34.8001708984375,133.805038452148,129.055389404296,853323964
sts,-30.0979633331298,-36.8527565002441,133.407791137695,125.999877929687,853340631
sts,-32.3269386291503,-38.9962997436523,133.073593139648,131.377410888671,853357298
sts,-34.5767555236816,-41.157127380371,133.673675537109,132.456405639648,853373965
sts,-36.8619499206543,-43.2916221618652,134.54914855957,131.112350463867,853390632
sts,-39.1764526367187,-45.4198913574218,135.829727172851,130.820220947265,853407299
sts,-41.4132232666015,-47.5360679626464,130.688049316406,130.312026977539,853423966
sts,-43.6169242858886,-49.6800689697265,127.426277160644,131.773651123046,853440633
sts,-45.7896156311035,-51.8199768066406,124.279518127441,131.684494018554,853457300
sts,-47.9494132995605,-53.8803825378418,123.681205749511,127.300415039062,853473967
sts,-50.081069946289,-55.8082847595214,122.399215698242,119.398071289062,853490634
sts,-52.1119804382324,-57.5394058227539,115.85294342041,108.97631072998,853507301
sts,-54.0067977905273,-59.1353340148925,106.627250671386,102.388229370117,853523968
sts,-55.7981300354003,-60.6733779907226,100.284873962402,99.0408706665039,853540635
sts,-57.4478797912597,-62.1844940185546,92.3677749633789,96.6852188110351,853557302
sts,-58.8748321533203,-63.6528778076171,79.5284271240234,92.9075927734375,853573969
sts,-60.1279792785644,-65.072036743164,70.2453002929687,88.3124160766601,853590636
sts,-61.2554931640625,-66.3930435180664,64.0182647705078,80.4227218627929,853607303
sts,-62.2058715820312,-67.6093444824218,54.2246589660644,71.7306137084961,853623970
sts,-63.0534591674804,-68.6703414916992,50.1086540222168,62.2035026550293,853640637
sts,-63.7970542907714,-69.5390853881836,45.7157974243164,53.5156784057617,853657304
sts,-64.4651107788086,-70.2525405883789,41.9496536254882,47.014347076416,853673971
sts,-65.0113296508789,-70.8550949096679,34.0587577819824,41.0085334777832,853690638
sts,-65.4088287353515,-71.3832473754882,23.8838558197021,34.5480270385742,853707305
sts,-65.6992797851562,-71.8449020385742,17.3427906036376,27.5466556549072,853723972
sts,-65.9301834106445,-72.1746673583984,14.4867544174194,18.6670532226562,853740639
sts,-66.2221374511718,-72.3930358886718,17.6992473602294,12.4180374145507,853757306
sts,-66.5485382080078,-72.6667022705078,17.8242282867431,14.9787893295288,853773973
sts,-66.8500442504882,-72.9729919433593,15.502981185913,17.0750064849853,853790640
sts,-67.0526733398437,-73.1809768676757,10.1981554031372,10.8591632843017,853807307
sts,-67.2252883911132,-73.2487564086914,9.74929523468017,2.61449980735778,853823974
sts,-67.3785324096679,-73.3665924072265,7.0528221130371,6.5561933517456,853840641
sts,-67.5406951904296,-73.604248046875,7.56596183776855,15.1215286254882,853857308
sts,-67.6370010375976,-73.8187179565429,5.4541163444519,14.7738361358642,853873975
sts,-67.6056137084961,-73.9037551879882,-1.47611105442047,7.58808088302612,853890642
sts,-67.5924224853515,-74.0089721679687,-0.799833357334137,7.19778060913085,853907309
sts,-67.6555557250976,-74.178352355957,1.93176817893981,9.83375072479248,853923976
sts,-67.6784744262695,-74.2545852661132,-0.827751636505127,4.96943473815918,853940643
sts,-67.660903930664,-74.1622467041015,-1.96119022369384,-4.12395524978637,853957310
sts,-67.6156921386718,-74.0281829833984,-3.53256821632385,-7.07084894180297,853973977
sts,-67.6070175170898,-73.9953842163086,-2.72487092018127,-2.41438102722167,853990644
sts,-67.6493301391601,-74.09326171875,0.0231602881103754,4.38108396530151,854007311
sts,-67.6892013549804,-74.2912292480468,1.33825707435607,8.95608043670654,854023978
sts,-67.6650314331054,-74.443489074707,-1.04406356811523,6.07598114013671,854040645
sts,-67.5936279296875,-74.5102233886718,-3.29729175567626,1.45302784442901,854057312
sts,-67.5139236450195,-74.5057754516601,-3.91130352020263,-1.75204956531524,854073979
sts,-67.4493560791015,-74.4483795166015,-4.1855125427246,-3.78568577766418,854090646
sts,-67.3893585205078,-74.3469543457031,-4.52708339691162,-7.32887077331543,854107313
sts,-67.2788543701171,-74.204231262207,-8.22491836547851,-11.8763208389282,854123980
sts,-67.1076049804687,-74.0145568847656,-12.2756233215332,-16.1888561248779,854140647
sts,-66.9232177734375,-73.8020248413086,-13.3798017501831,-17.2285556793212,854157314
sts,-66.7304763793945,-73.6227035522461,-14.174443244934,-14.5667886734008,854173981
sts,-66.4839248657226,-73.4849853515625,-16.7234077453613,-12.1677541732788,854190648
sts,-66.2165985107421,-73.3106307983398,-16.7131252288818,-14.4481353759765,854207315
sts,-65.9267349243164,-73.0497665405273,-17.9869899749755,-19.4425621032714,854223982
sts,-65.6159896850586,-72.7313690185546,-19.6234397888183,-22.8355846405029,854240649
sts,-65.2463912963867,-72.3608016967773,-24.0333023071289,-27.2388706207275,854257316
sts,-64.9302749633789,-71.9643096923828,-21.0774669647216,-28.8173065185546,854273983
sts,-64.5538558959961,-71.6022872924804,-25.6322975158691,-25.509048461914,854290650
sts,-64.0687866210937,-71.2672348022461,-33.0150985717773,-23.9537677764892,854307317
sts,-63.4500045776367,-70.9496002197265,-41.5027732849121,-24.1339206695556,854323984
sts,-62.7397956848144,-70.5367202758789,-45.7913970947265,-30.2839450836181,854340651
sts,-62.037181854248,-70.0310745239257,-43.617202758789,-36.1285247802734,854357318
sts,-61.3900833129882,-69.4116287231445,-40.8752899169921,-42.2573013305664,854373985
sts,-60.6825447082519,-68.6923370361328,-45.8111190795898,-46.932445526123,854390652
sts,-59.8746490478515,-67.9254074096679,-51.6062316894531,-48.3958435058593,854407319
sts,-58.9534530639648,-67.1994400024414,-57.9101753234863,-46.6678466796875,854423986
sts,-57.9664497375488,-66.5192565917968,-61.0074882507324,-45.5684928894043,854440653
sts,-56.8692626953125,-65.7567062377929,-68.05322265625,-50.9594535827636,854457320
sts,-55.6922874450683,-64.8169555664062,-73.8061294555664,-60.7622375488281,854473987
sts,-54.4581642150878,-63.7081108093261,-77.1421279907226,-71.1231536865234,854490654
sts,-53.1668701171875,-62.4429626464843,-80.1942596435546,-81.5227813720703,854507321
sts,-51.7436294555664,-60.9971275329589,-87.5350875854492,-92.0262374877929,854523988
sts,-50.2000083923339,-59.4622192382812,-93.6041183471679,-96.8826217651367,854540655
sts,-48.4606018066406,-57.9471359252929,-103.17179107666,-95.9840316772461,854557322
sts,-46.5149269104003,-56.4989280700683,-113.875137329101,-92.616226196289,854573989
sts,-44.5937919616699,-55.0658950805664,-111.550270080566,-91.1454010009765,854590656
sts,-42.7667160034179,-53.5663528442382,-106.881622314453,-95.5907745361328,854607323
sts,-40.8424682617187,-51.9571876525878,-113.125457763671,-101.761810302734,854623990
sts,-38.7940635681152,-50.2466087341308,-121.863868713378,-107.31135559082,854640657
sts,-36.6861000061035,-48.5017013549804,-126.448890686035,-108.925514221191,854657324
sts,-34.6347999572753,-46.7549285888671,-122.586921691894,-108.910278320312,854673991
sts,-32.6072082519531,-44.9601516723632,-119.783103942871,-111.11139678955,854690658
sts,-30.5598335266113,-43.021743774414,-120.237411499023,-118.192192077636,854707325
sts,-28.5045547485351,-41.1753349304199,-121.213768005371,-112.227493286132,854723992
sts,-26.3881721496582,-39.2866401672363,-124.75210571289,-114.01667022705,854740659
sts,-24.2380638122558,-37.4066047668457,-126.84797668457,-113.222793579101,854757326
sts,-22.077091217041,-35.5093536376953,-127.803085327148,-114.531394958496,854773993
sts,-19.9910697937011,-33.5288314819335,-123.462394714355,-119.668586730957,854790660
sts,-17.9004898071289,-31.4901294708251,-124.334938049316,-122.621131896972,854807327
sts,-15.8569259643554,-29.4663581848144,-122.545219421386,-121.031852722167,854823994
sts,-13.8339328765869,-27.6074619293212,-121.063613891601,-111.18595123291,854840661
sts,-11.7327003479003,-25.7470397949218,-125.126495361328,-111.539367675781,854857328
sts,-9.62299156188964,-23.744571685791,-125.414115905761,-120.117485046386,854873995
sts,-7.52218580245971,-21.7843551635742,-125.169624328613,-117.713462829589,854890662
sts,-5.46089267730712,-19.9034385681152,-122.573989868164,-112.845108032226,854907329
sts,-3.41268730163574,-17.9952068328857,-121.677757263183,-114.551841735839,854923996
sts,-1.41391742229461,-16.0743923187255,-119.268890380859,-115.017204284667,854940663
sts,0.560355007648468,-14.1639060974121,-118.402587890625,-114.17333984375,854957330
sts,2.49441289901733,-12.2985544204711,-116.419631958007,-111.77855682373,854973997
sts,4.3846788406372,-10.4652051925659,-113.65534210205,-110.422340393066,854990664
sts,6.16690731048584,-8.6733865737915,-106.889671325683,-108.011054992675,855007331
sts,7.90941905975341,-6.89778518676757,-104.208778381347,-106.436637878417,855023998
sts,9.6192455291748,-5.16996717453002,-102.517837524414,-103.14126586914,855040665
sts,11.2765951156616,-3.51155591011047,-99.2098159790039,-98.8715896606445,855057332
sts,12.864646911621,-1.94066274166107,-94.99072265625,-93.4145584106445,855073999
sts,14.3630495071411,-0.393692970275878,-90.0664596557617,-91.8124542236328,855090666
sts,15.7417573928833,1.0750720500946,-83.53125,-86.9827270507812,855107333
sts,17.069049835205,2.48468708992004,-80.3095932006836,-83.3274612426757,855124000
sts,18.3185291290283,3.88735818862915,-75.4055862426757,-82.7473907470703,855140667
sts,19.4677333831787,5.22022104263305,-69.6923675537109,-78.7835006713867,855157334
sts,20.5349922180175,6.46045637130737,-64.8048629760742,-73.8024063110351,855174001
sts,21.5626316070556,7.64099836349487,-62.0011253356933,-70.4866180419921,855190668
sts,22.5593338012695,8.76761245727539,-60.1706809997558,-67.4670333862304,855207335
sts,23.5433979034423,9.86520671844482,-59.3984260559082,-65.8216705322265,855224002
sts,24.4407024383544,10.9097595214843,-54.2953071594238,-62.5199317932128,855240669
sts,25.2622013092041,11.8927927017211,-49.9924392700195,-58.7486419677734,855257336
sts,26.0234966278076,12.7986593246459,-46.5403785705566,-54.1979370117187,855274003
sts,26.7235107421875,13.5909509658813,-42.7996368408203,-47.5671348571777,855290670
sts,27.3385639190673,14.2701387405395,-37.6982040405273,-40.786205291748,855307337
sts,27.8674545288085,14.8496685028076,-32.496109008789,-34.7991638183593,855324004
sts,28.28977394104,15.3443260192871,-26.1746025085449,-29.6046123504638,855340671
sts,28.6396694183349,15.7897825241088,-21.7355499267578,-26.5483131408691,855357338
sts,28.9140148162841,16.1556377410888,-17.4737720489501,-21.7710380554199,855374005
sts,29.0945606231689,16.4332466125488,-12.1769104003906,-16.7581787109375,855390672
sts,29.1785068511962,16.6014232635498,-6.25090789794921,-10.4387674331665,855407339
sts,29.1749515533447,16.6699314117431,-1.2943890094757,-4.66842746734619,855424006
sts,29.056676864624,16.6470127105712,5.24963760375976,0.593644797801971,855440673
sts,28.851764678955,16.5468101501464,10.2810897827148,5.15329456329345,855457340
sts,28.5686435699462,16.3691940307617,14.7327032089233,9.78144931793212,855474007
sts,28.2143669128417,16.1373291015625,18.9172668457031,13.0059022903442,855490674
sts,27.8077163696289,15.8306093215942,22.0626239776611,17.5671882629394,855507341
sts,27.3405208587646,15.4345407485961,25.5949554443359,22.9354553222656,855524008
sts,26.8084850311279,14.9631757736206,29.2178287506103,27.3831806182861,855540675
sts,26.2329425811767,14.4399337768554,31.7509021759033,30.3632621765136,855557342
sts,25.6223220825195,13.8439121246337,33.719367980957,34.6867866516113,855574009
sts,24.9872531890869,13.1849422454833,35.2563781738281,38.5796890258789,855590676
sts,24.3161258697509,12.50617313385,37.8982734680175,40.0273284912109,855607343
sts,23.6268482208251,11.8206367492675,39.1563835144043,40.705810546875,855624010
sts,22.9148063659667,11.1302194595336,40.362564086914,41.0331993103027,855640677
sts,22.1871318817138,10.3956184387207,41.527286529541,43.5764274597168,855657344
sts,21.4504508972167,9.65245723724365,42.1872406005859,44.0584831237793,855674011
sts,20.6558628082275,8.89817237854003,45.7218360900878,44.5177268981933,855690678
sts,19.8248863220214,8.09417343139648,47.6480636596679,47.1657371520996,855707345
sts,18.9500617980957,7.24259281158447,50.1603622436523,49.6293487548828,855724012
sts,18.0213928222656,6.34374809265136,53.4065589904785,52.1372108459472,855740679
sts,17.0282039642334,5.40265655517578,57.0031852722168,54.619945526123,855757346
sts,15.9739227294921,4.41616153717041,60.5218276977539,57.3118515014648,855774013
sts,14.8729372024536,3.38960456848144,63.4802284240722,59.7256126403808,855790680
sts,13.7455129623413,2.31966710090637,64.9976959228515,62.4877204895019,855807347
sts,12.5662612915039,1.19824266433715,67.9425201416015,65.7556457519531,855824014
sts,11.3226423263549,0.0287772957235574,71.854019165039,68.7912826538086,855840681
sts,10.0429306030273,-1.17617356777191,73.871955871582,71.1262054443359,855857348
sts,8.70393180847168,-2.41857600212097,77.5003128051757,73.623664855957,855874015
sts,7.31108999252319,-3.70316767692565,80.7334823608398,76.4794082641601,855890682
sts,5.84720754623413,-5.02197837829589,84.7919235229492,78.8995895385742,855907349
sts,4.32773303985595,-6.38687181472778,87.7385177612304,81.8477020263671,855924016
sts,2.78162288665771,-7.78371429443359,89.0590133666992,84.098876953125,855940683
sts,1.2033439874649,-9.21146297454834,90.5058059692382,86.3742980957031,855957350
sts,-0.423527240753173,-10.6747598648071,93.001350402832,88.7760772705078,855974017
sts,-2.11774063110351,-12.1746864318847,96.439453125,90.9537124633789,855990684
sts,-3.85431814193725,-13.7067041397094,98.7985916137695,92.7485122680664,856007351
sts,-5.61258840560913,-15.2843980789184,100.198448181152,95.4501800537109,856024018
sts,-7.38461208343505,-16.863935470581,101.615516662597,95.856689453125,856040685
sts,-9.1536808013916,-18.424352645874,101.950584411621,95.1510620117187,856057352
sts,-10.962327003479,-19.996337890625,104.819366455078,95.8988265991211,856074019
sts,-12.8405857086181,-21.6159763336181,109.684181213378,98.5857925415039,856090686
sts,-14.7172155380249,-23.2730598449707,109.682830810546,100.937156677246,856107353
sts,-16.5782661437988,-25.1239604949951,108.547645568847,112.252578735351,856124020
sts,-18.5065612792968,-26.8056545257568,112.955993652343,102.560455322265,856140687
sts,-20.494815826416,-28.5188865661621,116.854988098144,104.319175720214,856157354
sts,-22.5579795837402,-30.2940406799316,121.643577575683,107.925483703613,856174021
sts,-24.6718082427978,-32.1685333251953,125.371139526367,114.045852661132,856190688
sts,-26.815294265747,-34.0502014160156,126.757316589355,114.776809692382,856207355
sts,-28.9762001037597,-36.0609855651855,126.580055236816,122.727684020996,856224022
sts,-31.1545391082763,-38.0718765258789,126.599060058593,123.096351623535,856240689
sts,-33.3579330444335,-40.0694541931152,127.151962280273,122.005264282226,856257356
sts,-35.578125,-42.1992378234863,127.078842163085,129.616821289062,856274023
sts,-37.8188819885253,-44.3528518676757,128.39646911621,131.150634765625,856290690
sts,-40.0815467834472,-46.4250907897949,131.160903930664,126.821708679199,856307357
sts,-42.2757720947265,-48.4721603393554,127.860733032226,125.846237182617,856324024
sts,-44.442813873291,-50.5686798095703,125.581596374511,128.834411621093,856340691
sts,-46.5844612121582,-52.6627655029296,123.491119384765,129.254684448242,856357358
sts,-48.651611328125,-54.7564506530761,118.689002990722,129.787811279296,856374025
sts,-50.7031288146972,-56.8229255676269,118.31974029541,129.346893310546,856390692
sts,-52.7011985778808,-58.8486518859863,115.143928527832,127.791351318359,856407359
sts,-54.6411895751953,-60.7665901184082,111.400985717773,120.166007995605,856424026
sts,-56.4045486450195,-62.5569725036621,100.980422973632,111.14680480957,856440693
sts,-57.952838897705,-64.2542953491211,88.4595718383789,105.126625061035,856457360
sts,-59.2997856140136,-65.8384323120117,76.816177368164,98.133316040039,856474027
sts,-60.5473670959472,-67.2536926269531,70.8027038574218,88.3278198242187,856490694
sts,-61.7161407470703,-68.4909210205078,66.2541122436523,77.5574722290039,856507361
sts,-62.8124504089355,-69.5142135620117,63.2034149169921,65.0666046142578,856524028
sts,-63.7441329956054,-70.3716430664062,54.6867370605468,55.9168815612793,856540695
sts,-64.506233215332,-71.1216125488281,45.9563293457031,49.021800994873,856557362
sts,-65.1343688964843,-71.7817687988281,38.5696830749511,42.453514099121,856574029
sts,-65.7380752563476,-72.338623046875,36.9776420593261,36.3447380065918,856590696
sts,-66.2880630493164,-72.7653045654296,31.9062347412109,30.684621810913,856607363
sts,-66.7632522583007,-73.182373046875,26.9918117523193,30.4513187408447,856624030
sts,-67.170295715332,-73.6090621948242,23.9775047302246,29.4778327941894,856640697
sts,-67.5957641601562,-74.0013961791992,25.4281253814697,24.4978828430175,856657364
sts,-68.0839233398437,-74.3102569580078,28.6286468505859,19.9439086914062,856674031
sts,-68.6076965332031,-74.6096420288086,30.4156322479248,21.7459926605224,856690698
sts,-69.0514907836914,-74.9546737670898,25.8514423370361,25.4959049224853,856707365
sts,-69.4103240966796,-75.2369232177734,21.535509109497,21.3791522979736,856724032
sts,-69.6933898925781,-75.4098052978515,16.9088497161865,12.5837383270263,856740699
sts,-69.9114913940429,-75.5385437011718,12.0298252105712,8.17290496826171,856757366
sts,-70.1134872436523,-75.7764282226562,10.9111242294311,14.7956075668334,856774033
sts,-70.2830810546875,-76.0749053955078,9.80601119995117,19.8793087005615,856790700
sts,-70.4303359985351,-76.3070755004882,9.8500280380249,15.6327428817749,856807367
sts,-70.5301361083984,-76.4324645996093,6.84524536132812,8.24437046051025,856824034
sts,-70.5830612182617,-76.4847793579101,2.72471094131469,2.82196927070617,856840701
sts,-70.5951080322265,-76.5283660888671,-0.0216299258172512,2.17757225036621,856857368
sts,-70.5477981567382,-76.5673675537109,-3.49715828895568,1.95698344707489,856874035
sts,-70.454345703125,-76.5659561157226,-5.84980010986328,-0.873623609542846,856890702
sts,-70.3793182373046,-76.5226974487304,-4.86351919174194,-4.72129201889038,856907369
sts,-70.3249816894531,-76.4982604980468,-3.94604659080505,-5.32188463211059,856924036
sts,-70.2374038696289,-76.5121231079101,-6.05876064300537,-2.94209241867065,856940703
sts,-70.1366806030273,-76.5411987304687,-6.57889175415039,-0.490598410367965,856957370
sts,-70.0884399414062,-76.5646514892578,-3.81128478050231,-0.232781037688255,856974037
sts,-70.0778884887695,-76.620376586914,-1.82673609256744,0.734783470630645,856990704
sts,-70.0487670898437,-76.7034454345703,-3.52209258079528,0.309343785047531,857007371
sts,-69.9624862670898,-76.74609375,-6.48695468902587,-2.59324884414672,857024038
sts,-69.8237609863281,-76.7548446655273,-8.77729606628418,-3.93817281723022,857040705
sts,-69.7101821899414,-76.7366943359375,-6.98468780517578,-4.64166402816772,857057372
sts,-69.6328125,-76.6820526123046,-5.3990421295166,-6.85170745849609,857074039
sts,-69.5613021850586,-76.6161499023437,-5.25274229049682,-7.83444118499755,857090706
sts,-69.4777755737304,-76.5720901489257,-6.00656270980835,-5.7131700515747,857107373
sts,-69.363655090332,-76.5799026489257,-8.49303150177002,-1.86994469165802,857124040
sts,-69.2286911010742,-76.5873641967773,-9.98370552062988,-1.90183269977569,857140707
sts,-69.077392578125,-76.5051345825195,-10.865795135498,-7.9321002960205,857157374
sts,-68.8978958129882,-76.3270568847656,-12.2570152282714,-14.5294294357299,857174041
sts,-68.6975631713867,-76.1315078735351,-13.3258609771728,-14.8521766662597,857190708
sts,-68.5001678466796,-75.9524688720703,-13.5470895767211,-13.5098257064819,857207375
sts,-68.3163223266601,-75.7750625610351,-13.2019472122192,-13.4037103652954,857224042
sts,-68.1081924438476,-75.5698699951171,-14.8935260772705,-15.4900102615356,857240709
sts,-67.8618850708007,-75.3473587036132,-17.2286930084228,-17.4685440063476,857257376
sts,-67.5614318847656,-75.1084899902343,-20.1838188171386,-18.2763080596923,857274043
sts,-67.2219696044921,-74.8523864746093,-22.4529800415039,-18.8133583068847,857290710
sts,-66.8189086914062,-74.5516738891601,-25.7739028930664,-21.1772708892822,857307377
sts,-66.2796249389648,-74.2292709350586,-32.8485107421875,-23.4776992797851,857324044
sts,-65.6395645141601,-73.8777389526367,-37.9349060058593,-26.4025802612304,857340711
sts,-64.9336929321289,-73.4953918457031,-42.691162109375,-29.2627334594726,857357378
sts,-64.1897811889648,-73.0746002197265,-45.097427368164,-32.3381195068359,857374045
sts,-63.403636932373,-72.5343246459961,-47.0255966186523,-37.5120620727539,857390712
sts,-62.5970726013183,-71.8920516967773,-47.7046890258789,-41.362548828125,857407379
sts,-61.7660102844238,-71.1883316040039,-50.300193786621,-44.7075729370117,857424046
sts,-60.8094749450683,-70.4036407470703,-60.0896949768066,-50.0795707702636,857440713
sts,-59.6891403198242,-69.5119400024414,-71.1449203491211,-57.9195251464843,857457380
sts,-58.4327964782714,-68.5371856689453,-79.5561828613281,-64.1304244995117,857474047
sts,-57.1949920654296,-67.5216903686523,-78.9691848754882,-65.5508956909179,857490714
sts,-55.9390029907226,-66.5211715698242,-80.3427124023437,-63.4270362854003,857507381
sts,-54.6110229492187,-65.4850463867187,-83.0410003662109,-65.6879959106445,857524048
sts,-53.0976371765136,-64.254768371582,-91.4261093139648,-78.6139907836914,857540715
sts,-51.3048820495605,-62.7762298583984,-106.696815490722,-93.7194061279296,857557382
sts,-49.4332580566406,-61.1199150085449,-111.385231018066,-103.952285766601,857574049
sts,-47.537670135498,-59.402847290039,-113.135437011718,-108.28807067871,857590716
sts,-45.6408386230468,-57.7119636535644,-113.91714477539,-106.953102111816,857607383
sts,-43.6787528991699,-56.0628204345703,-117.636749267578,-104.58194732666,857624050
sts,-41.5037612915039,-54.3207283020019,-129.272033691406,-109.900733947753,857640717
sts,-39.1788940429687,-52.4668350219726,-138.206985473632,-115.206016540527,857657384
sts,-36.9026069641113,-50.5437278747558,-136.055252075195,-119.013290405273,857674051
sts,-34.6917762756347,-48.5984725952148,-131.851455688476,-120.188667297363,857690718
sts,-32.5154609680175,-46.5875625610351,-129.663925170898,-124.172485351562,857707385
sts,-30.3692474365234,-44.5166053771972,-126.794662475585,-127.284484863281,857724052
sts,-28.2116565704345,-42.4065361022949,-126.723098754882,-127.975891113281,857740719
sts,-26.0662803649902,-40.3417930603027,-127.225387573242,-124.268997192382,857757386
sts,-23.9264984130859,-38.3277931213378,-127.377304077148,-121.29734802246,857774053
sts,-21.8287143707275,-36.28955078125,-125.264839172363,-122.670211791992,857790720
sts,-19.7461967468261,-34.1971359252929,-124.637199401855,-125.684020996093,857807387
sts,-17.6279773712158,-32.1476783752441,-126.482772827148,-123.39566040039,857824054
sts,-15.5575885772705,-30.1537284851074,-123.670806884765,-120.387687683105,857840721
sts,-13.5849361419677,-28.1772022247314,-118.187767028808,-119.266471862792,857857388
sts,-11.5984096527099,-26.2091217041015,-118.414581298828,-118.658981323242,857874055
sts,-9.67758178710937,-24.2555179595947,-113.658477783203,-117.869438171386,857890722
sts,-7.89552974700927,-22.3916149139404,-105.663146972656,-112.677978515625,857907389
sts,-6.05853986740112,-20.550983428955,-109.287002563476,-110.784431457519,857924056
sts,-4.20092439651489,-18.7382545471191,-110.148086547851,-108.512573242187,857940723
sts,-2.46167635917663,-16.9887828826904,-102.490127563476,-104.402778625488,857957390
sts,-0.770001113414764,-15.2563781738281,-99.7431335449218,-103.332534790039,857974057
sts,0.89431345462799,-13.510757446289,-98.5428161621093,-104.164161682128,857990724
sts,2.56450963020324,-11.781470298767,-99.4095611572265,-103.190269470214,858007391
sts,4.13825225830078,-10.2132320404052,-93.8784408569336,-93.5079498291015,858024058
sts,5.6300024986267,-8.72062492370605,-88.6998977661132,-88.932373046875,858040725
sts,7.06603288650512,-7.22993993759155,-85.0326156616211,-88.7773895263671,858057392
sts,8.4934377670288,-5.76486444473266,-83.9524917602539,-87.0575256347656,858074059
sts,9.9219856262207,-4.33266544342041,-84.0592651367187,-85.1215209960937,858090726
sts,11.3336877822875,-2.94292616844177,-83.7936859130859,-82.812873840332,858107393
sts,12.6556663513183,-1.59765481948852,-79.0178909301757,-80.2932662963867,858124060
sts,13.9079847335815,-0.309279650449752,-75.1096725463867,-77.0364913940429,858140727
sts,15.0794696807861,0.960816264152526,-70.3090286254882,-76.0186462402343,858157394
sts,16.2184162139892,2.1841378211975,-68.0480880737304,-73.1672668457031,858174061
sts,17.2973937988281,3.34463357925415,-64.5371017456054,-69.3817062377929,858190728
sts,18.348180770874,4.42812633514404,-63.0375595092773,-64.7724227905273,858207395
sts,19.3342952728271,5.46922302246093,-59.49267578125,-62.1263008117675,858224062
sts,20.2585525512695,6.49226284027099,-56.2146034240722,-60.9702644348144,858240729
sts,21.1166133880615,7.47920656204223,-52.3413696289062,-58.6682586669921,858257396
sts,21.9702072143554,8.43222141265869,-52.3186225891113,-56.4509887695312,858274063
sts,22.8224754333496,9.3459186553955,-52.431167602539,-53.8343696594238,858290730
sts,23.6139469146728,10.2298946380615,-48.7296142578125,-51.7526969909668,858307397
sts,24.3653678894042,11.0898160934448,-46.6190376281738,-50.053295135498,858324064
sts,25.0589599609375,11.9467964172363,-43.2690773010253,-49.7669677734375,858340731
sts,25.71826171875,12.7237319946289,-40.8841590881347,-45.0940132141113,858357398
sts,26.3569583892822,13.4578456878662,-39.6554222106933,-42.6055488586425,858374065
sts,26.9309272766113,14.1588306427001,-36.24361038208,-40.8193817138671,858390732
sts,27.4685916900634,14.823896408081,-34.3482398986816,-38.9042625427246,858407399
sts,27.9675006866455,15.4486999511718,-32.1413040161132,-36.6951751708984,858424066
sts,28.4231128692626,16.014720916748,-29.4048557281494,-33.3953742980957,858440733
sts,28.8118419647216,16.5236339569091,-25.0537719726562,-30.2473125457763,858457400
sts,29.1418285369873,16.9557552337646,-21.5840110778808,-25.8570709228515,858474067
sts,29.4135379791259,17.297887802124,-18.1132583618164,-20.6807022094726,858490734
sts,29.6388473510742,17.601463317871,-15.1740627288818,-18.5223693847656,858507401
sts,29.7814826965332,17.8345527648925,-10.343334197998,-14.3673114776611,858524068
sts,29.8701152801513,17.997013092041,-7.20024299621582,-10.2748584747314,858540735
sts,29.9289817810058,18.1063251495361,-5.22418451309204,-7.1894998550415,858557402
sts,29.9614372253417,18.1732101440429,-3.60019874572753,-4.7105221748352,858574069
sts,29.9505710601806,18.1830215454101,-1.16745257377624,-1.34634459018707,858590736
sts,29.8995704650878,18.1383571624755,1.09891927242279,1.86020541191101,858607403
sts,29.8294830322265,18.072940826416,2.12034106254577,3.05398797988891,858624070
sts,29.7213096618652,18.0090465545654,4.53181505203247,2.96994018554687,858640737
sts,29.5964298248291,17.927785873413,5.45720338821411,4.04375267028808,858657404
sts,29.4776248931884,17.797414779663,5.01202774047851,6.92128896713256,858674071
sts,29.3353252410888,17.6569385528564,6.64825725555419,7.51460933685302,858690738
sts,29.1543750762939,17.525068283081,9.16369533538818,7.05897092819213,858707405
sts,28.9300346374511,17.3623580932617,11.4584445953369,8.97809314727783,858724072
sts,28.6747493743896,17.1519603729248,12.8385353088378,11.857003211975,858740739
sts,28.3880767822265,16.9174709320068,14.555679321289,13.3725996017456,858757406
sts,28.0303630828857,16.6509475708007,18.4696731567382,15.3234424591064,858774073
sts,27.6075572967529,16.3256111145019,22.3818798065185,18.7307014465332,858790740
sts,27.1347713470459,15.9490537643432,25.5550441741943,21.6736888885498,858807407
sts,26.6053447723388,15.5024032592773,29.1300678253173,25.7689552307128,858824074
sts,26.0189323425292,14.9834156036376,32.426342010498,30.0478534698486,858840741
sts,25.3339366912841,14.3783712387084,38.034927368164,35.15376663208,858857408
sts,24.55686378479,13.6874284744262,43.0112876892089,40.1562423706054,858874075
sts,23.6771736145019,12.9055414199829,49.1014328002929,45.4393920898437,858890742
sts,22.7266826629638,12.0462083816528,53.0615310668945,50.0041160583496,858907409
sts,21.687063217163,11.1007757186889,58.2833213806152,55.086326599121,858924076
sts,20.6003532409667,10.0725698471069,61.3067283630371,59.9644393920898,858940743
sts,19.4269638061523,8.96681404113769,66.6577224731445,64.7016830444336,858957410
sts,18.1485767364501,7.78233385086059,72.8990402221679,69.5665664672851,858974077
sts,16.8305358886718,6.52860069274902,75.6020889282226,73.7318878173828,858990744
sts,15.4552669525146,5.21326112747192,79.805549621582,77.6414108276367,859007411
sts,14.0191240310668,3.82361602783203,83.7985229492187,82.4467620849609,859024078
sts,12.5183744430542,2.35864925384521,87.8540573120117,87.2146759033203,859040745
sts,10.9367876052856,0.825286388397216,92.867935180664,91.4530639648437,859057412
sts,9.25519180297851,-0.735139489173889,98.7670822143554,93.1188812255859,859074079
sts,7.50393962860107,-2.31167197227478,102.607360839843,94.0206832885742,859090746
sts,5.70057296752929,-3.92402648925781,105.547821044921,96.1960144042968,859107413
sts,3.86196613311767,-5.58029222488403,107.414321899414,98.8895492553711,859124080
sts,2.0060429573059,-7.2704529762268,108.80768585205,100.908302307128,859140747
sts,0.115171998739242,-9.01829528808593,111.041984558105,104.291954040527,859157414
sts,-1.81892275810241,-10.7977142333984,113.676490783691,106.138397216796,859174081
sts,-3.76774930953979,-12.571044921875,114.853057861328,105.9263381958,859190748
sts,-5.7045578956604,-14.3711709976196,114.123474121093,107.954132080078,859207415
sts,-7.67317962646484,-16.1887702941894,116.099655151367,109.406684875488,859224082
sts,-9.68521308898925,-17.9877777099609,119.153213500976,108.6953125,859240749
sts,-11.7135095596313,-19.8276405334472,120.953605651855,111.197059631347,859257416
sts,-13.7720365524292,-21.7363224029541,122.995834350585,115.094970703125,859274083
sts,-15.8717908859252,-23.6535472869873,125.081886291503,116.075408935546,859290750
sts,-17.9993305206298,-25.5424861907959,126.3974609375,115.614555358886,859307417
sts,-20.119249343872,-27.6180362701416,126.069969177246,127.523063659667,859324084
sts,-22.295124053955,-29.5802288055419,129.567153930664,121.990348815917,859340751
sts,-24.4780387878417,-31.6239700317382,129.298248291015,126.894126892089,859357418
sts,-26.6854457855224,-33.720359802246,129.803436279296,129.9921875,859374085
sts,-28.9426403045654,-35.8879623413085,131.847839355468,133.714431762695,859390752
sts,-31.192850112915,-37.9894905090332,130.904663085937,129.330444335937,859407419
sts,-33.4123992919921,-40.120864868164,129.702896118164,130.685791015625,859424086
sts,-35.6377830505371,-42.313980102539,131.039993286132,134.270538330078,859440753
sts,-37.9205589294433,-44.5101432800293,135.528900146484,133.966339111328,859457420
sts,-40.2395515441894,-46.7438812255859,137.769500732421,136.089614868164,859474087
sts,-42.5288772583007,-48.9497108459472,136.343521118164,134.253952026367,859490754
sts,-44.7000160217285,-51.0287895202636,129.038192749023,126.903594970703,859507421
sts,-46.7839622497558,-52.9992904663085,123.144691467285,120.203247070312,859524088
sts,-48.7858581542968,-54.9517211914062,116.693252563476,119.471549987792,859540755
sts,-50.733097076416,-56.882080078125,112.647361755371,119.865562438964,859557422
sts,-52.6844596862793,-58.778205871582,112.12686920166,119.322433471679,859574089
sts,-54.5930137634277,-60.6320877075195,109.268608093261,117.828895568847,859590756
sts,-56.3437805175781,-62.4037017822265,99.1624908447265,112.652763366699,859607423
sts,-58.0305519104003,-64.0512313842773,94.9960784912109,102.991653442382,859624090
sts,-59.5041160583496,-65.6193466186523,81.3578643798828,96.4769439697265,859640757
sts,-60.8398361206054,-67.0621871948242,74.1800537109375,87.995002746582,859657424
sts,-62.0931282043457,-68.3361740112304,72.072265625,77.9797210693359,859674091
sts,-63.1814498901367,-69.4001388549804,63.5175285339355,65.207893371582,859690758
sts,-64.1133499145507,-70.2745590209961,54.6511726379394,53.4749298095703,859707425
sts,-64.8956604003906,-71.0078582763671,45.6753349304199,45.5165634155273,859724092
sts,-65.5371322631836,-71.6563110351562,36.8881111145019,40.5596466064453,859740759
sts,-65.991714477539,-72.2108917236328,25.4077396392822,34.044319152832,859757426
sts,-66.3567428588867,-72.6645050048828,20.3246231079101,26.9498863220214,859774093
sts,-66.6980667114257,-73.0850753784179,20.4147815704345,23.64204788208,859790760
sts,-67.0607070922851,-73.552505493164,22.1863193511962,24.9719543457031,859807427
sts,-67.389663696289,-74.0194778442382,19.1435146331787,25.1377201080322,859824094
sts,-67.6608963012695,-74.3554382324218,14.411826133728,19.0872230529785,859840761
sts,-67.8827362060546,-74.5657806396484,11.170672416687,12.9878301620483,859857428
sts,-68.0713958740234,-74.7694625854492,9.5444164276123,13.0682659149169,859874095
sts,-68.2578582763671,-75.0279464721679,9.52221012115478,15.32541847229,859890762
sts,-68.4200820922851,-75.2091827392578,8.20976257324218,9.89033317565918,859907429
sts,-68.4458847045898,-75.26220703125,1.33929467201232,2.3516240119934,859924096
sts,-68.3910827636718,-75.327522277832,-1.7197778224945,4.23697471618652,859940763
sts,-68.3915863037109,-75.5424423217773,1.95448613166809,13.8863134384155,859957430
sts,-68.4674453735351,-75.8477096557617,4.40420055389404,19.0499515533447,859974097
sts,-68.5601806640625,-76.1053237915039,4.23114776611328,15.6948442459106,859990764
sts,-68.6199569702148,-76.2783737182617,3.1785180568695,9.74581050872802,860007431
sts,-68.6894378662109,-76.3816680908203,4.77996683120727,5.54690027236938,860024098
sts,-68.7635269165039,-76.4684829711914,4.1333327293396,4.14067268371582,860040765
sts,-68.781753540039,-76.4842834472656,-1.02746653556823,-0.76909852027893,860057432
sts,-68.7230148315429,-76.4011688232421,-5.42314434051513,-6.97262334823608,860074099
sts,-68.6290435791015,-76.2848358154296,-5.90716075897216,-8.16572666168212,860090766
sts,-68.5491561889648,-76.2307891845703,-5.06347846984863,-2.85922265052795,860107433
sts,-68.5103988647461,-76.3148422241211,-3.49083137512207,5.98440074920654,860124100
sts,-68.5064468383789,-76.4859237670898,-1.29810285568237,11.0980577468872,860140767
sts,-68.4825439453125,-76.6114730834961,-1.47871077060699,8.33955478668212,860157434
sts,-68.4237442016601,-76.6429367065429,-2.93442225456237,1.73689329624176,860174101
sts,-68.3644790649414,-76.6263885498046,-3.715660572052,-2.82565760612487,860190768
sts,-68.3405685424804,-76.5926666259765,-3.16184902191162,-3.89673066139221,860207435
sts,-68.3279953002929,-76.5529556274414,-3.40786004066467,-3.63487935066223,860224102
sts,-68.2645645141601,-76.4654922485351,-6.15819120407104,-6.13988018035888,860240769
sts,-68.1666030883789,-76.3245010375976,-7.49692821502685,-9.77674388885498,860257436
sts,-68.0441207885742,-76.1965866088867,-8.84155654907226,-9.46025943756103,860274103
sts,-67.9092559814453,-76.1512145996093,-9.95153713226318,-4.72174072265625,860290770
sts,-67.7524337768554,-76.1560821533203,-11.1423873901367,-1.09006369113922,860307437
sts,-67.552734375,-76.1025161743164,-13.0126943588256,-3.80908250808715,860324104
sts,-67.348388671875,-75.9474411010742,-12.9658641815185,-10.7800064086914,860340771
sts,-67.1731872558593,-75.7679672241211,-11.5650358200073,-13.4125232696533,860357438
sts,-67.0114059448242,-75.6115646362304,-11.5653190612792,-12.8624505996704,860374105
sts,-66.8290100097656,-75.424331665039,-13.2980318069458,-14.9941282272338,860390772
sts,-66.6095504760742,-75.1425323486328,-15.3083906173706,-20.1865825653076,860407439
sts,-66.2580490112304,-74.7877502441406,-24.5063858032226,-24.5186138153076,860424106
sts,-65.8470916748046,-74.4074401855468,-29.2165470123291,-26.7030582427978,860440773
sts,-65.3723373413086,-74.0302734375,-33.177490234375,-27.6126441955566,860457440
sts,-64.8523178100586,-73.6205444335937,-36.3697967529296,-29.7658786773681,860474107
sts,-64.2412185668945,-73.0803833007812,-41.819595336914,-36.2720222473144,860490774
sts,-63.5077400207519,-72.3991928100586,-47.8775596618652,-43.7563095092773,860507441
sts,-62.6501426696777,-71.6081619262695,-53.5706520080566,-51.0358963012695,860524108
sts,-61.6634864807128,-70.7610702514648,-61.5888557434082,-56.1691970825195,860540775
sts,-60.5913734436035,-69.9153900146484,-66.5288619995117,-57.2139587402343,860557442
sts,-59.4343681335449,-69.0795822143554,-71.6229705810546,-56.5010375976562,860574109
sts,-58.2862930297851,-68.1287612915039,-71.1886672973632,-61.9086799621582,860590776
sts,-57.0266342163085,-66.9987258911132,-77.5053024291992,-71.6257400512695,860607443
sts,-55.5645675659179,-65.6236495971679,-88.3782119750976,-85.6735458374023,860624110
sts,-53.8246612548828,-64.1410064697265,-104.597137451171,-93.3707122802734,860640777
sts,-51.8753700256347,-62.6523628234863,-116.568069458007,-95.5835342407226,860657444
sts,-49.7841720581054,-61.1207084655761,-123.720748901367,-97.7318725585937,860674111
sts,-47.7347259521484,-59.4779357910156,-121.725868225097,-104.045684814453,860690778
sts,-45.7567825317382,-57.6845664978027,-119.932357788085,-112.815673828125,860707445
sts,-43.8406066894531,-55.7067146301269,-118.371261596679,-122.881896972656,860724112
sts,-41.8206558227539,-53.6561813354492,-124.836677551269,-126.565071105957,860740779
sts,-39.6284255981445,-51.7770652770996,-132.576080322265,-115.689414978027,860757446
sts,-37.3097229003906,-49.9211311340332,-136.640823364257,-114.067359924316,860774113
sts,-35.1336517333984,-48.0046997070312,-127.053527832031,-117.569633483886,860790780
sts,-33.004768371582,-45.8868408203125,-125.175376892089,-129.138854980468,860807447
sts,-30.806749343872,-43.7476158142089,-130.625915527343,-130.406051635742,860824114
sts,-28.6086025238037,-41.7436790466308,-130.12889099121,-121.538612365722,860840781
sts,-26.4776153564453,-39.8587799072265,-125.005455017089,-113.417686462402,860857448
sts,-24.3154945373535,-37.9359970092773,-126.274406433105,-115.024047851562,860874115
sts,-22.2008342742919,-35.9680671691894,-122.832115173339,-118.061897277832,860890782
sts,-20.1134510040283,-34.017333984375,-121.634506225585,-117.656799316406,860907449
sts,-18.0060386657714,-32.0432472229003,-123.733184814453,-119.183334350585,860924116
sts,-15.9887351989746,-30.0832347869873,-119.063079833984,-118.414009094238,860940783
sts,-13.9490518569946,-28.1580715179443,-120.486984252929,-116.116371154785,860957450
sts,-11.9242515563964,-26.336030960083,-119.011253356933,-109.94090270996,860974117
sts,-9.96992111206054,-24.4685726165771,-114.441314697265,-112.792495727539,860990784
sts,-7.99428653717041,-22.6149978637695,-115.911300659179,-112.269294738769,861007451
sts,-6.05095863342285,-20.7868919372558,-114.773406982421,-110.554039001464,861024118
sts,-4.17983818054199,-19.04345703125,-110.983749389648,-105.362602233886,861040785
sts,-2.39473724365234,-17.3369903564453,-106.062980651855,-103.088951110839,861057452
sts,-0.651124000549316,-15.6150779724121,-103.973587036132,-103.865737915039,861074119
sts,1.0297132730484,-13.9137353897094,-100.046882629394,-102.543182373046,861090786
sts,2.66908359527587,-12.3350629806518,-97.2293930053711,-94.8748703002929,861107453
sts,4.30785369873046,-10.7975692749023,-96.657958984375,-92.1391525268554,861124120
sts,5.87797880172729,-9.26070690155029,-92.2560501098632,-92.0314788818359,861140787
sts,7.36222171783447,-7.75648927688598,-87.4366149902343,-89.9653854370117,861157454
sts,8.78709506988525,-6.30131530761718,-84.1765975952148,-86.8966217041015,861174121
sts,10.1774072647094,-4.83764600753784,-82.6316452026367,-87.3032913208007,861190788
sts,11.531153678894,-3.45231556892395,-80.8257827758789,-82.8743820190429,861207455
sts,12.8025369644165,-2.1184868812561,-76.5404205322265,-80.1536712646484,861224122
sts,13.9837980270385,-0.858157813549041,-71.4848251342773,-76.1417388916015,861240789
sts,15.1144218444824,0.311208426952362,-68.6607513427734,-70.9167861938476,861257456
sts,16.1947689056396,1.42599618434906,-65.8824310302734,-67.5583038330078,861274123
sts,17.2244071960449,2.50515460968017,-63.0628013610839,-65.5096054077148,861290790
sts,18.1772499084472,3.54595184326171,-58.6853332519531,-63.0967063903808,861307457
sts,19.0629386901855,4.53698205947876,-54.7109069824218,-59.8676795959472,861324124
sts,19.9246959686279,5.47286415100097,-52.9254531860351,-56.1480712890625,861340791
sts,20.7595462799072,6.34622955322265,-50.5938415527343,-52.0886573791503,861357458
sts,21.4856643676757,7.15531015396118,-43.9482231140136,-47.9408302307128,861374125
sts,22.152473449707,7.88523912429809,-40.6488456726074,-43.0039749145507,861390792
sts,22.7726612091064,8.55897521972656,-38.0393714904785,-39.5038604736328,861407459
sts,23.2889537811279,9.18744564056396,-32.4675178527832,-36.7169303894043,861424126
sts,23.6898326873779,9.74434375762939,-25.892478942871,-32.5402221679687,861440793
sts,24.0255966186523,10.2160081863403,-22.4096508026123,-27.5677032470703,861457460
sts,24.2884902954101,10.6438694000244,-18.3909149169921,-25.0902633666992,861474127
sts,24.4767513275146,10.9914989471435,-14.3510236740112,-20.4475364685058,861490794
sts,24.5908432006835,11.2602081298828,-10.2740421295166,-15.9949541091918,861507461
sts,24.6571197509765,11.4587211608886,-7.51920080184936,-12.0014142990112,861524128
sts,24.685956954956,11.6139373779296,-5.1532392501831,-9.43749046325683,861540795
sts,24.6935119628906,11.7544384002685,-3.58891606330871,-8.51627826690673,861557462
sts,24.6838283538818,11.8399829864501,-2.11453342437744,-5.19052982330322,861574129
sts,24.6622142791748,11.8754692077636,-0.797746002674102,-2.13466453552246,861590796
sts,24.6258029937744,11.891713142395,0.758654654026031,-1.05268204212188,861607463
sts,24.5849685668945,11.8938798904418,1.55555522441864,-0.365454792976379,861624130
sts,24.542028427124,11.8875427246093,2.10513997077941,0.0789703652262687,861640797
sts,24.5111351013183,11.8630304336547,1.51832723617553,1.14302432537078,861657464
sts,24.4823760986328,11.8437385559082,1.45556342601776,0.773727715015411,861674131
sts,24.4630374908447,11.8333683013916,0.840102910995483,0.0429076738655567,861690798
sts,24.449686050415,11.8220310211181,0.166181609034538,-0.114424735307693,861707465
sts,24.4428482055664,11.8111410140991,-0.461617648601532,-0.283583790063858,861724132
sts,24.449649810791,11.8128633499145,-1.69019484519958,-1.07502901554107,861740799
sts,24.4594020843505,11.8451213836669,-2.21137523651123,-2.9143795967102,861757466
sts,24.4643821716308,11.8769235610961,-1.96326446533203,-2.8275396823883,861774133
sts,24.4393424987792,11.8885469436645,-0.424043834209442,-1.55008065700531,861790800
sts,24.3825435638427,11.8917808532714,1.2646849155426,-0.906241357326507,861807467
sts,24.2965927124023,11.8627920150756,3.01938557624816,1.06893968582153,861824134
sts,24.146183013916,11.8038110733032,6.76406717300415,2.94394278526306,861840801
sts,23.9277439117431,11.6578655242919,10.641770362854,8.241623878479,861857468
sts,23.6332912445068,11.4429130554199,14.9370431900024,12.2621450424194,861874135
sts,23.2457408905029,11.1651334762573,20.3990459442138,16.0586585998535,861890802
sts,22.7848415374755,10.8247108459472,24.4893035888671,19.769229888916,861907469
sts,22.2417831420898,10.3936023712158,28.9870910644531,25.0805168151855,861924136
sts,21.6024131774902,9.86587333679199,34.4842376708984,30.5922679901123,861940803
sts,20.8461666107177,9.25898933410644,41.508861541748,35.1454429626464,861957470
sts,20.0329418182373,8.57220554351806,45.2331848144531,39.6941528320312,861974137
sts,19.1647262573242,7.78666591644287,49.0821647644043,45.524185180664,861990804
sts,18.2155418395996,6.92389249801635,54.1136207580566,50.1150817871093,862007471
sts,17.2141284942626,5.98422384262085,57.3220825195312,54.7236099243164,862024138
sts,16.1524410247802,4.97322130203247,61.1288948059082,59.2330627441406,862040805
sts,15.0265083312988,3.90685367584228,65.2169342041015,62.9003677368164,862057472
sts,13.8184375762939,2.78111863136291,70.1332015991211,66.6539688110351,862074139
sts,12.5453624725341,1.61230039596557,73.8180236816406,69.4124298095703,862090806
sts,11.2415876388549,0.395512729883193,75.5040969848632,72.4825134277343,862107473
sts,9.90700531005859,-0.879972696304321,77.1730346679687,76.1793670654296,862124140
sts,8.51618289947509,-2.19156122207641,79.9274444580078,78.5440979003906,862140807
sts,7.01820373535156,-3.53471589088439,85.4998931884765,80.4936370849609,862157474
sts,5.46358299255371,-4.90235042572021,87.9236145019531,82.0786437988281,862174141
sts,3.85467743873596,-6.29018449783325,90.6384658813476,83.5052642822265,862190808
sts,2.19503545761108,-7.72414827346801,93.1257400512695,86.6703033447265,862207475
sts,0.477971106767654,-9.222412109375,96.6038970947265,90.8784027099609,862224142
sts,-1.23117065429687,-10.7597589492797,96.3883514404296,93.5466842651367,862240809
sts,-2.96644496917724,-12.3280925750732,98.8938598632812,95.6632232666015,862257476
sts,-4.76250267028808,-13.8776378631591,102.962738037109,94.7743911743164,862274143
sts,-6.58169507980346,-15.4373703002929,104.544029235839,95.5917739868164,862290810
sts,-8.47441959381103,-17.0658302307128,109.310256958007,99.6513977050781,862307477
sts,-10.4117183685302,-18.7525787353515,112.770523071289,103.156921386718,862324144
sts,-12.3479671478271,-20.476900100708,113.681671142578,105.510437011718,862340811
sts,-14.30757522583,-22.2069149017334,115.733047485351,105.63321685791,862357478
sts,-16.2333240509033,-23.9258022308349,113.604347229003,104.737327575683,862374145
sts,-18.1644802093505,-25.8302822113037,113.27359008789,115.211479187011,862390812
sts,-20.1127796173095,-27.5525779724121,113.632759094238,104.997238159179,862407479
sts,-22.1182594299316,-29.3486289978027,116.660423278808,109.658348083496,862424146
sts,-24.1602058410644,-31.2411384582519,118.491790771484,115.194557189941,862440813
sts,-26.1798648834228,-33.1218795776367,117.125984191894,114.41593170166,862457480
sts,-28.2160530090332,-35.0861892700195,119.100631713867,119.523666381835,862474147
sts,-30.2588100433349,-37.1045608520507,119.961097717285,123.031608581542,862490814
sts,-32.2762718200683,-39.065143585205,118.182434082031,119.732093811035,862507481
sts,-34.3774681091308,-41.1524238586425,123.468269348144,127.062026977539,862524148
sts,-36.5425491333007,-43.2623062133789,127.018089294433,128.541381835937,862540815
sts,-38.6940956115722,-45.4524726867675,125.09398651123,133.209976196289,862557482
sts,-40.8106498718261,-47.6296157836914,123.51902770996,132.757095336914,862574149
sts,-42.8800086975097,-49.7631874084472,121.774978637695,130.414001464843,862590816
sts,-44.99312210083,-51.8463058471679,125.166725158691,127.55320739746,862607483
sts,-47.1127586364746,-53.8877220153808,125.867492675781,125.588134765625,862624150
sts,-49.1407814025878,-55.83003616333,119.96410369873,120.059562683105,862640817
sts,-51.0565338134765,-57.6984825134277,113.219848632812,115.405311584472,862657484
sts,-52.8718681335449,-59.4829025268554,106.543708801269,109.692657470703,862674151
sts,-54.5728912353515,-61.113296508789,98.0895309448242,99.3855361938476,862690818
sts,-56.141746520996,-62.5899276733398,88.9178161621093,89.3772811889648,862707485
sts,-57.6495895385742,-63.9473800659179,85.0819778442382,80.9109497070312,862724152
sts,-59.1841773986816,-65.2272796630859,87.5223922729492,75.3843994140625,862740819
sts,-60.603530883789,-66.4102783203125,81.6367568969726,68.6815185546875,862757486
sts,-61.80806350708,-67.5367202758789,69.9347686767578,64.89794921875,862774153
sts,-62.8289146423339,-68.5985107421875,59.9629287719726,61.3414039611816,862790820
sts,-63.7550888061523,-69.5616683959961,54.9384841918945,57.1876258850097,862807487
sts,-64.5506896972656,-70.3748168945312,47.1055450439453,50.7651710510253,862824154
sts,-65.2090835571289,-71.0659790039062,38.7908134460449,44.3708152770996,862840821
sts,-65.7869033813476,-71.6898880004882,35.7327156066894,39.3371810913085,862857488
sts,-66.2310104370117,-72.2203140258789,29.8541088104248,32.8667869567871,862874155
sts,-66.6254806518554,-72.7039642333984,27.6194152832031,29.4507007598876,862890822
sts,-67.064094543457,-73.2323913574218,28.4991474151611,30.9246139526367,862907489
sts,-67.5064315795898,-73.7559661865234,27.3714008331298,29.3594493865966,862924156
sts,-67.8681488037109,-74.1667251586914,21.6032695770263,23.5669937133789,862940823
sts,-68.1343994140625,-74.4438018798828,14.5103321075439,17.2549629211425,862957490
sts,-68.3605422973632,-74.6405792236328,11.7477130889892,14.1356496810913,862974157
sts,-68.5827865600586,-74.9149398803711,11.1765775680542,18.5398063659667,862990824
sts,-68.7671432495117,-75.2491378784179,9.18498229980468,19.9141025543212,863007491
sts,-68.9146118164062,-75.4937133789062,8.07772827148437,13.5404138565063,863024158
sts,-69.0235443115234,-75.6130676269531,6.06929445266723,7.67792749404907,863040825
sts,-69.1643371582031,-75.7781372070312,6.68930101394653,10.3434314727783,863057492
sts,-69.372688293457,-76.05078125,9.81340217590332,15.5778264999389,863074159
sts,-69.5980834960937,-76.2891159057617,11.5439004898071,13.6819410324096,863090826
sts,-69.7523117065429,-76.3753280639648,8.27287101745605,5.26359605789184,863107493
sts,-69.8122329711914,-76.361343383789,2.81203746795654,-1.0352908372879,863124160
sts,-69.8671722412109,-76.3575363159179,2.16198706626892,-0.837740182876586,863140827
sts,-69.9758148193359,-76.4627609252929,3.66436505317688,5.27251052856445,863157494
sts,-70.1016693115234,-76.5897979736328,4.63428115844726,7.32096290588378,863174161
sts,-70.2030944824218,-76.6750411987304,4.40475130081176,4.97988414764404,863190828
sts,-70.2447357177734,-76.684097290039,1.02658903598785,0.307166695594787,863207495
sts,-70.2338180541992,-76.6589431762695,-3.11659216880798,-2.29439854621887,863224162
sts,-70.2085494995117,-76.6257705688476,-4.10024738311767,-2.30126309394836,863240829
sts,-70.1974411010742,-76.6377334594726,-3.24341368675231,0.719492852687835,863257496
sts,-70.1960983276367,-76.6833801269531,-1.98215425014495,1.79481637477874,863274163
sts,-70.1714248657226,-76.6995086669921,-2.7702317237854,-0.819260776042938,863290830
sts,-70.0754470825195,-76.664566040039,-6.81939649581909,-3.53538513183593,863307497
sts,-69.9374389648437,-76.5786666870117,-9.30348300933837,-5.75225448608398,863324164
sts,-69.7832794189453,-76.4984054565429,-11.0784950256347,-4.77091598510742,863340831
sts,-69.6183700561523,-76.4309005737304,-12.0313529968261,-4.52644348144531,863357498
sts,-69.4231796264648,-76.3439407348632,-13.7932929992675,-6.6777057647705,863374165
sts,-69.1811294555664,-76.1978607177734,-16.4629497528076,-10.7749738693237,863390832
sts,-68.9014053344726,-76.0043640136718,-18.4613380432128,-13.7977628707885,863407499
sts,-68.5894088745117,-75.8067016601562,-20.4789447784423,-12.645920753479,863424166
sts,-68.2825927734375,-75.6606521606445,-20.6236171722412,-9.21340370178222,863440833
sts,-67.9604339599609,-75.5479049682617,-21.5554618835449,-7.51790475845336,863457500
sts,-67.6511993408203,-75.4103851318359,-20.2312564849853,-9.35342693328857,863474167
sts,-67.3567733764648,-75.2196884155273,-19.6659183502197,-12.4628648757934,863490834
sts,-67.0887451171875,-75.0181579589843,-19.1884708404541,-13.0088272094726,863507501
sts,-66.8420867919921,-74.8109588623046,-18.1787872314453,-13.4510602951049,863524168
sts,-66.5354385375976,-74.5728530883789,-21.2360725402832,-15.6689167022705,863540835
sts,-66.1801376342773,-74.2869033813476,-23.0911388397216,-19.1993961334228,863557502
sts,-65.8270111083984,-73.9939804077148,-23.077127456665,-19.8033218383789,863574169
sts,-65.4968185424804,-73.7084350585937,-22.2156734466552,-18.5734424591064,863590836
sts,-65.1587448120117,-73.4443969726562,-22.514102935791,-16.5233840942382,863607503
sts,-64.7671737670898,-73.20263671875,-25.7727870941162,-14.6607332229614,863624170
sts,-64.3285217285156,-72.9529647827148,-29.2500629425048,-16.04833984375,863640837
sts,-63.7794876098632,-72.6640167236328,-36.7638626098632,-20.6297817230224,863657504
sts,-63.1140785217285,-72.2834854125976,-42.432258605957,-27.8210506439209,863674171
sts,-62.3394317626953,-71.7953872680664,-48.6041984558105,-35.099365234375,863690838
sts,-61.5239830017089,-71.1708145141601,-52.003849029541,-43.4100914001464,863707505
sts,-60.6429557800293,-70.4405059814453,-56.4817428588867,-49.0563697814941,863724172
sts,-59.6195411682128,-69.5690231323242,-65.027961730957,-56.6165313720703,863740839
sts,-58.3776130676269,-68.5475082397461,-77.9781417846679,-65.7183990478515,863757506
sts,-56.8958358764648,-67.3731536865234,-91.2208633422851,-76.1428604125976,863774173
sts,-55.206443786621,-66.0513687133789,-101.413841247558,-84.9977951049804,863790840
sts,-53.3960342407226,-64.667251586914,-108.66909790039,-87.8636016845703,863807507
sts,-51.5196723937988,-63.2494850158691,-113.782913208007,-90.4204635620117,863824174
sts,-49.6453208923339,-61.6841163635253,-113.015174865722,-98.9512863159179,863840841
sts,-47.7962112426757,-59.9041481018066,-111.592666625976,-111.478446960449,863857508
sts,-45.8772811889648,-57.9660530090332,-116.731185913085,-121.196868896484,863874175
sts,-43.7619285583496,-55.9835662841796,-127.990028381347,-123.831771850585,863890842
sts,-41.4471893310546,-53.9551086425781,-138.497192382812,-126.346382141113,863907509
sts,-39.1005020141601,-52.0351753234863,-138.722229003906,-119.635398864746,863924176
sts,-36.8801879882812,-50.1986007690429,-131.416351318359,-114.837020874023,863940843
sts,-34.7428131103515,-48.296085357666,-126.434875488281,-118.516624450683,863957510
sts,-32.5777626037597,-46.3104743957519,-128.56980895996,-122.137786865234,863974177
sts,-30.4352931976318,-44.2708358764648,-127.331161499023,-124.492195129394,863990844
sts,-28.273509979248,-42.2175483703613,-127.585983276367,-124.687400817871,864007511
sts,-26.1106758117675,-40.2226104736328,-127.19985961914,-120.79978942871,864024178
sts,-23.9738044738769,-38.2235527038574,-125.59048461914,-120.769821166992,864040845
sts,-21.8170356750488,-36.0672645568847,-127.265060424804,-129.728637695312,864057512
sts,-19.740966796875,-33.9407653808593,-122.709037780761,-127.47915649414,864074179
sts,-17.6795959472656,-31.9240589141845,-122.031135559082,-120.623863220214,864090846
sts,-15.6543941497802,-29.9063186645507,-119.989677429199,-120.597999572753,864107513
sts,-13.6250839233398,-27.9187049865722,-120.276489257812,-119.61368560791,864124180
sts,-11.5958461761474,-25.9237079620361,-120.692695617675,-120.28229522705,864140847
sts,-9.63295555114746,-24.1319160461425,-116.997634887695,-108.309005737304,864157514
sts,-7.71441602706909,-22.3645248413085,-114.114303588867,-106.596969604492,864174181
sts,-5.86136150360107,-20.5730457305908,-110.162902832031,-107.916954040527,864190848
sts,-4.04681348800659,-18.7642631530761,-107.818099975585,-109.022254943847,864207515
sts,-2.25288033485412,-16.905460357666,-106.509307861328,-112.248558044433,864224182
sts,-0.490204811096191,-15.1273565292358,-105.241737365722,-107.538307189941,864240849
sts,1.22486448287963,-13.4143304824829,-102.733291625976,-103.416297912597,864257516
sts,2.85332322120666,-11.7500705718994,-97.4294128417968,-100.176445007324,864274183
sts,4.39288616180419,-10.099871635437,-92.248176574707,-99.08935546875,864290850
sts,5.9195909500122,-8.48945426940918,-91.277961730957,-96.5422821044921,864307517
sts,7.40313625335693,-6.92712020874023,-87.7550964355468,-93.4387435913086,864324184
sts,8.855073928833,-5.41878700256347,-84.7854080200195,-90.1510391235351,864340851
sts,10.2877645492553,-3.93649721145629,-83.5040054321289,-88.4054794311523,864357518
sts,11.6489849090576,-2.47740721702575,-79.8885879516601,-86.6543655395507,864374185
sts,12.975658416748,-1.08748531341552,-78.7753829956054,-82.4443054199218,864390852
sts,14.1868085861206,0.298286914825439,-72.8790817260742,-82.4749984741211,864407519
sts,15.3403015136718,1.67824077606201,-69.6943740844726,-82.4201278686523,864424186
sts,16.4472923278808,3.04345512390136,-67.0911636352539,-81.4966812133789,864440853
sts,17.4747352600097,4.35483598709106,-62.9413261413574,-78.3335723876953,864457520
