Label,Left_Hip_q,Right_Hip_q,Left_Hip_qd,Right_Hip_qd,SampleTimeFine
sq,41.8238166809082,37.8244365692139,-206.361532211304,-72.3600387573242,2113508407
sq,38.5220321655273,36.6666759490967,-197.142839431762,-133.540272712707,2113525074
sq,35.3677467346192,34.5300315856934,-202.283143997193,-154.871702194214,2113541741
sq,32.1312164306641,32.0520843505859,-188.081979751587,-140.383005142212,2113558408
sq,29.1219047546387,29.8059562683105,-152.384281158447,-115.474700927734,2113575075
sq,26.6837562561035,27.9583610534668,-135.095834732056,-119.51470375061,2113591742
sq,24.5222229003906,26.046125793457,-136.029958724976,-135.318756103516,2113608409
sq,22.345743560791,23.8810256958008,-132.030248641968,-124.594688415528,2113625076
sq,20.2332595825195,21.8875106811523,-131.133794784545,-104.398488998413,2113641743
sq,18.1351188659668,20.2171348571777,-109.35664176941,-96.8806743621822,2113658410
sq,16.3854125976562,18.6670440673828,-100.855588912963,-93.7180519103999,2113675077
sq,14.7717231750488,17.1675552368164,-93.6403274536133,-87.5277519226077,2113691744
sq,13.273477935791,15.7671112060547,-71.4659690856934,-85.7505798339844,2113708411
sq,12.1300224304199,14.3951019287109,-75.448751449585,-116.195678710937,2113725078
sq,10.9228424072266,12.5359710693359,-88.0870819091797,-92.8020477294922,2113741745
sq,9.51344909667969,11.0511383056641,-74.4438171386719,-118.943691253662,2113758412
sq,8.32234802246094,9.14803924560547,-105.961084365845,-139.345645904541,2113775079
sq,6.62697067260742,6.91850891113281,-117.072820663452,-120.344877243042,2113791746
sq,4.75380554199219,4.99299087524414,-128.014087677002,-142.091512680054,2113808413
sq,2.70558013916016,2.71952667236328,-131.689548492432,-141.252040863037,2113825080
sq,0.59854736328125,0.459494018554688,-136.019706726074,-150.714874267578,2113841747
sq,-1.57776794433594,-1.95194396972656,-122.318267822266,-152.400016784668,2113858414
sq,-3.53486022949219,-4.39034423828125,-92.6251411437988,-136.455535888672,2113875081
sq,-5.01686248779297,-6.5736328125,-62.0145797729492,-108.202457427979,2113891748
sq,-6.00909576416016,-8.30487213134766,-41.7914390563965,-70.3144073486328,2113908415
sq,-6.6777587890625,-9.42990264892578,-28.6464691162109,-41.5267944335938,2113925082
sq,-7.13610229492187,-10.0943313598633,-26.9479751586914,-14.5912170410156,2113941749
sq,-7.56726989746094,-10.3277908325195,-18.9323425292969,-3.64017486572266,2113958416
sq,-7.87018737792969,-10.3860336303711,-9.58585739135742,3.80802154541016,2113975083
sq,-8.02356109619141,-10.3251052856445,-2.36177444458008,11.6839408874512,2113991750
sq,-8.06134948730469,-10.1381622314453,-1.18637084960937,12.7859115600586,2114008417
sq,-8.08033142089844,-9.93358764648437,-1.43909454345703,13.2308006286621,2114025084
sq,-8.10335693359375,-9.72189483642578,-0.999927520751953,14.5463943481445,2114041751
sq,-8.11935577392578,-9.48915252685547,4.52709197998047,14.7719383239746,2114058418
sq,-8.04692230224609,-9.25280151367187,8.05902481079102,10.2314949035644,2114075085
sq,-7.91797790527344,-9.08909759521484,7.65085220336914,3.68547439575195,2114091752
sq,-7.79556427001953,-9.03013000488281,4.67824935913086,1.76858901977539,2114108419
sq,-7.72071228027344,-9.00183258056641,0.394821166992187,-1.23977661132812,2114125086
sq,-7.71439514160156,-9.02166900634766,-4.62436676025391,-6.16645812988281,2114141753
sq,-7.78838500976562,-9.12033233642578,-5.17416000366211,-9.17673110961914,2114158420
sq,-7.87117156982422,-9.26716003417969,-5.6915283203125,-12.0687484741211,2114175087
sq,-7.96223602294922,-9.46026000976562,-5.69057464599609,-12.6442909240723,2114191754
sq,-8.05328521728516,-9.66256866455078,-3.73029708862305,-13.8969421386719,2114208421
sq,-8.11296997070312,-9.88491973876953,-3.19242477416992,-11.0487937927246,2114225088
sq,-8.16404876708984,-10.0617004394531,-4.88853454589844,-7.02905654907227,2114241755
sq,-8.24226531982422,-10.1741653442383,-6.50978088378906,-2.81572341918945,2114258422
sq,-8.34642181396484,-10.2192169189453,-7.61175155639648,-0.782489776611328,2114275089
sq,-8.46820983886719,-10.2317367553711,-7.2941780090332,0.019073486328125,2114291756
sq,-8.58491668701172,-10.2314315795898,-6.17551803588867,0.359058380126953,2114308423
sq,-8.68372497558594,-10.2256866455078,-6.28232955932617,0.802040100097656,2114325090
sq,-8.78424224853516,-10.2128540039062,-5.97238540649414,0.282764434814453,2114341757
sq,-8.87980041503906,-10.2083297729492,-5.40351867675781,0.163555145263672,2114358424
sq,-8.96625671386719,-10.205712890625,-4.6687126159668,-1.21688842773437,2114375091
sq,-9.04095611572266,-10.2251831054687,-4.66394424438477,-1.33514404296875,2114391758
sq,-9.11557922363281,-10.2465454101562,-4.18949127197266,-1.14536285400391,2114408425
sq,-9.18261108398437,-10.2648712158203,-4.08124923706055,-0.376701354980469,2114425092
sq,-9.24791107177734,-10.2708984375,-4.64439392089844,-0.0238418579101563,2114441759
sq,-9.32222137451172,-10.2712799072266,-3.79037857055664,1.93119049072266,2114458426
sq,-9.38286743164062,-10.240380859375,-3.04603576660156,5.66720962524414,2114475093
sq,-9.43160400390625,-10.1497055053711,1.2664794921875,11.3115310668945,2114491760
sq,-9.41134033203125,-9.96872100830078,4.73976135253906,16.1962509155273,2114508427
sq,-9.33550415039062,-9.70958099365234,8.38565826416016,21.6598510742188,2114525094
sq,-9.20133361816406,-9.36302337646484,12.2303962707519,24.4154930114746,2114541761
sq,-9.00564727783203,-8.97237548828125,16.9191360473633,32.444953918457,2114558428
sq,-8.73494110107422,-8.45325622558594,23.0784416198731,47.2803115844727,2114575095
sq,-8.36568603515625,-7.69677124023437,34.2240333557129,67.8176879882812,2114591762
sq,-7.81810150146484,-6.61168823242187,49.1786003112793,95.6659317016602,2114608429
sq,-7.03124389648437,-5.08103332519531,70.6205368041992,121.563911437988,2114625096
sq,-5.90131530761719,-3.1360107421875,91.6280746459961,127.950668334961,2114641763
sq,-4.43526611328125,-1.08880004882813,109.30061340332,134.160995483398,2114658430
sq,-2.68645629882812,1.05777587890625,117.272853851318,125.167846679687,2114675097
sq,-0.810090637207031,3.06046142578125,134.279727935791,134.570598602295,2114691764
sq,1.33838500976562,5.21359100341797,149.54137802124,185.791015625,2114708431
sq,3.73104705810547,8.18624725341797,152.782201766968,185.636520385742,2114725098
sq,6.17556228637695,11.1564315795898,172.152519226075,185.531377792359,2114741765
sq,8.93000259399415,14.1249336242676,163.166284561157,239.445686340332,2114758432
sq,11.5406631469727,17.9560646057129,186.822891235351,223.757266998291,2114775099
sq,14.5298294067383,21.5361808776855,215.343475341798,236.830711364746,2114791766
sq,17.975325012207,25.3254722595215,192.44909286499,204.655408859253,2114808433
sq,21.0545104980469,28.5999588012695,234.946966171264,160.647630691528,2114825100
sq,24.8136619567871,31.170320892334,209.571838378906,222.076177597046,2114841767
sq,28.1668113708496,34.7235397338867,185.246467590332,208.751559257507,2114858434
sq,31.1307548522949,38.0635646820068,190.673589706421,164.0625,2114875101
sq,34.1815322875976,40.6885646820068,195.275306701661,171.314716339112,2114891768
sq,37.3059371948242,43.4296001434326,188.573598861694,106.91511631012,2114908435
sq,40.3231147766113,45.1402420043945,195.159077644348,138.313293457031,2114925102
sq,43.4456600189209,47.353254699707,177.822709083557,164.889335632324,2114941769
sq,46.2908233642578,49.9914840698242,170.985221862793,134.016573429108,2114958436
sq,49.0265869140625,52.1357492446899,135.935425758362,167.357563972473,2114975103
sq,51.2015537261963,54.8134702682495,151.517748832703,152.628362178802,2114991770
sq,53.6258377075195,57.2555240631104,147.648215293884,126.429736614227,2115008437
sq,55.9882091522217,59.278399848938,142.541289329529,179.693728685379,2115025104
sq,58.2688697814941,62.1534995079041,157.020270824432,139.412432909012,2115041771
sq,60.7811941146851,64.3840984344482,137.49486207962,132.109768688679,2115058438
sq,62.981111907959,66.4978547334671,132.217884063721,152.779459953308,2115075105
sq,65.0965980529785,68.94232609272,147.033981978893,168.558113276958,2115091772
sq,67.4491417646408,71.6392559051514,141.603969037533,330.892503261566,2115108439
sq,69.7148052692413,76.9335359573364,152.66726911068,289.100706577301,2115125106
sq,72.1574815750122,81.5591472625732,161.046057939529,247.150301933289,2115141773
sq,74.7342185020447,85.5135520935059,131.42654299736,210.296869277954,2115158440
sq,76.8370431900024,88.8783020019531,284.537494182587,154.279351234436,2115175107
sq,81.3896430969238,91.3467716217041,253.364562988281,120.261549949646,2115191774
sq,85.4434761047363,93.2709564208984,207.995295524597,88.2610082626343,2115208441
sq,88.7714008331299,94.6831325531006,188.148260116577,68.5447454452515,2115225108
sq,91.7817729949951,95.7798484802246,136.778593063354,60.5689287185669,2115241775
sq,93.9702304840088,96.7489513397217,78.2812833786011,42.8858995437622,2115258442
sq,95.2227310180664,97.4351257324219,45.9811687469482,16.1621570587158,2115275109
sq,95.9584297180176,97.6937202453613,20.3595161437988,-14.9632692337036,2115291776
sq,96.2841819763184,97.4543079376221,-9.20164585113525,-38.1276607513428,2115308443
sq,96.1369556427002,96.8442653656006,-38.8796329498291,-68.6353445053101,2115325110
sq,95.5148815155029,95.7460998535156,-62.725305557251,-87.5533819198608,2115341777
sq,94.5112766265869,94.3452457427979,-84.3385457992554,-81.3291072845459,2115358444
sq,93.1618598937988,93.0439800262451,-132.939696311951,-94.9404239654541,2115375111
sq,91.0348247528076,91.5249332427979,-192.185997962952,-150.920629501343,2115391778
sq,87.9598487854004,89.1102031707764,-230.805039405823,-232.532858848572,2115408445
sq,84.2669681549072,85.3896774291992,-191.896319389343,-271.793842315674,2115425112
sq,81.1966270446777,81.0409759521484,-169.38054561615,-326.553344726563,2115441779
sq,78.4865383148193,75.8161224365234,-207.06245303154,-253.101348876953,2115458446
sq,75.1735390663147,71.7665008544922,-179.539293050766,-97.3945707082748,2115475113
sq,72.3009103775024,70.2081877231598,-181.382648646832,-187.227259390056,2115491780
sq,69.3987879991531,67.2125515729189,-170.671403408051,-193.106834776699,2115508447
sq,66.6680455446243,64.1228422164917,-173.09806495905,-185.359686613083,2115525114
sq,63.8984765052795,61.1570872306824,-167.338341474533,-173.249274492264,2115541781
sq,61.221063041687,58.3850988388062,-168.757319450378,-171.278476715088,2115558448
sq,58.520945930481,55.6446432113647,-180.935382843018,-187.587082386017,2115575115
sq,55.6259798049927,52.6432498931885,-178.698420524597,-155.115604400635,2115591782
sq,52.7668050765991,50.1614002227783,-182.528793811798,-153.450012207031,2115608449
sq,49.8463443756104,47.7062000274658,-198.560357093811,-164.572954177857,2115625116
sq,46.6693786621094,45.0730327606201,-204.239726066589,-172.907471656799,2115641783
sq,43.4015430450439,42.3065132141113,-205.6645154953,-181.332945823669,2115658450
sq,40.1109107971191,39.4051860809326,-234.000682830811,-210.252523422241,2115675117
sq,36.3668998718262,36.0411457061768,-232.83576965332,-235.228657722473,2115691784
sq,32.6415275573731,32.2774871826172,-220.979928970337,-205.914258956909,2115708451
sq,29.1058486938477,28.9828590393066,-222.070217132568,-211.954832077026,2115725118
sq,25.5527252197266,25.5915817260742,-216.447830200195,-221.939563751221,2115741785
sq,22.0895599365234,22.0405487060547,-206.510543823242,-188.41552734375,2115758452
sq,18.7853912353516,19.0259002685547,-190.447092056274,-189.190149307251,2115775119
sq,15.7382377624512,15.9988578796387,-193.891286849976,-178.150177001953,2115791786
sq,12.6359771728516,13.1484550476074,-172.183275222779,-161.503314971924,2115808453
sq,9.8810447692871,10.5644020080566,-146.687746047974,-135.542869567871,2115825120
sq,7.53404083251952,8.3957160949707,-135.671377182006,-119.904041290283,2115841787
sq,5.36329879760742,6.47725143432617,-117.902994155884,-104.57730293274,2115858454
sq,3.47685089111328,4.80401458740234,-108.471393585205,-79.0326595306392,2115875121
sq,1.74130859375,3.53949203491211,-84.0587615966797,-58.1872463226318,2115891788
sq,0.396368408203125,2.60849609375,-64.2743110656738,-41.318416595459,2115908455
sq,-0.632020568847656,1.94740142822266,-63.3196830749512,-26.3333320617676,2115925122
sq,-1.64513549804688,1.52606811523437,-54.4166564941406,-20.4963684082031,2115941789
sq,-2.51580200195312,1.19812622070312,-40.013313293457,2.48861312866211,2115958456
sq,-3.15601501464844,1.23794403076172,-21.1887359619141,-1.90925598144531,2115975123
sq,-3.49503479003906,1.20739593505859,-13.5254859924316,-5.2189826965332,2115991790
sq,-3.71144256591797,1.12389221191406,-12.2141838073731,0.803947448730469,2116008457
sq,-3.90686950683594,1.13675537109375,-4.05693054199219,18.8946723937988,2116025124
sq,-3.97178039550781,1.43907012939453,-5.33676147460937,34.4715118408203,2116041791
sq,-4.05716857910156,1.99061431884766,1.6179084777832,30.4102897644043,2116058458
sq,-4.03128204345703,2.47717895507812,5.65147399902344,24.5184898376465,2116075125
sq,-3.94085845947266,2.86947479248047,12.8054618835449,23.6129760742188,2116091792
sq,-3.73597106933594,3.24728240966797,22.1610069274902,38.2444858551025,2116108459
sq,-3.38139495849609,3.85919418334961,32.996654510498,53.4253120422363,2116125126
sq,-2.85344848632812,4.71399917602539,62.251091003418,74.1813182830811,2116141793
sq,-1.85743103027344,5.90090026855469,65.159797668457,95.6764221191406,2116158460
sq,-0.814874267578125,7.43172302246094,71.8398094177246,109.162330627441,2116175127
sq,0.334562683105469,9.1783203125,92.5898551940918,134.965181350708,2116191794
sq,1.81600036621094,11.3377632141113,108.625411987305,169.221162796021,2116208461
sq,3.55400695800781,14.0453018188477,101.010322570801,176.047801971435,2116225128
sq,5.17017211914063,16.8620666503906,142.433881759644,123.428583145141,2116241795
sq,7.44911422729492,18.8369239807129,232.191324234009,151.994228363037,2116258462
sq,11.1641754150391,21.2688316345215,286.130905151367,145.650148391724,2116275129
sq,15.7422698974609,23.5992340087891,203.296661376953,161.91291809082,2116291796
sq,18.9950164794922,26.1898406982422,131.983995437622,233.536243438721,2116308463
sq,21.1067604064941,29.9264205932617,180.891752243042,176.212787628174,2116325130
sq,24.0010284423828,32.7458251953125,187.505483627319,119.720697402954,2116341797
sq,27.0011161804199,34.6613563537598,204.153537750244,167.622804641723,2116358464
sq,30.2675727844238,37.3433212280273,247.074365615845,188.03870677948,2116375131
sq,34.2207626342773,40.351940536499,151.902437210083,173.244595527649,2116391798
sq,36.6512016296387,43.1238540649414,200.93297958374,168.200731277466,2116408465
sq,39.8661293029785,45.8150657653809,188.572525978088,119.640469551086,2116425132
sq,42.8832897186279,47.7293132781982,175.072312355042,133.222341537476,2116441799
sq,45.6844467163086,49.8608707427979,151.744723320007,152.970969676971,2116458466
sq,48.1123622894287,52.3084062576294,144.546031951904,162.422835826874,2116475133
sq,50.4250988006592,54.9071716308594,183.497428894043,157.586097717285,2116491800
sq,53.3610576629639,57.4285491943359,156.310677528381,152.023941278458,2116508467
sq,55.862028503418,59.8609322547913,149.944126605987,117.489337921143,2116525134
sq,58.2611345291138,61.7407616615295,152.574867010117,131.518110632896,2116541801
sq,60.7023324012756,63.8450514316559,148.608833551407,180.279955267907,2116558468
sq,63.0800737380981,66.7295307159424,151.299327611924,153.469756245613,2116575135
sq,65.5008629798889,69.1850468158722,162.101659923792,310.903117060661,2116591802
sq,68.0944895386696,74.1594966888428,149.850886315107,277.042627334595,2116608469
sq,70.4921037197113,78.5921787261963,148.70660007,247.192203998566,2116625136
sq,72.8714093208313,82.5472539901733,140.127688646316,228.384435176849,2116641803
sq,75.1134523391724,86.2014049530029,220.878005027771,160.453200340271,2116658470
sq,78.6475004196167,88.7686561584473,308.550715446472,138.863444328308,2116675137
sq,83.5843118667603,90.9904712677002,229.873597621918,96.0551500320435,2116691804
sq,87.2622894287109,92.5273536682129,197.449564933777,90.5213356018066,2116708471
sq,90.4214824676514,93.9756950378418,168.057680130005,99.6717214584351,2116725138
sq,93.1104053497315,95.5704425811768,144.223809242249,81.0257196426392,2116741805
sq,95.4179862976074,96.866854095459,97.2367525100708,57.9143762588501,2116758472
sq,96.9737743377686,97.7934841156006,70.1471567153931,45.1117753982544,2116775139
sq,98.0961288452148,98.5152725219727,50.1250028610229,20.6058025360107,2116791806
sq,98.8981288909912,98.8449653625488,28.1251668930054,5.63275814056396,2116808473
sq,99.3481315612793,98.9350894927979,0.389337539672852,-16.1092281341553,2116825140
sq,99.3543609619141,98.6773418426514,-31.7921638488769,-38.8187170028687,2116841807
sq,98.845686340332,98.0562423706055,-57.7738285064697,-60.9807968139648,2116858474
sq,97.9213050842285,97.080549621582,-75.2564668655396,-84.2810869216919,2116875141
sq,96.7172016143799,95.732052230835,-95.431923866272,-81.5455913543701,2116891808
sq,95.1902908325195,94.427322769165,-125.318050384521,-78.8086652755737,2116908475
sq,93.1852020263672,93.1663841247559,-164.677023887634,-136.624574661255,2116925142
sq,90.550369644165,90.9803909301758,-206.455230712891,-202.243685722351,2116941809
sq,87.2470859527588,87.7444919586182,-230.662763118744,-262.785196304321,2116958476
sq,83.5564817428589,83.539928817749,-178.295731544495,-302.621483802795,2116975143
sq,80.703750038147,78.6979850769043,-218.43433380127,-284.79927778244,2116991810
sq,77.2088006973267,74.1411966323853,-183.940559625626,-191.891312599182,2117008477
sq,74.2657517433167,71.0709356307983,-169.248133897781,-167.807560414076,2117025144
sq,71.5577816009522,68.3860146641731,-159.246228635311,-164.596330374479,2117041811
sq,69.0098419427872,65.7524733781815,-162.939041852951,-186.050333082676,2117058478
sq,66.40281727314,62.7756680488586,-169.309236109257,-165.614485740662,2117075145
sq,63.6938694953918,60.1258362770081,-162.456482648849,-141.941398382187,2117091812
sq,61.0945657730103,57.8547739028931,-162.660896778107,-160.230815410614,2117108479
sq,58.4919914245606,55.2910808563232,-164.688646793366,-158.741891384125,2117125146
sq,55.8569730758667,52.7512105941772,-168.089210987091,-147.813618183136,2117141813
sq,53.1675457000732,50.3861927032471,-176.493287086487,-147.629022598267,2117158480
sq,50.3436531066895,48.0241283416748,-200.477600097656,-141.822934150696,2117175147
sq,47.136011505127,45.7549613952637,-204.851984977722,-172.105550765991,2117191814
sq,43.8583797454834,43.0012725830078,-189.447999000549,-204.459190368652,2117208481
sq,40.8272117614746,39.7299255371094,-214.616179466248,-185.631036758423,2117225148
sq,37.3933528900146,36.7598289489746,-222.042202949524,-212.57758140564,2117241815
sq,33.8406776428223,33.3585876464844,-222.127914428711,-225.997447967529,2117258482
sq,30.2866310119629,29.7426284790039,-222.531080245971,-241.90354347229,2117275149
sq,26.7261337280273,25.8721717834473,-213.903188705444,-219.905376434326,2117291816
sq,23.3036827087402,22.353685760498,-215.564966201783,-220.524311065674,2117308483
sq,19.8546432495117,18.8252967834473,-194.318532943726,-214.47467803955,2117325150
sq,16.7455467224121,15.3937019348144,-193.082809448242,-181.048393249511,2117341817
sq,13.6562217712402,12.4969276428223,-162.794828414917,-186.511754989624,2117358484
sq,11.0515045166016,9.51273956298828,-168.454647064209,-161.834478378296,2117375151
sq,8.35623016357421,6.92338790893555,-161.574125289917,-158.474445343018,2117391818
sq,5.77104415893555,4.38779678344726,-142.26222038269,-125.030755996704,2117408485
sq,3.4948486328125,2.3873046875,-122.353553771973,-133.642673492432,2117425152
sq,1.53719177246094,0.249021911621094,-128.09944152832,-107.039928436279,2117441819
sq,-0.512399291992187,-1.46361694335938,-95.6792831420898,-78.5655975341797,2117458486
sq,-2.04326782226562,-2.72066650390625,-80.812931060791,-34.8854064941406,2117475153
sq,-3.33627471923828,-3.2788330078125,-71.0477828979492,-41.2511825561523,2117491820
sq,-4.47303924560547,-3.93885192871094,-66.2965774536133,-29.2830467224121,2117508487
sq,-5.53378448486328,-4.40738067626953,-58.6957931518555,-23.0560302734375,2117525154
sq,-6.47291717529297,-4.77627716064453,-44.2533493041992,-15.225887298584,2117541821
sq,-7.18097076416016,-5.01989135742187,-18.9361572265625,-0.130176544189453,2117558488
sq,-7.48394927978516,-5.02197418212891,-10.1795196533203,10.343074798584,2117575155
sq,-7.64682159423828,-4.85648498535156,-3.30734252929687,10.1590156555176,2117591822
sq,-7.69973907470703,-4.69394073486328,-0.887870788574219,11.3935470581055,2117608489
sq,-7.71394500732422,-4.51164398193359,1.31654739379883,15.8848762512207,2117625156
sq,-7.69288024902344,-4.25748596191406,2.20012664794922,23.2129096984863,2117641823
sq,-7.65767822265625,-3.88607940673828,15.0871276855469,33.6556434631348,2117658490
sq,-7.4162841796875,-3.34758911132812,26.4186859130859,39.5383834838867,2117675157
sq,-6.99358520507812,-2.71497497558594,40.2307510375977,45.9909439086914,2117691824
sq,-6.34989318847656,-1.97911987304688,39.7696495056152,59.2894554138184,2117708491
sq,-5.71357879638672,-1.03048858642578,43.1294441223145,69.0431594848633,2117725158
sq,-5.02350769042969,0.0742019653320316,44.7187423706055,80.6856155395508,2117741825
sq,-4.3080078125,1.36517181396484,69.3445205688477,98.9136695861816,2117758492
sq,-3.19849548339844,2.94779052734375,87.2430801391602,111.802577972412,2117775159
sq,-1.80260620117188,4.73663177490234,109.380722045898,139.44697380066,2117791826
sq,-0.0525146484374996,6.96778335571289,136.073112487793,128.661870956421,2117808493
sq,2.12465515136719,9.02637329101563,140.447378158569,138.333082199096,2117825160
sq,4.3718132019043,11.2397026062012,226.082801818847,179.00276184082,2117841827
sq,7.98913803100585,14.1037467956543,268.682479858399,154.849052429199,2117858494
sq,12.2880577087402,16.5813316345215,90.3759002685542,212.871551513672,2117875161
sq,13.7340721130371,19.9872764587402,106.73213005066,258.537292480469,2117891828
sq,15.4417861938477,24.1238731384277,126.149892807007,142.346143722535,2117908495
sq,17.4601844787598,26.4014114379883,248.481273651123,169.646978378296,2117925162
sq,21.4358848571777,29.115763092041,195.846319198608,191.242218017578,2117941829
sq,24.5694259643555,32.1756385803223,272.988319396974,158.913850784301,2117958496
sq,28.937239074707,34.7182601928711,166.59665107727,180.019140243531,2117975163
sq,31.6027854919434,37.5985664367676,146.903276443482,139.987230300903,2117991830
sq,33.9532379150391,39.838362121582,233.670949935913,118.970990180969,2118008497
sq,37.6919731140137,41.7418979644775,176.170825958251,115.779757499695,2118025164
sq,40.5107063293457,43.5943740844726,200.823783874512,144.147634506226,2118041831
sq,43.7238868713379,45.9007362365723,143.975973129272,158.418536186218,2118058498
sq,46.0275024414062,48.4354328155518,164.948344230652,161.825060844421,2118075165
sq,48.6666759490967,51.0246337890625,161.835551261902,154.697358608246,2118091832
sq,51.2560447692871,53.4997915267944,141.793847084045,154.642045497894,2118108499
sq,53.5247463226318,55.9740642547607,151.349723339081,155.235528945923,2118125166
sq,55.9463418960571,58.4578327178955,151.514172554016,171.967387199402,2118141833
sq,58.3705686569214,61.2093109130859,161.996990442276,121.94374203682,2118158500
sq,60.9625205039978,63.160410785675,165.599584579468,185.53276360035,2118175167
sq,63.6121138572693,66.1289350032806,147.95657992363,321.442812681198,2118191834
sq,65.9794191360474,71.2720200061798,177.082527428865,336.621984839439,2118208501
sq,68.8127395749092,76.6579717636108,154.023703187704,240.958273410797,2118225168
sq,71.2771188259125,80.5133041381836,153.030499815941,215.368628501892,2118241835
sq,73.7256068229675,83.9592021942139,321.784883737564,148.751974105835,2118258502
sq,78.8741649627686,86.3392337799072,272.086679935455,122.65944480896,2118275169
sq,83.2275518417358,88.3017848968506,238.901317119598,80.2938938140869,2118291836
sq,87.0499729156494,89.586487197876,193.491697311401,67.1404600143433,2118308503
sq,90.1458400726318,90.6607345581055,149.506568908691,77.1591663360596,2118325170
sq,92.5379451751709,91.8952812194824,95.196008682251,54.2738437652588,2118341837
sq,94.0610813140869,92.7636627197266,53.3298254013062,21.1640596389771,2118358504
sq,94.9143585205078,93.1022876739502,28.1122922897339,-0.316500663757324,2118375171
sq,95.3641551971436,93.0972236633301,-3.11970710754394,-31.8824052810669,2118391838
sq,95.3142398834229,92.587105178833,-34.1113805770874,-62.6356601715088,2118408505
sq,94.7684577941895,91.5849346160889,-63.6625289916992,-93.0259227752686,2118425172
sq,93.7498573303223,90.0965198516846,-95.7808494567871,-98.9309549331665,2118441839
sq,92.2173637390137,88.5136245727539,-130.009889602661,-82.5490951538086,2118458506
sq,90.1372055053711,87.192839050293,-184.167146682739,-129.385948181152,2118475173
sq,87.1905311584473,85.1226638793945,-230.731308460236,-208.135366439819,2118491840
sq,83.4988302230835,81.7924980163574,-236.770451068878,-286.463260650635,2118508507
sq,79.7105030059815,77.2090858459473,-165.808320045471,-304.631918668747,2118525174
sq,77.0575698852539,72.3349751472473,-177.288919687271,-274.583216756582,2118541841
sq,74.2209471702576,67.941643679142,-209.24685895443,-87.0409049093723,2118558508
sq,70.8729974269867,66.548989200592,-164.240809157491,-147.698879241943,2118575175
sq,68.2451444804668,64.185807132721,-168.919650837779,-202.406823635102,2118591842
sq,65.5424300670624,60.9472979545593,-166.58590734005,-152.502566576004,2118608509
sq,62.8770555496216,58.5072568893433,-180.440366268158,-171.848714351654,2118625176
sq,59.9900096893311,55.7576774597168,-181.569635868073,-182.314813137054,2118641843
sq,57.0848955154419,52.8406404495239,-201.440215110779,-167.228996753693,2118658510
sq,53.8618520736694,50.1649765014648,-167.540848255157,-195.371985435486,2118675177
sq,51.1811985015869,47.0390247344971,-203.460931777954,-199.624300003052,2118691844
sq,47.9258235931396,43.8450359344482,-202.737331390381,-189.142107963562,2118708511
sq,44.6820262908936,40.8187622070312,-219.481706619263,-207.391738891602,2118725178
sq,41.1703189849854,37.5004943847656,-230.383157730103,-196.792125701904,2118741845
sq,37.4841884613037,34.3518203735352,-233.947157859802,-234.697818756104,2118758512
sq,33.7410339355469,30.5966552734375,-235.458612442017,-231.693983078003,2118775179
sq,29.9736961364746,26.8895515441895,-236.428022384643,-224.321365356445,2118791846
sq,26.1908477783203,23.3004096984863,-230.527639389038,-241.94598197937,2118808513
sq,22.5024055480957,19.4292739868164,-211.506843566894,-214.740037918091,2118825180
sq,19.1182960510254,15.9934333801269,-203.112363815308,-211.097002029419,2118841847
sq,15.8684982299805,12.6158813476563,-196.332216262817,-207.913398742676,2118858514
sq,12.7271827697754,9.28926696777344,-195.783376693726,-177.533149719238,2118875181
sq,9.59464874267579,6.44873657226563,-180.594205856324,-169.028043746949,2118891848
sq,6.7051414489746,3.74428787231445,-160.938024520874,-156.448602676392,2118908515
sq,4.13013305664063,1.24111022949219,-142.738819122315,-141.824245452881,2118925182
sq,1.84631195068359,-1.02807769775391,-140.475273132324,-122.820377349854,2118941849
sq,-0.401292419433593,-2.99320373535156,-111.709117889404,-86.0261917114258,2118958516
sq,-2.18863830566406,-4.36962280273437,-83.704948425293,-61.5577697753906,2118975183
sq,-3.52791748046875,-5.35454711914062,-63.9181137084961,-50.4045486450195,2118991850
sq,-4.55060729980469,-6.16101989746094,-58.6309432983398,-39.9837493896484,2119008517
sq,-5.48870239257812,-6.80075988769531,-50.8465766906738,-24.0378379821777,2119025184
sq,-6.30224761962891,-7.18536529541016,-34.7175598144531,-4.69398498535156,2119041851
sq,-6.85772857666016,-7.26046905517578,-31.4736366271973,-1.89590454101562,2119058518
sq,-7.36130676269531,-7.29080352783203,-17.5042152404785,3.13711166381836,2119075185
sq,-7.64137420654297,-7.24060974121094,-17.7626609802246,4.22334671020508,2119091852
sq,-7.92557678222656,-7.17303619384766,-22.0136642456055,6.88076019287109,2119108519
sq,-8.27779541015625,-7.06294403076172,-12.9880905151367,13.2250785827637,2119125186
sq,-8.48560485839844,-6.8513427734375,-7.02953338623047,14.3551826477051,2119141853
sq,-8.59807739257812,-6.62165985107422,-6.27231597900391,16.514778137207,2119158520
sq,-8.69843444824219,-6.35742340087891,-6.28280639648437,19.8631286621094,2119175187
sq,-8.79895935058594,-6.03961334228516,-6.6838264465332,13.4983062744141,2119191854
sq,-8.90590057373047,-5.82364044189453,-7.31897354125977,24.9185562133789,2119208521
sq,-9.02300415039062,-5.42494354248047,-4.94527816772461,17.1957015991211,2119225188
sq,-9.10212860107422,-5.14981231689453,-0.168323516845703,20.7500457763672,2119241855
sq,-9.10482177734375,-4.81781158447266,5.79071044921875,24.0750312805176,2119258522
sq,-9.01217041015625,-4.43261108398437,7.56311416625977,16.5367126464844,2119275189
sq,-8.89116058349609,-4.16802368164062,7.52639770507812,17.9543495178223,2119291856
sq,-8.77073822021484,-3.88075408935547,2.51865386962891,11.2533569335937,2119308523
sq,-8.73043975830078,-3.70070037841797,1.9688606262207,17.4198150634766,2119325190
sq,-8.69893798828125,-3.42198333740234,5.98621368408203,19.7129249572754,2119341857
sq,-8.60315856933594,-3.10657653808594,9.11712646484375,24.6658325195313,2119358524
sq,-8.45728454589844,-2.71192321777344,14.3909454345703,27.3032188415527,2119375191
sq,-8.22702941894531,-2.27507171630859,25.6190299987793,29.0255546569824,2119391858
sq,-7.81712493896484,-1.81066284179688,42.7765846252441,39.6895408630371,2119408525
sq,-7.13269958496094,-1.17563018798828,67.7275657653809,55.8643341064453,2119425192
sq,-6.04905853271484,-0.281800842285156,101.426601409912,78.9566040039062,2119441859
sq,-4.42623291015625,0.981504821777344,119.955062866211,107.532978057861,2119458526
sq,-2.50695190429687,2.70203247070312,149.1379737854,132.232666015626,2119475193
sq,-0.120744323730468,4.81775512695313,177.332401275635,159.564018249511,2119491860
sq,2.71657409667969,7.37077941894531,190.668344497681,150.360584259033,2119508527
sq,5.76726760864258,9.77654876708984,212.109565734864,164.955615997315,2119525194
sq,9.1610206604004,12.4158386230469,208.208084106445,236.881971359253,2119541861
sq,12.4923500061035,16.2059501647949,130.372047424316,220.959186553955,2119558528
sq,14.5783027648926,19.7412971496582,134.073257446289,166.366338729858,2119575195
sq,16.7234748840332,22.4031585693359,209.336996078491,251.880168914795,2119591862
sq,20.0728668212891,26.4332412719727,274.638652801514,181.006669998168,2119608529
sq,24.4670852661133,29.3293479919434,231.33373260498,154.390335083007,2119625196
sq,28.168424987793,31.7995933532715,164.626359939576,189.292669296265,2119641863
sq,30.8024467468262,34.8282760620117,166.501760482789,198.671817779541,2119658530
sq,33.4664749145508,38.0070251464844,186.354398727417,153.093695640564,2119675197
sq,36.4481452941895,40.4565242767334,214.35809135437,147.800087928772,2119691864
sq,39.8778747558594,42.8213256835937,195.962190628052,106.78219795227,2119708531
sq,43.0132698059082,44.5298408508301,190.398693084717,126.278042793274,2119725198
sq,46.0596488952637,46.5502895355225,159.584999084473,135.696411132812,2119741865
sq,48.6130088806152,48.7214321136475,127.242803573608,150.254845619202,2119758532
sq,50.648893737793,51.1255096435547,164.292693138123,123.773157596588,2119775199
sq,53.2775768280029,53.1058801651001,128.190457820892,124.575257301331,2119791866
sq,55.3286241531372,55.0990842819214,119.68857049942,174.907326698303,2119808533
sq,57.2436412811279,57.8976015090942,141.161024570465,123.989909887314,2119825200
sq,59.5022176742554,59.8814400672913,124.599277973175,130.313336849213,2119841867
sq,61.4958061218262,61.9664534568787,133.810102939606,166.073545813561,2119858534
sq,63.6367677688599,64.6236301898956,127.18589603901,260.358184576034,2119875201
sq,65.671742105484,68.7893611431122,93.3141149580479,256.737783551216,2119891868
sq,67.1647679448128,72.8971656799316,114.509876817465,233.833372592926,2119908535
sq,68.9969259738922,76.6384996414185,124.847635626793,200.749576091766,2119925202
sq,70.9944881439209,79.8504928588867,215.199768543243,137.602627277374,2119941869
sq,74.4376844406128,82.0521348953247,200.639963150024,90.4224514961243,2119958536
sq,77.6479238510132,83.4988941192627,163.429319858551,60.225248336792,2119975203
sq,80.26279296875,84.4624980926514,123.466014862061,37.8612279891968,2119991870
sq,82.238249206543,85.0682777404785,78.7712931632996,9.26089286804199,2120008537
sq,83.4985898971558,85.2164520263672,29.8294425010681,-13.9095783233643,2120025204
sq,83.9758609771729,84.9938987731934,-5.93793392181396,-34.1070890426636,2120041871
sq,83.8808540344238,84.4481853485107,-41.2775874137878,-53.2903671264648,2120058538
sq,83.2204126358032,83.5955394744873,-78.0125856399536,-87.8044366836548,2120075205
sq,81.972211265564,82.1906684875488,-116.610467433929,-131.836712360382,2120091872
sq,80.1064437866211,80.0812810897827,-155.197620391846,-159.95442867279,2120108539
sq,77.6232818603516,77.5220102310181,-229.784280061722,-205.043256282806,2120125206
sq,73.946733379364,74.2413181304932,-120.166689157486,-250.560611486435,2120141873
sq,72.0240663528442,70.2323483467102,-117.586299777031,-266.076855361462,2120158540
sq,70.1426855564117,65.9751186609268,-140.288652153686,-133.904583752156,2120175207
sq,67.8980671219528,63.8326453208923,-148.160024313256,-156.522303819656,2120191874
sq,65.5275067329407,61.3282884597778,-141.737639904023,-182.543814182281,2120208541
sq,63.2597044944763,58.4075874328613,-123.201638460159,-137.580990791321,2120225208
sq,61.2884782791138,56.2062915802002,-127.431213855743,-124.362111091614,2120241875
sq,59.2495788574219,54.2164978027344,-134.583055973053,-147.620737552643,2120258542
sq,57.096249961853,51.8545660018921,-126.974880695343,-137.257516384125,2120275209
sq,55.0646518707275,49.6584457397461,-136.769413948059,-119.171380996704,2120291876
sq,52.8763412475586,47.7517036437988,-155.221819877625,-144.361019134522,2120308543
sq,50.3927921295166,45.4419273376465,-163.459300994873,-138.783812522888,2120325210
sq,47.7774433135986,43.2213863372803,-188.050746917725,-123.157620429993,2120341877
sq,44.768631362915,41.2508644104004,-191.277265548706,-162.66655921936,2120358544
sq,41.7081951141357,38.6481994628906,-199.370145797729,-175.949573516846,2120375211
sq,38.5182727813721,35.8330062866211,-218.717932701111,-175.96983909607,2120391878
sq,35.0187858581543,33.017488861084,-213.892221450806,-199.283361434936,2120408545
sq,31.5965103149414,29.828955078125,-198.992729187012,-219.615697860717,2120425212
sq,28.4126266479492,26.3151039123535,-206.592321395874,-199.718475341797,2120441879
sq,25.1071495056152,23.1196083068848,-205.008745193482,-204.597473144531,2120458546
sq,21.8270095825195,19.8460487365723,-195.429563522339,-194.778919219972,2120475213
sq,18.7001365661621,16.7295860290527,-190.717697143554,-186.590194702148,2120491880
sq,15.6486534118652,13.7441429138184,-176.284074783325,-166.778087615967,2120508547
sq,12.828108215332,11.0756935119629,-166.748523712158,-162.514209747315,2120525214
sq,10.1601318359375,8.47546615600586,-153.607845306397,-139.241933822632,2120541881
sq,7.70240631103516,6.24759521484375,-157.305717468262,-130.400419235229,2120558548
sq,5.18551483154296,4.16118850708008,-150.969982147216,-117.506265640259,2120575215
sq,2.7699951171875,2.28108825683594,-137.51220703125,-122.479915618896,2120591882
sq,0.5697998046875,0.321409606933594,-121.517658233643,-96.3826179504395,2120608549
sq,-1.37448272705078,-1.22071228027344,-107.284069061279,-82.6821327209473,2120625216
sq,-3.09102783203125,-2.54362640380859,-78.2942771911621,-75.3788948059082,2120641883
sq,-4.34373626708984,-3.74968872070312,-53.3995628356934,-67.2731399536133,2120658550
sq,-5.19812927246094,-4.82605895996094,-46.7805862426758,-55.0370216369629,2120675217
sq,-5.94661865234375,-5.70665130615234,-34.3852043151855,-48.4905242919922,2120691884
sq,-6.49678192138672,-6.48249969482422,-15.7551765441894,-40.5492782592773,2120708551
sq,-6.74886474609375,-7.13128814697266,-12.8664970397949,-32.2685241699219,2120725218
sq,-6.95472869873047,-7.64758453369141,-8.02373886108398,-25.883674621582,2120741885
sq,-7.08310852050781,-8.06172332763672,-8.70990753173828,-19.536018371582,2120758552
sq,-7.22246704101562,-8.37429962158203,-8.43524932861328,-13.9884948730469,2120775219
sq,-7.35743103027344,-8.59811553955078,-0.393867492675781,-5.87272644042969,2120791886
sq,-7.36373291015625,-8.69207916259766,8.08525085449219,2.23541259765625,2120808553
sq,-7.23436889648437,-8.65631256103516,12.1679306030273,7.8120231628418,2120825220
sq,-7.03968200683594,-8.53132019042969,9.08899307250977,10.9882354736328,2120841887
sq,-6.89425811767578,-8.35550842285156,12.6881599426269,12.5188827514648,2120858554
sq,-6.69124755859375,-8.15520629882812,7.37333297729492,16.7422294616699,2120875221
sq,-6.57327423095703,-7.88733062744141,4.37593460083008,12.9842758178711,2120891888
sq,-6.50325927734375,-7.67958221435547,4.69970703125,7.58790969848633,2120908555
sq,-6.42806396484375,-7.55817565917969,10.1222991943359,12.9933357238769,2120925222
sq,-6.26610717773437,-7.35028228759766,12.9861831665039,20.0300216674805,2120941889
sq,-6.05832824707031,-7.02980194091797,19.1617012023926,19.8073387145996,2120958556
sq,-5.75174102783203,-6.71288452148437,16.5047645568848,27.5225639343262,2120975223
sq,-5.48766479492187,-6.27252349853516,21.6183662414551,39.6265983581543,2120991890
sq,-5.14177093505859,-5.63849792480469,32.3629379272461,56.6868782043457,2121008557
sq,-4.62396392822266,-4.73150787353516,46.5350151062012,79.9612998962402,2121025224
sq,-3.87940368652344,-3.45212707519531,72.636604309082,126.669406890869,2121041891
sq,-2.71721801757812,-1.42541656494141,107.112884521484,158.25891494751,2121058558
sq,-1.00341186523438,1.10672607421875,125.753402709961,156.816959381104,2121075225
sq,1.008642578125,3.61579742431641,172.533988952637,188.217878341674,2121091892
sq,3.76918640136719,6.6272834777832,189.236402511597,224.730730056763,2121108559
sq,6.79696884155273,10.2229751586914,157.540321350098,202.71611213684,2121125226
sq,9.3176139831543,13.4664329528809,174.390077590942,224.340677261352,2121141893
sq,12.1078552246094,17.0558837890625,225.41332244873,269.458770751953,2121158560
sq,15.7144683837891,21.3672241210937,228.788137435913,150.747299194336,2121175227
sq,19.3750785827637,23.7791809082031,251.41167640686,197.016239166259,2121191894
sq,23.3976654052734,26.9314407348633,204.215288162232,281.394958496094,2121208561
sq,26.6651100158691,31.4337600708008,157.282114028931,118.69239807129,2121225228
sq,29.181623840332,33.3328384399414,110.954523086547,167.94753074646,2121241895
sq,30.9568962097168,36.0199989318848,193.618535995484,184.517383575439,2121258562
sq,34.0547927856445,38.9722770690918,182.697176933288,133.591055870057,2121275229
sq,36.9779476165771,41.1097339630127,223.660230636597,170.240879058838,2121291896
sq,40.5565113067627,43.8335880279541,213.696002960205,179.206490516663,2121308563
sq,43.975647354126,46.7008918762207,160.861253738403,75.9378671646123,2121325230
sq,46.5494274139404,47.9158977508545,166.500687599182,84.0824842452999,2121341897
sq,49.2134384155273,49.2612174987793,154.150605201721,167.726099491119,2121358564
sq,51.6798480987549,51.9448350906372,149.899542331696,108.303427696228,2121375231
sq,54.078240776062,53.6776899337768,155.332326889038,90.886652469635,2121391898
sq,56.5635580062866,55.131876373291,135.515630245209,157.532751560211,2121408565
sq,58.73180809021,57.6524003982544,129.971176385879,172.030359506607,2121425232
sq,60.811346912384,60.4048861503601,138.880848884582,157.792448997498,2121441899
sq,63.0334404945374,62.9295653343201,129.944279789925,245.022457093001,2121458566
sq,65.1125489711762,66.8499246478081,128.84409353137,308.287430554628,2121475233
sq,67.1740544676781,71.7825235366821,130.560848861933,231.517910957336,2121491900
sq,69.263028049469,75.4868101119995,109.2109978199,221.003413200378,2121508567
sq,71.0104040145874,79.0228647232056,143.061488866806,159.226894378662,2121525234
sq,73.2993878364563,81.5704950332642,261.699348688126,128.715097904205,2121541901
sq,77.4865774154663,83.6299365997315,228.850245475769,97.0999002456665,2121558568
sq,81.1481813430786,85.1835350036621,136.056840419769,63.9557838439941,2121575235
sq,83.3250907897949,86.206827545166,117.120504379273,26.3824462890625,2121591902
sq,85.1990188598633,86.628946685791,85.3939056396484,-15.9015655517578,2121608569
sq,86.5653213500977,86.3745216369629,31.8973064422607,-27.3382663726807,2121625236
sq,87.0756782531738,85.937109375,-14.4034624099731,-37.166953086853,2121641903
sq,86.8452228546143,85.3424381256104,-52.7714490890503,-51.5211820602417,2121658570
sq,86.0008796691895,84.5180992126465,-85.9038829803467,-89.3095731735229,2121675237
sq,84.6264175415039,83.0891460418701,-128.996551036835,-129.694044589996,2121691904
sq,82.5624727249146,81.0140413284302,-173.652410507202,-181.793749332428,2121708571
sq,79.7840341567993,78.1053413391113,-325.258821249008,-234.210193157196,2121725238
sq,74.5798930168152,74.3579782485962,-192.560210824013,-269.622042775154,2121741905
sq,71.498929643631,70.0440255641937,-123.971045017242,-308.85998904705,2121758572
sq,69.5153929233551,65.1022657394409,-170.788958668709,-155.345767736435,2121775239
sq,66.7827695846558,62.616733455658,-164.108112454414,-95.3925848007202,2121791906
sq,64.1570397853851,61.0904520988464,-156.597182154656,-209.73613858223,2121808573
sq,61.6514848709106,57.7346738815308,-144.816100597382,-184.410631656647,2121825240
sq,59.3344272613525,54.7841037750244,-151.205599308014,-157.50926733017,2121841907
sq,56.9151376724243,52.2639554977417,-142.547965049744,-164.37166929245,2121858574
sq,54.6343702316284,49.6340087890625,-152.055382728577,-165.220856666565,2121875241
sq,52.2014841079712,46.9904750823975,-182.449758052826,-161.31854057312,2121891908
sq,49.282287979126,44.4093784332275,-198.289990425109,-161.937832832337,2121908575
sq,46.1096481323242,41.8183731079101,-206.003189086914,-175.580501556396,2121925242
sq,42.8135971069336,39.0090850830078,-209.631562232971,-189.508557319641,2121941909
sq,39.4594921112061,35.9769481658936,-234.146475791931,-201.526522636414,2121958576
sq,35.7131484985351,32.7525238037109,-236.286640167236,-220.338821411133,2121975243
sq,31.9325622558594,29.2271026611328,-233.273267745972,-230.056047439575,2121991910
sq,28.2001899719238,25.5462059020996,-231.831550598145,-237.242937088012,2122008577
sq,24.4908851623535,21.7503189086914,-244.861364364624,-219.940662384034,2122025244
sq,20.5731033325195,18.2312683105469,-216.290235519409,-225.98910331726,2122041911
sq,17.112459564209,14.6154426574707,-199.789047241211,-239.46213722229,2122058578
sq,13.9158348083496,10.7840484619141,-197.057962417603,-191.998243331909,2122075245
sq,10.762907409668,7.71207656860352,-172.778367996215,-183.639526367188,2122091912
sq,7.99845352172852,4.77384414672851,-160.990953445435,-172.499418258667,2122108579
sq,5.42259826660156,2.01385345458984,-148.599624633789,-165.989875793457,2122125246
sq,3.04500427246094,-0.641984558105468,-150.331974029541,-144.372940063477,2122141913
sq,0.639692687988282,-2.95195159912109,-141.467094421387,-133.285522460937,2122158580
sq,-1.62378082275391,-5.08451995849609,-131.917953491211,-107.723236083984,2122175247
sq,-3.73446807861328,-6.80809173583984,-112.871646881104,-66.6933059692383,2122191914
sq,-5.54041442871094,-7.87518463134766,-74.8152732849121,-46.1711883544922,2122208581
sq,-6.73745880126953,-8.61392364501953,-58.2847595214844,-26.1826515197754,2122225248
sq,-7.67001495361328,-9.03284606933594,-50.3659248352051,-12.7286911010742,2122241915
sq,-8.47586975097656,-9.23650512695312,-38.8860702514648,-13.8092041015625,2122258582
sq,-9.098046875,-9.45745239257812,-37.2099876403809,-7.67707824707031,2122275249
sq,-9.69340667724609,-9.58028564453125,-25.2885818481445,-5.77497482299805,2122291916
sq,-10.0980239868164,-9.67268524169922,-18.5737609863281,-5.30672073364258,2122308583
sq,-10.3952041625977,-9.7575927734375,-13.0887031555176,-1.33943557739258,2122325250
sq,-10.6046234130859,-9.77902374267578,-6.25514984130859,-0.673294067382812,2122341917
sq,-10.7047058105469,-9.78979644775391,-0.272274017333984,-1.48296356201172,2122358584
sq,-10.7090621948242,-9.81352386474609,0.723361968994141,-3.78608703613281,2122375251
sq,-10.6974884033203,-9.87410125732422,2.13098526000977,-3.57151031494141,2122391918
sq,-10.6633926391602,-9.93124542236328,0.358104705810547,-5.68723678588867,2122408585
sq,-10.6576629638672,-10.0222412109375,0.393390655517578,-4.22048568725586,2122425252
sq,-10.6513687133789,-10.0897689819336,2.72703170776367,-0.81634521484375,2122441919
sq,-10.6077362060547,-10.1028305053711,3.43465805053711,1.03092193603516,2122458586
sq,-10.5527816772461,-10.0863357543945,1.56068801879883,1.06239318847656,2122475253
sq,-10.5278106689453,-10.0693374633789,-0.321388244628906,2.53534317016602,2122491920
sq,-10.5329528808594,-10.0287719726562,-3.56483459472656,2.67791748046875,2122508587
sq,-10.589990234375,-9.98592529296875,-5.57947158813477,1.53446197509766,2122525254
sq,-10.6792617797852,-9.96137390136719,-5.51557540893555,0.585556030273437,2122541921
sq,-10.7675109863281,-9.95200500488281,-4.10604476928711,0.0677108764648437,2122558588
sq,-10.8332077026367,-9.95092163085937,-0.757694244384766,-1.28650665283203,2122575255
sq,-10.8453308105469,-9.97150573730469,1.31607055664062,-2.83336639404297,2122591922
sq,-10.8242736816406,-10.0168395996094,3.02600860595703,-2.04038619995117,2122608589
sq,-10.7758575439453,-10.0494857788086,4.29010391235352,-1.77717208862305,2122625256
sq,-10.7072158813477,-10.0779205322266,2.75707244873047,-0.839710235595703,2122641923
sq,-10.663102722168,-10.0913558959961,0.287532806396484,0.0777244567871094,2122658590
sq,-10.6585021972656,-10.0901123046875,-0.74005126953125,1.39665603637695,2122675257
sq,-10.6703430175781,-10.0677658081055,-1.00135803222656,1.82104110717773,2122691924
sq,-10.6863647460937,-10.0386291503906,-1.5416145324707,0.681877136230469,2122708591
sq,-10.7110305786133,-10.0277191162109,-0.786304473876953,-0.703811645507812,2122725258
sq,-10.7236114501953,-10.0389801025391,-0.472545623779297,-1.75094604492187,2122741925
sq,-10.7311721801758,-10.0669952392578,-0.483512878417969,-1.72519683837891,2122758592
sq,-10.7389083862305,-10.0945983886719,-0.444889068603516,-1.21116638183594,2122775259
sq,-10.7460266113281,-10.1139770507812,-0.1068115234375,-0.812530517578125,2122791926
sq,-10.7477355957031,-10.1269775390625,0.688076019287109,-1.31988525390625,2122808593
sq,-10.7367263793945,-10.148095703125,0.542640686035156,-1.4948844909668,2122825260
sq,-10.728044128418,-10.1720138549805,-0.20599365234375,-1.11150741577148,2122841927
sq,-10.7313400268555,-10.1897979736328,-1.21784210205078,-1.59645080566406,2122858594
sq,-10.7508255004883,-10.2153411865234,-2.03609466552734,-2.50864028930664,2122875261
sq,-10.7834030151367,-10.2554794311523,-2.40421295166016,-2.61449813842773,2122891928
sq,-10.8218704223633,-10.2973114013672,-1.33657455444336,-2.66742706298828,2122908595
sq,-10.8432556152344,-10.339990234375,-0.421524047851562,-2.65026092529297,2122925262
sq,-10.85,-10.3823944091797,0.00095367431640625,-2.85196304321289,2122941929
sq,-10.8499847412109,-10.4280258178711,0.803947448730469,-2.78759002685547,2122958596
sq,-10.8371215820312,-10.4726272583008,2.61688232421875,-3.78751754760742,2122975263
sq,-10.7952514648437,-10.5332275390625,3.54766845703125,-3.61919403076172,2122991930
sq,-10.7384887695312,-10.5911346435547,3.27730178833008,-3.2958984375,2123008597
sq,-10.686051940918,-10.6438690185547,2.76422500610352,-3.46469879150391,2123025264
sq,-10.6418243408203,-10.6993041992187,2.89583206176758,-3.68404388427734,2123041931
sq,-10.595491027832,-10.7582489013672,3.42512130737305,-3.07321548461914,2123058598
sq,-10.5406890869141,-10.8074203491211,3.95584106445312,-2.66122817993164,2123075265
