Label,Left_Hip_q,Right_Hip_q,Left_Hip_qd,Right_Hip_qd,SampleTimeFine
sq,-6.51524505615234,-9.05526885986328,-8.41379165649414,18.7788009643555,2088583906
sq,-6.64986572265625,-8.75480804443359,-31.4035415649414,27.5092124938965,2088600573
sq,-7.15232238769531,-8.31466064453125,-38.485050201416,48.2645034790039,2088617240
sq,-7.76808319091797,-7.54242858886719,-25.9184837341309,40.6413078308105,2088633907
sq,-8.18277893066406,-6.89216766357422,-17.941951751709,17.1856880187988,2088650574
sq,-8.46985015869141,-6.61719665527344,-13.9017105102539,-1.88684463500977,2088667241
sq,-8.69227752685547,-6.64738616943359,-10.5643272399902,-9.34076309204102,2088683908
sq,-8.86130676269531,-6.79683837890625,-7.07435607910156,-12.545108795166,2088700575
sq,-8.97449645996094,-6.99756011962891,-4.64582443237305,-19.5274353027344,2088717242
sq,-9.04882965087891,-7.30999908447266,-3.25870513916016,-20.5535888671875,2088733909
sq,-9.10096893310547,-7.63885650634766,-3.80659103393555,-17.6339149475098,2088750576
sq,-9.16187438964844,-7.92099914550781,-3.38315963745117,-14.3184661865234,2088767243
sq,-9.21600494384766,-8.15009460449219,-2.42042541503906,-13.3681297302246,2088783910
sq,-9.25473175048828,-8.36398468017578,-0.557899475097656,-8.55445861816406,2088800577
sq,-9.26365814208984,-8.50085601806641,-0.522613525390625,-2.54154205322266,2088817244
sq,-9.27201995849609,-8.54152069091797,0.490188598632812,-0.644207000732422,2088833911
sq,-9.26417694091797,-8.55182800292969,-2.15530395507812,0.395774841308594,2088850578
sq,-9.29866180419922,-8.54549560546875,-3.62062454223633,-0.788211822509766,2088867245
sq,-9.356591796875,-8.55810699462891,-5.10501861572266,0.815868377685547,2088883912
sq,-9.43827209472656,-8.54505310058594,-5.10644912719727,1.82342529296875,2088900579
sq,-9.51997528076172,-8.51587829589844,-2.68840789794922,2.07948684692383,2088917246
sq,-9.56298980712891,-8.48260650634766,-3.20863723754883,2.1815299987793,2088933913
sq,-9.61432800292969,-8.44770202636719,-3.8294792175293,3.80373001098633,2088950580
sq,-9.67559967041016,-8.38684234619141,-3.00788879394531,2.51531600952148,2088967247
sq,-9.72372589111328,-8.34659729003906,-0.604629516601562,2.68363952636719,2088983914
sq,-9.73339996337891,-8.30365905761719,-1.41096115112305,4.67920303344727,2089000581
sq,-9.75597534179687,-8.22879180908203,-1.58452987670898,5.58137893676758,2089017248
sq,-9.78132781982422,-8.13948974609375,-1.89781188964844,2.42948532104492,2089033915
sq,-9.81169281005859,-8.10061798095703,0.632286071777344,3.98397445678711,2089050582
sq,-9.80157623291016,-8.03687438964844,2.38561630249023,4.66489791870117,2089067249
sq,-9.76340637207031,-7.96223602294922,-0.392913818359375,7.05909729003906,2089083916
sq,-9.76969299316406,-7.84929046630859,-1.75142288208008,8.25738906860352,2089100583
sq,-9.79771575927734,-7.71717224121094,-1.23500823974609,5.54370880126953,2089117250
sq,-9.81747589111328,-7.62847290039062,-1.16157531738281,3.43799591064453,2089133917
sq,-9.83606109619141,-7.57346496582031,-0.759124755859375,5.03253936767578,2089150584
sq,-9.84820709228516,-7.4929443359375,1.4491081237793,6.53791427612305,2089167251
sq,-9.82502136230469,-7.38833770751953,2.30789184570312,5.27524948120117,2089183918
sq,-9.78809509277344,-7.30393371582031,2.31742858886719,4.29344177246094,2089200585
sq,-9.75101623535156,-7.23523864746094,2.16054916381836,4.0440559387207,2089217252
sq,-9.71644744873047,-7.17053375244141,1.34468078613281,3.96156311035156,2089233919
sq,-9.69493255615234,-7.10714874267578,0.921249389648437,2.84099578857422,2089250586
sq,-9.68019256591797,-7.06169281005859,-0.792503356933594,3.570556640625,2089267253
sq,-9.69287261962891,-7.00456390380859,-3.59153747558594,3.8905143737793,2089283920
sq,-9.75033721923828,-6.94231567382812,-6.60562515258789,2.53200531005859,2089300587
sq,-9.85602722167969,-6.90180358886719,-6.44826889038086,2.74515151977539,2089317254
sq,-9.95919952392578,-6.85788116455078,-4.75263595581055,0.557422637939453,2089333921
sq,-10.0352416992187,-6.84896240234375,-4.07314300537109,-0.438213348388672,2089350588
sq,-10.1004119873047,-6.85597381591797,-4.89377975463867,0.530242919921875,2089367255
sq,-10.1787124633789,-6.84748992919922,-4.89330291748047,2.55250930786133,2089383922
sq,-10.2570053100586,-6.80664978027344,-4.04262542724609,3.02648544311523,2089400589
sq,-10.3216873168945,-6.75822601318359,-2.67744064331055,3.10039520263672,2089417256
sq,-10.3645263671875,-6.70861968994141,-2.44331359863281,3.48424911499023,2089433923
sq,-10.4036193847656,-6.65287170410156,-2.11143493652344,2.86722183227539,2089450590
sq,-10.43740234375,-6.60699615478516,-1.81102752685547,6.24608993530273,2089467257
sq,-10.4663787841797,-6.50705871582031,-2.33221054077148,5.59711456298828,2089483924
sq,-10.503694152832,-6.4175048828125,-3.06367874145508,7.95173645019531,2089500591
sq,-10.5527130126953,-6.29027709960937,-3.11756134033203,10.7970237731934,2089517258
sq,-10.6025939941406,-6.11752471923828,-4.75358963012695,9.56010818481445,2089533925
sq,-10.6786514282227,-5.96456298828125,-4.37498092651367,10.467529296875,2089550592
sq,-10.7486511230469,-5.79708251953125,-3.53145599365234,12.1564865112305,2089567259
sq,-10.8051544189453,-5.60257873535156,-2.79808044433594,15.3613090515137,2089583926
sq,-10.8499237060547,-5.35679779052734,-0.00476837158203125,23.5390663146973,2089600593
sq,-10.85,-4.98017272949219,3.8142204284668,23.7560272216797,2089617260
sq,-10.7889724731445,-4.60007629394531,5.65099716186523,21.9388008117676,2089633927
sq,-10.6985565185547,-4.24905548095703,8.79716873168945,28.0275344848633,2089650594
sq,-10.5578018188477,-3.80061492919922,16.4322853088379,25.8293151855469,2089667261
sq,-10.2948852539062,-3.38734588623047,20.4639434814453,31.7502021789551,2089683928
sq,-9.96746215820312,-2.87934265136719,23.8232612609863,38.3992195129395,2089700595
sq,-9.58628997802734,-2.26495513916016,31.5451622009277,50.0617027282715,2089717262
sq,-9.0815673828125,-1.46396789550781,45.5927848815918,64.0826225280762,2089733929
sq,-8.35208282470703,-0.438645935058593,65.7162666320801,65.2918815612789,2089750596
sq,-7.30062255859375,0.606024169921868,92.1378135681152,59.8812103271489,2089767263
sq,-5.82641754150391,1.56412353515625,116.914749145508,81.2325477600098,2089783930
sq,-3.95578155517578,2.86384429931641,135.467052459717,91.3734436035156,2089800597
sq,-1.78830871582031,4.32581939697266,162.432193756103,97.3553657531738,2089817264
sq,0.810606384277344,5.88350524902344,155.428886413574,133.985042572022,2089833931
sq,3.29746856689453,8.02726593017578,154.002666473389,155.974864959717,2089850598
sq,5.76151123046875,10.5228637695313,120.498180389404,146.1021900177,2089867265
sq,7.68948211669922,12.8604988098144,127.569675445556,173.784971237183,2089883932
sq,9.73059692382812,15.6410583496094,161.226034164429,169.934749603271,2089900599
sq,12.310213470459,18.3600143432617,157.900571823121,169.050216674804,2089917266
sq,14.8366226196289,21.0648178100586,156.830072402954,145.128250122071,2089933933
sq,17.3459037780762,23.3868698120117,169.059038162231,151.639223098755,2089950600
sq,20.0508483886719,25.8130973815918,156.151056289673,157.684803009033,2089967267
sq,22.5492652893066,28.3360542297363,144.966363906861,153.830528259277,2089983934
sq,24.8687271118164,30.7973426818848,145.647525787353,131.133198738098,2090000601
sq,27.1990875244141,32.8954738616943,141.319990158081,137.943625450134,2090017268
sq,29.4602073669434,35.1025718688965,127.800941467285,115.828037261963,2090033935
sq,31.5050224304199,36.9558204650879,136.238336563111,88.0212783813472,2090050602
sq,33.6848358154297,38.3641609191895,134.304285049438,94.5814847946167,2090067269
sq,35.8337043762207,39.8774646759033,151.141047477722,27.7141332626343,2090083936
sq,38.2519611358643,40.3208908081055,138.983607292175,117.180466651917,2090100603
sq,40.4756988525391,42.1957782745361,125.795245170593,115.163087844849,2090117270
sq,42.4884227752686,44.0383876800537,119.383931159974,95.9451198577881,2090133937
sq,44.3985656738281,45.5735095977783,98.7910032272334,122.711896896362,2090150604
sq,45.9792217254639,47.5368999481201,118.85118484497,106.802403926849,2090167271
sq,47.8808406829834,49.2457384109497,121.120810508728,142.334222793579,2090183938
sq,49.8187736511231,51.523085975647,115.218758583069,105.606317520142,2090200605
sq,51.6622737884521,53.2127870559692,109.11637544632,124.377965927124,2090217272
sq,53.4081357955933,55.2028345108032,114.732623100281,118.2981133461,2090233939
sq,55.2438577651978,57.0956043243408,108.966886997223,132.49346613884,2090250606
sq,56.9873279571533,59.2154997825622,114.247500896454,106.296002864838,2090267273
sq,58.8152879714966,60.9162358283997,109.262764453888,120.605163276195,2090283940
sq,60.5634922027588,62.8459184408188,106.354236602783,108.335431665183,2090300607
sq,62.2651599884033,64.5792853474617,105.78578710556,101.635973900557,2090317274
sq,63.9577325820923,66.2054609298706,103.435680270195,115.631073713303,2090333941
sq,65.6127034664154,68.0555581092835,99.3720591068268,116.147816181183,2090350608
sq,67.2026564121246,69.9139231681824,111.010948196054,193.238645792007,2090367275
sq,68.9788315832615,73.0057415008545,107.088847085834,206.2908411026,2090383942
sq,70.6922531366348,76.3063949584961,91.1335125565529,209.732472896576,2090400609
sq,72.1503893375397,79.6621145248413,171.942040324211,195.392906665802,2090417276
sq,74.9014619827271,82.7884010314941,223.651587963104,180.362701416016,2090433943
sq,78.4798873901367,85.6742042541504,208.533108234405,148.465514183044,2090450610
sq,81.8164171218872,88.0496524810791,172.856748104095,109.119057655335,2090467277
sq,84.5821250915527,89.7955574035645,164.140820503235,95.3929424285889,2090483944
sq,87.2083782196045,91.3218444824219,145.508289337158,69.5619583129883,2090500611
sq,89.536510848999,92.4348358154297,120.298743247986,55.6117296218872,2090517278
sq,91.4612907409668,93.3246234893799,97.6575613021851,41.7493581771851,2090533945
sq,93.0238117218018,93.9926132202148,73.8590955734253,37.7099514007568,2090550612
sq,94.2055572509766,94.595972442627,55.9117794036865,28.6800861358643,2090567279
sq,95.1001457214356,95.0548538208008,40.209174156189,17.6825523376465,2090583946
sq,95.7434925079346,95.3377746582031,24.0776538848877,3.68404388427734,2090600613
sq,96.1287349700928,95.3967193603516,9.94157791137695,-15.5322551727295,2090617280
sq,96.2878002166748,95.1482032775879,-7.74693489074707,-33.0632925033569,2090633947
sq,96.1638492584229,94.6191905975342,-27.6768207550049,-47.7294921875,2090650614
sq,95.7210201263428,93.8555187225342,-50.3453016281128,-61.062216758728,2090667281
sq,94.915495300293,92.8785232543945,-75.5949020385742,-71.8348026275635,2090683948
sq,93.7059768676758,91.7291664123535,-105.877757072449,-88.7227058410645,2090700615
sq,92.0119327545166,90.3096031188965,-154.703855514526,-142.71879196167,2090717282
sq,89.5366710662842,88.0261024475098,-196.239352226257,-208.22536945343,2090733949
sq,86.3968414306641,84.6944965362549,-226.145803928375,-251.285076141357,2090750616
sq,82.7785085678101,80.6739353179932,-187.723278999329,-320.333123207092,2090767283
sq,79.7749361038208,75.5486053466797,-187.527298927307,-309.235692024231,2090783950
sq,76.7744993209839,70.600834274292,-166.216403245926,-137.919515371323,2090800617
sq,74.1150368690491,68.3941220283508,-181.345164775848,-215.783596038818,2090817284
sq,71.2135142326355,64.9415844917297,-169.617967680097,-214.082047343254,2090833951
sq,68.499626749754,61.5162717342377,-171.616284176707,-171.587482094765,2090850618
sq,65.7537662029266,58.7708720207214,-164.795860648156,-169.491618871689,2090867285
sq,63.1170324325562,56.0590061187744,-158.615112304687,-137.818455696106,2090883952
sq,60.5791906356812,53.8539108276367,-158.842980861664,-143.950343132019,2090900619
sq,58.0377029418945,51.5507053375244,-152.700304985046,-152.440190315246,2090917286
sq,55.5944980621338,49.1116622924805,-158.890545368195,-136.266946792603,2090933953
sq,53.0522493362427,46.9313911437988,-174.317061901092,-131.904721260071,2090950620
sq,50.2631763458252,44.8209156036377,-173.752903938294,-135.518789291382,2090967287
sq,47.4831298828125,42.6526149749756,-190.793037414551,-146.945714950561,2090983954
sq,44.4304412841797,40.3014835357666,-189.501047134399,-156.877994537353,2091000621
sq,41.3984245300293,37.7914356231689,-214.756488800049,-165.420770645142,2091017288
sq,37.9623207092285,35.1447032928467,-216.665267944336,-195.447087287902,2091033955
sq,34.4956764221191,32.0175498962402,-218.990087509156,-206.681966781616,2091050622
sq,30.9918350219727,28.7106384277344,-218.829631805419,-207.585811614991,2091067289
sq,27.4905609130859,25.3892654418945,-216.784477233887,-214.561223983765,2091083956
sq,24.0220092773437,21.9562858581543,-192.249059677124,-215.921401977539,2091100623
sq,20.9460243225098,18.5015434265137,-212.31198310852,-188.27223777771,2091117290
sq,17.5490325927734,15.4891876220703,-193.819761276246,-191.131830215454,2091133957
sq,14.4479164123535,12.4310783386231,-194.093465805054,-185.119390487671,2091150624
sq,11.3424209594726,9.46916809082031,-166.023254394531,-166.990995407104,2091167291
sq,8.68604888916015,6.79731216430664,-170.731306076049,-165.018796920776,2091183958
sq,5.95434799194336,4.15701141357422,-166.308641433716,-159.847259521484,2091200625
sq,3.29340972900391,1.59945526123047,-131.933689117432,-152.787208557129,2091217292
sq,1.182470703125,-0.845140075683593,-124.606132507324,-124.181270599365,2091233959
sq,-0.811227416992187,-2.83204040527344,-102.149963378906,-115.296363830566,2091250626
sq,-2.44562683105469,-4.6767822265625,-76.566219329834,-93.8796997070312,2091267293
sq,-3.67068634033203,-6.178857421875,-68.0575370788574,-74.0604400634766,2091283960
sq,-4.75960693359375,-7.36382446289062,-50.0292778015137,-53.349494934082,2091300627
sq,-5.56007537841797,-8.21741638183594,-28.8805961608887,-34.3446731567383,2091317294
sq,-6.02216491699219,-8.76693115234375,-19.0682411193848,-17.8408622741699,2091333961
sq,-6.32725677490234,-9.05238494873047,-11.1508369445801,-15.5401229858398,2091350628
sq,-6.50567016601562,-9.30102691650391,0.319480895996094,-10.3316307067871,2091367295
sq,-6.50055847167969,-9.4663330078125,-1.29795074462891,-12.7029418945312,2091383962
sq,-6.52132568359375,-9.669580078125,-5.38873672485352,-4.79030609130859,2091400629
sq,-6.60754547119141,-9.74622497558594,-9.48953628540039,1.38330459594727,2091417296
sq,-6.75937805175781,-9.72409210205078,-10.4999542236328,7.52830505371094,2091433963
sq,-6.92737731933594,-9.60363922119141,-5.63955307006836,10.4279518127441,2091450630
sq,-7.01761016845703,-9.4367919921875,-5.32150268554687,16.1876678466797,2091467297
sq,-7.10275421142578,-9.17778930664062,-1.69658660888672,25.0306129455566,2091483964
sq,-7.12989959716797,-8.77729949951172,4.12368774414062,34.2941284179688,2091500631
sq,-7.06392059326172,-8.22859344482422,11.4326477050781,37.1756553649902,2091517298
sq,-6.88099822998047,-7.63378295898437,12.8517150878906,42.2348976135254,2091533965
sq,-6.67537078857422,-6.95802459716797,15.4695510864258,47.1200942993164,2091550632
sq,-6.42785797119141,-6.20410308837891,16.2086486816406,61.9325637817383,2091567299
sq,-6.16851959228516,-5.21318206787109,20.7490921020508,62.1705055236816,2091583966
sq,-5.83653411865234,-4.21845397949219,30.5314064025879,70.1985359191895,2091600633
sq,-5.34803161621094,-3.09527740478516,47.5850105285645,92.7939414978027,2091617300
sq,-4.58667144775391,-1.61057434082031,68.5257911682129,101.465225219727,2091633967
sq,-3.4902587890625,0.0128692626953129,87.1419906616211,85.1874351501465,2091650634
sq,-2.09598693847656,1.37586822509766,106.87780380249,109.137058258056,2091667301
sq,-0.385942077636718,3.12206115722656,127.426624298096,101.613998413086,2091683968
sq,1.65288391113281,4.74788513183594,143.945217132568,103.000879287719,2091700635
sq,3.95600738525391,6.39589920043945,175.30369758606,141.71051979065,2091717302
sq,6.76086654663086,8.66326751708985,206.451654434204,180.280208587646,2091733969
sq,10.0640930175781,11.5477508544922,147.667169570923,114.112138748169,2091750636
sq,12.4267677307129,13.3735450744629,166.385650634766,178.512573242187,2091767303
sq,15.0889381408691,16.2297462463379,200.645923614502,217.446088790894,2091783970
sq,18.2992729187012,19.7088836669922,138.583421707153,137.682437896729,2091800637
sq,20.5166076660156,21.9118026733398,87.7199172973642,178.423643112182,2091817304
sq,21.9201263427734,24.7665809631348,145.317554473876,171.276569366455,2091833971
sq,24.2452072143555,27.507006072998,212.945699691772,103.16276550293,2091850638
sq,27.6523384094238,29.1576103210449,164.239406585693,152.79221534729,2091867305
sq,30.2801689147949,31.6022857666016,163.114070892334,125.126123428345,2091883972
sq,32.8899940490723,33.6043037414551,131.648302078247,57.9932928085327,2091900639
sq,34.9963668823242,34.5321964263916,148.30482006073,106.68671131134,2091917306
sq,37.3692440032959,36.239183807373,125.139117240906,57.8781366348271,2091933973
sq,39.3714698791504,37.1652339935303,122.414231300354,80.640435218811,2091950640
sq,41.3300975799561,38.4554809570312,126.636147499085,90.488076210022,2091967307
sq,43.3562759399414,39.9032901763916,133.722186088562,97.236156463623,2091983974
sq,45.4958309173584,41.4590686798096,113.340139389038,164.708971977234,2092000641
sq,47.309273147583,44.0944122314453,94.1952466964722,76.0858058929443,2092017308
sq,48.8163970947266,45.3117851257324,104.922294616699,115.485310554504,2092033975
sq,50.4951538085937,47.1595500946045,113.55996131897,131.705403327942,2092050642
sq,52.3121131896973,49.2668365478516,111.875653266907,120.647192001343,2092067309
sq,54.1021236419678,51.1971916198731,121.840059757233,142.164051532745,2092083976
sq,56.0515645980835,53.471816444397,117.833316326141,129.028677940369,2092100643
sq,57.9368976593018,55.5362752914429,127.12025642395,155.156880617142,2092117310
sq,59.970821762085,58.0187853813171,120.294392108917,123.906373977661,2092133977
sq,61.8955320358276,60.0012873649597,124.344915151596,130.880534648895,2092150644
sq,63.8850506782532,62.095375919342,109.316810965538,121.089279651642,2092167311
sq,65.6341196537018,64.0328043937683,115.250132977962,165.883392095566,2092183978
sq,67.4781217813492,66.6869386672974,112.05062456429,144.351154565811,2092200645
sq,69.2709317743778,68.9965571403503,113.400420174003,227.814108133316,2092217312
sq,71.0853384971619,72.6415828704834,104.459658265114,233.832001686096,2092233979
sq,72.7566930294037,76.3828948974609,110.001012682915,225.315868854523,2092250646
sq,74.5167092323303,79.9879487991333,103.306263685226,216.400682926178,2092267313
sq,76.169609451294,83.4503597259522,204.799771308899,172.124981880188,2092283980
sq,79.4464057922363,86.2043594360352,251.757979393005,115.558505058289,2092300647
sq,83.4745334625244,88.0532955169678,195.428848266602,97.8380441665649,2092317314
sq,86.60139503479,89.6187042236328,182.052493095398,85.1289033889771,2092333981
sq,89.5142349243164,90.9807666778565,159.140586853027,62.2096061706543,2092350648
sq,92.0604843139648,91.9761203765869,119.733810424805,51.0063171386719,2092367315
sq,93.9762252807617,92.7922214508057,73.4670162200928,32.8068733215332,2092383982
sq,95.1516975402832,93.3171314239502,39.7365093231201,16.3114070892334,2092400649
sq,95.7874816894531,93.5781139373779,14.5004987716675,-8.53776931762695,2092417316
sq,96.0194896697998,93.4415096282959,-4.79400157928467,-30.8465957641602,2092433983
sq,95.9427856445313,92.9479640960693,-30.6468009948731,-53.3831119537354,2092450650
sq,95.4524368286133,92.0938343048096,-55.0321340560913,-62.7951622009277,2092467317
sq,94.5719226837158,91.0891117095947,-81.3722610473633,-66.7284727096558,2092483984
sq,93.269966506958,90.0214561462402,-113.044261932373,-83.7752819061279,2092500651
sq,91.46125831604,88.6810516357422,-149.70064163208,-127.252101898193,2092517318
sq,89.0660480499268,86.6450180053711,-185.338377952576,-185.236930847168,2092533985
sq,86.1006340026856,83.6812271118164,-219.861209392548,-233.689606189728,2092550652
sq,82.5828546524048,79.9421934127808,-172.932028770447,-293.447732925415,2092567319
sq,79.8159421920776,75.2470296859741,-171.134531497955,-328.688859939575,2092583986
sq,77.0777896881104,69.9880079269409,-151.495575904846,-216.678828001022,2092600653
sq,74.6538604736328,66.5211466789246,-171.626374125481,-186.031479388476,2092617320
sq,71.9078384876251,63.544643008709,-162.42235712707,-173.731964081526,2092633987
sq,69.309080773592,60.7649315834045,-165.892558172345,-173.261672258377,2092650654
sq,66.6547998428345,57.9927448272705,-160.790473222732,-150.716722011566,2092667321
sq,64.0821522712708,55.5812772750854,-169.540017843247,-114.973604679108,2092683988
sq,61.3695119857788,53.7416996002197,-165.471911430359,-150.627374649048,2092700655
sq,58.7219614028931,51.331661605835,-149.098813533783,-145.050704479218,2092717322
sq,56.3363803863525,49.0108503341675,-160.0621342659,-130.986034870148,2092733989
sq,53.7753862380981,46.9150737762451,-153.331220149994,-146.686673164368,2092750656
sq,51.3220867156982,44.5680870056152,-156.885862350464,-128.952622413635,2092767323
sq,48.8119129180908,42.5048450469971,-183.165907859802,-111.358761787415,2092783990
sq,45.881258392334,40.7231048583984,-179.505944252015,-159.021615982056,2092800657
sq,43.0091632843017,38.1787590026856,-187.427163124084,-169.010519981384,2092817324
sq,40.0103286743164,35.4745906829834,-201.256275177002,-182.846426963806,2092833991
sq,36.7902282714844,32.5490478515625,-202.024459838867,-183.29668045044,2092850658
sq,33.5578369140625,29.6163009643555,-207.874774932861,-192.821741104126,2092867325
sq,30.2318405151367,26.5311531066894,-188.789367675781,-203.896045684814,2092883992
sq,27.2112106323242,23.2688163757324,-193.933963775635,-224.698543548584,2092900659
sq,24.1082672119141,19.6736396789551,-204.101324081421,-213.342428207397,2092917326
sq,20.8426460266113,16.2601608276367,-185.756921768189,-209.03730392456,2092933993
sq,17.8705352783203,12.9155639648438,-183.427333831787,-181.025266647339,2092950660
sq,14.9356979370117,10.0191596984863,-172.630548477173,-175.889968872071,2092967327
sq,12.1736091613769,7.2049201965332,-160.604476928711,-180.888414382934,2092983994
sq,9.60393753051758,4.31070556640625,-141.145944595336,-187.581300735474,2093000661
sq,7.34560241699219,1.30940475463867,-134.676218032837,-163.047552108765,2093017328
sq,5.1907829284668,-1.29935607910156,-112.743616104126,-170.629024505615,2093033995
sq,3.38688507080078,-4.02942047119141,-111.752986907959,-141.252994537353,2093050662
sq,1.59883728027344,-6.28946838378906,-96.3969230651855,-96.315860748291,2093067329
sq,0.0564865112304691,-7.83052215576172,-83.5962295532227,-66.591739654541,2093083996
sq,-1.28105316162109,-8.89598999023437,-74.4047164916992,-48.8700866699219,2093100663
sq,-2.47152862548828,-9.67791137695312,-61.7475509643555,-29.3173789978027,2093117330
sq,-3.45948944091797,-10.146989440918,-49.9682426452637,-5.85603713989258,2093133997
sq,-4.25898132324219,-10.2406860351562,-42.7651405334473,8.67080688476562,2093150664
sq,-4.94322357177734,-10.101953125,-20.6198692321777,7.49540328979492,2093167331
sq,-5.27314147949219,-9.98202667236328,-18.9862251281738,5.2642822265625,2093183998
sq,-5.57692108154297,-9.89779815673828,-18.4383392333984,-2.03561782836914,2093200665
sq,-5.87193450927734,-9.93036804199219,-20.3232765197754,-3.52239608764648,2093217332
sq,-6.19710693359375,-9.98672637939453,-17.8661346435547,7.44438171386719,2093233999
sq,-6.48296508789062,-9.86761627197266,-12.4430656433106,1.06334686279297,2093250666
sq,-6.68205413818359,-9.85060272216797,-9.0484619140625,6.97946548461914,2093267333
sq,-6.82682952880859,-9.73893127441406,-6.14452362060547,18.1756019592285,2093284000
sq,-6.92514190673828,-9.44812164306641,-6.57987594604492,20.235538482666,2093300667
sq,-7.030419921875,-9.12435302734375,-2.85673141479492,29.7245979309082,2093317334
sq,-7.07612762451172,-8.64875946044922,4.24718856811523,10.8380317687988,2093334001
sq,-7.00817260742187,-8.47535095214844,6.64138793945312,4.41837310791016,2093350668
sq,-6.90191040039062,-8.40465698242187,2.07901000976562,-0.236988067626953,2093367335
sq,-6.86864624023437,-8.40844879150391,0.952243804931641,15.2387619018555,2093384002
sq,-6.85341033935547,-8.16462860107422,5.63907623291016,24.5046615600586,2093400669
sq,-6.76318511962891,-7.77255401611328,13.646125793457,21.6774940490723,2093417336
sq,-6.54484710693359,-7.42571411132812,18.6185836791992,30.5953025817871,2093434003
sq,-6.24694976806641,-6.93618927001953,17.5409317016602,24.8875617980957,2093450670
sq,-5.96629486083984,-6.53798828125,12.7177238464356,26.3347625732422,2093467337
sq,-5.76281127929687,-6.11663208007812,14.5912170410156,32.494068145752,2093484004
sq,-5.52935180664062,-5.59672698974609,16.1185264587402,64.448356628418,2093500671
sq,-5.27145538330078,-4.56555328369141,32.7777862548828,113.477230072021,2093517338
sq,-4.74701080322266,-2.74991760253906,71.9552040100098,117.077827453613,2093534005
sq,-3.5957275390625,-0.87667236328125,112.349033355713,106.777667999268,2093550672
sq,-1.79814300537109,0.831770324707032,148.270606994629,128.613710403442,2093567339
sq,0.574186706542969,2.88958969116211,163.930416107178,141.247510910034,2093584006
sq,3.19707336425781,5.14954986572266,168.317794799805,169.164896011353,2093600673
sq,5.89015808105469,7.8561882019043,219.544172286987,90.8896923065181,2093617340
sq,9.40286483764648,9.31042327880859,308.247566223145,136.276721954347,2093634007
sq,14.3348258972168,11.4908508300781,53.3099174499503,260.928630828857,2093650674
sq,15.187784576416,15.6657089233398,43.9593791961679,180.163860321044,2093667341
sq,15.8911346435547,18.5483306884766,164.075374603271,168.023347854615,2093684008
sq,18.516340637207,21.2367042541504,199.418067932129,98.0222225189213,2093700675
sq,21.7070297241211,22.8050598144531,202.890396118164,148.978948593139,2093717342
sq,24.9532760620117,25.1887229919434,167.791366577148,199.241638183594,2093734009
sq,27.6379379272461,28.3765892028809,86.39669418335,161.546230316162,2093750676
sq,29.0202850341797,30.9613288879394,108.062982559204,118.666648864747,2093767343
sq,30.749292755127,32.8599952697754,178.704738616944,95.717191696167,2093784010
sq,33.6085685729981,34.3914703369141,147.065639495849,37.8701686859131,2093800677
sq,35.9616188049316,34.9973930358887,125.461101531982,56.3088655471797,2093817344
sq,37.9689964294434,35.8983348846436,108.939409255981,112.25426197052,2093834011
sq,39.7120269775391,37.6944030761719,103.442192077637,97.0810651779175,2093850678
sq,41.3671020507812,39.2477001190186,141.969919204712,131.163835525513,2093867345
sq,43.6386207580566,41.3463214874268,139.581322669983,101.967096328735,2093884012
sq,45.8719219207764,42.9777950286865,130.688905715943,103.966355323792,2093900679
sq,47.9629444122315,44.6412567138672,117.686033248901,141.931056976318,2093917346
sq,49.8459209442139,46.9121536254883,101.287484169006,133.892714977264,2093934013
sq,51.466520690918,49.0544370651245,124.730288982391,148.136794567108,2093950680
sq,53.4622053146362,51.4246257781982,125.674426555634,155.163705348969,2093967347
sq,55.4729961395264,53.9072450637817,153.403043746948,204.99774813652,2093984014
sq,57.9274448394775,57.1872090339661,145.360350608826,120.652109384537,2094000681
sq,60.2532104492187,59.1176427841187,155.113756656647,125.504538416863,2094017348
sq,62.7350305557251,61.1257153987885,131.702050566674,172.973640263081,2094034015
sq,64.8422633647919,63.8932936429977,146.923117339611,217.081464827061,2094050682
sq,67.1930332422257,67.3665970802307,153.484873473644,309.227138757706,2094067349
sq,69.648791217804,72.314231300354,140.335232019424,266.598999500275,2094084016
sq,71.8941549301148,76.5798152923584,133.582085371018,246.66178226471,2094100683
sq,74.031468296051,80.5264038085938,282.241374254227,216.496706008911,2094117350
sq,78.5473302841187,83.9903511047363,308.631718158722,112.66827583313,2094134017
sq,83.4854377746582,85.7930435180664,227.981328964233,107.156634330749,2094150684
sq,87.1331390380859,87.5075496673584,191.910624504089,84.6711397171021,2094167351
sq,90.2037090301514,88.862287902832,134.928941726685,67.1895742416382,2094184018
sq,92.3625720977783,89.9373210906982,93.5630798339844,56.8230152130127,2094200685
sq,93.8595813751221,90.8464893341065,50.9257316589355,20.4204320907593,2094217352
sq,94.674393081665,91.1732162475586,23.7220525741577,-19.9990272521973,2094234019
sq,95.0539459228516,90.8532318115234,-9.69302654266357,-53.4119606018066,2094250686
sq,94.898857498169,89.9986404418945,-44.7784662246704,-81.6899538040161,2094267353
sq,94.1824020385742,88.6916011810303,-90.3213024139404,-94.1663980484009,2094284020
sq,92.7372611999512,87.1849388122559,-131.595492362976,-122.988104820251,2094300687
sq,90.6317333221436,85.2171291351318,-199.771881103516,-201.163172721863,2094317354
sq,87.4353832244873,81.998518371582,-260.883212089539,-289.732694625854,2094334021
sq,83.2612518310547,77.3627952575684,-245.400369167328,-358.286619186401,2094350688
sq,79.3348459243774,71.6302093505859,-204.432606697082,-374.363161623478,2094367355
sq,76.0639242172241,65.6403987646103,-220.369458198547,-149.068698287011,2094384022
sq,72.5380128860474,63.2552995920181,-203.321006149054,-198.618091642857,2094400689
sq,69.2848767876625,60.0774101257324,-209.130484610796,-240.353614091873,2094417356
sq,65.9387890338898,56.2317523002624,-212.756469845772,-192.797154188156,2094434023
sq,62.5346855163574,53.146997833252,-195.535600185394,-185.508608818054,2094450690
sq,59.4061159133911,50.1788600921631,-198.869943618774,-189.717411994934,2094467357
sq,56.2241968154907,47.1433815002441,-207.403600215912,-179.855465888977,2094484024
sq,52.9057392120361,44.2656940460205,-217.109084129333,-182.317972183228,2094500691
sq,49.4319938659668,41.3486064910889,-233.047366142273,-221.003651618957,2094517358
sq,45.7032360076904,37.8125480651856,-245.121359825134,-241.972088813782,2094534025
sq,41.7812942504883,33.940994644165,-266.011118888855,-219.792723655701,2094550692
sq,37.5251163482666,30.4243110656738,-273.868203163147,-259.4895362854,2094567359
sq,33.1432250976562,26.2724784851074,-283.132553100586,-284.520626068115,2094584026
sq,28.6131042480469,21.7201484680176,-286.508083343505,-293.070316314697,2094600693
sq,24.0289749145508,17.0310234069824,-269.212722778321,-285.646200180054,2094617360
sq,19.7215713500977,12.4606842041016,-248.928785324096,-278.940677642822,2094634027
sq,15.7387107849121,7.99763336181641,-235.95404624939,-252.8235912323,2094650694
sq,11.9634460449219,3.95245590209961,-220.888137817382,-221.017599105835,2094667361
sq,8.42923583984375,0.41617431640625,-224.020957946777,-220.295429229736,2094684028
sq,4.84490051269531,-3.10855255126953,-221.970081329346,-212.008476257324,2094700695
sq,1.29337921142578,-6.50068817138672,-193.77851486206,-139.511108398437,2094717362
sq,-1.80707702636719,-8.73286590576172,-148.998260498047,-90.843677520752,2094734029
sq,-4.19104919433594,-10.1863647460937,-91.3796424865723,-41.4772033691406,2094750696
sq,-5.65312347412109,-10.85,-18.4736251831055,2.87866592407227,2094767363
sq,-5.94870147705078,-10.8039413452148,-5.78498840332031,13.5326385498047,2094784030
sq,-6.04126129150391,-10.587419128418,20.0018882751465,31.4474105834961,2094800697
sq,-5.72123107910156,-10.084260559082,-6.15596771240234,55.1257133483887,2094817364
sq,-5.8197265625,-9.20224914550781,7.59506225585937,70.1794624328613,2094834031
sq,-5.69820556640625,-8.07937774658203,44.9252128601074,73.9116668701172,2094850698
sq,-4.97940216064453,-6.89679107666016,73.0729103088379,84.1250419616699,2094867365
sq,-3.81023559570312,-5.55079040527344,78.4049034118652,85.6428146362305,2094884032
sq,-2.55575714111328,-4.18050537109375,67.9540634155273,69.7798728942871,2094900699
sq,-1.46849212646484,-3.06402740478516,78.650951385498,67.5020217895508,2094917366
sq,-0.210076904296875,-1.98399505615234,105.591297149658,82.2458267211914,2094934033
sq,1.47938385009766,-0.668061828613281,136.454105377197,99.8489856719971,2094950700
sq,3.66264953613281,0.929521942138672,177.448272705078,163.638114929199,2094967367
sq,6.50182189941406,3.54773178100586,180.006742477417,211.705684661865,2094984034
sq,9.38192977905273,6.9350227355957,152.164220809936,234.570503234864,2095000701
sq,11.8165573120117,10.6881507873535,175.933361053466,245.596408843994,2095017368
sq,14.6314910888672,14.6176933288574,211.873292922973,197.155475616455,2095034035
sq,18.0214637756348,17.7721809387207,214.985609054566,206.291675567628,2095050702
sq,21.4612335205078,21.0728477478027,164.358854293823,234.880208969115,2095067369
sq,24.090975189209,24.8309310913086,178.597688674927,167.718887329102,2095084036
sq,26.9485382080078,27.5144332885742,220.874309539795,152.290582656861,2095100703
sq,30.4825271606445,29.951082611084,136.473417282104,187.760591506958,2095117370
sq,32.6661018371582,32.9552520751953,208.894968032837,116.153597831726,2095134037
sq,36.0084213256836,34.8137096405029,207.561612129211,170.092225074768,2095150704
sq,39.329407119751,37.5351852416992,172.705411911011,174.144387245178,2095167371
sq,42.0926937103271,40.3214954376221,201.733231544495,106.614708900452,2095184038
sq,45.3204254150391,42.0273307800293,179.362177848815,153.516411781311,2095200705
sq,48.1902202606201,44.4835933685303,176.806092262268,168.118715286255,2095217372
sq,51.0191177368164,47.1734928131104,155.776917934418,256.708443164825,2095234039
sq,53.5115484237671,51.2808279037476,154.937565326691,230.718970298767,2095250706
sq,55.9905494689941,54.9723314285278,187.751531600952,145.022660493851,2095267373
sq,58.9945739746094,57.2926939964294,160.677880048752,204.084575176239,2095284040
sq,61.5654200553894,60.5580471992493,155.149191617966,267.112269997597,2095300707
sq,64.0478071212769,64.8318435192108,187.548086047172,403.790280222893,2095317374
sq,67.0485764980316,71.2924880027771,214.394927024841,324.941128492355,2095334041
sq,70.4788953304291,76.4915460586548,173.754587769508,278.176009654999,2095350708
sq,73.2589687347412,80.9423622131348,335.910499095917,208.727955818176,2095367375
sq,78.6335367202759,84.2820095062256,333.74297618866,147.581696510315,2095384042
sq,83.9734243392944,86.6433166503906,264.5623087883,110.684275627136,2095400709
sq,88.2064212799072,88.4142650604248,234.880089759827,107.489466667175,2095417376
sq,91.9645027160645,90.1340965270996,177.647471427918,110.617637634277,2095434043
sq,94.8068622589111,91.9039787292481,120.140671730042,80.9063911437988,2095450710
sq,96.7291130065918,93.1984809875488,75.0259160995483,39.5468473434448,2095467377
sq,97.9295276641846,93.831230545044,47.9950904846191,3.05390357971191,2095484044
sq,98.6974491119385,93.8800930023193,11.232852935791,-36.0394716262817,2095500711
sq,98.8771747589111,93.3034614562988,-32.9748392105102,-66.7521953582764,2095517378
sq,98.349577331543,92.2354263305664,-71.9478130340576,-100.657105445862,2095534045
sq,97.1984123229981,90.6249126434326,-101.186752319336,-117.464423179626,2095550712
sq,95.5794242858887,88.7454818725586,-119.575977325439,-97.280740737915,2095567379
sq,93.6662086486816,87.188990020752,-161.365985870361,-148.877143859863,2095584046
sq,91.0843528747559,84.8069557189941,-237.43486404419,-248.567461967468,2095600713
sq,87.2853950500488,80.8298763275147,-273.728251457214,-306.4746260643,2095617380
sq,82.9057430267334,75.9262823104858,-178.258657455444,-354.689955711365,2095634047
sq,80.0536045074463,70.251243019104,-250.98305940628,-312.163889408112,2095650714
sq,76.0378755569458,65.2566207885742,-207.279473543167,-194.969087839127,2095667381
sq,72.7214039802551,62.1371153831482,-198.34965839982,-194.413214921951,2095684048
sq,69.547809445858,59.026503944397,-190.980236977339,-202.972948551178,2095700715
sq,66.4921256542206,55.7789367675781,-169.498786330224,-181.843042373657,2095717382
sq,63.780145072937,52.8694480895996,-171.733975410461,-166.048586368561,2095734049
sq,61.0324014663696,50.2126707077026,-172.120571136475,-156.589686870575,2095750716
sq,58.278472328186,47.7072357177734,-173.454701900482,-160.51459312439,2095767383
sq,55.5031970977783,45.1390022277832,-190.463304519653,-148.110747337341,2095784050
sq,52.4557842254639,42.7692302703857,-206.711888313294,-156.541585922241,2095800717
sq,49.1483940124512,40.2645648956299,-208.909630775452,-169.684171676636,2095817384
sq,45.8058399200439,37.5496181488037,-211.124658584595,-197.392821311951,2095834051
sq,42.4278453826904,34.3913330078125,-245.304703712463,-191.667079925537,2095850718
sq,38.502970123291,31.3246597290039,-232.687711715698,-235.941886901855,2095867385
sq,34.7799667358398,27.5495895385742,-233.936071395874,-244.697093963623,2095884052
sq,31.0369895935059,23.6344360351562,-226.337432861328,-201.28345489502,2095900719
sq,27.4155906677246,20.4139007568359,-213.587760925293,-215.685367584228,2095917386
sq,23.9981864929199,16.9629348754883,-209.613084793091,-240.256547927856,2095934053
sq,20.6443771362305,13.1188301086426,-220.107316970826,-204.65612411499,2095950720
sq,17.1226600646973,9.84433212280274,-177.804946899413,-195.253610610962,2095967387
sq,14.2777809143066,6.72027435302735,-169.853687286377,-159.813165664673,2095984054
sq,11.5601219177246,4.16326370239258,-155.993700027466,-160.014390945434,2096000721
sq,9.06422271728515,1.60303344726563,-133.151054382324,-100.27551651001,2096017388
sq,6.93380584716797,-0.00137481689453089,-122.097730636597,-101.799488067627,2096034055
sq,4.98024215698242,-1.63016662597656,-91.8476581573486,-86.9278907775879,2096050722
sq,3.51067962646484,-3.02101287841797,-93.4977531433105,-54.1653633117676,2096067389
sq,2.01471557617187,-3.88765869140625,-62.6010894775391,-36.2458229064941,2096084056
sq,1.01309814453125,-4.46759185791016,-49.4847297668457,-28.5587310791016,2096100723
sq,0.221342468261719,-4.92453155517578,-33.1630706787109,-8.23974609375,2096117390
sq,-0.309266662597656,-5.05636749267578,-35.2964401245117,-8.73374938964844,2096134057
sq,-0.874009704589843,-5.19610748291016,-26.9169807434082,-12.2456550598144,2096150724
sq,-1.30468139648438,-5.39203796386719,-37.4770164489746,-11.3081932067871,2096167391
sq,-1.90431365966797,-5.57296905517578,-42.0389175415039,-7.0958137512207,2096184058
sq,-2.57693634033203,-5.68650207519531,-35.6760025024414,-3.81135940551758,2096200725
sq,-3.14775238037109,-5.74748382568359,-30.9534072875977,4.16469573974609,2096217392
sq,-3.64300689697266,-5.68084869384766,-21.8276977539063,8.5291862487793,2096234059
sq,-3.99225006103516,-5.54438171386719,-10.1943016052246,6.88982009887695,2096250726
sq,-4.15535888671875,-5.43414459228516,-1.02519989013672,20.1625823974609,2096267393
sq,-4.17176208496094,-5.11154327392578,10.6778144836426,30.3530693054199,2096284060
sq,-4.00091705322266,-4.62589416503906,21.9540596008301,45.9170341491699,2096300727
sq,-3.64965209960937,-3.89122161865234,30.3473472595215,68.0651664733887,2096317394
sq,-3.16409454345703,-2.80217895507812,36.0507965087891,75.5782127380371,2096334061
sq,-2.58728179931641,-1.59292755126953,49.9639511108398,92.9279327392578,2096350728
sq,-1.78785858154297,-0.106080627441406,75.9577751159668,113.663196563721,2096367395
sq,-0.5725341796875,1.71253051757813,117.483615875244,143.17226409912,2096384062
sq,1.30720367431641,4.00328674316406,160.712718963623,170.769929885865,2096400729
sq,3.87860717773437,6.73560562133789,178.015232086182,64.1279220581055,2096417396
sq,6.72685089111328,7.76165237426758,221.023559570312,59.0610504150386,2096434063
sq,10.2632278442383,8.7066291809082,246.116161346435,190.697193145753,2096450730
sq,14.2010864257813,11.7577842712402,182.891845703125,185.462713241577,2096467397
sq,17.1273559570312,14.7251876831055,187.687635421753,275.158882141113,2096484064
sq,20.1303581237793,19.1277297973633,163.1121635437,305.325269699097,2096500731
sq,22.7401527404785,24.0129341125488,122.481584548951,142.246007919311,2096517398
sq,24.6998580932617,26.2888702392578,214.372396469116,149.233102798462,2096534065
sq,28.1298164367676,28.6765998840332,225.286483764648,191.761493682862,2096550732
sq,31.734400177002,31.744783782959,202.873945236206,173.479437828064,2096567399
sq,34.9803833007812,34.520454788208,202.331900596619,181.520104408264,2096584066
sq,38.2176937103271,37.4247764587402,185.291290283203,173.414349555969,2096600733
sq,41.1823543548584,40.1994060516357,180.531740188599,80.8600187301636,2096617400
sq,44.070862197876,41.4931663513184,164.454698562622,144.189953804016,2096634067
sq,46.7021373748779,43.8002056121826,143.559813499451,118.7983751297,2096650734
sq,48.9990943908691,45.7009796142578,135.202050209045,175.226449966431,2096667401
sq,51.1623271942139,48.5046028137207,159.859299659729,187.934041023254,2096684068
sq,53.7200759887695,51.5115474700928,145.152151584625,136.204719543457,2096700735
sq,56.0425104141235,53.6908229827881,138.19146156311,131.506145000458,2096717402
sq,58.2535737991333,55.7949213027954,125.186622142792,173.2017993927,2096734069
sq,60.256559753418,58.5661500930786,139.044255018234,146.435484290123,2096750736
sq,62.4812678337097,60.9091178417206,133.491516113282,151.24898031354,2096767403
sq,64.6171320915222,63.3291015267372,156.339466571808,239.649202674628,2096784070
sq,67.1185635566711,67.1634887695313,162.156015634537,291.463524103165,2096800737
sq,69.7130598068237,71.8269051551819,155.706912279129,256.16642832756,2096817404
sq,72.2043704032898,75.9255680084229,150.158137083054,212.569892406464,2096834071
sq,74.6069005966187,79.3266862869263,237.274944782257,197.100102901459,2096850738
sq,78.4032997131348,82.4802879333496,285.207688808441,134.937286376953,2096867405
sq,82.9666227340698,84.6392845153809,219.524562358856,121.073842048645,2096884072
sq,86.4790157318115,86.5764659881592,194.582462310791,91.2364721298218,2096900739
sq,89.5923351287842,88.0362495422363,155.381560325623,78.4196853637695,2096917406
sq,92.0784400939941,89.2909645080566,124.607086181641,62.517523765564,2096934073
sq,94.0721534729004,90.2912448883057,86.4517688751221,55.2678108215332,2096950740
sq,95.4553817749023,91.1755298614502,55.706262588501,39.2872095108032,2096967407
sq,96.3466819763184,91.8041252136231,33.7172746658325,16.9426202774048,2096984074
sq,96.8861583709717,92.0752071380615,13.4232044219971,-6.95359706878662,2097000741
sq,97.1009296417236,91.9639495849609,-4.60600852966309,-34.6139669418335,2097017408
sq,97.027233505249,91.4101261138916,-25.9358882904053,-60.2604150772095,2097034075
sq,96.6122592926025,90.4459594726563,-47.7340221405029,-75.4777193069458,2097050742
sq,95.8485149383545,89.2383159637451,-70.5125331878662,-76.5762329101562,2097067409
sq,94.7203144073486,88.0130962371826,-94.5305824279785,-85.7990980148315,2097084076
sq,93.207825088501,86.6403106689453,-133.014678955078,-130.054593086243,2097100743
sq,91.0795902252197,84.5594371795654,-190.334796905518,-200.559020042419,2097117410
sq,88.0342334747315,81.3504928588867,-214.477777481079,-254.401803016663,2097134077
sq,84.6025890350342,77.2800640106201,-175.174117088318,-310.800671577454,2097150744
sq,81.7998031616211,72.3072532653809,-163.433730602264,-299.797564744949,2097167411
sq,79.1848634719849,67.5104922294617,-238.158255815506,-163.747873157263,2097184078
sq,75.3743313789368,64.8905262589455,-167.719691991806,-196.446318179369,2097200745
sq,72.6908163070679,61.7473851680756,-198.641117662191,-202.775791287422,2097217412
sq,69.5125584244728,58.5029725074768,-175.608281046152,-161.875754594803,2097234079
sq,66.7028259277344,55.91296043396,-158.446073532104,-162.985980510712,2097250746
sq,64.1676887512207,53.3051847457886,-154.378324747086,-158.440053462982,2097267413
sq,61.6976355552673,50.7701438903809,-151.756316423416,-160.493731498718,2097284080
sq,59.2695344924927,48.2022441864014,-155.568242073059,-139.934659004211,2097300747
sq,56.7804426193237,45.963289642334,-164.020597934723,-135.429739952087,2097317414
sq,54.1561130523682,43.7964138031006,-160.306572914124,-135.18488407135,2097334081
sq,51.5912078857422,41.633455657959,-178.117871284485,-129.136919975281,2097350748
sq,48.7413219451904,39.5672649383545,-193.283438682556,-127.129316329956,2097367415
sq,45.6487869262695,37.5331958770752,-184.399724006653,-140.862822532653,2097384082
sq,42.6983913421631,35.2793907165527,-189.857363700867,-157.032012939453,2097400749
sq,39.6606735229492,32.7668785095215,-196.044206619263,-169.842004776001,2097417416
sq,36.523966217041,30.0494064331055,-189.493656158447,-138.768196105957,2097434083
sq,33.4920677185059,27.8291152954102,-200.408220291138,-245.24712562561,2097450750
sq,30.2855361938477,23.9051612854004,-183.94112586975,-195.699453353882,2097467417
sq,27.3424781799316,20.7739700317383,-165.594100952149,-144.373655319214,2097484084
sq,24.6929725646973,18.4639915466309,-157.81283378601,-174.460172653198,2097500751
sq,22.1679672241211,15.6726287841797,-148.615360260009,-171.196460723877,2097517418
sq,19.7901214599609,12.9334854125977,-145.591497421265,-142.725706100463,2097534085
sq,17.4606575012207,10.6498741149902,-167.442560195922,-173.567295074463,2097550752
sq,14.7815765380859,7.87279739379883,-126.07216835022,-158.698558807373,2097567419
sq,12.7644218444824,5.33362045288086,-140.298843383789,-105.768918991089,2097584086
sq,10.5196403503418,3.64131774902344,-125.809907913208,-143.006563186646,2097600753
sq,8.50668182373047,1.35321273803711,-116.920471191406,-112.892866134644,2097617420
sq,6.63595428466797,-0.453073120117187,-107.935428619385,-84.3815803527832,2097634087
sq,4.90898742675781,-1.80317840576172,-93.3809280395508,-52.3324012756348,2097650754
sq,3.414892578125,-2.64049682617187,-83.4140777587891,-51.1250495910645,2097667421
sq,2.08026733398437,-3.45849761962891,-62.1123313903809,-41.68701171875,2097684088
sq,1.08647003173828,-4.12548980712891,-48.2497215270996,-28.6879539489746,2097700755
sq,0.314474487304688,-4.5844970703125,-37.7936363220215,-7.41481781005859,2097717422
sq,-0.290223693847656,-4.70313415527344,-26.8306732177734,-17.7502632141113,2097734089
sq,-0.719514465332031,-4.98713836669922,-17.2100067138672,-9.59300994873047,2097750756
sq,-0.994874572753906,-5.14062652587891,-26.5078544616699,-10.7545852661133,2097767423
sq,-1.41900024414063,-5.31269989013672,-22.946834564209,-2.14195251464844,2097784090
sq,-1.78614959716797,-5.34697113037109,-25.4831314086914,-0.466346740722656,2097800757
sq,-2.19387969970703,-5.35443267822266,-22.4227905273438,-0.760555267333984,2097817424
sq,-2.55264434814453,-5.3666015625,-18.9356803894043,-14.4190788269043,2097834091
sq,-2.855615234375,-5.59730682373047,-15.9802436828613,-18.1164741516113,2097850758
sq,-3.11129913330078,-5.88717041015625,-13.005256652832,-14.3179893493652,2097867425
sq,-3.31938323974609,-6.11625823974609,-12.9151344299316,-13.2455825805664,2097884092
sq,-3.526025390625,-6.32818756103516,-13.5197639465332,-9.77468490600586,2097900759
sq,-3.74234161376953,-6.48458251953125,-12.7239227294922,-7.51495361328125,2097917426
sq,-3.94592437744141,-6.60482177734375,-12.0892524719238,-6.69002532958984,2097934093
sq,-4.13935241699219,-6.71186218261719,-5.17606735229492,-7.48395919799805,2097950760
sq,-4.22216949462891,-6.83160552978516,0.680446624755859,-10.3259086608887,2097967427
sq,-4.21128234863281,-6.99682006835937,1.01804733276367,-7.71617889404297,2097984094
sq,-4.19499359130859,-7.12027893066406,-3.30877304077148,-7.45725631713867,2098000761
sq,-4.24793395996094,-7.23959503173828,-2.04944610595703,-6.1335563659668,2098017428
sq,-4.28072509765625,-7.33773193359375,-4.76169586181641,-10.5094909667969,2098034095
sq,-4.35691223144531,-7.5058837890625,-8.44669342041016,-7.17258453369141,2098050762
sq,-4.49205932617187,-7.62064514160156,-10.7831954956055,-8.22687149047852,2098067429
sq,-4.66459045410156,-7.75227508544922,-8.79049301147461,-10.9119415283203,2098084096
sq,-4.80523834228516,-7.92686614990234,-9.15098190307617,-10.5886459350586,2098100763
