Label,Left_Hip_q,Right_Hip_q,Left_Hip_qd,Right_Hip_qd,SampleTimeFine
iw,-75.7767028808593,-46.0098495483398,61.5988006591796,-17.5868110656738,1529156811
iw,-76.8356704711914,-45.9605293273925,65.8455810546875,-7.76409816741943,1529173478
iw,-77.9427032470703,-46.0897636413574,72.3693008422851,4.78857040405273,1529190145
iw,-79.0200653076171,-46.3105506896972,77.6721954345703,11.8200769424438,1529206812
iw,-80.0220031738281,-46.45552444458,79.036376953125,7.40348052978515,1529223479
iw,-80.9267196655273,-46.4064216613769,78.1353378295898,-7.11442565917968,1529240146
iw,-81.679573059082,-46.1908073425293,75.2787780761718,-19.9370594024658,1529256813
iw,-82.2103195190429,-45.8161735534668,71.0011444091796,-33.1985664367675,1529273480
iw,-82.4768676757812,-45.3660583496093,66.4979248046875,-38.3068542480468,1529290147
iw,-82.48193359375,-44.8171348571777,59.4239997863769,-43.6613540649414,1529306814
iw,-82.2895355224609,-44.2946548461914,47.5839767456054,-42.7707977294921,1529323481
iw,-82.0138244628906,-43.7979049682617,33.0484924316406,-42.872314453125,1529340148
iw,-81.6658706665039,-43.3277015686035,32.9114036560058,-43.276065826416,1529356815
iw,-81.2552032470703,-42.9922523498535,43.5306129455566,-36.7620201110839,1529373482
iw,-80.8242111206054,-42.9571380615234,55.5470695495605,-20.4711093902587,1529390149
iw,-80.431411743164,-43.3292503356933,60.666015625,0.712343633174896,1529406816
iw,-80.0238189697265,-44.2162322998046,67.4115676879882,33.1046257019043,1529423483
iw,-79.557014465332,-44.5001525878906,67.8493347167968,4.03857088088989,1529440150
iw,-78.9682693481445,-43.5197715759277,64.2858428955078,-55.603660583496,1529456817
iw,-78.4176177978515,-42.0991096496582,46.5601463317871,-90.7023849487304,1529473484
iw,-78.3707885742187,-41.7505798339843,3.64235424995422,-30.6080322265625,1529490151
iw,-79.1041870117187,-42.4121131896972,-55.1081924438476,30.5696601867675,1529506818
iw,-80.5316619873046,-43.7458877563476,-113.110603332519,64.3678436279296,1529523485
iw,-82.0565109252929,-45.6820755004882,-142.950073242187,95.6039810180664,1529540152
iw,-83.1852874755859,-47.4850997924804,-145.443771362304,91.7520980834961,1529556819
iw,-83.9661331176757,-48.8810844421386,-127.132972717285,71.1409530639648,1529573486
iw,-84.418228149414,-50.0992164611816,-111.565200805664,58.2016258239746,1529590153
iw,-83.8777542114257,-51.4030838012695,-146.44302368164,66.4905395507812,1529606820
iw,-82.3193130493164,-52.9553298950195,-155.832168579101,83.8071212768554,1529623487
iw,-80.3670425415039,-54.6679077148437,-148.427734375,95.0751113891601,1529640154
iw,-78.1473846435546,-56.3890953063964,-151.227279663085,98.3286514282226,1529656821
iw,-76.0556335449218,-58.0293617248535,-135.857208251953,96.6858749389648,1529673488
iw,-74.1502227783203,-59.5569763183593,-120.389404296875,93.4937591552734,1529690155
iw,-72.1565933227539,-60.9957618713378,-123.301528930664,87.6900863647461,1529706822
iw,-69.9317932128906,-62.3013801574707,-135.50389099121,77.759162902832,1529723489
iw,-67.4572067260742,-63.4878807067871,-149.40380859375,73.4184341430664,1529740156
iw,-64.9947204589843,-64.6192092895507,-147.480148315429,71.9621124267578,1529756823
iw,-62.675495147705,-65.7311325073242,-138.105987548828,71.9429779052734,1529773490
iw,-60.7224044799804,-66.8254165649414,-116.342475891113,70.8155288696289,1529790157
iw,-58.9907722473144,-67.7710037231445,-103.502990722656,61.4887580871582,1529806824
iw,-57.4695663452148,-68.6121139526367,-91.170181274414,53.5523681640625,1529823491
iw,-56.3531417846679,-69.366226196289,-67.3335571289062,47.4468688964843,1529840158
iw,-55.7456893920898,-70.0884780883789,-37.1718139648437,46.5780334472656,1529856825
iw,-55.3251724243164,-70.832046508789,-25.8954715728759,49.2952728271484,1529873492
iw,-54.9263839721679,-71.5939865112304,-24.1576557159423,51.4765815734863,1529890159
iw,-54.6093292236328,-72.3818969726562,-18.7921752929687,54.5536918640136,1529906826
iw,-54.3298645019531,-73.2218780517578,-16.6092090606689,59.2864456176757,1529923493
iw,-53.9960708618164,-74.0967178344726,-20.4303684234619,61.1502685546875,1529940160
iw,-53.5815505981445,-74.9833374023437,-25.6918830871582,60.1444282531738,1529956827
iw,-53.0152359008789,-75.8559646606445,-35.0167808532714,58.7593460083007,1529973494
iw,-52.3835678100585,-76.6792373657226,-38.9539222717285,55.2060623168945,1529990161
iw,-51.7586822509765,-77.4428558349609,-38.5069465637207,50.8919715881347,1530006828
iw,-51.1367111206054,-78.2111053466796,-38.2897872924804,53.7530784606933,1530023495
iw,-50.6651382446289,-78.9219360351562,-29.2657413482666,52.5461311340332,1530040162
iw,-50.4423599243164,-79.5733413696289,-14.304141998291,51.3762397766113,1530056829
iw,-50.4169273376464,-80.1599731445312,-2.3662416934967,51.3649139404296,1530073496
iw,-50.5299110412597,-80.6157302856445,6.06841564178466,51.6219177246093,1530090163
iw,-50.6929702758789,-80.9304428100586,9.05836200714111,55.4454345703125,1530106830
iw,-50.8093223571777,-81.1218872070312,6.07307481765747,62.7661247253418,1530123497
iw,-50.618854522705,-81.1791534423828,-12.5610561370849,71.2278747558593,1530140164
iw,-50.1661491394043,-81.1208190917968,-28.6708984375,80.1559982299804,1530156831
iw,-49.3204460144043,-81.1075973510742,-52.3977546691894,88.5225372314453,1530173498
iw,-48.0498847961425,-81.1879806518554,-75.408203125,62.0711402893066,1530190165
iw,-46.6809310913085,-81.3363952636718,-81.4938430786132,1.27826237678527,1530206832
iw,-45.9171485900878,-81.5159835815429,-47.6115074157714,-59.8832893371582,1530223499
iw,-45.9880332946777,-81.589126586914,2.36687397956848,-98.8492202758789,1530240166
iw,-46.5319137573242,-81.4552307128906,31.0446071624755,-105.4712600708,1530256833
iw,-47.5740356445312,-80.9606475830078,61.0125694274902,-101.115081787109,1530273500
iw,-49.2629890441894,-79.9988479614257,100.148597717285,-102.639060974121,1530290167
iw,-50.8739776611328,-78.7313003540039,96.6904296875,-101.839317321777,1530306834
iw,-52.3975028991699,-77.1405258178711,92.5013351440429,-111.361953735351,1530323501
iw,-54.2355422973632,-75.1314239501953,111.375602722167,-128.075729370117,1530340168
iw,-56.252140045166,-73.0243072509765,122.08292388916,-127.713676452636,1530356835
iw,-58.1576118469238,-70.9401245117187,116.493041992187,-124.329933166503,1530373502
iw,-60.0353698730468,-69.0304260253906,116.369018554687,-113.933052062988,1530390169
iw,-61.8443717956543,-67.146987915039,112.475059509277,-113.521423339843,1530406836
iw,-63.4891967773437,-65.1640701293945,101.657493591308,-122.569061279296,1530423503
iw,-64.8791351318359,-63.0689964294433,86.2995529174804,-132.347045898437,1530440170
iw,-66.0754165649414,-60.8948402404785,75.9176788330078,-137.319015502929,1530456837
iw,-67.1803512573242,-58.8621673583984,71.1909408569336,-126.302001953125,1530473504
iw,-68.2189254760742,-56.8831710815429,66.5690002441406,-121.611068725585,1530490171
iw,-69.1612701416015,-54.9274597167968,60.802391052246,-117.717300415039,1530506838
iw,-70.0068283081054,-52.9848022460937,55.4478111267089,-117.772964477539,1530523505
iw,-70.7685241699218,-51.3723373413085,49.3449249267578,-101.54621887207,1530540172
iw,-71.5166625976562,-50.0812683105468,47.7451400756835,-83.0411605834961,1530556839
iw,-72.2946624755859,-49.1675491333007,50.0413360595703,-59.7314872741699,1530573506
iw,-73.1494522094726,-48.3963470458984,55.0569038391113,-53.690258026123,1530590173
iw,-74.0459213256836,-47.7253379821777,56.559471130371,-49.8491668701171,1530606840
iw,-74.9577941894531,-47.239143371582,56.3478393554687,-39.2979621887207,1530623507
iw,-75.8606567382812,-46.897850036621,56.4280471801757,-29.7059860229492,1530640174
iw,-76.7410354614257,-46.6788711547851,55.9388961791992,-20.8085594177246,1530656841
iw,-77.5979385375976,-46.5073013305664,58.21919631958,-16.2966632843017,1530673508
iw,-78.4632263183593,-46.3014259338378,64.7412490844726,-17.8964691162109,1530690175
iw,-79.3256530761718,-45.9617691040039,70.8928909301757,-27.3883018493652,1530706842
iw,-80.1401290893554,-45.5330009460449,75.9785690307617,-33.9910087585449,1530723509
iw,-80.8310241699218,-44.9206314086914,76.9771652221679,-46.6495361328125,1530740176
iw,-81.3539428710937,-44.3339653015136,74.0959701538086,-45.8128585815429,1530756843
iw,-81.6470870971679,-43.8394622802734,62.3432159423828,-40.3665542602539,1530773510
iw,-81.7149200439453,-43.3590126037597,44.6950912475585,-38.914077758789,1530790177
iw,-81.6121749877929,-42.8615684509277,29.0186710357666,-40.7295379638671,1530806844
iw,-81.4038543701171,-42.3701744079589,22.1745700836181,-42.0500755310058,1530823511
iw,-81.1264419555664,-41.9463272094726,24.4920864105224,-40.3880615234375,1530840178
iw,-80.8840408325195,-41.7571449279785,32.0618095397949,-27.4160346984863,1530856845
iw,-80.7360076904296,-41.8839035034179,36.9678573608398,-9.16246795654296,1530873512
iw,-80.7168960571289,-42.3831710815429,39.7366180419921,11.8450870513916,1530890179
iw,-80.8409271240234,-43.1520080566406,38.9203987121582,29.2367439270019,1530906846
iw,-81.0625305175781,-43.0883827209472,33.9195938110351,-16.9258060455322,1530923513
iw,-81.0866546630859,-41.6895027160644,40.3829803466796,-84.3496322631836,1530940180
iw,-80.8042678833007,-40.2011909484863,42.2361297607421,-90.877571105957,1530956847
iw,-80.7261276245117,-40.1084060668945,11.3059339523315,-10.8367090225219,1530973514
iw,-81.1454162597656,-41.1313858032226,-35.8677520751953,49.1648483276367,1530990181
iw,-81.9562149047851,-42.5698738098144,-84.5354919433593,72.3510589599609,1531006848
iw,-82.7038955688476,-44.3231582641601,-121.104087829589,84.8185119628906,1531023515
iw,-83.049690246582,-46.096694946289,-123.909851074218,90.6055450439453,1531040182
iw,-83.2470397949218,-47.3977241516113,-107.818611145019,67.748779296875,1531056849
iw,-83.0814514160156,-48.5722198486328,-122.577964782714,58.408390045166,1531073516
iw,-82.1663436889648,-49.9218482971191,-144.1318359375,71.0376815795898,1531090183
iw,-80.6393051147461,-51.4806175231933,-142.036849975585,85.4817810058593,1531106850
iw,-78.8744354248046,-53.1719436645507,-131.574279785156,93.8801498413086,1531123517
iw,-77.0800628662109,-54.8796463012695,-122.367446899414,96.7442245483398,1531140184
iw,-75.2711563110351,-56.5669059753418,-118.547172546386,98.2562026977539,1531156851
iw,-73.6415863037109,-58.1602172851562,-103.936492919921,94.9115142822265,1531173518
iw,-71.9237976074218,-59.6453323364257,-106.465995788574,89.2326049804687,1531190185
iw,-69.8537139892578,-61.1022567749023,-126.026992797851,87.4685821533203,1531206852
iw,-67.4548568725586,-62.4979400634765,-144.589462280273,83.277961730957,1531223519
iw,-64.8793640136718,-63.8325576782226,-154.211196899414,79.7463073730468,1531240186
iw,-62.5793342590332,-65.0659103393554,-137.364456176757,73.4985733032226,1531256853
iw,-60.6485557556152,-66.2317199707031,-115.283348083496,69.2374572753906,1531273520
iw,-58.9376678466796,-67.3710708618164,-102.582641601562,67.5777969360351,1531290187
iw,-57.4592056274414,-68.4332122802734,-89.2257843017578,62.5336761474609,1531306854
iw,-56.1521377563476,-69.4667816162109,-79.2180557250976,61.2551193237304,1531323521
iw,-55.2617721557617,-70.4887924194336,-54.3820343017578,61.7197875976562,1531340188
iw,-54.7343063354492,-71.4865570068359,-32.7134857177734,61.5185317993164,1531356855
iw,-54.3206253051757,-72.5468826293945,-25.7546501159667,65.7910995483398,1531373522
iw,-53.9450950622558,-73.8330841064453,-23.0222911834716,80.3303298950195,1531390189
iw,-53.665843963623,-75.2328414916992,-16.8110332489013,88.7746353149414,1531406856
iw,-53.4198608398437,-76.5108947753906,-14.7373657226562,81.5862045288086,1531423523
iw,-53.1394119262695,-77.659439086914,-17.061050415039,72.9758224487304,1531440190
iw,-52.8167266845703,-78.6894149780273,-19.7461242675781,66.8096847534179,1531456857
iw,-52.464126586914,-79.6294784545898,-21.4722213745117,62.8463478088378,1531473524
iw,-51.9931030273437,-80.4754791259765,-28.2612972259521,57.817024230957,1531490191
iw,-51.5354843139648,-81.2695693969726,-27.0135326385498,55.8381156921386,1531506858
iw,-51.212890625,-82.0049285888671,-18.7478866577148,54.0432395935058,1531523525
iw,-50.9698867797851,-82.6531372070312,-13.869137763977,49.3909378051757,1531540192
iw,-50.7967948913574,-83.2685089111328,-9.64141082763671,48.198013305664,1531556859
iw,-50.7164268493652,-83.835220336914,-4.05209445953369,52.0868988037109,1531573526
iw,-50.6897583007812,-84.3080444335937,-0.95280522108078,57.328987121582,1531590193
iw,-50.7242813110351,-84.6120986938476,2.57968640327453,63.0309333801269,1531606860
iw,-50.8383865356445,-84.6017456054687,7.04408168792724,66.9587326049804,1531623527
iw,-50.8786926269531,-84.1789321899414,2.20245957374572,68.8642883300781,1531640194
iw,-50.4914436340332,-83.4769210815429,-23.9031829833984,67.4602279663086,1531656861
iw,-50.1040840148925,-82.8808517456054,-24.554121017456,57.2520561218261,1531673528
iw,-49.3777084350585,-82.7485046386718,-44.6214370727539,33.1067504882812,1531690195
iw,-48.4446868896484,-83.0784225463867,-55.7823295593261,-10.1233034133911,1531706862
iw,-47.4133834838867,-83.7079544067382,-62.9791069030761,-49.4373588562011,1531723529
iw,-47.2300148010253,-84.3566360473632,-13.6012535095214,-81.0613937377929,1531740196
iw,-47.4756278991699,-84.7136917114257,12.3329343795776,-92.7202682495117,1531756863
iw,-48.0054054260253,-84.5579986572265,29.5261192321777,-95.1122283935546,1531773530
iw,-49.02534866333,-83.8237533569336,59.7949600219726,-91.9015502929687,1531790197
iw,-50.4894485473632,-82.610107421875,86.9078598022461,-97.6890029907226,1531806864
iw,-52.0209579467773,-81.0059509277343,92.2224960327148,-104.852104187011,1531823531
iw,-53.6596527099609,-79.0883331298828,99.5052413940429,-113.667976379394,1531840198
iw,-55.4295005798339,-76.9262008666992,107.414497375488,-123.634483337402,1531856865
iw,-57.2407073974609,-74.6798782348632,110.130897521972,-129.724945068359,1531873532
iw,-58.9728164672851,-72.4297561645507,107.022590637207,-133.698867797851,1531890199
iw,-60.6786346435546,-70.3060989379882,106.750389099121,-129.140228271484,1531906866
iw,-62.2481040954589,-68.1879119873046,98.6795883178711,-130.900146484375,1531923533
iw,-63.5803527832031,-66.0461349487304,84.8008499145507,-134.052825927734,1531940200
iw,-64.7405624389648,-63.7858390808105,74.9012756347656,-141.672653198242,1531956867
iw,-65.7853927612304,-61.368595123291,68.3049545288086,-149.344467163085,1531973534
iw,-66.8172225952148,-58.8998298645019,68.250747680664,-149.487121582031,1531990201
iw,-67.8423538208007,-56.5687141418457,68.4221115112304,-136.911102294921,1532006868
iw,-68.7849197387695,-54.5735664367675,63.2515068054199,-117.388320922851,1532023535
iw,-69.6657485961914,-52.9365730285644,59.5855407714843,-100.570045471191,1532040202
iw,-70.5135116577148,-51.5512619018554,58.2691764831543,-88.335205078125,1532056869
iw,-71.3826293945312,-50.3753128051757,60.5351943969726,-76.9732360839843,1532073536
iw,-72.192153930664,-49.3765296936035,56.7651100158691,-66.9843063354492,1532090203
iw,-72.9736557006836,-48.4226989746093,55.6992492675781,-66.4366760253906,1532106870
iw,-73.8263549804687,-47.6347160339355,60.5043640136718,-57.2602920532226,1532123537
iw,-74.681640625,-47.0648536682128,60.4344902038574,-43.6996726989746,1532140204
iw,-75.5423965454101,-46.6957511901855,60.3420295715332,-30.5237369537353,1532156871
iw,-76.4753646850586,-46.5065231323242,65.0851287841796,-18.0569610595703,1532173538
iw,-77.4235000610351,-46.3692092895507,66.0478057861328,-14.2246294021606,1532190205
iw,-78.3133850097656,-46.2775840759277,62.495548248291,-11.3122110366821,1532206872
iw,-79.1491317749023,-46.1075973510742,61.7317771911621,-16.875467300415,1532223539
iw,-79.9471130371093,-46.1496200561523,66.8773803710937,-5.04932260513305,1532240206
iw,-80.6178512573242,-46.2417068481445,70.1549987792968,-2.62492084503173,1532256873
iw,-81.0727844238281,-46.165901184082,61.7198219299316,-14.2885360717773,1532273540
iw,-81.3512573242187,-45.9876365661621,51.9446754455566,-20.9593620300292,1532290207
iw,-81.4547729492187,-45.738670349121,43.4395446777343,-25.0611858367919,1532306874
iw,-81.3865509033203,-45.4442749023437,35.4357261657714,-28.3858394622802,1532323541
iw,-81.2167816162109,-45.1334190368652,31.4100246429443,-30.6945400238037,1532340208
iw,-81.0208206176757,-44.7833595275878,30.2353324890136,-35.4551849365234,1532356875
iw,-80.8719635009765,-44.4703788757324,27.4305114746093,-36.5609664916992,1532373542
iw,-80.8449783325195,-44.5637626647949,25.8680877685546,-16.4326553344726,1532390209
iw,-80.8686447143554,-45.2404632568359,32.2058372497558,17.542121887207,1532406876
iw,-80.8676376342773,-45.0338630676269,39.4942207336425,-27.9035568237304,1532423543
iw,-80.6796646118164,-43.4741325378418,49.3315315246582,-97.8252487182617,1532440210
iw,-80.4521942138671,-42.0755043029785,40.1641845703125,-96.6295547485351,1532456877
iw,-80.5577697753906,-42.0931739807128,0.826888144016265,-11.3267192840576,1532473544
iw,-81.0905303955078,-43.1269798278808,-49.357421875,48.0111465454101,1532490211
iw,-81.8703002929687,-44.6450119018554,-94.9857940673828,69.8635101318359,1532506878
iw,-82.4990997314453,-46.7127532958984,-124.631759643554,99.7587051391601,1532523545
iw,-82.7185668945312,-48.3990364074707,-131.704879760742,86.3868179321289,1532540212
iw,-82.7368545532226,-49.6396827697753,-121.57721710205,64.7679595947265,1532556879
iw,-82.3942413330078,-50.8844947814941,-119.209121704101,63.4410247802734,1532573546
iw,-81.3108139038086,-52.3135337829589,-137.549407958984,78.3606491088867,1532590213
iw,-79.8473892211914,-53.8535270690918,-131.751907348632,87.5455474853515,1532606880
iw,-78.1562728881836,-55.5053367614746,-129.695205688476,94.9063644409179,1532623547
iw,-76.3142929077148,-57.2539672851562,-130.248779296875,102.258544921875,1532640214
iw,-74.5350036621093,-59.0174102783203,-119.265022277832,104.416725158691,1532656881
iw,-72.7596588134765,-60.6454544067382,-113.074249267578,96.6517181396484,1532673548
iw,-70.68603515625,-62.2183456420898,-128.03286743164,93.064453125,1532690215
iw,-68.328857421875,-63.6325416564941,-143.718353271484,83.5325164794921,1532706882
iw,-65.8183059692382,-64.8984069824218,-151.384140014648,74.5363082885742,1532723549
iw,-63.4697799682617,-66.0789413452148,-141.016448974609,69.9580383300781,1532740216
iw,-61.4460678100585,-67.2079772949218,-121.884040832519,66.7963790893554,1532756883
iw,-59.7037849426269,-68.3041610717773,-105.832092285156,64.3986740112304,1532773550
iw,-58.1953315734863,-69.3952941894531,-92.2332992553711,63.9548034667968,1532790217
iw,-56.8047714233398,-70.512466430664,-85.0603942871093,66.0917282104492,1532806884
iw,-55.6367073059082,-71.6031188964843,-71.4713897705078,65.8737030029296,1532823551
iw,-54.8570442199707,-72.6627120971679,-48.1080932617187,65.4584655761718,1532840218
iw,-54.2420501708984,-73.7122955322265,-38.1445198059082,66.8453826904296,1532856885
iw,-53.6775550842285,-74.7556991577148,-34.8311119079589,68.5517578125,1532873552
iw,-53.2908630371093,-75.7910232543945,-23.7988586425781,69.8247833251953,1532890219
iw,-53.0074157714843,-76.7302932739257,-17.3268585205078,64.2842636108398,1532906886
iw,-52.7072143554687,-77.6406631469726,-18.4680061340332,63.3677825927734,1532923553
iw,-52.3816566467285,-78.5554046630859,-20.2269458770751,63.6064643859863,1532940220
iw,-52.1404037475585,-79.4861450195312,-15.1442232131958,63.638370513916,1532956887
iw,-52.0210227966308,-80.3735656738281,-7.69110536575317,60.2916641235351,1532973554
iw,-51.9546699523925,-81.2415084838867,-4.19418334960937,59.5095825195312,1532990221
iw,-51.886173248291,-82.0632858276367,-4.3582158088684,57.6412734985351,1533006888
iw,-51.8818244934082,-82.7738723754882,-0.753573179244995,53.9766235351562,1533023555
iw,-51.8238639831543,-83.3281478881836,-4.1905403137207,49.5512237548828,1533040222
iw,-51.744571685791,-83.7199630737304,-5.65100955963134,48.8599395751953,1533056889
iw,-51.6180038452148,-84.0081558227539,-8.64228820800781,57.4061622619628,1533073556
iw,-51.3872528076171,-84.1328506469726,-15.1318178176879,67.4629898071289,1533090223
iw,-51.2395629882812,-83.9645080566406,-10.4849462509155,79.9651718139648,1533106890
iw,-50.9121971130371,-83.37548828125,-21.7359085083007,88.8390274047851,1533123557
iw,-50.34956741333,-82.5151290893554,-36.2245559692382,81.2063217163086,1533140224
iw,-49.9524803161621,-81.8545913696289,-25.8771476745605,56.4612350463867,1533156891
iw,-49.1373252868652,-81.7206115722656,-49.9162788391113,13.1152162551879,1533173558
iw,-48.1885147094726,-82.0598983764648,-59.2117080688476,-30.3570690155029,1533190225
iw,-47.460594177246,-82.7061004638671,-47.3685111999511,-72.2172927856445,1533206892
iw,-47.7343940734863,-83.2514266967773,12.4627332687377,-105.340965270996,1533223559
iw,-48.26025390625,-83.2442245483398,28.3408184051513,-122.422454833984,1533240226
iw,-49.0634231567382,-82.5225982666015,46.0523872375488,-117.515632629394,1533256893
iw,-50.4208259582519,-81.1932220458984,80.4968109130859,-116.846122741699,1533273560
iw,-52.1086235046386,-79.6265792846679,101.521865844726,-106.196403503417,1533290227
iw,-53.9758949279785,-77.9810714721679,113.044319152832,-99.8449172973632,1533306894
iw,-55.9203834533691,-76.0360565185546,117.577865600585,-117.221015930175,1533323561
iw,-58.0177307128906,-73.9311599731445,126.980087280273,-131.111404418945,1533340228
iw,-60.0390167236328,-71.7647552490234,123.940780639648,-139.706237792968,1533356895
iw,-61.8779563903808,-69.6832199096679,114.978897094726,-135.73420715332,1533373562
iw,-63.6369285583496,-67.6842422485351,110.709403991699,-129.292404174804,1533390229
iw,-65.2266159057617,-65.7021789550781,101.437179565429,-125.898254394531,1533406896
iw,-66.6454696655273,-63.5381164550781,92.2789154052734,-135.94497680664,1533423563
iw,-67.9051666259765,-61.2471733093261,83.3519134521484,-143.288177490234,1533440230
iw,-69.0091094970703,-58.962345123291,74.7524185180664,-142.467041015625,1533456897
iw,-70.0435256958007,-56.6832733154296,71.1099395751953,-139.654922485351,1533473564
iw,-70.9198760986328,-54.7192993164062,62.4818458557128,-121.117736816406,1533490231
iw,-71.7013702392578,-53.1774139404296,56.3324661254882,-95.9369125366211,1533506898
iw,-72.4925231933593,-51.9732589721679,56.3859138488769,-73.9916763305664,1533523565
iw,-73.2594680786132,-51.0151786804199,55.1264114379882,-55.4883232116699,1533540232
iw,-73.9831008911132,-50.132884979248,52.6470184326171,-51.5129508972168,1533556899
iw,-74.6954727172851,-49.346450805664,51.0495414733886,-52.3964576721191,1533573566
iw,-75.42822265625,-48.668212890625,49.1263732910156,-49.3964958190918,1533590233
iw,-76.1702575683593,-48.0606117248535,46.6891326904296,-46.9920692443847,1533606900
iw,-76.9662170410156,-47.5614166259765,48.6780738830566,-40.2260208129882,1533623567
iw,-77.8782348632812,-47.2114181518554,56.6477890014648,-29.960542678833,1533640234
iw,-78.9092102050781,-46.9489059448242,66.4178314208984,-23.6570034027099,1533656901
iw,-79.9523162841796,-46.6989631652832,72.6389770507812,-23.4005088806152,1533673568
iw,-80.8809432983398,-46.35595703125,73.3861846923828,-31.0393505096435,1533690235
iw,-81.6660079956054,-45.9052047729492,75.3079528808593,-39.5872383117675,1533706902
iw,-82.2394943237304,-45.4939422607421,77.5163192749023,-38.9577751159668,1533723569
iw,-82.5296630859375,-45.0837593078613,71.8299102783203,-38.7467651367187,1533740236
iw,-82.5449142456054,-44.7172698974609,57.0953636169433,-35.1349754333496,1533756903
iw,-82.4012298583984,-44.2774925231933,39.7809906005859,-40.1770706176757,1533773570
iw,-82.2211074829101,-43.8160743713378,25.0560836791992,-42.2727737426757,1533790237
iw,-81.9648895263671,-43.3725814819335,23.8170890808105,-41.678955078125,1533806904
iw,-81.5571975708007,-43.046142578125,40.532917022705,-39.4448890686035,1533823571
iw,-81.0706253051757,-42.9033432006835,53.2634849548339,-33.0794410705566,1533840238
iw,-80.5855178833007,-43.2019844055175,59.8973770141601,-3.30408024787902,1533856905
iw,-80.1691284179687,-43.3585662841796,55.9791069030761,-4.11188459396362,1533873572
iw,-79.7422637939453,-42.288158416748,50.7811203002929,-68.6003799438476,1533890239
iw,-79.2664642333984,-41.0932998657226,41.7981834411621,-78.7472915649414,1533906906
iw,-79.0707550048828,-40.872013092041,14.1239404678344,-22.9936141967773,1533923573
iw,-79.4646835327148,-41.5434989929199,-30.4948482513427,29.6543979644775,1533940240
iw,-80.3834609985351,-42.6392631530761,-72.9374618530273,53.989013671875,1533956907
iw,-81.4422531127929,-44.1348991394043,-98.4729461669921,76.6734771728515,1533973574
iw,-82.2251205444336,-45.8183288574218,-103.26301574707,86.2677841186523,1533990241
iw,-82.7511825561523,-47.271369934082,-114.30980682373,77.1821746826171,1534006908
iw,-83.0770034790039,-48.6310958862304,-128.80110168457,68.3913040161132,1534023575
iw,-83.1849670410156,-50.0744857788085,-119.150901794433,74.8202285766601,1534040242
iw,-82.9077682495117,-51.6483993530273,-121.098602294921,85.0640029907226,1534056909
iw,-81.9171371459961,-53.3437805175781,-136.613555908203,92.093391418457,1534073576
iw,-80.1640853881836,-55.0468864440918,-153.332260131835,92.4758987426757,1534090243
iw,-78.0383911132812,-56.7148971557617,-154.677017211914,93.2726135253906,1534106910
iw,-75.9062576293945,-58.209114074707,-143.179534912109,86.0300064086914,1534123577
iw,-73.9363784790039,-59.5481567382812,-125.944793701171,78.5543746948242,1534140244
iw,-71.9313812255859,-60.8866004943847,-123.793258666992,79.2591552734375,1534156911
iw,-69.719856262207,-62.1834983825683,-135.274536132812,77.5126647949218,1534173578
iw,-67.2745208740234,-63.3408813476562,-148.966873168945,69.5129776000976,1534190245
iw,-64.8211822509765,-64.4444885253906,-148.656860351562,66.6408767700195,1534206912
iw,-62.6329383850097,-65.5050888061523,-132.797302246093,63.8306922912597,1534223579
iw,-60.6246376037597,-66.5204391479492,-121.82657623291,60.3613548278808,1534240246
iw,-58.816665649414,-67.5162124633789,-109.695793151855,58.9585914611816,1534256913
iw,-57.1662635803222,-68.5543060302734,-100.173652648925,62.1560745239257,1534273580
iw,-55.6618423461914,-69.6265258789062,-91.2666091918945,64.6332855224609,1534290247
iw,-54.4914817810058,-70.7186813354492,-71.1407318115234,66.9481658935546,1534306914
iw,-53.716697692871,-71.8160552978515,-47.4321556091308,68.5396194458007,1534323581
iw,-53.1609153747558,-72.9333801269531,-34.2786674499511,71.251106262207,1534340248
iw,-52.6727333068847,-74.0394592285156,-29.9385337829589,71.6809387207031,1534356915
iw,-52.3746833801269,-75.120361328125,-18.1310005187988,69.8987121582031,1534373582
iw,-52.2466239929199,-76.1362991333007,-7.733980178833,65.737190246582,1534390249
iw,-52.1949310302734,-77.2017745971679,-3.24518394470214,68.6283187866211,1534406916
iw,-52.22900390625,-78.2214050292968,1.86287355422973,65.0783996582031,1534423583
iw,-52.2900009155273,-79.144172668457,3.48662281036376,58.4019165039062,1534440250
iw,-52.2648773193359,-80.0340728759765,-1.44845175743103,57.9458351135253,1534456917
iw,-52.1941833496093,-80.8866348266601,-4.00678062438964,55.6169281005859,1534473584
iw,-52.2054023742675,-81.6115417480468,1.22018647193908,47.7458381652832,1534490251
iw,-52.1060523986816,-82.2229690551757,-5.38113164901733,44.4717102050781,1534506918
iw,-51.9139900207519,-82.7856674194336,-10.9327011108398,45.1527595520019,1534523585
iw,-51.6765823364257,-83.4658584594726,-13.7456264495849,53.4639739990234,1534540252
iw,-51.487319946289,-84.1850357055664,-10.9982757568359,62.1833114624023,1534556919
iw,-51.3003463745117,-84.7470092773437,-11.0048465728759,76.6481399536132,1534573586
iw,-50.943862915039,-84.787971496582,-21.6565723419189,90.6389236450195,1534590253
iw,-50.3100967407226,-84.1591644287109,-38.8698997497558,85.4027099609375,1534606920
iw,-49.9038276672363,-83.4389953613281,-25.7677097320556,70.9363632202148,1534623587
iw,-49.2987937927246,-83.1242218017578,-37.3156776428222,41.6521644592285,1534640254
iw,-48.3435134887695,-83.3049087524414,-57.6025505065918,-3.64694237709045,1534656921
iw,-47.7378044128418,-83.9109573364257,-37.5120201110839,-50.2019309997558,1534673588
iw,-48.0318984985351,-84.6319503784179,15.6017932891845,-84.0267639160156,1534690255
iw,-48.3153915405273,-84.9737548828125,14.462643623352,-105.11685180664,1534706922
iw,-48.7926979064941,-84.4224777221679,26.1327018737792,-116.293548583984,1534723589
iw,-49.832649230957,-82.9957962036132,60.7109985351562,-122.035240173339,1534740256
iw,-51.2940979003906,-81.1010360717773,86.8457641601562,-120.200172424316,1534756923
iw,-52.6707763671875,-79.1220703125,83.106819152832,-107.887084960937,1534773590
iw,-53.9825553894043,-76.8545837402343,80.0648727416992,-115.69905090332,1534790257
iw,-55.402000427246,-74.4778900146484,86.4722213745117,-124.3286819458,1534806924
iw,-56.9445037841796,-72.1348495483398,93.8062210083007,-132.578521728515,1534823591
iw,-58.4960899353027,-69.8118362426757,95.1338195800781,-141.848403930664,1534840258
iw,-60.0087394714355,-67.5707473754882,93.2666778564453,-140.836364746093,1534856925
iw,-61.4113311767578,-65.4161911010742,86.6711654663086,-134.428268432617,1534873592
iw,-62.6882286071777,-63.1696968078613,79.2247314453125,-138.95344543457,1534890259
iw,-63.8119773864746,-60.8174667358398,70.0881881713867,-146.210845947265,1534906926
iw,-64.9007186889648,-58.3468170166015,68.2334594726562,-155.210418701171,1534923593
iw,-66.0169525146484,-55.8771514892578,69.8851776123046,-155.479553222656,1534940260
iw,-67.1284027099609,-53.5343933105468,69.1347351074218,-146.754486083984,1534956927
iw,-68.1405868530273,-51.5261459350585,62.075340270996,-129.763107299804,1534973594
iw,-69.0879592895507,-49.7966957092285,57.0477447509765,-118.461669921875,1534990261
iw,-70.0401229858398,-48.5175094604492,57.1161193847656,-91.9417190551757,1535006928
iw,-71.008674621582,-47.6277275085449,58.7091903686523,-65.1966552734375,1535023595
iw,-72.0060348510742,-47.0417823791503,60.6507339477539,-42.5974159240722,1535040262
iw,-73.0552291870117,-46.5830955505371,62.4946670532226,-36.6287117004394,1535056929
iw,-74.1134262084961,-46.2916450500488,63.6155967712402,-28.71067237854,1535073596
iw,-75.1164398193359,-46.1739959716796,62.4847831726074,-17.6887435913085,1535090263
iw,-76.0534439086914,-46.2244606018066,59.58687210083,-4.93767356872558,1535106930
iw,-76.9841613769531,-46.3039436340332,60.203140258789,-0.386547267436981,1535123597
iw,-77.8959884643554,-46.2628746032714,61.8316421508789,-5.89583301544189,1535140264
iw,-78.7915954589843,-46.0133819580078,63.8277168273925,-19.1808204650878,1535156931
iw,-79.6531295776367,-45.5498275756835,63.678783416748,-35.6606559753418,1535173598
iw,-80.4704895019531,-44.9947700500488,63.5375061035156,-43.1188735961914,1535190265
iw,-81.1823654174804,-44.4851150512695,63.7520103454589,-40.0112342834472,1535206932
iw,-81.7249526977539,-44.1204681396484,61.5343017578125,-29.9687805175781,1535223599
iw,-82.0822525024414,-43.7329902648925,60.5739860534668,-31.437400817871,1535240266
iw,-82.2314071655273,-43.4134216308593,53.8837661743164,-28.6449642181396,1535256933
iw,-82.2715301513671,-43.1324501037597,41.2513771057128,-28.5868778228759,1535273600
iw,-82.262092590332,-42.97114944458,30.1786251068115,-23.2923965454101,1535290267
iw,-82.2144470214843,-42.9774513244628,34.3030052185058,-14.9350509643554,1535306934
iw,-82.2520523071289,-43.1544799804687,32.006908416748,-6.00941514968872,1535323601
iw,-82.4344940185546,-43.7476463317871,27.2300033569335,19.7599506378173,1535340268
iw,-82.7142791748046,-44.2487525939941,29.7678813934326,13.3160820007324,1535356935
iw,-82.9028396606445,-43.671875,35.6092071533203,-44.7809219360351,1535373602
iw,-82.8378524780273,-42.1184120178222,38.4856147766113,-99.1438064575195,1535390269
iw,-82.7060470581054,-41.039623260498,23.3120918273925,-77.0369415283203,1535406936
iw,-82.9337310791015,-41.3568725585937,-17.9454383850097,8.57497406005859,1535423603
iw,-83.4778213500976,-42.5286865234375,-61.1889953613281,60.9183883666992,1535440270
iw,-84.0060653686523,-44.1385879516601,-99.4593811035156,79.6931457519531,1535456937
iw,-83.999397277832,-46.1986770629882,-118.880027770996,101.430313110351,1535473604
iw,-83.5287933349609,-47.726707458496,-120.430809020996,82.0369338989257,1535490271
iw,-82.8525466918945,-48.7226486206054,-114.854438781738,54.1560592651367,1535506938
iw,-81.8030319213867,-49.7722053527832,-123.160705566406,54.0299034118652,1535523605
iw,-80.4718475341796,-51.0841941833496,-122.95238494873,70.5892639160156,1535540272
iw,-79.0207595825195,-52.6068305969238,-116.235191345214,84.902099609375,1535556939
iw,-77.3122100830078,-54.1804809570312,-122.333663940429,87.7040786743164,1535573606
iw,-75.4063491821289,-55.687141418457,-127.5552444458,84.7104110717773,1535590273
iw,-73.6020202636718,-57.1633148193359,-115.794532775878,86.004524230957,1535606940
iw,-71.8967742919921,-58.5862007141113,-105.806243896484,85.5989608764648,1535623607
iw,-69.9982147216796,-59.9634399414062,-115.458190917968,83.1829605102539,1535640274
iw,-67.6813354492187,-61.2886199951171,-139.764328002929,80.4567794799804,1535656941
iw,-65.0063400268554,-62.5105743408203,-160.376907348632,74.8168869018554,1535673608
iw,-62.4089469909668,-63.7296409606933,-154.751754760742,75.7613983154296,1535690275
iw,-60.1571159362793,-64.9860687255859,-134.271118164062,79.3214645385742,1535706942
iw,-58.2272872924804,-66.2670669555664,-115.889694213867,81.1522750854492,1535723609
iw,-56.5704345703125,-67.5260391235351,-100.264511108398,79.2057342529296,1535740276
iw,-55.1650619506835,-68.7631301879882,-85.3479614257812,77.0613174438476,1535756943
iw,-53.9925193786621,-70.0016403198242,-71.3851470947265,77.3391036987304,1535773610
iw,-53.2212181091308,-71.2178955078125,-47.3160400390625,77.339859008789,1535790277
iw,-52.7301216125488,-72.3168182373046,-30.4881649017334,71.1948013305664,1535806944
iw,-52.282958984375,-73.2993621826171,-27.6069869995117,65.4740982055664,1535823611
iw,-51.914924621582,-74.2659759521484,-22.3360881805419,65.717529296875,1535840278
iw,-51.6371116638183,-75.1738891601562,-16.5356407165527,62.3881492614746,1535856945
iw,-51.4030494689941,-76.0511627197265,-14.1917467117309,59.1177330017089,1535873612
iw,-51.174446105957,-76.9524765014648,-14.5802993774414,59.0734176635742,1535890279
iw,-50.9628868103027,-77.8386611938476,-13.9052600860595,56.9752349853515,1535906946
iw,-50.8925399780273,-78.7697219848632,-5.61448526382446,60.9963150024414,1535923613
iw,-50.7949714660644,-79.7343673706054,-7.13214349746704,66.1647644042968,1535940280
iw,-50.5524177551269,-80.666519165039,-15.8326025009155,66.188232421875,1535956947
iw,-50.371223449707,-81.4344787597656,-12.2331762313842,58.4261093139648,1535973614
iw,-50.2926025390625,-82.0253829956054,-6.19664144515991,52.1501998901367,1535990281
iw,-50.4112968444824,-82.4852447509765,5.53572750091552,46.883861541748,1536006948
iw,-50.6751441955566,-82.85888671875,14.2219982147216,43.01318359375,1536023615
iw,-50.8688659667968,-83.1455154418945,10.1077165603637,45.0760917663574,1536040282
iw,-50.7728843688964,-83.2489547729492,-7.25653219223022,52.632080078125,1536056949
iw,-50.29634475708,-83.0804595947265,-30.3031730651855,60.1306076049804,1536073616
iw,-49.7654876708984,-82.6924972534179,-33.8587989807128,67.4977416992187,1536090283
iw,-48.9518203735351,-82.2958679199218,-50.2267990112304,66.2007217407226,1536106950
iw,-47.52001953125,-82.1235656738281,-85.2330017089843,35.76851272583,1536123617
iw,-46.0665283203125,-82.3360214233398,-88.1460418701171,-9.73987960815429,1536140284
iw,-45.4761505126953,-82.9026260375976,-38.6053810119628,-70.1627197265625,1536156951
iw,-45.2470207214355,-83.2845458984375,-16.8654804229736,-112.559074401855,1536173618
iw,-45.3062705993652,-83.0367736816406,0.648046910762786,-118.493591308593,1536190285
iw,-46.0855484008789,-82.1265487670898,44.685260772705,-113.754280090332,1536206952
iw,-47.5765380859375,-80.7596282958984,87.9872817993164,-106.976623535156,1536223619
iw,-49.0690650939941,-79.0476150512695,88.7738494873046,-109.039794921875,1536240286
iw,-50.6572151184082,-76.8265075683593,95.1806945800781,-127.796379089355,1536256953
iw,-52.4885444641113,-74.4134521484375,109.921585083007,-132.623229980468,1536273620
iw,-54.5301475524902,-72.146499633789,122.897224426269,-128.693634033203,1536290287
iw,-56.6511802673339,-69.8397140502929,128.637283325195,-140.718795776367,1536306954
iw,-58.7687530517578,-67.5846405029296,129.303588867187,-138.71809387207,1536323621
iw,-60.7421073913574,-65.4672546386718,121.117980957031,-126.827529907226,1536340288
iw,-62.5402946472168,-63.2397384643554,110.995635986328,-133.714660644531,1536356955
iw,-64.1863861083984,-60.8467254638671,102.304016113281,-146.796463012695,1536373622
iw,-65.8184509277343,-58.4353141784668,102.651451110839,-149.66259765625,1536390289
iw,-67.2946548461914,-56.0822067260742,94.8298110961914,-144.098312377929,1536406956
iw,-68.6528701782226,-53.9258918762207,88.412483215332,-129.332244873046,1536423623
iw,-69.8182678222656,-52.03173828125,76.4632263183593,-115.375228881835,1536440290
iw,-70.7851181030273,-50.5153884887695,63.4317207336425,-98.0420684814453,1536456957
iw,-71.6374588012695,-49.2022399902343,55.7189216613769,-88.8620910644531,1536473624
iw,-72.455207824707,-48.2891082763671,54.0964202880859,-62.6742897033691,1536490291
iw,-73.1662673950195,-47.7328033447265,47.24169921875,-39.1776466369628,1536506958
iw,-73.8321838378906,-47.4029998779296,43.4083366394043,-26.4977436065673,1536523625
iw,-74.5490188598632,-47.2779464721679,44.2334289550781,-16.0622653961181,1536540292
iw,-75.2394485473632,-47.2417564392089,39.860050201416,-12.0067815780639,1536556959
iw,-75.8941421508789,-47.3108100891113,36.3564796447753,-4.98798131942749,1536573626
iw,-76.5708999633789,-47.4365196228027,35.8074569702148,0.132014438509941,1536590293
iw,-77.2810745239257,-47.445327758789,37.0009651184082,-5.42747592926025,1536606960
iw,-77.9868392944336,-47.2482833862304,38.1754455566406,-17.4504051208496,1536623627
iw,-78.7004241943359,-46.7847251892089,41.956443786621,-35.0643882751464,1536640294
iw,-79.4725875854492,-46.1137580871582,51.3748130798339,-50.0191574096679,1536656961
iw,-80.2546691894531,-45.3148117065429,58.9839782714843,-58.5917129516601,1536673628
iw,-80.963150024414,-44.6530838012695,60.1370620727539,-49.6909446716308,1536690295
iw,-81.5771102905273,-44.2427101135253,57.7805671691894,-34.1969909667968,1536706962
iw,-82.0843811035156,-43.9132499694824,53.9019050598144,-30.0823764801025,1536723629
iw,-82.4339218139648,-43.4983100891113,48.1282653808593,-36.3301391601562,1536740296
iw,-82.6472625732421,-43.0843544006347,42.2549781799316,-37.2113761901855,1536756963
iw,-82.7592849731445,-42.8204269409179,44.0108947753906,-28.7699489593505,1536773630
iw,-82.8232345581054,-42.6290473937988,51.8296775817871,-25.7129211425781,1536790297
iw,-82.8595275878906,-42.6499290466308,50.737678527832,-15.7142095565795,1536806964
iw,-82.9040298461914,-43.0798873901367,49.8557624816894,6.75944185256958,1536823631
iw,-82.9540557861328,-43.0619277954101,46.4904556274414,-17.0620155334472,1536840298
iw,-82.8699722290039,-42.1165313720703,50.8272361755371,-62.6653823852539,1536856965
iw,-82.6179656982421,-41.2061042785644,48.3942413330078,-62.9182357788085,1536873632
iw,-82.5523910522461,-41.3212203979492,18.5170783996582,-3.28844499588012,1536890299
iw,-83.0597457885742,-42.3797798156738,-36.6731529235839,46.7183113098144,1536906966
iw,-84.0931015014648,-43.980354309082,-97.0900573730468,77.2318954467773,1536923633
iw,-84.8998489379882,-45.9980392456054,-124.793762207031,103.49641418457,1536940300
iw,-84.9340744018554,-47.8158798217773,-133.739624023437,101.025802612304,1536956967
iw,-84.2477645874023,-49.3662376403808,-133.090118408203,84.4161148071289,1536973634
iw,-83.1727752685546,-50.836082458496,-115.586402893066,78.3396530151367,1536990301
iw,-81.6812667846679,-52.3185920715332,-121.70701599121,80.4714431762695,1537006968
iw,-79.932991027832,-53.904613494873,-127.375656127929,88.5902557373046,1537023635
iw,-78.0003051757812,-55.5418472290039,-133.514694213867,91.7415390014648,1537040302
iw,-75.9835662841796,-57.2489852905273,-133.244140625,98.359016418457,1537056969
iw,-74.1302490234375,-58.9291381835937,-119.150695800781,99.372932434082,1537073636
iw,-72.3353576660156,-60.436279296875,-112.922134399414,90.052619934082,1537090303
iw,-70.3482589721679,-61.8273849487304,-123.001518249511,83.9974746704101,1537106970
iw,-68.1716690063476,-63.1108131408691,-133.125991821289,77.709716796875,1537123637
iw,-65.919204711914,-64.2884445190429,-136.49299621582,71.1057739257812,1537140304
iw,-63.8166580200195,-65.3244857788086,-126.354583740234,62.7826271057128,1537156971
iw,-61.9076118469238,-66.1884613037109,-114.130157470703,52.5867347717285,1537173638
iw,-60.1751480102539,-66.9558868408203,-103.354454040527,46.6026458740234,1537190305
iw,-58.5462799072265,-67.6339111328125,-97.2187423706054,39.6374588012695,1537206972
iw,-57.2198371887207,-68.3004837036132,-79.4268112182617,37.9294395446777,1537223639
iw,-56.1927337646484,-69.0121612548828,-61.7519378662109,40.9470252990722,1537240306
iw,-55.4805145263671,-69.725601196289,-43.1526947021484,41.1971244812011,1537256973
iw,-54.9860076904296,-70.4742202758789,-30.0793304443359,44.2395210266113,1537273640
iw,-54.6355819702148,-71.3539428710937,-21.1274223327636,53.596923828125,1537290307
iw,-54.4275093078613,-72.2647094726562,-12.3730792999267,56.1070098876953,1537306974
iw,-54.2828674316406,-73.1753845214843,-8.72281551361084,56.9089164733886,1537323641
iw,-54.0754890441894,-74.1393585205078,-12.8972311019897,60.1189041137695,1537340308
iw,-53.8242301940918,-75.1376953125,-15.78156375885,61.6277389526367,1537356975
iw,-53.4422607421875,-76.1757202148437,-23.3824577331542,63.2298622131347,1537373642
iw,-52.8549079895019,-77.2231826782226,-35.1638450622558,63.2435989379882,1537390309
iw,-52.085220336914,-78.2446823120117,-45.7602157592773,62.322826385498,1537406976
iw,-51.2922325134277,-79.2854614257812,-47.2989425659179,64.991096496582,1537423643
iw,-50.5875015258789,-80.3178787231445,-42.2847747802734,65.4911804199218,1537440310
iw,-50.0223922729492,-81.3132553100586,-34.1004409790039,64.8513488769531,1537456977
iw,-49.5091361999511,-82.2293319702148,-30.988842010498,62.2859497070312,1537473644
iw,-49.0162315368652,-83.0666427612304,-29.6358299255371,61.0437507629394,1537490311
iw,-48.5609893798828,-83.7258377075195,-27.4244117736816,53.9237632751464,1537506978
iw,-48.3105888366699,-84.174690246582,-15.2979688644409,45.3507614135742,1537523645
iw,-48.3004341125488,-84.4342269897461,-1.00695514678955,40.2213096618652,1537540312
iw,-48.4126625061035,-84.5623168945312,6.11146306991577,45.0039329528808,1537556979
iw,-48.3111534118652,-84.5427093505859,-7.06341552734375,52.4060287475585,1537573646
iw,-47.884464263916,-84.37451171875,-26.9927711486816,57.7305221557617,1537590313
iw,-47.0948028564453,-84.1973495483398,-49.1469001770019,65.6088409423828,1537606980
iw,-46.1839141845703,-84.0495223999023,-55.1210899353027,53.02193069458,1537623647
iw,-45.1328468322753,-84.0657501220703,-63.3284225463867,7.00561618804931,1537640314
iw,-44.4765090942382,-84.3841018676757,-41.7130126953125,-43.2183380126953,1537656981
iw,-44.5075950622558,-84.7773056030273,-1.24072456359863,-70.4433517456054,1537673648
iw,-44.7608184814453,-84.9704055786132,12.3216524124145,-78.9146118164062,1537690315
iw,-45.4778709411621,-84.5481414794921,40.9584197998046,-89.7399520874023,1537706982
iw,-46.7923049926757,-83.4567413330078,77.5176391601562,-97.4053802490234,1537723649
iw,-48.2596168518066,-81.8901977539062,87.8047180175781,-109.160346984863,1537740316
iw,-49.9638061523437,-79.9408569335937,103.904029846191,-122.650955200195,1537756983
iw,-51.9955215454101,-77.7065887451171,124.244064331054,-129.985794067382,1537773650
iw,-54.185302734375,-75.3148651123046,133.477935791015,-133.753616333007,1537790317
iw,-56.3451309204101,-72.9861602783203,132.857849121093,-133.824279785156,1537806984
iw,-58.5752944946289,-70.7408752441406,139.19888305664,-134.50341796875,1537823651
iw,-60.8008766174316,-68.5994644165039,139.438552856445,-132.124542236328,1537840318
iw,-62.7685775756835,-66.2962570190429,123.776672363281,-143.697647094726,1537856985
iw,-64.5022811889648,-63.7594871520996,110.461883544921,-158.553741455078,1537873652
iw,-66.0942230224609,-61.2274284362793,103.838348388671,-158.990020751953,1537890319
iw,-67.5169448852539,-58.888988494873,95.4746704101562,-144.362548828125,1537906986
iw,-68.8243255615234,-56.718765258789,89.9007720947265,-130.040435791015,1537923653
iw,-70.0020599365234,-54.6234283447265,84.0043182373046,-122.846496582031,1537940320
iw,-71.0051498413086,-52.8528022766113,73.2913970947265,-103.940704345703,1537956987
iw,-71.8684616088867,-51.4061584472656,63.3879661560058,-88.8389434814453,1537973654
iw,-72.6215744018554,-50.0652885437011,55.5485534667968,-87.2814559936523,1537990321
iw,-73.2506484985351,-48.8027648925781,47.175064086914,-85.4067001342773,1538006988
iw,-73.7646331787109,-47.6837997436523,39.5645217895507,-77.8359680175781,1538023655
iw,-74.2214736938476,-46.8219299316406,35.8605194091796,-61.9447898864746,1538040322
iw,-74.7270278930664,-46.2846755981445,37.3496360778808,-41.7686805725097,1538056989
iw,-75.3528747558593,-45.9385223388671,41.5267257690429,-30.3504791259765,1538073656
iw,-76.0626449584961,-45.7464179992675,42.4547004699707,-20.3763885498046,1538090323
iw,-76.7792510986328,-45.7306098937988,38.5530357360839,-8.37696266174316,1538106990
iw,-77.5145492553711,-45.7739219665527,37.9444885253906,-3.55613780021667,1538123657
iw,-78.235366821289,-45.7610626220703,38.7682304382324,-6.64098262786865,1538140324
iw,-78.919807434082,-45.6047897338867,45.9814071655273,-15.8554410934448,1538156991
iw,-79.5299606323242,-45.2786026000976,55.6974449157714,-28.2376174926757,1538173658
iw,-80.0670471191406,-45.0207214355468,66.9831008911132,-25.1766471862792,1538190325
iw,-80.4155654907226,-44.6596946716308,66.582046508789,-31.8494663238525,1538206992
iw,-80.5588684082031,-44.3537139892578,54.8196907043457,-28.5165615081787,1538223659
iw,-80.5730209350586,-43.9694290161132,42.4702415466308,-34.3116989135742,1538240326
iw,-80.4798812866211,-43.4730682373046,33.9556694030761,-42.9689102172851,1538256993
iw,-80.3274459838867,-42.9543914794921,29.6620368957519,-47.49853515625,1538273660
iw,-80.1544189453125,-42.3538055419921,33.0404510498046,-56.8211135864257,1538290327
iw,-80.0116271972656,-42.0407905578613,42.1760139465332,-41.3899917602539,1538306994
iw,-79.9228057861328,-42.3102149963378,47.1162109375,-4.48693370819091,1538323661
iw,-79.9396820068359,-41.9337692260742,47.5978965759277,-38.2809944152832,1538340328
iw,-79.9858016967773,-40.7239112854003,41.185131072998,-84.2202911376953,1538356995
iw,-80.0815124511718,-39.8107147216796,23.0154609680175,-68.9935684204101,1538373662
iw,-80.4672317504882,-40.0184860229492,-16.2002391815185,0.356728196144104,1538390329
iw,-81.2345657348632,-41.219310760498,-65.044319152832,56.8391990661621,1538406996
iw,-82.2309494018554,-42.8808097839355,-111.237968444824,79.7787704467773,1538423663
iw,-83.0174255371093,-44.8835220336914,-141.097671508789,101.189414978027,1538440330
iw,-83.3024749755859,-46.5524368286132,-141.954071044921,87.5819854736328,1538456997
iw,-83.1182098388671,-48.0541954040527,-122.657249450683,76.0430831909179,1538473664
iw,-82.1155700683593,-49.7180938720703,-138.056640625,86.7665786743164,1538490331
iw,-80.4867782592773,-51.4169807434082,-140.854858398437,91.8666305541992,1538506998
iw,-78.7027969360351,-53.1744270324707,-126.772537231445,96.4535980224609,1538523665
iw,-76.6945571899414,-55.0690078735351,-132.399673461914,105.371345520019,1538540332
iw,-74.6713256835937,-57.1258926391601,-129.956634521484,118.344505310058,1538556999
iw,-72.8107986450195,-59.117862701416,-117.890579223632,117.182540893554,1538573666
iw,-70.8188247680664,-60.9439697265625,-124.47004699707,108.800270080566,1538590333
iw,-68.5784301757812,-62.5808563232421,-138.53955078125,98.1665267944336,1538607000
iw,-66.0581970214843,-64.0598983764648,-153.17788696289,89.2506027221679,1538623667
iw,-63.5170860290527,-65.4422988891601,-152.408432006835,83.076904296875,1538640334
iw,-61.2899436950683,-66.7529144287109,-133.240447998046,79.09375,1538657001
iw,-59.4698982238769,-67.9516830444336,-109.723754882812,71.3118667602539,1538673668
iw,-57.8424606323242,-69.0752716064453,-98.7613372802734,66.8849868774414,1538690335
iw,-56.3528327941894,-70.1467819213867,-90.8439865112304,64.4208755493164,1538707002
iw,-55.0389785766601,-71.168586730957,-80.3251190185546,61.6100158691406,1538723669
iw,-54.1097717285156,-72.1982650756836,-57.2630386352539,63.2581176757812,1538740336
iw,-53.4278526306152,-73.2945938110351,-42.3782615661621,69.1839752197265,1538757003
iw,-52.8554496765136,-74.4311065673828,-35.5597381591796,73.5340423583984,1538773670
iw,-52.3877639770507,-75.5584259033203,-28.7201461791992,75.2090454101562,1538790337
iw,-51.9736900329589,-76.6610107421875,-24.9676361083984,76.4173355102539,1538807004
iw,-51.638427734375,-77.7090225219726,-20.3999118804931,74.1266784667968,1538823671
iw,-51.3389244079589,-78.755386352539,-18.4212989807128,73.9295501708984,1538840338
iw,-51.1600379943847,-79.7937545776367,-10.8544816970825,74.3025588989257,1538857005
iw,-51.073875427246,-80.7947845458984,-5.06093025207519,75.0566101074218,1538873672
iw,-51.0272636413574,-81.6787414550781,-2.58460593223571,71.9099502563476,1538890339
iw,-51.1430969238281,-82.3838272094726,7.38245773315429,61.5332984924316,1538907006
iw,-51.2913360595703,-82.8807601928711,9.15323066711425,44.9412689208984,1538923673
iw,-51.5348396301269,-83.271125793457,14.8589401245117,34.2118835449218,1538940340
iw,-51.7566299438476,-83.6459045410156,13.5378761291503,35.4071884155273,1538957007
iw,-51.8790016174316,-84.0173568725586,7.3771424293518,44.1875228881835,1538973674
iw,-51.7980651855468,-84.2622985839843,-5.16891860961914,52.7920608520507,1538990341
iw,-51.3928642272949,-84.1930236816406,-25.0531826019287,60.2692832946777,1539007008
iw,-50.9172592163085,-83.7842941284179,-29.7113227844238,58.0371551513671,1539023675
iw,-50.3936004638671,-83.3319702148437,-32.9844245910644,44.2494812011718,1539040342
iw,-49.5221252441406,-83.1350479125976,-53.1107749938964,7.46608400344848,1539057009
iw,-48.4088630676269,-83.2788848876953,-68.5936813354492,-39.5083808898925,1539073676
iw,-47.601318359375,-83.5747756958007,-51.2142601013183,-79.4374389648437,1539090343
iw,-47.613899230957,-83.6169052124023,-1.37765860557556,-105.776023864746,1539107010
iw,-47.9655990600585,-83.0621795654296,19.3657093048095,-118.70743560791,1539123677
iw,-49.033218383789,-81.8120422363281,62.7549057006835,-124.407608032226,1539140344
iw,-50.6940193176269,-80.0611495971679,99.1873321533203,-127.822280883789,1539157011
iw,-52.3552093505859,-78.2748260498046,100.845726013183,-113.635482788085,1539173678
iw,-54.024803161621,-76.2471313476562,102.792350769042,-117.501426696777,1539190345
iw,-55.7962532043457,-73.9380111694336,109.211349487304,-126.810752868652,1539207012
iw,-57.701847076416,-71.5873947143554,117.040405273437,-130.116378784179,1539223679
iw,-59.5682678222656,-69.2600936889648,115.378631591796,-135.169357299804,1539240346
iw,-61.4616165161132,-66.9046859741211,117.510688781738,-141.243026733398,1539257013
iw,-63.3037528991699,-64.717170715332,113.778213500976,-132.761779785156,1539273680
iw,-64.939094543457,-62.4692306518554,101.224998474121,-138.386016845703,1539290347
iw,-66.3090667724609,-60.26513671875,85.6216659545898,-138.056900024414,1539307014
iw,-67.5293197631836,-58.1405982971191,77.8447799682617,-127.722434997558,1539323681
iw,-68.6537704467773,-55.7751541137695,72.4313049316406,-138.663803100585,1539340348
iw,-69.6935729980468,-53.6963539123535,67.4856719970703,-121.079925537109,1539357015
iw,-70.6418075561523,-51.7520561218261,61.5168724060058,-116.277183532714,1539373682
iw,-71.4305267333984,-50.1263427734375,50.7531204223632,-104.999557495117,1539390349
iw,-72.0867156982421,-49.0822372436523,42.0713119506835,-76.532356262207,1539407016
iw,-72.7259750366211,-48.4140968322753,41.3689651489257,-52.305435180664,1539423683
iw,-73.3695602416992,-47.6646194458007,42.359375,-50.754108428955,1539440350
iw,-74.0400390625,-46.9511795043945,44.746711730957,-45.70601272583,1539457017
iw,-74.7961196899414,-46.3826675415039,48.4897232055664,-38.1291351318359,1539473684
iw,-75.5643844604492,-45.9616432189941,47.5010375976562,-31.3034744262695,1539490351
iw,-76.3543472290039,-45.7444305419921,47.6466102600097,-19.5156860351562,1539507018
iw,-77.1995773315429,-45.7084808349609,48.8382186889648,-7.72693014144897,1539523685
iw,-78.1218719482421,-45.6703186035156,52.59765625,-7.06848430633544,1539540352
iw,-79.1246719360351,-45.4097366333007,61.4985733032226,-21.6017608642578,1539557019
iw,-80.0740356445312,-44.9112167358398,62.1609573364257,-37.3459930419921,1539573686
iw,-80.9155731201171,-44.299015045166,60.74169921875,-45.7694816589355,1539590353
iw,-81.5851058959961,-43.6033668518066,59.2638244628906,-50.9129524230957,1539607020
iw,-82.0558700561523,-42.8909339904785,53.3336029052734,-50.937702178955,1539623687
iw,-82.3533248901367,-42.2466888427734,41.5324058532714,-42.7604866027832,1539640354
iw,-82.4889297485351,-41.7018356323242,26.2872161865234,-38.2435913085937,1539657021
iw,-82.4974746704101,-41.0501670837402,11.4947824478149,-45.7266654968261,1539673688
iw,-82.3858871459961,-40.8600006103515,4.83849143981933,-19.7688846588134,1539690355
iw,-82.2428817749023,-40.8179893493652,12.5872936248779,-14.7624931335449,1539707022
iw,-82.1251831054687,-40.8570823669433,21.1116409301757,-10.9924755096435,1539723689
iw,-82.1684951782226,-40.8662757873535,28.5209159851074,-13.1108627319335,1539740356
iw,-82.4135131835937,-41.0521278381347,32.9488067626953,-3.72692441940307,1539757023
iw,-82.781753540039,-41.6078491210937,32.5720329284668,18.646406173706,1539773690
iw,-83.1773223876953,-41.7588539123535,30.216739654541,-5.72447538375854,1539790357
iw,-83.4498214721679,-41.123291015625,28.6985530853271,-39.5243911743164,1539807024
iw,-83.3867492675781,-40.1399459838867,33.7889976501464,-58.4336280822753,1539823691
iw,-83.3261489868164,-40.0957565307617,6.09220933914184,-9.8147554397583,1539840358
iw,-83.5491027832031,-41.3231315612793,-44.9512825012207,57.4121932983398,1539857025
iw,-83.7619400024414,-43.3677062988281,-88.4626541137695,101.395706176757,1539873692
iw,-83.6040802001953,-45.543701171875,-111.926773071289,107.313468933105,1539890359
iw,-83.1319046020507,-47.288101196289,-123.245506286621,90.8072052001953,1539907026
iw,-82.3802719116211,-48.6822624206543,-118.952445983886,70.2529678344726,1539923693
iw,-80.9845199584961,-50.143699645996,-143.583862304687,74.4766006469726,1539940360
iw,-79.1390533447265,-51.7900123596191,-151.011398315429,89.3639984130859,1539957027
iw,-77.3195037841796,-53.536449432373,-130.99397277832,98.2353897094726,1539973694
iw,-75.4717102050781,-55.3714370727539,-121.557395935058,105.340293884277,1539990361
iw,-73.6224975585937,-57.2916069030761,-117.801925659179,111.172546386718,1540007028
iw,-71.8949813842773,-59.2862205505371,-109.093727111816,118.34715270996,1540023695
iw,-70.2198333740234,-61.1546745300293,-104.432235717773,111.912490844726,1540040362
iw,-68.1372680664062,-62.9529113769531,-127.506126403808,107.901634216308,1540057029
iw,-65.6900329589843,-64.634651184082,-148.03514099121,101.430419921875,1540073696
iw,-62.9992904663085,-66.1875686645507,-161.154586791992,94.5649261474609,1540090363
iw,-60.489501953125,-67.5978622436523,-148.990524291992,86.9359054565429,1540107030
iw,-58.3743820190429,-68.8550186157226,-125.468963623046,77.4156494140625,1540123697
iw,-56.6516036987304,-70.0005722045898,-102.49070739746,70.200210571289,1540140364
iw,-55.1551628112793,-71.0830917358398,-89.5856170654296,66.4897689819336,1540157031
iw,-53.8005485534668,-72.1139297485351,-81.6246871948242,63.6764335632324,1540173698
iw,-52.6693840026855,-73.1365051269531,-68.744400024414,62.9820709228515,1540190365
iw,-52.021614074707,-74.1922149658203,-40.1109580993652,65.0846862792968,1540207032
iw,-51.5861167907714,-75.3422012329101,-27.4197750091552,72.2666015625,1540223699
iw,-51.1661300659179,-76.4818420410156,-26.2138843536376,73.1761169433593,1540240366
iw,-50.8908081054687,-77.6017913818359,-16.9635009765625,73.5711364746093,1540257033
iw,-50.7550201416015,-78.7411727905273,-8.08873653411865,76.4083480834961,1540273700
iw,-50.5923271179199,-79.8740081787109,-9.59545707702636,77.7037277221679,1540290367
iw,-50.4205131530761,-80.9778747558593,-10.2765493392944,76.8896026611328,1540307034
iw,-50.2974662780761,-81.9557723999023,-7.44431018829345,70.7226181030273,1540323701
iw,-50.329490661621,-82.7216644287109,1.84904241561889,60.3066101074218,1540340368
iw,-50.2602386474609,-83.2796401977539,-3.78884649276733,47.8616752624511,1540357035
iw,-50.2808418273925,-83.7240219116211,2.01689052581787,37.258731842041,1540373702
iw,-50.3926582336425,-84.1041946411132,7.6297492980957,30.4751815795898,1540390369
iw,-50.5884780883789,-84.475715637207,12.7116069793701,29.0388088226318,1540407036
iw,-50.8350868225097,-84.8521652221679,15.6911220550537,31.338134765625,1540423703
iw,-51.008201599121,-85.1942977905273,11.0276069641113,39.8069992065429,1540440370
iw,-51.0930519104003,-85.3502578735351,5.34465503692626,50.6458587646484,1540457037
iw,-50.899917602539,-85.1225204467773,-11.6104507446289,51.7842864990234,1540473704
iw,-50.7386245727539,-84.6280136108398,-9.95042037963867,50.2236289978027,1540490371
iw,-50.5721702575683,-84.1788024902343,-11.3779678344726,44.0050315856933,1540507038
iw,-49.7059097290039,-84.085205078125,-52.5545387268066,9.43886566162109,1540523705
iw,-48.680419921875,-84.4515075683593,-61.525333404541,-41.6392021179199,1540540372
iw,-47.9931983947753,-85.0654907226562,-42.5033721923828,-86.8851318359375,1540557039
iw,-48.0157814025878,-85.1471633911132,-0.344911724328994,-122.840187072753,1540573706
iw,-48.0790214538574,-84.0638351440429,2.03371834754943,-139.01512145996,1540590373
iw,-48.8356742858886,-82.3022689819336,44.1446876525878,-133.959930419921,1540607040
iw,-50.3822708129882,-80.5003433227539,92.5288848876953,-116.600646972656,1540623707
iw,-51.9585418701171,-78.6871795654296,95.566535949707,-109.751358032226,1540640374
iw,-53.5091819763183,-76.4290084838867,95.4513931274414,-129.850662231445,1540657041
iw,-55.2580299377441,-74.0300521850586,107.174819946289,-135.788543701171,1540673708
iw,-57.1101341247558,-71.5801162719726,113.387771606445,-141.749481201171,1540690375
iw,-58.9169578552246,-68.9475402832031,111.317024230957,-156.824356079101,1540707042
iw,-60.7664184570312,-66.1150436401367,115.107635498046,-171.46629333496,1540723709
iw,-62.5915069580078,-63.1842422485351,114.73257446289,-177.531616210937,1540740376
iw,-64.2209701538086,-60.331443786621,103.291625976562,-173.790878295898,1540757043
iw,-65.6094360351562,-57.6217231750488,89.6328811645507,-162.41096496582,1540773710
iw,-66.8438186645507,-55.0977973937988,81.3047714233398,-146.019927978515,1540790377
iw,-68.0250091552734,-52.8666152954101,78.349006652832,-124.241416931152,1540807044
iw,-69.1178359985351,-50.8393745422363,72.1915740966796,-113.988342285156,1540823711
iw,-70.0778274536132,-49.1383018493652,63.1604881286621,-104.050979614257,1540840378
iw,-70.8849029541015,-47.6325187683105,51.577896118164,-97.9282684326171,1540857045
iw,-71.7004470825195,-46.5123977661132,48.3419799804687,-73.1817016601562,1540873712
iw,-72.6341781616211,-45.7447700500488,54.6720848083496,-50.2793960571289,1540890379
iw,-73.667007446289,-45.2227668762207,61.4366569519043,-35.2069282531738,1540907046
iw,-74.8525161743164,-44.9933357238769,71.3835296630859,-17.948444366455,1540923713
iw,-76.1882171630859,-44.9802742004394,82.4242477416992,-5.61055183410644,1540940380
iw,-77.5735702514648,-45.1313667297363,90.4215850830078,3.92683410644531,1540957047
iw,-78.9093551635742,-45.5282440185546,94.1277236938476,19.5346546173095,1540973714
iw,-80.1510314941406,-45.9432106018066,95.8137588500976,21.8350009918212,1540990381
iw,-81.3383865356445,-46.1634521484375,100.01439666748,10.1337165832519,1541007048
iw,-82.3646774291992,-46.2460899353027,102.744010925292,0.228792577981948,1541023715
iw,-83.0389785766601,-46.1268081665039,98.9057693481445,-12.8798103332519,1541040382
iw,-83.2948684692382,-45.9564743041992,86.8692016601562,-17.0144233703613,1541057049
iw,-83.2144775390625,-45.7991218566894,65.7350234985351,-17.9090118408203,1541073716
iw,-83.0502243041992,-45.7310485839843,31.646463394165,-14.7302713394165,1541090383
iw,-83.0387191772461,-45.6608657836914,-5.13283538818359,-20.7138633728027,1541107050
iw,-82.9503173828125,-45.7406997680664,-7.12223577499389,-16.7962856292724,1541123717
iw,-82.6365966796875,-46.0488624572753,14.6439819335937,2.34101271629333,1541140384
iw,-82.3104782104492,-45.4684219360351,25.3510627746582,-33.2784385681152,1541157051
iw,-82.0560455322265,-44.2133636474609,29.54465675354,-69.8927154541015,1541173718
iw,-81.6450653076171,-43.6742057800293,37.6766166687011,-31.9201583862304,1541190385
iw,-81.4936599731445,-44.1518592834472,7.59787797927856,26.275800704956,1541207052
iw,-82.0628356933593,-45.3153419494628,-49.2381248474121,64.3172607421875,1541223719
iw,-83.1055374145507,-47.1773262023925,-98.8513107299804,97.94482421875,1541240386
iw,-83.9854965209961,-49.2486152648925,-126.734832763671,113.926261901855,1541257053
iw,-84.0353698730468,-50.8995552062988,-132.914260864257,92.8670578002929,1541273720
iw,-83.2541885375976,-52.3308753967285,-128.902206420898,75.3672790527343,1541290387
iw,-82.068374633789,-53.7547760009765,-124.350257873535,74.6786575317382,1541307054
iw,-80.9049072265625,-55.259162902832,-109.28116607666,82.1332473754882,1541323721
iw,-79.6544570922851,-56.8835487365722,-102.681091308593,90.7632217407226,1541340388
iw,-77.9858245849609,-58.5421104431152,-122.780616760253,93.895523071289,1541357055
iw,-76.1780471801757,-60.2287788391113,-126.999351501464,98.7080078125,1541373722
iw,-74.3798828125,-61.7930564880371,-120.920753479003,94.0774383544921,1541390389
iw,-72.5183715820312,-63.1867790222168,-119.503028869628,83.9539260864257,1541407056
iw,-70.6669998168945,-64.4718246459961,-115.830322265625,77.0318603515625,1541423723
iw,-68.8491439819336,-65.6527938842773,-112.328498840332,71.8030014038086,1541440390
iw,-67.0217819213867,-66.6709747314453,-112.257293701171,62.7862091064453,1541457057
iw,-65.1700439453125,-67.5641860961914,-113.324714660644,55.7383079528808,1541473724
iw,-63.282543182373,-68.2261810302734,-115.55857849121,41.5411186218261,1541490391
iw,-61.3408775329589,-68.7490844726562,-118.624389648437,32.8576698303222,1541507058
iw,-59.5179138183593,-69.2880401611328,-111.076370239257,33.2030220031738,1541523725
iw,-57.8956146240234,-69.8021621704101,-98.6317291259765,30.2775287628173,1541540392
iw,-56.5679244995117,-70.3100128173828,-80.6765365600586,29.0786666870117,1541557059
iw,-55.4264183044433,-70.793098449707,-69.4173355102539,27.2776184082031,1541573726
iw,-54.5012588500976,-71.2506027221679,-56.4908103942871,25.5978183746337,1541590393
iw,-53.7883758544921,-71.7500991821289,-43.8118476867675,27.7633590698242,1541607060
iw,-53.2408828735351,-72.3797149658203,-33.8389892578125,36.4515914916992,1541623727
iw,-52.8002128601074,-73.1034851074218,-27.3652362823486,43.1322746276855,1541640394
iw,-52.455955505371,-73.9224395751953,-21.6700897216796,49.2627830505371,1541657061
iw,-52.1412963867187,-74.8227386474609,-20.0169639587402,54.254955291748,1541673728
iw,-51.7625617980957,-75.8023529052734,-23.9377460479736,60.6280517578125,1541690395
iw,-51.3001136779785,-76.7987365722656,-28.9321250915527,62.9054069519043,1541707062
iw,-50.81245803833,-77.8368453979492,-30.3457450866699,66.8758087158203,1541723729
iw,-50.3841171264648,-78.8124160766601,-26.7687034606933,64.6911544799804,1541740396
iw,-50.0618705749511,-79.7169113159179,-20.4177722930908,62.4227676391601,1541757063
iw,-49.8343696594238,-80.5686264038086,-14.8225898742675,61.3745574951171,1541773730
iw,-49.6266593933105,-81.3402557373046,-13.6925945281982,59.9269790649414,1541790397
iw,-49.4668197631835,-82.0331649780273,-10.767855644226,62.318504333496,1541807064
iw,-49.3404884338378,-82.5741348266601,-8.68087863922119,63.54243850708,1541823731
iw,-49.2610969543457,-82.9075698852539,-5.77511167526245,63.1171836853027,1541840398
iw,-49.2213172912597,-83.0055770874023,-3.36849045753479,63.6508903503418,1541857065
iw,-49.0536079406738,-82.8854522705078,-11.1100854873657,68.3034286499023,1541873732
iw,-48.8821411132812,-82.5554733276367,-11.4983911514282,68.6812133789062,1541890399
iw,-49.0374450683593,-82.1818389892578,7.85244226455688,63.2291717529296,1541907066
iw,-49.1716537475585,-81.9199752807617,6.33279418945312,40.8652877807617,1541923733
iw,-48.7449302673339,-81.8703689575195,-27.0199661254882,1.20259845256805,1541940400
iw,-48.1949577331543,-82.1608276367187,-34.2227935791015,-43.4211959838867,1541957067
iw,-48.2175636291503,-82.675178527832,0.00781827978789806,-92.0475769042968,1541973734
iw,-48.8902587890625,-82.9711685180664,39.1350975036621,-117.65705871582,1541990401
iw,-49.841209411621,-82.6152038574218,55.5836753845214,-123.261283874511,1542007068
iw,-51.0299530029296,-81.6240997314453,70.0291671752929,-117.24446105957,1542023735
iw,-52.8180084228515,-80.408332824707,107.472007751464,-98.5540618896484,1542040402
iw,-54.5119743347168,-79.0094833374023,103.694763183593,-93.8362960815429,1542057069
iw,-55.967414855957,-77.1381607055664,91.2417297363281,-114.365036010742,1542073736
iw,-57.5604553222656,-75.0021514892578,99.7602462768554,-125.476440429687,1542090403
iw,-59.2889060974121,-72.7625045776367,108.277366638183,-131.498703002929,1542107070
iw,-60.9392967224121,-70.5709991455078,103.984786987304,-128.926666259765,1542123737
iw,-62.3692588806152,-68.4737777709961,90.9875106811523,-124.542678833007,1542140404
iw,-63.6658554077148,-66.3275680541992,83.212158203125,-128.989562988281,1542157071
iw,-64.8475799560546,-64.0363998413086,76.1931686401367,-140.548385620117,1542173738
iw,-65.8438949584961,-61.6910552978515,65.0968704223632,-146.524856567382,1542190405
iw,-66.6600494384765,-59.354923248291,53.9736366271972,-147.388702392578,1542207072
iw,-67.3664245605468,-57.0982551574707,46.9526023864746,-138.747833251953,1542223739
iw,-67.9708023071289,-55.0915908813476,39.8414230346679,-121.303398132324,1542240406
iw,-68.469253540039,-53.2154235839843,32.4944763183593,-113.525955200195,1542257073
iw,-68.9032363891601,-51.6506309509277,27.8979110717773,-96.5284423828125,1542273740
iw,-69.4182662963867,-50.3219947814941,31.6017799377441,-84.6887969970703,1542290407
iw,-70.1421737670898,-49.2119331359863,42.4152946472168,-73.323013305664,1542307074
iw,-71.0073089599609,-48.3401107788085,49.1055755615234,-60.8789672851562,1542323741
iw,-71.8713150024414,-47.4444122314453,49.4550437927246,-63.5718574523925,1542340408
iw,-72.7736206054687,-46.6508979797363,52.6175804138183,-57.6558876037597,1542357075
iw,-73.7010192871093,-46.1091880798339,56.3144149780273,-41.2753219604492,1542373742
iw,-74.5580978393554,-45.7825241088867,54.8257713317871,-25.9732627868652,1542390409
iw,-75.2898330688476,-45.546215057373,48.6934165954589,-18.4917678833007,1542407076
iw,-75.9916915893554,-45.2899436950683,49.3027648925781,-18.5197277069091,1542423743
iw,-76.6978607177734,-44.9200973510742,53.2798805236816,-25.6547260284423,1542440410
iw,-77.3916549682617,-44.4537811279296,57.8680686950683,-32.3447113037109,1542457077
iw,-78.0551605224609,-43.9450225830078,62.2318077087402,-35.8558769226074,1542473744
iw,-78.6413269042968,-43.3355751037597,64.1786880493164,-43.1107025146484,1542490411
iw,-79.0612487792968,-42.7014579772949,59.5955581665039,-45.7576904296875,1542507078
iw,-79.2949829101562,-42.1233291625976,50.9075164794921,-42.9666595458984,1542523745
iw,-79.3592453002929,-41.5762825012207,43.1253013610839,-41.0771484375,1542540412
iw,-79.3155899047851,-41.0688095092773,40.8219032287597,-39.4726905822753,1542557079
iw,-79.1999435424804,-40.6076049804687,37.3963241577148,-38.4742851257324,1542573746
iw,-79.0724868774414,-40.2834892272949,35.4257926940918,-31.9566650390625,1542590413
iw,-78.9619598388671,-40.2946891784668,33.9071197509765,-12.8240423202514,1542607080
iw,-78.9417190551757,-40.7325782775878,35.2949562072753,12.1977319717407,1542623747
iw,-79.0336761474609,-41.6150970458984,30.9972972869873,39.4518966674804,1542640414
iw,-79.2662277221679,-42.4736061096191,26.4056529998779,39.5476303100585,1542657081
iw,-79.5895690917968,-42.5012779235839,22.646894454956,-9.80230331420898,1542673748
iw,-79.8315963745117,-41.4230155944824,24.266803741455,-68.7532119750976,1542690415
iw,-79.9425582885742,-40.3963432312011,16.5865535736084,-63.4911651611328,1542707082
iw,-80.1043395996093,-40.6554718017578,-12.4439878463745,9.88097953796386,1542723749
iw,-80.333869934082,-41.8528442382812,-52.237377166748,60.7160606384277,1542740416
iw,-80.4196090698242,-43.5279426574707,-95.1016693115234,86.7768783569336,1542757083
iw,-80.3801116943359,-45.6701393127441,-116.685234069824,108.498207092285,1542773750
iw,-80.3729400634765,-47.5351409912109,-110.917083740234,100.580184936523,1542790417
iw,-80.1985397338867,-48.8697662353515,-127.152427673339,71.1016616821289,1542807084
iw,-79.4349288940429,-50.2132110595703,-149.936950683593,68.7130355834961,1542823751
iw,-78.0825500488281,-51.7833251953125,-153.412246704101,83.3571090698242,1542840418
iw,-76.3813323974609,-53.5166893005371,-142.954208374023,95.008560180664,1542857085
iw,-74.5873718261718,-55.304214477539,-129.936645507812,99.3101119995117,1542873752
iw,-72.7903366088867,-57.1306343078613,-122.338088989257,104.891883850097,1542890419
iw,-71.0806884765625,-58.9805908203125,-113.044944763183,108.570373535156,1542907086
iw,-69.2578430175781,-60.7332038879394,-116.026405334472,104.645469665527,1542923753
iw,-66.9696350097656,-62.3446578979492,-141.108032226562,96.1064453125,1542940420
iw,-64.2094039916992,-63.7435798645019,-166.63671875,83.2679901123046,1542957087
iw,-61.4500579833984,-65.0086364746093,-164.836227416992,75.6996002197265,1542973754
iw,-59.223705291748,-66.2381286621093,-131.602615356445,74.4284591674804,1542990421
iw,-57.3695793151855,-67.4385375976562,-109.490669250488,73.358642578125,1543007088
iw,-55.8525238037109,-68.5704040527343,-90.3530044555664,69.7009048461914,1543023755
iw,-54.5402641296386,-69.6607971191406,-79.0313720703125,67.5078887939453,1543040422
iw,-53.3071174621582,-70.7747650146484,-74.6669235229492,69.2920989990234,1543057089
iw,-52.2212829589843,-71.8644256591796,-65.9733581542968,68.2119827270507,1543073756
iw,-51.5430335998535,-72.9134063720703,-41.6335411071777,67.1933975219726,1543090423
iw,-51.1190147399902,-73.9763641357421,-26.4388980865478,69.5971374511718,1543107090
iw,-50.8044281005859,-75.0883407592773,-19.7741889953613,73.6300888061523,1543123757
iw,-50.4308471679687,-76.1623458862304,-22.9877586364746,70.5186614990234,1543140424
iw,-50.2692146301269,-77.291030883789,-9.95940685272216,72.9978637695312,1543157091
iw,-50.2503814697265,-78.5176544189453,-1.0884141921997,79.4436492919921,1543173758
iw,-50.2820243835449,-79.7312469482421,2.16401600837707,79.504524230957,1543190425
iw,-50.1614646911621,-80.8709945678711,-6.74668979644775,76.7676696777343,1543207092
iw,-50.2352218627929,-81.9439239501953,5.13090658187866,74.2611007690429,1543223759
iw,-50.3284873962402,-82.9440383911132,6.16845417022705,72.9346694946289,1543240426
iw,-50.3209228515625,-83.8074569702148,0.0343661718070507,67.1027374267578,1543257093
iw,-50.2299079895019,-84.5141677856445,-5.07136821746826,61.412109375,1543273760
iw,-50.1101570129394,-85.0468292236328,-6.66659450531005,58.8805427551269,1543290427
iw,-49.92041015625,-85.3169250488281,-10.9461650848388,56.1931228637695,1543307094
iw,-49.5803260803222,-85.3048095703125,-20.5239562988281,53.1634559631347,1543323761
iw,-48.6778984069824,-85.0032348632812,-54.9981422424316,56.6958618164062,1543340428
iw,-47.669578552246,-84.5065307617187,-62.1061782836914,53.9910507202148,1543357095
iw,-46.9858894348144,-84.0650558471679,-43.1316604614257,42.500690460205,1543373762
iw,-45.9141273498535,-83.9071578979492,-66.4005889892578,9.3228530883789,1543390429
iw,-44.7663307189941,-84.1570892333984,-71.9368362426757,-31.9206848144531,1543407096
iw,-44.1854591369628,-84.7285003662109,-38.7724952697753,-78.3095169067382,1543423763
iw,-44.39599609375,-84.8974304199218,8.95021820068359,-118.319519042968,1543440430
iw,-44.8022422790527,-84.0303802490234,22.1383304595947,-134.917572021484,1543457097
iw,-45.5449295043945,-82.313362121582,42.8152694702148,-142.305404663085,1543473764
iw,-46.9564819335937,-80.3178939819336,83.4011154174804,-134.550415039062,1543490431
iw,-48.6149711608886,-78.0958862304687,99.093017578125,-133.556274414062,1543507098
iw,-50.3783950805664,-75.5770187377929,105.804130554199,-140.066040039062,1543523765
iw,-52.28364944458,-73.0996017456054,114.357070922851,-132.700775146484,1543540432
iw,-54.2718811035156,-70.6269989013671,119.495964050292,-137.631774902343,1543557099
iw,-56.2813110351562,-68.2048110961914,121.552070617675,-142.133316040039,1543573766
iw,-58.2340431213378,-65.8046798706054,119.166381835937,-143.414077758789,1543590433
iw,-60.1096115112304,-63.4124069213867,115.413192749023,-143.891906738281,1543607100
iw,-61.8442077636718,-61.0217781066894,107.349922180175,-145.743713378906,1543623767
iw,-63.4117965698242,-58.6099853515625,97.4676818847656,-149.126098632812,1543640434
iw,-64.7940902709961,-56.1386604309082,87.1074447631836,-152.85383605957,1543657101
iw,-66.0363540649414,-53.7167205810546,79.195083618164,-147.035858154296,1543673768
iw,-67.1554260253906,-51.5576171875,71.7372360229492,-131.186645507812,1543690435
iw,-68.2252578735351,-49.6595191955566,68.4911880493164,-117.464408874511,1543707102
iw,-69.1936569213867,-48.0703887939453,61.7839927673339,-99.8340072631836,1543723769
iw,-70.0793762207031,-46.9066047668457,56.3543853759765,-74.4836502075195,1543740436
iw,-70.9187393188476,-46.1619491577148,53.4450988769531,-49.7629470825195,1543757103
iw,-71.7830276489257,-45.7110366821289,55.1757850646972,-35.2016067504882,1543773770
iw,-72.7092132568359,-45.5478134155273,57.7122116088867,-19.9170188903808,1543790437
iw,-73.694953918457,-45.5755043029785,59.5218544006347,-8.32819652557373,1543807104
iw,-74.8011703491211,-45.6949577331543,66.4957427978515,-1.20236420631408,1543823771
iw,-75.9723739624023,-45.8570899963378,70.2794570922851,4.15103387832641,1543840438
iw,-77.1410293579101,-46.0014419555664,70.1088104248046,4.86209392547607,1543857105
iw,-78.3277282714843,-45.9824447631835,73.8189239501953,-5.13562393188476,1543873772
iw,-79.5381546020507,-45.6761283874511,82.9388122558593,-24.1673469543457,1543890439
iw,-80.6215591430664,-45.272216796875,86.5952758789062,-30.7536144256591,1543907106
iw,-81.442642211914,-44.8580093383789,83.9197921752929,-31.3977718353271,1543923773
iw,-81.9505538940429,-44.5295906066894,71.9278564453125,-26.059434890747,1543940440
iw,-82.1765213012695,-44.2718162536621,50.3704833984375,-22.6517925262451,1543957107
iw,-82.1962661743164,-44.0220298767089,23.6294708251953,-24.8283710479736,1543973774
iw,-82.1556777954101,-43.7440185546875,7.23560619354248,-29.4483547210693,1543990441
iw,-82.1883697509765,-43.5783767700195,7.08535623550415,-26.228343963623,1544007108
iw,-82.3208770751953,-43.7652778625488,14.7773103713989,-8.18328857421875,1544023775
iw,-82.5378646850586,-44.1063270568847,15.8583354949951,1.97305023670196,1544040442
iw,-82.8845672607421,-43.7447433471679,20.9009838104248,-34.2206230163574,1544057109
iw,-83.2470397949218,-42.3696632385253,24.1491565704345,-85.0817642211914,1544073776
iw,-83.5105819702148,-41.3328132629394,17.7631015777587,-65.7834701538086,1544090443
iw,-83.7518920898437,-41.5592308044433,-9.91447067260742,7.856538772583,1544107110
iw,-83.85595703125,-42.8147544860839,-66.4035873413086,63.7953414916992,1544123777
iw,-83.5130310058593,-44.6889915466308,-110.806617736816,93.7418518066406,1544140444
iw,-82.7309951782226,-46.8878746032714,-127.131225585937,115.364601135253,1544157111
iw,-81.5417251586914,-48.4529266357421,-132.018371582031,90.3430252075195,1544173778
iw,-79.8141632080078,-49.6551399230957,-147.78823852539,66.0868759155273,1544190445
iw,-78.0548629760742,-50.9566421508789,-133.487976074218,68.4308090209961,1544207112
iw,-76.4559783935546,-52.4480552673339,-114.017745971679,80.4486846923828,1544223779
iw,-74.6494750976562,-54.0470466613769,-121.991432189941,88.3343963623046,1544240446
iw,-72.5367431640625,-55.6801986694335,-138.779342651367,90.6515579223632,1544257113
iw,-70.4353713989257,-57.3886451721191,-135.494705200195,97.0443496704101,1544273780
iw,-68.4255676269531,-59.0404968261718,-126.417320251464,96.3760299682617,1544290447
iw,-66.4610214233398,-60.6037101745605,-122.168685913085,93.8115844726562,1544307114
iw,-64.3957748413086,-62.0984191894531,-127.215415954589,91.2938003540039,1544323781
iw,-62.087417602539,-63.4975662231445,-139.310623168945,86.1654586791992,1544340448
iw,-59.7424240112304,-64.7947921752929,-139.179565429687,80.9834747314453,1544357115
iw,-57.614818572998,-66.013442993164,-125.668075561523,77.0023880004882,1544373782
iw,-55.9206047058105,-67.1973266601562,-100.64175415039,75.5709228515625,1544390449
iw,-54.3817977905273,-68.3225173950195,-92.3248138427734,72.4996490478515,1544407116
iw,-52.9552993774414,-69.3337249755859,-86.4046401977539,64.8838806152343,1544423783
iw,-51.8185234069824,-70.3079986572265,-69.281379699707,62.4056091308593,1544440450
iw,-51.1033554077148,-71.2355041503906,-44.1132431030273,59.594741821289,1544457117
iw,-50.7242279052734,-72.1630783081054,-24.0460319519042,60.3225860595703,1544473784
iw,-50.4352684020996,-73.1308670043945,-18.6597690582275,64.6641998291015,1544490451
iw,-50.247272491455,-74.1776046752929,-12.5945415496826,71.775650024414,1544507118
iw,-50.0920639038085,-75.3422775268554,-10.5895671844482,82.1986007690429,1544523785
iw,-49.7868537902832,-76.5952453613281,-19.4875144958496,92.9503479003906,1544540452
iw,-49.4785118103027,-77.8465118408203,-19.5062217712402,98.1187286376953,1544557119
iw,-49.2488632202148,-78.9803237915039,-14.5038862228393,99.7034835815429,1544573786
iw,-49.1832313537597,-79.9517517089843,-4.36224317550659,98.3318710327148,1544590453
iw,-49.2596855163574,-80.668830871582,4.49926710128784,90.0331878662109,1544607120
iw,-49.4047584533691,-81.085578918457,8.70825290679931,74.7077255249023,1544623787
iw,-49.6265449523925,-81.2873764038086,13.5435609817504,60.3467025756835,1544640454
iw,-49.7694778442382,-81.3891296386718,8.93132209777832,47.7468452453613,1544657121
iw,-49.6926651000976,-81.4854431152343,-4.34801864624023,35.9083557128906,1544673788
iw,-49.1291770935058,-81.5486907958984,-33.9574279785156,30.0137100219726,1544690455
iw,-48.0541839599609,-81.4811019897461,-65.2338333129882,32.5254821777343,1544707122
iw,-47.0508155822753,-81.3489227294921,-61.8101654052734,35.4938430786132,1544723789
iw,-45.7009048461914,-81.2319183349609,-82.1304168701171,23.2602767944335,1544740456
iw,-44.47314453125,-81.0969314575195,-75.080940246582,0.591724872589111,1544757123
iw,-43.3365211486816,-81.1816940307617,-71.7757263183593,-30.0431480407714,1544773790
iw,-42.8672218322753,-81.50537109375,-31.5332870483398,-78.1779098510742,1544790457
iw,-42.835693359375,-81.6395416259765,-4.07474946975708,-109.022277832031,1544807124
iw,-43.3675727844238,-81.2789077758789,30.4811496734619,-114.39404296875,1544823791
iw,-44.5675239562988,-80.2235641479492,70.3875885009765,-121.264328002929,1544840458
iw,-45.8680267333984,-78.5591735839843,77.1944961547851,-125.473884582519,1544857125
iw,-47.2822036743164,-76.4275588989257,85.5159378051757,-132.07666015625,1544873792
iw,-48.8506660461425,-74.1496200561523,94.9628677368164,-129.800674438476,1544890459
iw,-50.6243705749511,-71.9503326416015,106.877311706542,-124.673164367675,1544907126
iw,-52.4769096374511,-69.869644165039,112.221038818359,-127.028694152832,1544923793
iw,-54.3313789367675,-67.8788909912109,113.486228942871,-128.706878662109,1544940460
iw,-56.1972770690918,-65.9111404418945,114.062866210937,-127.378387451171,1544957127
iw,-58.0434608459472,-63.6706771850585,112.056144714355,-144.593826293945,1544973794
iw,-59.8082313537597,-61.1581230163574,107.411674499511,-161.735107421875,1544990461
iw,-61.4740257263183,-58.4372978210449,102.4755859375,-177.241928100585,1545007128
iw,-63.0702476501464,-55.859317779541,99.1340179443359,-167.931274414062,1545023795
iw,-64.6203994750976,-53.547996520996,96.2233734130859,-148.742691040039,1545040462
iw,-66.1011962890625,-51.3764915466308,91.1855850219726,-135.984634399414,1545057129
iw,-67.5269470214843,-49.3548469543457,86.0879821777343,-128.53076171875,1545073796
iw,-68.9456710815429,-47.5365524291992,84.6335830688476,-121.389007568359,1545090463
iw,-70.3727493286132,-46.0049858093261,85.7285842895507,-105.963813781738,1545107130
iw,-71.8065185546875,-45.0705413818359,86.8677749633789,-65.0768737792968,1545123797
iw,-73.227554321289,-44.4427642822265,87.3139419555664,-44.0609893798828,1545140464
iw,-74.5244750976562,-44.0100021362304,81.3947677612304,-32.4182624816894,1545157131
iw,-75.6808471679687,-43.7697029113769,76.2511367797851,-20.2649230957031,1545173798
iw,-76.7577209472656,-43.6027107238769,75.9286346435546,-14.8493709564208,1545190465
iw,-77.74853515625,-43.5344047546386,73.965103149414,-7.50520992279052,1545207132
iw,-78.6806716918945,-43.4494438171386,72.8470687866211,-7.53437757492065,1545223799
iw,-79.6055831909179,-43.1437492370605,78.5965042114257,-22.0434799194335,1545240466
iw,-80.469009399414,-42.8141174316406,88.3704147338867,-26.002342224121,1545257133
iw,-81.1631393432617,-42.6157073974609,96.568374633789,-18.6418190002441,1545273800
iw,-81.5573348999023,-42.3430099487304,95.5623550415039,-23.9037818908691,1545290467
iw,-81.6629409790039,-42.0766487121582,81.2417755126953,-25.3371067047119,1545307134
iw,-81.5807495117187,-41.9097251892089,57.0010795593261,-21.3326511383056,1545323801
iw,-81.4010238647461,-41.8153991699218,35.9990806579589,-19.4539546966552,1545340468
iw,-81.1651306152343,-41.8163375854492,29.9020805358886,-15.7053461074829,1545357135
iw,-80.9570159912109,-41.9468612670898,26.0788135528564,-9.98034000396728,1545373802
iw,-80.882942199707,-42.3368453979492,22.3338642120361,5.39961242675781,1545390469
iw,-80.9823608398437,-42.8277168273925,25.7113227844238,12.5385446548461,1545407136
iw,-81.1278991699218,-42.6485176086425,32.8328437805175,-27.4910430908203,1545423803
iw,-81.0765075683593,-41.5951461791992,43.2429313659668,-74.1167831420898,1545440470
iw,-80.9132080078125,-40.6059608459472,35.9605865478515,-70.7084884643554,1545457137
iw,-81.0665130615234,-40.6643714904785,1.7952663898468,-8.27962684631347,1545473804
iw,-81.6279754638671,-41.6316909790039,-38.9366035461425,45.8334465026855,1545490471
iw,-82.4246749877929,-43.1333694458007,-72.4312591552734,73.227424621582,1545507138
iw,-83.2502365112304,-45.0685424804687,-96.5336456298828,96.0667724609375,1545523805
iw,-83.877212524414,-46.8226737976074,-105.615585327148,91.3283767700195,1545540472
iw,-84.3310317993164,-48.1740913391113,-113.257286071777,69.0274047851562,1545557139
iw,-84.4148941040039,-49.6363296508789,-112.336700439453,72.3705139160156,1545573806
iw,-83.7972717285156,-51.3391571044921,-118.143981933593,88.037483215332,1545590473
iw,-82.4473724365234,-53.1435890197753,-128.962631225585,95.8585128784179,1545607140
iw,-80.6034240722656,-54.981388092041,-136.18260192871,96.9346542358398,1545623807
iw,-78.4936599731445,-56.8515434265136,-139.077453613281,102.082489013671,1545640474
iw,-76.3827056884765,-58.678352355957,-132.501602172851,104.985801696777,1545657141
iw,-74.4563064575195,-60.4432220458984,-117.790153503417,103.872985839843,1545673808
iw,-72.68115234375,-62.1334114074707,-107.447448730468,98.9865570068359,1545690475
iw,-70.5981674194336,-63.824047088623,-125.147766113281,100.104782104492,1545707142
iw,-68.1283264160156,-65.3517379760742,-148.014678955078,91.1540832519531,1545723809
iw,-65.4792175292968,-66.8041458129882,-158.805374145507,87.2744674682617,1545740476
iw,-63.0028114318847,-68.1325988769531,-148.745178222656,79.9428482055664,1545757143
iw,-60.9454917907714,-69.334846496582,-123.749229431152,72.2624282836914,1545773810
iw,-59.0100746154785,-70.4240951538086,-116.740882873535,65.1366653442382,1545790477
iw,-57.1895523071289,-71.4777908325195,-109.992134094238,63.0884780883789,1545807144
iw,-55.5960426330566,-72.501968383789,-96.4610595703125,61.6602439880371,1545823811
iw,-54.3055229187011,-73.4894943237304,-78.5076751708984,60.4592628479003,1545840478
iw,-53.384178161621,-74.44384765625,-56.5278358459472,59.571231842041,1545857145
iw,-52.6416816711425,-75.4053268432617,-45.7669792175293,61.0475692749023,1545873812
iw,-51.9564590454101,-76.3825912475586,-41.964916229248,63.3110046386718,1545890479
iw,-51.4099655151367,-77.336067199707,-33.1907081604003,62.9810600280761,1545907146
iw,-50.9777183532714,-78.2748260498046,-25.9812335968017,62.9003181457519,1545923813
iw,-50.5864219665527,-79.2325363159179,-23.4188804626464,65.5717544555664,1545940480
iw,-50.2246551513671,-80.203987121582,-21.5159912109375,69.7964859008789,1545957147
iw,-50.0713539123535,-81.1603393554687,-8.63368320465087,74.3735122680664,1545973814
iw,-49.9044647216796,-82.0806655883789,-9.26975059509277,76.117691040039,1545990481
iw,-49.8845863342285,-82.9418411254882,-0.286787778139114,76.8988876342773,1546007148
iw,-50.1342735290527,-83.6255722045898,15.7763776779174,69.7325134277343,1546023815
iw,-50.4376144409179,-84.0318222045898,18.7576293945312,59.6071510314941,1546040482
iw,-50.7662353515625,-84.228401184082,20.016502380371,50.0903282165527,1546057149
iw,-51.1193313598632,-84.28173828125,21.1031036376953,46.7632293701171,1546073816
iw,-51.4792098999023,-84.1882705688476,21.2340278625488,49.4378318786621,1546090483
iw,-51.6444091796875,-83.9091873168945,9.19286918640136,50.5558166503906,1546107150
iw,-51.3235664367675,-83.4189987182617,-20.3610248565673,54.1619834899902,1546123817
iw,-51.035099029541,-82.8572463989257,-18.9332160949707,50.7719955444335,1546140484
iw,-50.4519958496093,-82.4981079101562,-36.5798530578613,27.8269939422607,1546157151
iw,-49.3897132873535,-82.4350128173828,-64.959228515625,-13.0143642425537,1546173818
iw,-48.2678413391113,-82.6853637695312,-69.9258728027343,-48.0915489196777,1546190485
iw,-47.899559020996,-83.1478042602539,-25.5179500579834,-85.9330673217773,1546207152
iw,-47.9486236572265,-83.4662475585937,0.187860190868377,-108.159866333007,1546223819
iw,-48.1575622558593,-83.278076171875,10.5345611572265,-114.191123962402,1546240486
iw,-49.19921875,-82.3428115844726,61.1237869262695,-114.778327941894,1546257153
iw,-50.6959037780761,-80.8136978149414,88.6569595336914,-120.878433227539,1546273820
iw,-52.0761604309082,-79.0790634155273,83.4051971435546,-115.228324890136,1546290487
iw,-53.4714736938476,-76.9767379760742,85.4276809692382,-126.47932434082,1546307154
iw,-55.0379524230957,-74.555793762207,95.6125106811523,-138.218475341796,1546323821
iw,-56.7414054870605,-72.1989440917968,103.790573120117,-134.428909301757,1546340488
iw,-58.3471794128418,-70.0070877075195,98.2618637084961,-128.054153442382,1546357155
iw,-59.9663925170898,-67.8230895996093,99.2655410766601,-129.947647094726,1546373822
iw,-61.4939002990722,-65.6664047241211,93.1441421508789,-129.873077392578,1546390489
iw,-62.8217506408691,-63.4350967407226,80.1843643188476,-136.315872192382,1546407156
iw,-63.9800910949707,-61.1178436279296,69.6286392211914,-144.278732299804,1546423823
iw,-65.076904296875,-58.7761154174804,66.3541107177734,-146.512100219726,1546440490
iw,-66.1621627807617,-56.4683189392089,65.8553771972656,-141.61521911621,1546457157
iw,-67.2032012939453,-54.2741165161132,62.7197761535644,-130.920379638671,1546473824
iw,-68.1857070922851,-52.3152885437011,58.0969200134277,-114.376487731933,1546490491
iw,-69.1191177368164,-50.6752014160156,53.3504905700683,-99.739387512207,1546507158
iw,-70.1184005737304,-49.4696884155273,56.6523704528808,-78.8089752197265,1546523825
iw,-71.2073669433593,-48.3800468444824,62.1304206848144,-75.9649047851562,1546540492
iw,-72.3181457519531,-47.5582008361816,64.1506958007812,-58.2413024902343,1546557159
iw,-73.3668746948242,-46.9707794189453,61.6200485229492,-42.7013130187988,1546573826
iw,-74.3135452270507,-46.6462669372558,56.2730522155761,-27.0909595489501,1546590493
iw,-75.1616134643554,-46.5049629211425,51.7961921691894,-16.5083637237548,1546607160
iw,-75.9494018554687,-46.5046157836914,49.0486297607421,-7.47124671936035,1546623827
iw,-76.7260360717773,-46.5668296813964,48.3060646057128,-1.85256946086883,1546640494
iw,-77.5680160522461,-46.6937141418457,52.7386627197265,4.76670312881469,1546657161
iw,-78.4663009643554,-46.5775527954101,58.7917366027832,-10.4184684753417,1546673828
iw,-79.3843307495117,-46.1950988769531,63.5936317443847,-30.991943359375,1546690495
iw,-80.2983016967773,-45.7387161254882,68.2888488769531,-38.0294227600097,1546707162
iw,-81.2166442871093,-45.2098960876464,76.6439056396484,-40.7133140563964,1546723829
iw,-82.0280456542968,-44.6977500915527,80.0264816284179,-38.6387252807617,1546740496
iw,-82.6571502685546,-44.2684745788574,79.0790481567382,-34.068504333496,1546757163
iw,-83.1036605834961,-43.8583793640136,81.263427734375,-34.6736984252929,1546773830
iw,-83.2802581787109,-43.3947257995605,78.5781555175781,-40.5341911315918,1546790497
iw,-83.2139816284179,-42.9149360656738,67.664306640625,-46.2166671752929,1546807164
iw,-83.0335083007812,-42.7451400756835,62.5522956848144,-34.5062828063964,1546823831
iw,-82.7237701416015,-42.9575576782226,71.0556640625,-15.6008520126342,1546840498
iw,-82.2150573730468,-42.427318572998,76.8952865600586,-50.1504707336425,1546857165
iw,-81.7616271972656,-41.1603202819824,61.5439376831054,-81.6125030517578,1546873832
iw,-81.4826049804687,-40.585765838623,35.7720375061035,-43.0117301940918,1546890499
iw,-81.6437911987304,-40.9649467468261,-4.34676122665405,12.0645523071289,1546907166
iw,-82.4053726196289,-42.1275100708007,-50.7705879211425,58.5190277099609,1546923833
iw,-83.5910949707031,-43.7432746887207,-88.3181533813476,83.0524139404296,1546940500
iw,-84.8221054077148,-45.7650413513183,-108.921722412109,108.713096618652,1546957167
iw,-85.5954971313476,-47.4773178100585,-124.82364654541,95.2060623168945,1546973834
iw,-85.4586944580078,-49.0409889221191,-125.210960388183,80.0358123779296,1546990501
iw,-84.668212890625,-50.6399230957031,-118.358558654785,80.5183792114257,1547007168
iw,-83.4498214721679,-52.3298377990722,-116.34260559082,88.4410171508789,1547023835
iw,-81.8087844848632,-54.1148490905761,-126.112983703613,95.8333435058593,1547040502
iw,-79.726936340332,-55.872947692871,-145.08103942871,96.9551925659179,1547057169
iw,-77.5097122192382,-57.6068801879882,-147.604370117187,97.9941940307617,1547073836
iw,-75.3575820922851,-59.2811241149902,-138.311752319335,96.8909835815429,1547090503
iw,-73.2883987426757,-60.7702751159668,-129.278076171875,89.1011810302734,1547107170
iw,-71.1927413940429,-62.0939140319824,-128.695053100585,79.4036102294921,1547123837
iw,-68.9842224121093,-63.3655242919921,-134.731323242187,76.0661926269531,1547140504
iw,-66.7111511230468,-64.5531311035156,-138.131271362304,72.4374847412109,1547157171
iw,-64.3819808959961,-65.6310501098632,-140.881713867187,66.4372177124023,1547173838
iw,-62.1375999450683,-66.5835571289062,-136.15444946289,58.9078407287597,1547190505
iw,-59.9764442443847,-67.4444427490234,-131.785537719726,53.7877235412597,1547207172
iw,-58.0675010681152,-68.210823059082,-116.334678649902,47.0821647644043,1547223839
iw,-56.3947944641113,-68.9088516235351,-101.735282897949,41.2479743957519,1547240506
iw,-54.9750442504882,-69.5290451049804,-86.4542922973632,34.9964218139648,1547257173
iw,-53.9151763916015,-70.1557693481445,-64.7861251831054,36.153221130371,1547273840
iw,-53.2192306518554,-70.8528289794921,-42.8795585632324,41.6871299743652,1547290507
iw,-52.6976165771484,-71.6090087890625,-32.1776962280273,45.9153327941894,1547307174
iw,-52.2556381225585,-72.3602294921875,-27.0608196258544,46.1250991821289,1547323841
iw,-51.9446067810058,-73.1451950073242,-18.978343963623,49.2912063598632,1547340508
iw,-51.6744499206543,-73.930679321289,-16.5093841552734,49.5893898010253,1547357175
iw,-51.3472900390625,-74.7158889770507,-20.1200332641601,48.5239143371582,1547373842
iw,-50.9152755737304,-75.5618896484375,-26.5187339782714,52.4782333374023,1547390509
iw,-50.4684104919433,-76.4938812255859,-27.3597755432128,58.9779891967773,1547407176
iw,-49.9708442687988,-77.4539031982421,-30.3383922576904,60.9162864685058,1547423843
iw,-49.4860954284668,-78.4084396362304,-29.5968761444091,61.3039665222168,1547440510
iw,-49.1029434204101,-79.3530120849609,-23.6758995056152,62.7360725402832,1547457177
iw,-48.7613143920898,-80.2523651123046,-21.4384651184082,61.4983482360839,1547473844
iw,-48.4991722106933,-81.0596542358398,-16.8393535614013,59.4326744079589,1547490511
iw,-48.3261222839355,-81.7729034423828,-11.567265510559,59.2117652893066,1547507178
iw,-48.2406768798828,-82.3458099365234,-6.28447532653808,58.2288665771484,1547523845
iw,-48.2463836669921,-82.7368850708007,-0.805553913116455,57.374095916748,1547540512
iw,-48.2697067260742,-82.9253768920898,0.176493018865585,58.7821197509765,1547557179
iw,-47.9549865722656,-82.9186706542968,-20.2211303710937,63.782470703125,1547573846
iw,-47.5847473144531,-82.6904067993164,-23.7388324737548,58.2819175720214,1547590513
iw,-46.9361839294433,-82.4691543579101,-40.8662910461425,52.8071098327636,1547607180
iw,-45.7457275390625,-82.3688430786132,-73.1796417236328,27.1083106994628,1547623847
iw,-44.9634170532226,-82.3415756225586,-48.2791366577148,-17.556936264038,1547640514
iw,-44.5753555297851,-82.3530654907226,-25.0806274414062,-56.9311065673828,1547657181
iw,-44.8256568908691,-82.2700805664062,13.2107944488525,-87.683364868164,1547673848
iw,-45.3483734130859,-81.7849349975586,29.7369747161865,-106.684265136718,1547690515
iw,-46.2372817993164,-80.8103408813476,51.7585906982421,-104.361335754394,1547707182
iw,-47.8151969909668,-79.4572143554687,93.1284713745117,-103.334297180175,1547723849
iw,-49.4752731323242,-77.9380569458007,99.1561584472656,-100.733581542968,1547740516
iw,-50.9944763183593,-76.0342483520507,92.4718856811523,-113.873306274414,1547757183
iw,-52.5901222229003,-73.9206619262695,97.72021484375,-117.973335266113,1547773850
iw,-54.4656219482421,-71.8575820922851,114.517784118652,-116.121398925781,1547790517
iw,-56.3550682067871,-69.8822174072265,116.219329833984,-120.727279663085,1547807184
iw,-58.2200965881347,-67.9296646118164,115.716926574707,-126.486320495605,1547823851
iw,-60.0356483459472,-65.9564743041992,112.829566955566,-132.040802001953,1547840518
iw,-61.7117156982421,-63.8136177062988,103.286994934082,-141.345565795898,1547857185
iw,-63.1605644226074,-61.5215911865234,89.1029586791992,-149.831817626953,1547873852
iw,-64.4785079956054,-59.1595420837402,81.9630661010742,-153.923080444335,1547890519
iw,-65.6991424560546,-56.9699783325195,76.9991989135742,-142.669692993164,1547907186
iw,-66.801513671875,-54.9313888549804,69.5541152954101,-131.537811279296,1547923853
iw,-67.8482894897461,-53.0894165039062,64.8710784912109,-115.712051391601,1547940520
iw,-68.7990646362304,-51.482437133789,58.4206161499023,-104.461654663085,1547957187
iw,-69.667007446289,-50.1697692871093,52.2670783996582,-91.1077575683593,1547973854
iw,-70.5150299072265,-49.0681190490722,50.576545715332,-78.8665618896484,1547990521
iw,-71.3743591308593,-48.2100639343261,50.9132347106933,-60.5880966186523,1548007188
iw,-72.3059005737304,-47.5246620178222,55.1683006286621,-48.8149757385253,1548023855
iw,-73.2609252929687,-46.8639259338378,56.4325485229492,-49.4663429260253,1548040522
iw,-74.2009887695312,-46.3150329589843,55.8972015380859,-43.7144317626953,1548057189
iw,-75.1318817138671,-45.9088172912597,57.8297576904296,-33.7267456054687,1548073856
iw,-75.9772491455078,-45.536018371582,57.0785522460937,-30.0114307403564,1548090523
iw,-76.7133636474609,-45.0992393493652,54.2639503479003,-32.3121376037597,1548107190
iw,-77.4406585693359,-44.6158370971679,57.0471572875976,-34.5048332214355,1548123857
iw,-78.1614074707031,-44.033405303955,60.9742126464843,-41.2455329895019,1548140524
iw,-78.8114318847656,-43.2750511169433,60.3541069030761,-54.8858451843261,1548157191
iw,-79.3769226074218,-42.4739723205566,56.0568199157714,-59.289623260498,1548173858
iw,-79.8539810180664,-41.7683334350585,54.211742401123,-54.8974571228027,1548190525
iw,-80.1596527099609,-41.1975059509277,46.9459609985351,-46.2926521301269,1548207192
iw,-80.2793502807617,-40.7389678955078,41.0240936279296,-39.6202049255371,1548223859
iw,-80.2998580932617,-40.3921356201171,42.2467498779296,-33.8365859985351,1548240526
iw,-80.2660064697265,-40.0769348144531,42.6795692443847,-33.4729118347168,1548257193
iw,-80.2562026977539,-39.9340362548828,38.377269744873,-24.5463943481445,1548273860
iw,-80.3706512451171,-40.064655303955,41.0613937377929,-9.75220012664795,1548290527
iw,-80.6218109130859,-40.5885276794433,44.1780471801757,11.2552156448364,1548307194
iw,-80.9475326538086,-41.5042991638183,42.38814163208,32.5939903259277,1548323861
iw,-81.3047180175781,-42.1094207763671,36.54878616333,14.0419244766235,1548340528
iw,-81.5176315307617,-41.5362548828125,40.5947532653808,-48.1739463806152,1548357195
iw,-81.4306259155273,-40.1390304565429,40.9124870300293,-90.0650329589843,1548373862
iw,-81.4119491577148,-39.5437545776367,8.13545227050781,-44.139175415039,1548390529
iw,-81.9054183959961,-40.3241844177246,-52.2278327941894,30.9838275909423,1548407196
iw,-82.5461044311523,-41.9849395751953,-97.2306365966796,84.3248977661132,1548423863
iw,-82.8652954101562,-44.035530090332,-127.681617736816,102.601097106933,1548440530
iw,-82.6731948852539,-46.0871124267578,-142.712829589843,110.407287597656,1548457197
iw,-82.2010498046875,-47.5215339660644,-134.933319091796,76.9031448364257,1548473864
iw,-81.3354263305664,-48.7786750793457,-135.018936157226,61.6215362548828,1548490531
iw,-79.7145919799804,-50.262954711914,-164.234909057617,75.3069686889648,1548507198
iw,-77.7705993652343,-51.9228210449218,-157.57698059082,87.6365966796875,1548523865
iw,-75.7569351196289,-53.5917510986328,-144.319229125976,90.1519317626953,1548540532
iw,-74.0589523315429,-55.2755317687988,-114.00511932373,93.8285293579101,1548557199
iw,-72.1465148925781,-57.0503692626953,-120.344001770019,101.926155090332,1548573866
iw,-70.2749481201171,-58.8371849060058,-116.135131835937,106.225830078125,1548590533
iw,-67.9905471801757,-60.5168762207031,-140.138839721679,101.606803894042,1548607200
iw,-65.3908004760742,-62.0262260437011,-157.403015136718,91.1369094848632,1548623867
iw,-62.8393669128418,-63.431640625,-152.35578918457,84.5982437133789,1548640534
iw,-60.6232299804687,-64.7810134887695,-129.385910034179,81.4014511108398,1548657201
iw,-58.7700958251953,-66.0309219360351,-106.550231933593,75.9468765258789,1548673868
iw,-57.286148071289,-67.2138290405273,-85.9833984375,72.3806610107421,1548690535
iw,-55.9861526489257,-68.3065643310546,-76.6160736083984,66.8533630371093,1548707202
iw,-54.6743469238281,-69.2641677856445,-78.4663619995117,58.2174186706543,1548723869
iw,-53.4347190856933,-70.1085891723632,-74.7280120849609,51.0840072631835,1548740536
iw,-52.6312446594238,-70.8748626708984,-48.9362754821777,46.2346420288085,1548757203
iw,-52.3239212036132,-71.617431640625,-19.3863887786865,45.1657676696777,1548773870
iw,-52.1936988830566,-72.4215927124023,-8.64349842071533,49.4229316711425,1548790537
iw,-52.1125831604003,-73.2845001220703,-5.37844705581665,52.639549255371,1548807204
iw,-52.1151580810546,-74.171760559082,-0.217260584235191,53.7222824096679,1548823871
iw,-52.0314331054687,-75.0856094360351,-5.59833240509033,55.3580436706543,1548840538
iw,-51.8019218444824,-75.9819641113281,-14.6915254592895,54.0250816345214,1548857205
iw,-51.482925415039,-76.8554000854492,-20.2929496765136,51.4670982360839,1548873872
iw,-50.9787483215332,-77.6718139648437,-31.4367752075195,47.5071411132812,1548890539
iw,-50.2695732116699,-78.5140380859375,-43.5754928588867,49.1504211425781,1548907206
iw,-49.3790245056152,-79.355728149414,-54.1798210144043,49.1719512939453,1548923873
iw,-48.5083618164062,-80.2149963378906,-52.6698875427246,50.8729171752929,1548940540
iw,-47.8052978515625,-81.1083450317382,-42.311466217041,53.5537223815918,1548957207
iw,-47.291160583496,-81.98291015625,-30.6784839630126,53.2740325927734,1548973874
iw,-46.9493675231933,-82.8384552001953,-20.0191936492919,54.1382827758789,1548990541
iw,-46.8066787719726,-83.6883239746093,-7.83109521865844,57.7160835266113,1549007208
iw,-46.8719673156738,-84.4626083374023,4.70711231231689,60.3492088317871,1549023875
iw,-47.2341499328613,-85.011116027832,22.2692203521728,59.0928649902343,1549040542
iw,-47.7421035766601,-85.3041458129882,30.7669601440429,58.8235435485839,1549057209
iw,-48.083267211914,-85.3372192382812,20.5235595703125,59.8777618408203,1549073876
iw,-48.0461959838867,-85.1175384521484,-2.16598629951477,54.8737411499023,1549090543
iw,-47.9285240173339,-84.907844543457,-7.41473913192749,50.1368789672851,1549107210
iw,-47.4226112365722,-84.9191284179687,-31.9175567626953,29.0576152801513,1549123877
iw,-46.5670166015625,-85.1146469116211,-52.2938995361328,-17.1936779022216,1549140544
iw,-45.6818771362304,-85.3428878784179,-55.3188552856445,-63.1900062561035,1549157211
iw,-45.6759757995605,-85.2053146362304,-3.50154685974121,-96.8785324096679,1549173878
iw,-46.307991027832,-84.2685852050781,35.6339492797851,-115.899940490722,1549190545
iw,-47.4014053344726,-82.6466751098632,63.9074096679687,-120.410430908203,1549207212
iw,-49.1300964355468,-80.7033081054687,102.95433807373,-116.61595916748,1549223879
iw,-50.7699699401855,-78.7220916748046,99.5577087402343,-109.020553588867,1549240546
iw,-52.1104354858398,-76.5481719970703,84.0636749267578,-114.312561035156,1549257213
iw,-53.5788803100585,-74.2489013671875,92.2347183227539,-119.156036376953,1549273880
iw,-55.3679237365722,-71.9846038818359,110.241844177246,-126.846397399902,1549290547
iw,-57.171157836914,-69.8290786743164,110.894416809082,-133.595245361328,1549307214
iw,-58.8291702270507,-67.5974349975586,103.009445190429,-144.231521606445,1549323881
iw,-60.4472312927246,-65.2343826293945,101.064178466796,-153.440155029296,1549340548
iw,-61.9716873168945,-62.7167434692382,95.2982559204101,-162.97053527832,1549357215
iw,-63.2555770874023,-60.0581398010253,80.2818450927734,-172.536346435546,1549373882
iw,-64.3761978149414,-57.4795379638671,70.7859573364257,-167.512329101562,1549390549
iw,-65.4266357421875,-55.12841796875,67.6761703491211,-149.400924682617,1549407216
iw,-66.4403839111328,-52.9859504699707,66.0165252685546,-130.551116943359,1549423883
iw,-67.4097900390625,-51.0902099609375,62.2710189819335,-113.218811035156,1549440550
iw,-68.2762222290039,-49.5598106384277,53.7737312316894,-93.5899505615234,1549457217
iw,-69.0961074829101,-48.3328437805175,48.7666244506835,-79.1973114013671,1549473884
iw,-69.9936370849609,-47.3556632995605,51.7077407836914,-66.2477188110351,1549490551
iw,-70.9658660888671,-46.6035423278808,55.5662040710449,-51.9422569274902,1549507218
iw,-71.9481887817382,-45.9229774475097,56.2162246704101,-48.2861251831054,1549523885
iw,-72.9424285888671,-45.3476982116699,57.5831680297851,-42.0376014709472,1549540552
iw,-73.9766693115234,-44.9165649414062,62.1453018188476,-32.5090789794921,1549557219
iw,-74.9906845092773,-44.5947341918945,65.7896499633789,-24.3802299499511,1549573886
iw,-75.9680480957031,-44.3204841613769,68.2785720825195,-20.2725582122802,1549590553
iw,-76.9332809448242,-44.0808334350585,73.6154174804687,-17.426435470581,1549607220
iw,-77.8291625976562,-43.8062210083007,77.3058242797851,-19.1252975463867,1549623887
iw,-78.5745773315429,-43.3674545288085,76.163459777832,-30.3250331878662,1549640554
iw,-79.133544921875,-42.9861946105957,71.1030654907226,-28.4299736022949,1549657221
iw,-79.4985809326171,-42.6181182861328,64.6157684326171,-28.8524551391601,1549673888
iw,-79.6239852905273,-42.2517051696777,53.9985466003418,-30.331672668457,1549690555
iw,-79.5529861450195,-41.9598159790039,41.732437133789,-26.4393844604492,1549707222
iw,-79.4139404296875,-41.7106132507324,36.1401748657226,-25.0188121795654,1549723889
iw,-79.2270965576171,-41.4958038330078,38.9730682373046,-25.7162952423095,1549740556
iw,-78.9984054565429,-41.3407592773437,39.2063980102539,-25.2159709930419,1549757223
iw,-78.8887939453125,-41.4484825134277,43.3625564575195,-12.2234106063842,1549773890
iw,-79.0261993408203,-41.9875984191894,34.3164634704589,13.2602796554565,1549790557
iw,-79.3916625976562,-42.5085639953613,26.9492874145507,13.3718767166137,1549807224
iw,-79.8261413574218,-41.8642501831054,26.2105274200439,-48.3498039245605,1549823891
iw,-80.1430435180664,-40.5656204223632,25.7076072692871,-84.1306686401367,1549840558
iw,-80.366958618164,-40.2540969848632,6.43033552169799,-27.8251094818115,1549857225
iw,-80.7492141723632,-40.8505706787109,-37.4245643615722,25.3551864624023,1549873892
iw,-81.18408203125,-42.0546150207519,-90.6016082763671,54.8174171447753,1549890559
iw,-81.3488311767578,-43.8087654113769,-139.395782470703,79.4941101074218,1549907226
iw,-81.1357040405273,-45.7706298828125,-139.134765625,96.8595428466796,1549923893
iw,-80.6146087646484,-47.1453094482421,-131.691085815429,70.1894836425781,1549940560
iw,-79.6441192626953,-48.322467803955,-150.325317382812,57.9327011108398,1549957227
iw,-78.4006576538086,-49.6667175292968,-147.505752563476,66.9666366577148,1549973894
iw,-76.7533721923828,-51.1520347595214,-148.254470825195,78.4033584594726,1549990561
iw,-74.9921417236328,-52.7234458923339,-135.274429321289,85.3572769165039,1550007228
iw,-73.1940307617187,-54.3094024658203,-127.854667663574,88.0071258544921,1550023895
iw,-71.2849807739257,-55.983715057373,-127.099578857421,95.7025909423828,1550040562
iw,-69.5491104125976,-57.6684951782226,-111.295341491699,100.346611022949,1550057229
iw,-67.7512283325195,-59.2509765625,-112.43472290039,96.2488174438476,1550073896
iw,-65.6065979003906,-60.7288589477539,-131.208282470703,90.2308959960937,1550090563
iw,-63.3010597229003,-62.1072387695312,-138.795791625976,84.3537902832031,1550107230
iw,-60.9504623413085,-63.4223518371582,-139.279373168945,81.1399459838867,1550123897
iw,-58.9189414978027,-64.7304000854492,-118.679206848144,82.0866546630859,1550140564
iw,-57.3319396972656,-66.0118408203125,-92.7349243164062,81.3578948974609,1550157231
iw,-56.0216484069824,-67.2187194824218,-77.5509872436523,76.9905929565429,1550173898
iw,-54.8002853393554,-68.3320007324218,-72.8697433471679,70.6398696899414,1550190565
iw,-53.6186943054199,-69.3779602050781,-70.8166732788086,66.3419570922851,1550207232
iw,-52.6605911254882,-70.4494552612304,-57.7266960144043,67.7271423339843,1550223899
iw,-52.0572929382324,-71.4847640991211,-36.7696800231933,66.0941543579101,1550240566
iw,-51.6766204833984,-72.4768142700195,-23.4477348327636,64.5360794067382,1550257233
iw,-51.4847869873046,-73.4700622558593,-11.8352251052856,66.2296905517578,1550273900
iw,-51.4570007324218,-74.562759399414,-1.71665668487548,75.2416687011718,1550290567
iw,-51.3987655639648,-75.6562347412109,-3.56748414039611,77.3224716186523,1550307234
iw,-51.4089584350585,-76.7211227416992,0.253508806228637,75.354019165039,1550323901
iw,-51.4467391967773,-77.7538757324218,1.74347400665283,73.080825805664,1550340568
iw,-51.6205406188964,-78.7300872802734,9.96120262145996,72.2433395385742,1550357235
iw,-51.7548561096191,-79.6123962402343,7.65862035751342,68.7614517211914,1550373902
iw,-51.8543052673339,-80.400650024414,5.70172595977783,65.3970184326171,1550390569
iw,-52.1038055419921,-81.0012588500976,14.4966564178466,56.8694686889648,1550407236
iw,-52.3904609680175,-81.4402618408203,16.3064136505126,48.7747192382812,1550423903
iw,-52.5117378234863,-81.7428665161132,6.20890235900878,38.9794273376464,1550440570
iw,-52.5261726379394,-81.9522628784179,-0.245666652917861,33.4873542785644,1550457237
iw,-52.2696228027343,-82.1085739135742,-16.4845218658447,36.9216575622558,1550473904
iw,-51.6347732543945,-82.219367980957,-39.1202735900878,47.2979393005371,1550490571
iw,-50.6603622436523,-82.2245635986328,-59.4438896179199,57.2850036621093,1550507238
iw,-49.9514770507812,-82.0662536621093,-43.5911750793457,61.581687927246,1550523905
iw,-49.1388549804687,-81.7858505249023,-50.2506141662597,56.0877571105957,1550540572
iw,-48.325439453125,-81.5022506713867,-49.9709091186523,25.807201385498,1550557239
iw,-47.169677734375,-81.4241485595703,-70.8589859008789,-18.5197200775146,1550573906
iw,-46.2661437988281,-81.5814743041992,-57.3111534118652,-68.5250167846679,1550590573
iw,-46.2770195007324,-81.689697265625,-2.02833485603332,-112.245460510253,1550607240
iw,-46.5639724731445,-81.2682418823242,14.8886499404907,-132.482376098632,1550623907
iw,-47.4424819946289,-80.1830215454101,50.9696083068847,-135.87905883789,1550640574
iw,-49.0207405090332,-78.8282012939453,94.0863723754882,-118.970298767089,1550657241
iw,-50.7151489257812,-77.2882385253906,101.864974975585,-110.306900024414,1550673908
iw,-52.3759422302246,-75.3462600708007,100.536010742187,-118.096961975097,1550690575
iw,-54.2324142456054,-73.2224426269531,112.273483276367,-117.189147949218,1550707242
iw,-56.2352027893066,-71.077766418457,121.012756347656,-116.802154541015,1550723909
iw,-58.1396484375,-69.0420227050781,115.635292053222,-114.094100952148,1550740576
iw,-59.9280815124511,-67.117919921875,109.32218170166,-111.813117980957,1550757243
iw,-61.6685714721679,-65.1918029785156,106.769721984863,-116.769760131835,1550773910
iw,-63.2227592468261,-63.1131973266601,95.5838394165039,-130.618469238281,1550790577
iw,-64.5206069946289,-60.8776054382324,80.6221160888671,-143.85481262207,1550807244
iw,-65.5806655883789,-58.7906913757324,67.2776489257812,-135.614669799804,1550823911
iw,-66.5262451171875,-56.9075775146484,60.9982223510742,-118.87532043457,1550840578
iw,-67.4183578491211,-55.1560096740722,57.2292518615722,-108.798156738281,1550857245
iw,-68.2015686035156,-53.4379158020019,50.4093399047851,-108.233528137207,1550873912
iw,-68.9123916625976,-51.7955055236816,45.6711082458496,-106.285446166992,1550890579
iw,-69.5358428955078,-50.5336189270019,40.1311378479003,-85.237060546875,1550907246
iw,-70.1578292846679,-49.7010841369628,40.3855438232421,-57.9979095458984,1550923913
iw,-70.7021408081054,-48.9864311218261,36.0719413757324,-51.8205451965332,1550940580
iw,-71.2343826293945,-48.3791122436523,34.9970512390136,-45.9107131958007,1550957247
iw,-71.777359008789,-47.9023056030273,33.5447387695312,-37.7879791259765,1550973914
iw,-72.3314437866211,-47.5166358947753,32.8916893005371,-31.3177776336669,1550990581
iw,-72.9672241210937,-47.2463302612304,37.0942993164062,-22.9070816040039,1551007248
iw,-73.7196197509765,-47.0309143066406,43.801212310791,-18.2664337158203,1551023915
iw,-74.5432510375976,-46.747745513916,48.7703437805175,-22.2134742736816,1551040582
iw,-75.3922042846679,-46.3335990905761,51.659008026123,-30.8387107849121,1551057249
iw,-76.2570495605468,-45.7725944519043,55.1828422546386,-41.3191223144531,1551073916
iw,-77.1276473999023,-45.1253509521484,60.1008911132812,-47.6589736938476,1551090583
iw,-77.9458618164062,-44.4291343688964,62.4630966186523,-50.8096160888671,1551107250
iw,-78.6724319458007,-43.8164176940918,61.9136314392089,-44.6302223205566,1551123917
iw,-79.2833709716796,-43.3226242065429,59.2612609863281,-37.0228080749511,1551140584
iw,-79.7202758789062,-42.8420829772949,53.2186965942382,-36.9078788757324,1551157251
iw,-79.9444885253906,-42.3310241699218,43.6378631591796,-39.5652389526367,1551173918
iw,-80.0147933959961,-41.8093109130859,34.6082878112793,-41.129638671875,1551190585
iw,-80.0217132568359,-41.3232650756835,31.9113960266113,-40.6048240661621,1551207252
iw,-80.0773849487304,-40.9844665527343,35.4485778808593,-32.759048461914,1551223919
iw,-80.216323852539,-40.8673286437988,37.402114868164,-20.1279888153076,1551240586
iw,-80.4372100830078,-41.0635070800781,39.332233428955,-1.37930965423583,1551257253
iw,-80.6939544677734,-41.7357711791992,42.4269981384277,26.277868270874,1551273920
iw,-80.9643478393554,-42.7037925720214,44.6362228393554,44.187328338623,1551290587
iw,-81.183967590332,-42.9890975952148,48.7335586547851,2.68410849571228,1551307254
iw,-81.2234497070312,-42.0682411193847,51.1496963500976,-59.9346313476562,1551323921
iw,-81.140998840332,-40.4619789123535,42.2156372070312,-100.039276123046,1551340588
iw,-81.1569061279296,-39.79487991333,12.6174602508544,-48.5679321289062,1551357255
iw,-81.4851684570312,-40.4903869628906,-31.1480236053466,27.6234703063964,1551373922
iw,-81.9495773315429,-41.895523071289,-68.6859130859375,68.7540740966796,1551390589
iw,-82.263198852539,-43.7340049743652,-103.485107421875,87.0622177124023,1551407256
iw,-82.278823852539,-45.7034301757812,-120.26528930664,97.8154296875,1551423923
iw,-82.3201828002929,-47.1457595825195,-116.914627075195,73.2472839355468,1551440590
iw,-82.0782623291015,-48.2675590515136,-120.223121643066,51.1186447143554,1551457257
iw,-81.0966491699218,-49.5757522583007,-137.649810791015,63.2634582519531,1551473924
iw,-79.5999298095703,-51.1027526855468,-139.940887451171,79.4192810058593,1551490591
iw,-77.8088684082031,-52.7520599365234,-134.796661376953,87.6965408325195,1551507258
iw,-75.9563217163086,-54.356647491455,-124.094635009765,86.5909652709961,1551523925
iw,-74.104736328125,-55.9524383544921,-117.346122741699,90.174201965332,1551540592
iw,-72.2614059448242,-57.5328292846679,-114.200172424316,93.2081756591796,1551557259
iw,-70.439468383789,-59.0155067443847,-110.972358703613,88.8380432128906,1551573926
iw,-68.4212265014648,-60.3361625671386,-120.967498779296,79.0885314941406,1551590593
iw,-66.0857772827148,-61.5020370483398,-139.187728881835,70.3920364379882,1551607260
iw,-63.7450447082519,-62.6084327697753,-138.739624023437,67.1407470703125,1551623927
iw,-61.6834182739257,-63.7591819763183,-121.33927154541,69.77978515625,1551640594
iw,-59.9891548156738,-64.8956146240234,-99.6606063842773,69.3859634399414,1551657261
iw,-58.6121559143066,-65.9342041015625,-81.5516052246093,63.4670524597168,1551673928
iw,-57.3381538391113,-66.8804092407226,-76.4190979003906,57.7078399658203,1551690595
iw,-56.1435394287109,-67.7583694458007,-72.1336288452148,53.7713088989257,1551707262
iw,-55.2002449035644,-68.606689453125,-57.2914886474609,52.147361755371,1551723929
iw,-54.6311111450195,-69.3957595825195,-35.0255889892578,48.905158996582,1551740596
iw,-54.3279953002929,-70.2177200317382,-19.1431522369384,51.7317161560058,1551757263
iw,-54.1709785461425,-71.1026535034179,-10.216191291809,56.2889175415039,1551773930
iw,-54.1306991577148,-72.0083084106445,-2.86797738075256,57.381492614746,1551790597
iw,-54.1553230285644,-72.898452758789,1.33987534046173,56.6604614257812,1551807264
iw,-54.2053909301757,-73.7206420898437,2.7963593006134,52.0762557983398,1551823931
iw,-54.2493476867675,-74.5275421142578,2.01622128486633,50.2168540954589,1551840598
iw,-54.2673988342285,-75.3221435546875,0.0865394622087478,48.6925163269043,1551857265
iw,-54.1334915161132,-76.1535263061523,-9.22519874572753,49.8257713317871,1551873932
iw,-53.9140510559082,-76.9928207397461,-14.3679723739624,48.8933868408203,1551890599
iw,-53.5645370483398,-77.8553771972656,-22.1895217895507,49.7255477905273,1551907266
iw,-53.0514373779296,-78.705093383789,-32.0093841552734,48.7673873901367,1551923933
iw,-52.4121475219726,-79.4259033203125,-39.5430564880371,42.4468536376953,1551940600
iw,-51.7375717163085,-80.0222854614257,-41.5486412048339,36.4412078857421,1551957267
iw,-50.9728546142578,-80.6926651000976,-46.7429313659668,42.7778854370117,1551973934
iw,-50.0739631652832,-81.434341430664,-54.5202484130859,50.8321876525878,1551990601
iw,-49.1797790527343,-82.2735061645507,-53.8699073791503,61.0222358703613,1552007268
iw,-48.4964256286621,-83.186782836914,-40.9356422424316,69.784065246582,1552023935
iw,-48.0836563110351,-84.0970840454101,-24.5993537902832,78.5417709350586,1552040602
iw,-48.0862617492675,-84.7695083618164,0.160116493701934,82.8856430053711,1552057269
iw,-48.2652931213378,-84.9435195922851,10.4410781860351,79.9244232177734,1552073936
iw,-48.3060340881347,-84.6618270874023,1.97999668121337,74.1645050048828,1552090603
iw,-48.0814743041992,-84.2116928100586,-14.288290977478,63.8423919677734,1552107270
iw,-47.4653816223144,-83.9581451416015,-38.4479293823242,50.1099586486816,1552123937
iw,-46.672679901123,-84.0487976074218,-48.8347244262695,19.3745460510253,1552140604
iw,-45.9860572814941,-84.4226913452148,-42.2042007446289,-17.8363170623779,1552157271
iw,-45.5715675354003,-85.0073852539062,-27.8798065185546,-56.1697540283203,1552173938
iw,-45.5779228210449,-85.5031127929687,-4.59966087341308,-92.4888458251953,1552190605
iw,-45.90478515625,-85.3488235473632,15.1131343841552,-101.962203979492,1552207272
iw,-46.4385032653808,-84.4314804077148,28.8265266418457,-101.481094360351,1552223939
iw,-47.4758071899414,-82.748779296875,60.5215759277343,-115.431579589843,1552240606
iw,-48.7255058288574,-80.7508087158203,74.0262298583984,-115.206726074218,1552257273
iw,-49.9612884521484,-78.5777816772461,74.7877349853515,-118.767333984375,1552273940
iw,-51.4947204589843,-76.2695846557617,93.7055969238281,-124.162544250488,1552290607
iw,-53.3325805664062,-73.9577941894531,111.73722076416,-129.722396850585,1552307274
iw,-55.2155990600585,-71.6510543823242,114.617553710937,-141.879531860351,1552323941
iw,-57.0762329101562,-69.3009414672851,114.272590637207,-150.136581420898,1552340608
iw,-58.8563842773437,-66.978775024414,110.093925476074,-146.845321655273,1552357275
iw,-60.5175132751464,-64.5594711303711,102.737770080566,-151.853393554687,1552373942
iw,-61.965347290039,-61.8722381591796,89.4652252197265,-167.977233886718,1552390609
iw,-63.2809715270996,-59.072467803955,82.0540313720703,-175.823196411132,1552407276
iw,-64.5084152221679,-56.6019592285156,77.4670486450195,-153.776062011718,1552423943
iw,-65.6238403320312,-54.3678588867187,70.308967590332,-135.456329345703,1552440610
iw,-66.6211853027343,-52.339111328125,62.3845596313476,-122.351158142089,1552457277
iw,-67.5489273071289,-50.7865982055664,57.1070442199707,-96.6304702758789,1552473944
iw,-68.4088821411132,-49.5007972717285,51.6048011779785,-86.5337219238281,1552490611
iw,-69.2364959716796,-48.4362068176269,48.5366096496582,-74.063720703125,1552507278
iw,-70.0232391357421,-47.6005401611328,44.9754981994628,-59.0671882629394,1552523945
iw,-70.9182510375976,-47.0672264099121,50.7769508361816,-41.2505073547363,1552540612
iw,-71.9234390258789,-46.818431854248,56.579231262207,-24.3095874786376,1552557279
iw,-72.9216003417968,-46.6477165222168,55.4475975036621,-19.630895614624,1552573946
iw,-73.8693008422851,-46.5735321044921,52.9949913024902,-12.3716707229614,1552590613
iw,-74.7489318847656,-46.6153297424316,51.7017745971679,-2.35610389709472,1552607280
iw,-75.572769165039,-46.6421775817871,52.1734657287597,-0.360269427299499,1552623947
iw,-76.451431274414,-46.4385452270507,59.6652755737304,-12.5999708175659,1552640614
iw,-77.4332962036132,-46.009292602539,70.8759689331054,-28.5948066711425,1552657281
iw,-78.4381866455078,-45.5987510681152,78.9202194213867,-29.8276863098144,1552673948
iw,-79.3261337280273,-45.095848083496,78.6310424804687,-36.7490997314453,1552690615
iw,-80.006607055664,-44.5050773620605,69.6478805541992,-42.5511856079101,1552707282
iw,-80.4542083740234,-43.8958206176757,59.1840133666992,-44.3504371643066,1552723949
iw,-80.6340179443359,-43.3885383605957,50.8562355041503,-38.4848098754882,1552740616
iw,-80.6113586425781,-42.8620948791503,49.2578582763671,-41.6883125305175,1552757283
iw,-80.509765625,-42.2828979492187,49.5277214050293,-48.4368057250976,1552773950
iw,-80.4675598144531,-41.7836799621582,58.3553199768066,-47.8855857849121,1552790617
