Label,Left_Hip_q,Right_Hip_q,Left_Hip_qd,Right_Hip_qd,SampleTimeFine
fw,-74.3005905151367,-77.4047927856445,35.7348556518554,-50.1388816833496,2504661558
fw,-75.0946960449218,-78.8078536987304,40.22088361044073,-79.99116078117343,2504678225
fw,-75.9898300170898,-80.4257049560546,42.29229450150075,-98.01174654235042,2504694892
fw,-76.5567626953125,-82.4210205078125,45.40191948534151,-115.29232209899111,2504711559
fw,-77.1092910766601,-84.3467483520507,50.158444165630584,-131.26955118249288,2504728226
fw,-78.1750564575195,-85.3583526611328,56.665518099161055,-145.3801958767751,2504744893
fw,-79.5801391601562,-85.0852966308593,64.4582633702211,-157.06441721016614,2504761560
fw,-81.1211929321289,-83.7161254882812,72.59228501085668,-165.7883685202083,2504778227
fw,-82.6756286621093,-81.6531753540039,79.86725657160333,-171.0869615380626,2504794894
fw,-84.2700576782226,-79.1686782836914,85.13386202379722,-172.6182232114819,2504811561
fw,-85.8833923339843,-76.5825805664062,87.61184502800252,-170.21107071552927,2504828228
fw,-87.6789779663086,-74.034927368164,87.13763035906403,-163.88812426993826,2504844895
fw,-89.7039260864257,-71.5544128417968,84.26553492288426,-153.85588029262772,2504861562
fw,-89.049819946289,-69.1582794189453,80.17451141575982,-140.46894897206303,2504878229
fw,-87.4057998657226,-66.9271697998046,76.3853575822908,-124.18510485163486,2504894896
fw,-86.0552444458007,-64.9927978515625,74.35915800712239,-105.53027428507215,2504911563
fw,-84.8885269165039,-63.4805488586425,75.0987696034169,-85.08869492632982,2504928230
fw,-83.6356735229492,-62.3888397216796,78.88262061871637,-63.525928642315876,2504944897
fw,-82.1607818603515,-61.5924072265625,85.2137803509193,-41.64073733886714,2504961564
fw,-80.4501266479492,-60.9827232360839,92.98526285372303,-20.423268179071204,2504978231
fw,-78.5633468627929,-60.5611152648925,100.78346721426644,-1.0745042917891912,2504994898
fw,-76.6933517456054,-60.6801948547363,107.2131626639127,15.068677907648526,2505011565
fw,-74.9749908447265,-61.4743347167968,111.14403409592794,26.735402278530703,2505028232
fw,-73.3263473510742,-62.7073593139648,111.83433187910966,33.02019166701454,2505044899
fw,-71.6307983398437,-63.6018943786621,108.94584611528379,33.68018637920123,2505061566
fw,-69.7950210571289,-64.0508575439453,102.49321303030707,29.304775256564554,2505078233
fw,-67.8814544677734,-64.7559204101562,92.76040043727991,21.27741648424476,2505094900
fw,-66.3085327148437,-65.3265380859375,80.18949240091129,11.53286719070924,2505111567
fw,-65.4476928710937,-65.2416381835937,65.23702144169914,2.177006216445237,2505128234
fw,-65.0742263793945,-64.6964645385742,48.21919365738187,-4.938528351202054,2505144901
fw,-64.9070510864257,-64.4102401733398,29.20898619628648,-8.586977147368994,2505161568
fw,-64.7951583862304,-64.2554321289062,8.059867503453468,-8.383242682861855,2505178235
fw,-64.7265090942382,-64.3916702270507,-15.415261199021451,-4.776820063067035,2505194902
fw,-64.8727951049804,-65.2442398071289,-41.16578416332001,1.1819568160201372,2505211569
fw,-65.7206573486328,-66.3457641601562,-68.64971671260614,8.223151248481825,2505228236
fw,-67.2913284301757,-66.7094268798828,-96.73238741084873,15.25029469038516,2505244903
fw,-69.4386444091796,-67.327766418457,-123.79832471001092,21.612300121788877,2505261570
fw,-72.1322021484375,-68.2738723754882,-148.0388170102993,27.184071005173312,2505278237
fw,-74.8776016235351,-69.4363861083984,-167.80403187238934,32.26830796514031,2505294904
fw,-77.6026306152343,-70.6321411132812,-181.89672077976314,37.38647265161452,2505311571
fw,-80.4045639038086,-71.8232269287109,-189.73196659265415,43.042694089187925,2505328238
fw,-83.2873306274414,-73.0631790161132,-191.35802234825107,49.535162541581464,2505344905
fw,-85.9869232177734,-74.4279708862304,-187.3827593997747,56.86551121786392,2505361572
fw,-87.54345703125,-75.956069946289,-178.85601525356506,64.75959651048936,2505378239
fw,-86.1411590576171,-77.6361465454101,-167.1308059259919,72.77176196672251,2505394906
fw,-83.7687301635742,-79.3663864135742,-153.69566330903385,80.41753004429471,2505411573
fw,-81.4359054565429,-81.0680770874023,-139.96241877348052,87.2805063601296,2505428240
fw,-79.3684616088867,-82.6917724609375,-127.01667322157806,93.06501771375937,2505444907
fw,-77.6405639648437,-84.3659515380859,-115.37981314224473,97.59883480070032,2505461574
fw,-76.2005310058593,-86.1272811889648,-104.86694446134312,100.81035947290776,2505478241
fw,-74.8771591186523,-87.9329452514648,-94.62872026394722,102.70277778097095,2505494908
fw,-73.5099258422851,-89.4171752929687,-83.42142747814975,103.33106544143817,2505511575
fw,-72.0130538940429,-88.3422317504882,-70.06473969814097,102.77360862004771,2505528242
fw,-70.5750427246093,-86.762092590332,-53.952052020059796,101.09136705020819,2505544909
fw,-69.4376449584961,-85.2184906005859,-35.422317518611955,98.28196121972024,2505561576
fw,-69.1616897583007,-83.6517715454101,-15.825215769781686,94.24978618978484,2505578243
fw,-69.6987686157226,-82.0121078491211,2.7805052019216117,88.8123510529261,2505594910
fw,-70.5986633300781,-80.3688735961914,18.2044414620978,81.7449754953086,2505611577
fw,-71.6276473999023,-78.9250946044921,28.76749762096685,72.84236763574913,2505628244
fw,-72.2113800048828,-77.8424835205078,33.777644793176584,61.964614384388014,2505644911
fw,-72.7317657470703,-77.1374359130859,33.68873750210407,49.047299409611895,2505661578
fw,-73.5706405639648,-76.7478256225586,29.92794304394432,34.083676118301575,2505678245
fw,-73.9230804443359,-76.5668487548828,24.489525133901413,17.110126649017765,2505694912
fw,-73.7836532592773,-76.5493087768554,19.440728084601307,-1.7741148268997509,2505711579
fw,-73.8148117065429,-76.6645965576171,16.4799174401811,-22.347374995276546,2505728246
fw,-74.1871261596679,-77.2500839233398,16.652196860360146,-44.19354619404742,2505744913
fw,-74.7119369506836,-78.522834777832,20.269728843134196,-66.66163037348738,2505761580
fw,-75.481575012207,-80.0523681640625,27.011259495677148,-88.88855837985977,2505778247
fw,-76.1653213500976,-82.0236129760742,36.11940038393495,-109.88631817104559,2505794914
fw,-76.7682571411132,-84.2989654541015,46.605746620386284,-128.6669696696376,2505811581
fw,-77.8159866333007,-85.8898239135742,57.41076163910978,-144.36823517504453,2505828248
fw,-79.1875915527343,-85.9470596313476,67.51530504802578,-156.34794142501008,2505844915
fw,-80.7610321044921,-84.6098022460937,76.02966945045641,-164.23164461165328,2505861582
fw,-82.3937530517578,-82.5495529174804,82.28290611885986,-167.9152998667065,2505878249
fw,-83.9481887817382,-80.1274871826171,85.91357956251191,-167.53453838553713,2505894916
fw,-85.4540328979492,-77.5779190063476,86.9427284813671,-163.41242910699546,2505911583
fw,-87.1030197143554,-74.990966796875,85.80086464342914,-155.99480694791265,2505928250
fw,-88.7773132324218,-72.4756927490234,83.28348433666798,-145.78089977066708,2505944917
fw,-89.3373641967773,-70.0478286743164,80.42269798222725,-133.2569476836964,2505961584
fw,-87.9343643188476,-67.7988815307617,78.28751455118908,-118.84198456567914,2505978251
fw,-86.5653915405273,-65.834243774414,77.75783397611099,-102.85880361241793,2505994918
fw,-85.194091796875,-64.2240371704101,79.33996252607713,-85.5464555804215,2506011585
fw,-83.663459777832,-62.9576454162597,83.08372709271605,-67.12692123928001,2506028252
fw,-81.9687194824218,-61.9636077880859,88.61965713585786,-47.92280473520222,2506044919
fw,-80.1910705566406,-61.1677742004394,95.28150462973682,-28.495969776626954,2506061586
fw,-78.4073715209961,-60.5459327697753,102.24787183336367,-9.748556809027617,2506078253
fw,-76.7034759521484,-60.443675994873,108.64633360202721,7.084256312948613,2506094920
fw,-75.0560760498046,-61.0341606140136,113.60551986065593,20.597234863715766,2506111587
fw,-73.3542938232421,-61.9787559509277,116.28513476696709,29.519749489905145,2506128254
fw,-71.4613723754882,-63.0753898620605,115.92983812033665,33.07420897289262,2506144921
fw,-69.3194961547851,-63.797191619873,111.96803709169355,31.25967080346678,2506161588
fw,-67.0995712280273,-64.55810546875,104.12632449383342,24.953953048323953,2506178255
fw,-65.2766342163086,-65.3326644897461,92.4910732664608,15.796055074051461,2506194922
fw,-64.173095703125,-65.5562438964843,77.45604038766501,5.878989096337507,2506211589
fw,-63.5715065002441,-65.0108642578125,59.55495576915125,-2.676254157445294,2506228256
fw,-63.2891197204589,-64.5804061889648,39.255482560624195,-8.170001044895557,2506244923
fw,-63.1763534545898,-64.4863357543945,16.830018089331112,-9.680560503328028,2506261590
fw,-63.1310501098632,-64.4119262695312,-7.613164275704221,-7.218205534789374,2506278257
fw,-63.2710609436035,-64.8263473510742,-33.94189554582678,-1.620989723728245,2506294924
fw,-63.9113845825195,-66.1203155517578,-61.74853511978822,5.774241411441774,2506311591
fw,-65.2125854492187,-66.7265701293945,-90.16837061645045,13.570106035538165,2506328258
fw,-67.1667175292968,-67.177749633789,-117.87032120582094,20.704972089085608,2506344925
fw,-69.7086410522461,-67.9844970703125,-143.23909017726263,26.685772954589353,2506361592
fw,-72.657974243164,-69.1095199584961,-164.67940340023432,31.611466588856093,2506378259
fw,-75.4750137329101,-70.280044555664,-180.92510977356707,36.01654341005017,2506394926
fw,-78.2754821777343,-71.4487075805664,-191.2495871441603,40.60929123192373,2506411593
fw,-81.2115478515625,-72.609375,-195.53425310264498,45.99623024712844,2506428260
fw,-84.203498840332,-73.8665466308593,-194.21750667178003,52.478373234301124,2506444927
fw,-86.8865585327148,-75.3041076660156,-188.17803540624652,59.97461223629615,2506461594
fw,-87.515884399414,-76.9291229248046,-178.59564283825856,68.07755664355659,2506478261
fw,-85.4733810424804,-78.6426467895507,-166.8018657530523,76.19848654888195,2506494928
fw,-83.0234909057617,-80.3514785766601,-154.11083560299522,83.73431351441592,2506511595
fw,-80.6312026977539,-81.9862670898437,-141.6234593096222,90.19867988228064,2506528262
fw,-78.4843215942382,-83.6192398071289,-130.02247592829343,95.28985588757872,2506544929
fw,-76.668098449707,-85.3252182006836,-119.40827024950364,98.89883139949018,2506561596
fw,-75.1339035034179,-87.098762512207,-109.24742072308852,101.07622843591594,2506578263
fw,-73.7411727905273,-88.8183288574218,-98.5000958682721,101.9749027829849,2506594930
fw,-72.2877883911132,-89.1488952636718,-85.94688811570819,101.7774824646967,2506611597
fw,-70.7054748535156,-87.6739273071289,-70.655329454289,100.61734807911354,2506628264
fw,-69.1659469604492,-86.1401443481445,-52.44065509947235,98.51013614857808,2506644931
fw,-68.1606063842773,-84.5782699584961,-32.132318448294335,95.32082436554532,2506661598
fw,-68.0678253173828,-82.965087890625,-11.499170324116381,90.78627041751866,2506678265
fw,-68.9056930541992,-81.2736663818359,7.185523876050147,84.59154718455785,2506694932
fw,-69.8206024169921,-79.699966430664,21.797772362906468,76.47089292016783,2506711599
fw,-70.8674621582031,-78.4571456909179,30.989934933085877,66.28832247764765,2506728266
fw,-71.1121673583984,-77.5863494873046,34.56112471918107,54.06185451401539,2506744933
fw,-71.8299713134765,-77.1086807250976,33.46291276000187,39.92638641094414,2506761600
fw,-72.7484512329101,-76.8833999633789,29.481760543405805,24.065148203724313,2506778267
fw,-72.8157424926757,-76.7843704223632,24.735915694072837,6.65604431914211,2506794934
fw,-72.6338577270507,-76.8563766479492,21.14874940950257,-12.133635127280565,2506811601
fw,-72.6998748779296,-77.2059020996093,20.043110383995362,-32.103490472163365,2506828268
fw,-73.2496261596679,-78.1619110107421,21.958998771111364,-52.956300865755836,2506844935
fw,-74.0767517089843,-79.4728088378906,26.720811064452132,-74.25058176612677,2506861602
fw,-75.3390274047851,-81.0849838256836,33.68442839302722,-95.39058514885707,2506878269
fw,-76.0557785034179,-83.1422805786132,42.029930936855,-115.65353053892612,2506894936
fw,-76.7371978759765,-84.9240264892578,50.97496568076334,-134.24044039286892,2506911603
fw,-77.7787628173828,-85.30322265625,59.8570408088752,-150.33519892375315,2506928270
fw,-79.0813903808593,-84.3501052856445,68.1161655264033,-163.16413474583373,2506944937
fw,-80.6656951904296,-82.7086563110351,75.2503860748816,-172.05906928061378,2506961604
fw,-82.2520217895507,-80.6122131347656,80.80572385441623,-176.52925435036147,2506978271
fw,-83.8210144042968,-78.1928482055664,84.4246620956166,-176.33667520112016,2506994938
fw,-85.3966598510742,-75.6047821044921,85.94109519224804,-171.5541360894256,2507011605
fw,-87.0951232910156,-72.9859542846679,85.4851148146351,-162.58013658631435,2507028272
fw,-88.9319229125976,-70.4282455444336,83.54881439234963,-150.09275002357438,2507044939
fw,-89.6590805053711,-68.0163269042968,80.9663798701009,-134.9417300853269,2507061606
fw,-87.7047576904296,-65.8941192626953,78.7826750013309,-117.99888555679865,2507078273
fw,-86.2552413940429,-64.1729507446289,78.02424376357435,-100.00750686281228,2507094940
fw,-84.9676742553711,-62.8284301757812,79.43285399749512,-81.48508784523763,2507111607
fw,-83.6614456176757,-61.7879066467285,83.2509220585422,-62.72834158828336,2507128274
fw,-82.2104110717773,-60.8602561950683,89.13881241946754,-43.93687897255649,2507144941
fw,-80.5125732421875,-60.0223159790039,96.25430215678857,-25.416718111810535,2507161608
fw,-78.6198806762695,-59.5335006713867,103.45857948273974,-7.770840798131562,2507178275
fw,-76.6970291137695,-59.6337394714355,109.56677737342999,8.033829583849084,2507194942
fw,-74.9083480834961,-60.3349838256835,113.55808067356206,20.79182164230914,2507211609
fw,-73.2375564575195,-61.3390045166015,114.6980352901074,29.35599264783853,2507228276
fw,-71.5153274536132,-62.2291641235351,112.57647625179463,32.99704005253338,2507244943
fw,-69.6334075927734,-62.9463348388671,107.09431255386954,31.685782681240312,2507261610
fw,-67.5937423706054,-63.7538185119628,98.42468467314497,26.199260500210567,2507278277
fw,-65.8285446166992,-64.6011581420898,86.94421100854451,18.025400158675083,2507294944
fw,-64.7496566772461,-64.9506530761718,73.11501768602213,9.095902096346046,2507311611
fw,-64.1748504638671,-64.6481399536132,57.3234666933521,1.4030901157779978,2507328278
fw,-63.8683471679687,-64.4379425048828,39.73280553557735,-3.4196863190415416,2507344945
fw,-63.7376098632812,-64.4203338623046,20.237705716160534,-4.445709215402119,2507361612
fw,-63.5891227722168,-64.3922271728515,-1.41918358906378,-1.6200728321602578,2507378279
fw,-63.4766578674316,-65.0544891357421,-25.388977900716654,4.317968854578579,2507394946
fw,-63.8950119018554,-66.3957443237304,-51.42275971598843,12.128880645716078,2507411613
fw,-65.0535812377929,-66.9179534912109,-78.68444169327576,20.474847686209905,2507428280
fw,-66.8363418579101,-67.5457153320312,-105.77233493995323,28.28728088717102,2507444947
fw,-69.2092590332031,-68.5656814575195,-130.95595045977745,34.98761941579202,2507461614
fw,-71.9741744995117,-69.7929763793945,-152.53788013094146,40.521481462585555,2507478281
fw,-74.6353530883789,-71.0901718139648,-169.20388950040766,45.234726691941056,2507494948
fw,-77.3321990966796,-72.3896331787109,-180.2461225342068,49.659433456368575,2507511615
fw,-80.1720275878906,-73.6688690185546,-185.61420897311493,54.29014383354688,2507528282
fw,-83.0684280395507,-75.0266799926757,-185.82269395761097,59.42048952467843,2507544949
fw,-85.8512191772461,-76.5487823486328,-181.78132361631057,65.07876598988048,2507561616
fw,-87.8401565551757,-78.1752319335937,-174.60824034146808,71.0587958026795,2507578283
fw,-86.9342041015625,-79.8347473144531,-165.4554449255372,77.0094103055728,2507594950
fw,-84.6976699829101,-81.4778976440429,-155.34918195852813,82.53706095531679,2507611617
fw,-82.3820724487304,-83.0502853393554,-145.04184054623332,87.29040351661389,2507628284
fw,-80.1589736938476,-84.6250991821289,-134.88544707852088,91.01804593145755,2507644951
fw,-78.1059417724609,-86.3019104003906,-124.7563609081721,93.6040602563566,2507661618
fw,-76.3260192871093,-88.0828628540039,-114.07174012626002,95.08331697438413,2507678285
fw,-74.8376083374023,-90.0,-101.93252662792847,95.62675492831592,2507694952
fw,-73.5264358520507,-88.6132278442382,-87.4019125698475,95.48052866412344,2507711619
fw,-72.1804580688476,-87.0265884399414,-69.88161468190744,94.85528348489848,2507728286
fw,-70.7330703735351,-85.6296844482421,-49.4879049569539,93.7915736266389,2507744953
fw,-69.5022048950195,-84.2611999511718,-27.28066971860923,92.05718441864745,2507761620
fw,-69.3727874755859,-82.7263031005859,-5.203818538742401,89.13749924894161,2507778287
fw,-70.2737579345703,-80.9671249389648,14.315481066047615,84.3473556574794,2507794954
fw,-71.4473114013671,-79.2613143920898,29.010570629297515,77.03351473818246,2507811621
fw,-72.5673217773437,-77.9068756103515,37.43444117347287,66.78553789417975,2507828288
fw,-73.1260604858398,-77.0404281616211,39.38536475831324,53.56437172873609,2507844955
fw,-73.8659057617187,-76.5609054565429,35.95330661508716,37.699594950132216,2507861622
fw,-74.6600036621093,-76.3820419311523,29.199756702386725,19.771095695686533,2507878289
fw,-74.6673431396484,-76.4257507324218,21.606289187834367,0.43933237732488517,2507894956
fw,-74.4075393676757,-76.7039566040039,15.474797544609089,-19.702473609787567,2507911623
fw,-74.593765258789,-77.4604797363281,12.45001492170913,-40.20525405691743,2507928290
fw,-75.0748519897461,-78.6182250976562,13.281524497373885,-60.75727783993212,2507944957
fw,-75.4547348022461,-79.8377304077148,17.85539757765052,-81.11103053494998,2507961624
fw,-76.3508987426757,-81.5153198242187,25.430501786593364,-100.98045169256928,2507978291
fw,-76.9715347290039,-83.5422668457031,34.95557307919603,-119.95186481612527,2507994958
fw,-77.692398071289,-85.0815124511718,45.34529494581738,-137.44253404191141,2508011625
fw,-78.8039398193359,-85.065689086914,55.64502940720607,-152.71919296845618,2508028292
fw,-80.1104049682617,-83.7997665405273,65.08094675286117,-164.9696222140367,2508044959
fw,-81.5171508789062,-81.9957504272461,73.04218076531845,-173.41230475904246,2508061626
fw,-82.9823150634765,-79.8625717163086,79.05785390872188,-177.42597921378172,2508078293
fw,-84.4688034057617,-77.4377822875976,82.81597842601924,-176.6743714008275,2508094960
fw,-86.0509262084961,-74.809829711914,84.23443598699662,-171.19444485988578,2508111627
fw,-87.7861862182617,-72.1197280883789,83.55244158683537,-161.41748574426305,2508128294
fw,-90.0,-69.4958877563476,81.38297651971827,-148.10497007474365,2508144961
fw,-88.8734283447265,-67.1002578735351,78.66764988684197,-132.20402904730068,2508161628
fw,-87.1815872192382,-65.1128387451171,76.50877561059875,-114.6563267153572,2508178295
fw,-85.8635101318359,-63.558250427246,75.9077734161108,-96.22072410152275,2508194962
fw,-84.6921920776367,-62.3204650878906,77.49041643155506,-77.37986210493077,2508211629
fw,-83.4752578735351,-61.2613677978515,81.32026570390319,-58.380078288366214,2508228296
fw,-82.0293502807617,-60.3190422058105,86.87522575603734,-39.40196534912763,2508244963
fw,-80.2602767944336,-59.6255302429199,93.1966053556225,-20.79420819714769,2508261630
fw,-78.3924865722656,-59.2557029724121,99.14799939851358,-3.258391906092291,2508278297
fw,-76.6131362915039,-59.3358688354492,103.68160497777228,12.12420686015002,2508294964
fw,-74.9837951660156,-60.0496597290039,106.02250966790801,24.073844173524275,2508311631
fw,-73.4425811767578,-61.078140258789,105.73486875609443,31.458405894149994,2508328298
fw,-71.8438644409179,-62.1478233337402,102.69118572281022,33.678674248834014,2508344965
fw,-70.0686950683593,-62.870319366455,96.99214757607135,30.941531719727983,2508361632
fw,-68.2391128540039,-63.6102027893066,88.87138763355809,24.316755998997348,2508378299
fw,-66.7720947265625,-64.4132080078125,78.59072326010246,15.559188809356067,2508394966
fw,-65.9151229858398,-64.6128387451171,66.32209529335837,6.7497311626262935,2508411633
fw,-65.4300537109375,-64.0361557006836,52.03734875030818,-0.1556302321349317,2508428300
fw,-65.0898742675781,-63.7693328857421,35.46311864694561,-3.760793413491265,2508444967
fw,-64.8434982299804,-63.8406715393066,16.16303500231749,-3.5292497128797113,2508461634
fw,-64.6732101440429,-63.8802795410156,-6.238113501773512,0.15016755200278273,2508478301
fw,-64.7594146728515,-64.6272430419921,-31.751905872562055,6.1611365785210115,2508494968
fw,-65.3993988037109,-66.0341186523437,-59.76957509943316,13.057282361807268,2508511635
fw,-66.7543563842773,-66.6802902221679,-88.97752231594522,19.520899454235884,2508528302
fw,-68.7710800170898,-67.192268371582,-117.50908390331813,24.72637850803269,2508544969
fw,-71.4676818847656,-67.9390640258789,-143.29830827397777,28.50135164055066,2508561636
fw,-74.4580764770507,-68.9534759521484,-164.51524365815425,31.26674775998423,2508578303
fw,-77.289077758789,-70.0399093627929,-179.92983977192566,33.81160087446479,2508594970
fw,-80.0377807617187,-71.1419372558593,-189.08858238869445,36.99316301034873,2508611637
fw,-82.8010177612304,-72.2063751220703,-192.27431023581602,41.45674977078197,2508628304
fw,-85.5200500488281,-73.3697967529296,-190.30793393879793,47.45429138446661,2508644971
fw,-87.551040649414,-74.7427978515625,-184.29505962959738,54.80516301059911,2508661638
fw,-86.7784576416015,-76.3227386474609,-175.40629788881913,62.99165648188388,2508678305
fw,-84.4188613891601,-77.987564086914,-164.7290309547343,71.33438688682654,2508694972
fw,-81.8666076660156,-79.6256256103515,-153.17752085390725,79.17380971104069,2508711639
fw,-79.4093170166015,-81.1751480102539,-141.42479628838407,86.00054796194965,2508728306
fw,-77.2420196533203,-82.7563552856445,-129.8305704074429,91.51419057034941,2508744973
fw,-75.4262542724609,-84.4595642089843,-118.37376232274634,95.62208826138202,2508761640
fw,-73.8780288696289,-86.2503890991211,-106.63482746346159,98.40024190468871,2508778307
fw,-72.5198745727539,-88.0149536132812,-93.88737345056452,100.03100546908264,2508794974
fw,-71.2111053466796,-89.6948165893554,-79.33268243359491,100.72355743887267,2508811641
fw,-69.7916183471679,-88.7715606689453,-62.44630242612034,100.62593103996247,2508828308
fw,-68.4177703857421,-87.1489944458007,-43.32896004650057,99.7493323030483,2508844975
fw,-67.5122528076171,-85.4679718017578,-22.9081143213486,97.93223449921793,2508861642
fw,-67.5861129760742,-83.7255859375,-2.8618651645978486,94.86196028530796,2508878309
fw,-68.4121627807617,-81.9617385864257,14.758708332179761,90.14765029560758,2508894976
fw,-69.3837661743164,-80.4093399047851,28.094383907330876,83.4151381158611,2508911643
fw,-70.36328125,-79.0631561279296,36.021934397733176,74.38638223830539,2508928310
fw,-70.9864883422851,-78.0208663940429,38.47765772621185,62.918457674676084,2508944977
fw,-71.7265167236328,-77.3355865478515,36.46012131036026,49.00151111852894,2508961644
fw,-72.5004653930664,-76.9167861938476,31.739277939963728,32.73690639548951,2508978311
fw,-72.6904830932617,-76.6805572509765,26.3898969247304,14.32366191915165,2508994978
fw,-72.616455078125,-76.6457443237304,22.300333893604325,-5.9308107022102075,2509011645
fw,-72.7969512939453,-76.9441757202148,20.796122319553614,-27.583066145848314,2509028312
fw,-73.4873352050781,-77.8185729980468,22.4715293871568,-50.03458371646046,2509044979
fw,-74.3346405029296,-79.120002746582,27.2431630851761,-72.54605388604794,2509061646
fw,-75.3389587402343,-80.7593307495117,34.553146079837944,-94.29166985353136,2509078313
fw,-75.8903656005859,-82.8835754394531,43.60437238355437,-114.43905158041018,2509094980
fw,-76.6585235595703,-84.909309387207,53.534099816382884,-132.22914302340166,2509111647
fw,-77.8669509887695,-85.8200378417968,63.49952729184356,-147.0325943469776,2509128314
fw,-79.3563003540039,-85.1817932128906,72.70779660694055,-158.37276207503328,2509144981
fw,-80.9660186767578,-83.6189346313476,80.44110955706478,-165.92397758881015,2509161648
fw,-82.5914611816406,-81.5760116577148,86.11115094583057,-169.5052735778766,2509178315
fw,-84.1569900512695,-79.1859130859375,89.34815385278694,-169.08551443478342,2509194982
fw,-85.7347869873046,-76.6786041259765,90.10379222177296,-164.79971102230766,2509211649
fw,-87.4915008544921,-74.1484909057617,88.72875004340943,-156.96065653676285,2509228316
fw,-89.564338684082,-71.6492538452148,85.97852852513881,-146.04455406373202,2509244983
fw,-88.9745483398437,-69.2763442993164,82.91059546051493,-132.6365150396747,2509261650
fw,-87.3042678833007,-67.1551895141601,80.66801001534864,-117.33951610375536,2509278317
fw,-85.9823455810546,-65.4126739501953,80.19482249595076,-100.67331142917423,2509294984
fw,-84.7328872680664,-64.0361251831054,81.97448898387164,-83.00834972688823,2509311651
fw,-83.361946105957,-62.9313888549804,85.89257846693872,-64.58081648820394,2509328318
fw,-81.7426528930664,-61.979679107666,91.2826585604514,-45.608442373795704,2509344985
fw,-79.8580322265625,-61.1539344787597,97.13635512117743,-26.476023653601917,2509361652
fw,-77.9238662719726,-60.5519790649414,102.38784089259411,-7.906882683714594,2509378319
fw,-76.0905990600586,-60.6446151733398,106.15911281119064,8.984593087608552,2509394986
fw,-74.4989395141601,-61.2734642028808,107.88619420957919,22.82910934341878,2509411653
fw,-72.9771881103515,-62.2812232971191,107.31417060502166,32.31330779608321,2509428320
fw,-71.3261947631836,-63.2780647277832,104.40826736959758,36.56252656332815,2509444987
fw,-69.4796905517578,-63.9682540893554,99.24522871115377,35.452026090929884,2509461654
fw,-67.554214477539,-64.6865539550781,91.92222733580219,29.73289339765309,2509478321
fw,-66.0500869750976,-65.3979187011718,82.4811823139332,20.933372673094215,2509494988
fw,-65.1517791748046,-65.6063003540039,70.83460074411998,11.067618517746375,2509511655
fw,-64.5940246582031,-65.3118362426757,56.707287806562235,2.225927349082565,2509528322
fw,-64.2033767700195,-64.9945373535156,39.646942802884574,-3.857480148962321,2509544989
fw,-63.8438568115234,-64.798843383789,19.159173726552226,-6.150649212444242,2509561656
fw,-63.5511741638183,-64.750015258789,-5.030876530171755,-4.486175160980519,2509578323
fw,-63.6252632141113,-65.5034561157226,-32.669673558223295,0.5083529905110706,2509594990
fw,-64.3279571533203,-66.2366867065429,-62.754302422634765,7.680772865842314,2509611657
fw,-65.7632064819336,-66.5140991210937,-93.52352918506064,15.724107593128556,2509628324
fw,-68.0196838378906,-67.3031311035156,-122.70681585389347,23.520904297181463,2509644991
fw,-70.7988357543945,-68.5047225952148,-147.96971239684183,30.369532744176777,2509661658
fw,-73.8399429321289,-69.784797668457,-167.41101952242929,36.05704566220745,2509678325
fw,-76.7722473144531,-70.9965286254882,-179.94840045295246,40.791190753228335,2509694992
fw,-79.6002502441406,-72.1335067749023,-185.48057487048087,45.03496358060669,2509711659
fw,-82.3966903686523,-73.3324584960937,-184.80554979941033,49.30557123617707,2509728326
fw,-85.0490036010742,-74.678596496582,-179.35773642514258,54.00155386136412,2509744993
fw,-87.424201965332,-76.1409912109375,-170.86629895604582,59.30136293626407,2509761660
fw,-87.8518753051757,-77.6732025146484,-161.02716393728937,65.1429858640043,2509778327
fw,-85.9328308105468,-79.2136611938476,-151.24250967678535,71.26664449148245,2509794994
fw,-83.6936111450195,-80.7797088623046,-142.44280629448815,77.29316491138793,2509811661
fw,-81.4706954956054,-82.3252487182617,-134.98667287799344,82.8154446201156,2509828328
fw,-79.3557510375976,-83.908088684082,-128.63497020633977,87.48768112179143,2509844995
fw,-77.4195556640625,-85.5747680664062,-122.60649480125883,91.0988843405188,2509861662
fw,-75.6338119506836,-87.2815704345703,-115.72901126050564,93.61422128365653,2509878329
fw,-73.9483261108398,-88.9324722290039,-106.69085881890874,95.16636145661052,2509894996
fw,-72.3430404663086,-89.2500991821289,-94.3718646618453,95.98697734896506,2509911663
fw,-70.8171463012695,-87.843147277832,-78.19420497490421,96.28880885541193,2509928330
fw,-69.5863647460937,-86.3555145263671,-58.40038114898846,96.1340538488017,2509944997
fw,-68.6663970947265,-84.8328323364257,-36.156940862147195,95.34031022113571,2509961664
fw,-68.3446960449218,-83.26953125,-13.413488776420442,93.46832570754964,2509978331
fw,-68.7954711914062,-81.6120376586914,7.483273222383199,89.9059885340207,2509994998
fw,-69.6922531127929,-79.9030685424804,24.331135491923927,84.02296712734415,2510011665
fw,-70.7492904663086,-78.3908615112304,35.60916289183089,75.33917276671535,2510028332
fw,-71.5233840942382,-77.2473754882812,40.837441467337044,63.64415987029473,2510044999
fw,-72.1294631958007,-76.5205688476562,40.65041358222775,49.02869243611515,2510061666
fw,-73.1103057861328,-76.1640243530273,36.58194964389947,31.832240304421642,2510078333
fw,-73.6373519897461,-76.0885314941406,30.654508718564195,12.547392973923344,2510095000
fw,-73.5488891601562,-76.1718368530273,24.907064646932664,-8.266752366468928,2510111667
fw,-73.6691360473632,-76.505386352539,20.991299497946862,-30.029029599027137,2510128334
fw,-74.2230758666992,-77.4460983276367,19.931075709773985,-52.138284766255296,2510145001
fw,-74.9210891723632,-78.7074356079101,22.080647535821655,-73.95705545047493,2510161668
fw,-75.665283203125,-80.2478485107421,27.242979664982887,-94.80408228787891,2510178335
fw,-76.2761764526367,-82.2479476928711,34.85707777918947,-113.97065933242222,2510195002
fw,-76.9749374389648,-84.1000747680664,44.164589413887306,-130.76008978129747,2510211669
fw,-77.9581604003906,-84.956787109375,54.31339522575897,-144.53909233432742,2510228336
fw,-79.176513671875,-84.6646118164062,64.4110084273038,-154.78990080873587,2510245003
fw,-80.62646484375,-83.4884414672851,73.56988635942908,-161.15977406619555,2510261670
fw,-82.1799392700195,-81.8240890502929,80.9818251955159,-163.50918243972276,2510278337
fw,-83.7830963134765,-79.7713546752929,86.03104245309355,-161.9527298318538,2510295004
fw,-85.4445190429687,-77.4604797363281,88.42343362774112,-156.87414285644132,2510311671
fw,-87.2036209106445,-75.0328369140625,88.28781577462297,-148.89156508124267,2510328338
fw,-89.0784683227539,-72.6619644165039,86.20161978510151,-138.75926198095618,2510345005
fw,-89.3763046264648,-70.4247207641601,83.10986161476823,-127.21557233678959,2510361672
fw,-87.6418304443359,-68.4283905029296,80.13894729623449,-114.81635530961054,2510378339
fw,-86.1807403564453,-66.7687301635742,78.34652680278069,-101.81421467110923,2510395006
fw,-84.8626403808593,-65.3684387207031,78.4790125632107,-88.14251857273403,2510411673
fw,-83.5378952026367,-64.0707702636718,80.81274531967928,-73.53411118365335,2510428340
fw,-82.1038284301757,-62.860553741455,85.12672557939209,-57.75394872014332,2510445007
fw,-80.4905014038086,-61.8835716247558,90.80495133663892,-40.87050890015535,2510461674
fw,-78.7512893676757,-61.2840423583984,97.01810863857315,-23.458269754630926,2510478341
fw,-76.9346694946289,-61.1178855895996,102.91057128260564,-6.634324459924742,2510495008
fw,-75.1538391113281,-61.371654510498,107.72893260826612,8.111998356719276,2510511675
fw,-73.4794540405273,-61.8723640441894,110.86492443649922,19.259578360044724,2510528342
fw,-71.7921752929687,-62.7249755859375,111.82890095654298,25.663072237212724,2510545009
fw,-69.9905776977539,-63.4629478454589,110.19792228562471,26.897526666207987,2510561676
fw,-68.0725402832031,-64.0444717407226,105.58145021004026,23.430480978540302,2510578343
fw,-66.3033142089843,-64.6660995483398,97.62259236976277,16.569475590302666,2510595010
fw,-64.8517074584961,-65.0422134399414,86.02524442897273,8.201011472125334,2510611677
fw,-63.7803611755371,-64.9157791137695,70.5888147523887,0.38945076848330284,2510628344
fw,-63.0389595031738,-64.5673675537109,51.2450654265811,-5.066540626220531,2510645011
fw,-62.6889381408691,-64.432144165039,28.10854030652934,-7.010752500017616,2510661678
fw,-62.6867408752441,-64.4222412109375,1.5528154726220025,-5.138561072922385,2510678345
fw,-62.9102096557617,-64.6008911132812,-27.6966826700723,0.022866087044989027,2510695012
fw,-63.4622192382812,-65.7990188598632,-58.49448714209127,7.355755064247941,2510711679
fw,-64.7856979370117,-66.5410614013671,-89.29185892122408,15.531606542336435,2510728346
fw,-66.8242111206054,-67.063117980957,-118.2831309546993,23.399612247103978,2510745013
fw,-69.3643722534179,-68.026626586914,-143.6730919183972,30.259702803872226,2510761680
fw,-72.2768173217773,-69.265998840332,-163.99319851517956,35.95215001835943,2510778347
fw,-75.141975402832,-70.4542388916015,-178.36095833317077,40.767515864870006,2510795014
fw,-77.8989486694336,-71.601577758789,-186.596868155183,45.237021994038805,2510811681
fw,-80.6931457519531,-72.7896423339843,-189.17499074942498,49.891990141637464,2510828348
fw,-83.4862060546875,-74.1035385131836,-187.04886478357938,55.077411794688864,2510845015
fw,-86.1081161499023,-75.5691375732421,-181.4271341530014,60.86903860451246,2510861682
fw,-87.6096801757812,-77.1798706054687,-173.56218941676886,67.09232769126294,2510878349
fw,-86.3950576782226,-78.8164443969726,-164.57910462015582,73.40363192005225,2510895016
fw,-84.064224243164,-80.4379348754882,-155.3408692307844,79.38715586844722,2510911683
fw,-81.6942825317382,-81.9627380371093,-146.33793851790145,84.6402533140076,2510928350
fw,-79.4656753540039,-83.506591796875,-137.6051385001669,88.8437391574634,2510945017
fw,-77.4266204833984,-85.1898117065429,-128.6929879379468,91.82308702421905,2510961684
fw,-75.612678527832,-87.0140380859375,-118.73531344622366,93.595150731561,2510978351
fw,-73.9689407348632,-88.8760375976562,-106.64639743488107,94.37577721592304,2510995018
fw,-72.4198989868164,-90.0,-91.44431372213971,94.51827569820877,2511011685
fw,-70.8872299194336,-88.187385559082,-72.64067261992567,94.37555898833511,2511028352
fw,-69.5593185424804,-86.8090515136718,-50.58159736617429,94.12241835855598,2511045019
fw,-68.6880798339843,-85.3976821899414,-26.600321360635206,93.61125237280382,2511061686
fw,-68.6616897583007,-83.8133163452148,-2.875301073496333,92.33588246145018,2511078353
fw,-69.2840118408203,-82.0198745727539,18.01689591842646,89.53563500565217,2511095020
fw,-70.4600448608398,-80.1901931762695,33.740550153209924,84.40577175547114,2511111687
fw,-71.8106079101562,-78.6100997924804,42.82505039166684,76.32767630133881,2511128354
fw,-72.5772552490234,-77.4701385498046,45.058666129457215,65.02405082993243,2511145021
fw,-73.2076110839843,-76.7677993774414,41.52263187338323,50.585806172480375,2511161688
fw,-74.1101531982421,-76.4791870117187,34.27576376521759,33.38364523022378,2511178355
fw,-74.3383560180664,-76.4100952148437,25.818248157903355,13.9299660975292,2511195022
fw,-74.0257797241211,-76.4533386230468,18.51172599138542,-7.232473806288033,2511211689
fw,-74.081787109375,-76.7863159179687,14.116526943607527,-29.57068978786534,2511228356
fw,-74.5543060302734,-77.6891021728515,13.551736440848106,-52.53557009665642,2511245023
fw,-74.9389953613281,-78.9221572875976,16.903181451567875,-75.50984088605816,2511261690
fw,-75.7630310058593,-80.6124496459961,23.61776577774291,-97.77357569081627,2511278357
fw,-76.4044342041015,-82.7717819213867,32.76917054374258,-118.5113305088081,2511295024
fw,-76.9518737792968,-84.683235168457,43.288051798446595,-136.8601863431787,2511311691
fw,-77.8844985961914,-85.5220642089843,54.10788992874988,-151.98298567670844,2511328358
fw,-79.161262512207,-85.160415649414,64.2432806158778,-163.15178056023635,2511345025
fw,-80.6751937866211,-83.8806076049804,72.84951622285703,-169.83574194814886,2511361692
fw,-82.2962799072265,-81.9171676635742,79.29927661857998,-171.78968460187377,2511378359
fw,-83.8678741455078,-79.4800109863281,83.27529660849378,-169.12701289498904,2511395026
fw,-85.3985748291015,-76.7787170410156,84.8470216173083,-162.34547680102506,2511411693
fw,-87.0276412963867,-74.0706405639648,84.49041249002747,-152.27285460680625,2511428360
fw,-88.8005752563476,-71.5873947143554,83.02209442417845,-139.92036465399704,2511445027
fw,-90.0,-69.3919525146484,81.44374752543642,-126.2689764280819,2511461694
fw,-88.0538864135742,-67.5106735229492,80.72262201061913,-112.05213961799687,2511478361
fw,-86.544075012207,-65.9220733642578,81.56187945805385,-97.61692258555608,2511495028
fw,-85.1626434326171,-64.4854736328125,84.2290562710426,-82.92885261080065,2511511695
fw,-83.6445159912109,-63.0820426940918,88.5008929178421,-67.73488974965906,2511528362
fw,-81.91748046875,-61.8020935058593,93.74535385413216,-51.83285913700627,2511545029
fw,-80.1117706298828,-60.8328971862793,99.1097212183395,-35.34342150272666,2511561696
fw,-78.256118774414,-60.2665176391601,103.74255779147639,-18.86891118393962,2511578363
fw,-76.4093475341796,-60.1889038085937,106.96962452411914,-3.462345136374792,2511595030
fw,-74.682746887207,-60.6042213439941,108.37258922076497,9.594529086874672,2511611697
fw,-73.0668640136718,-61.201732635498,107.76680211032733,19.12692554413482,2511628364
fw,-71.4493637084961,-61.7403602600097,105.1149894491621,24.395636243799537,2511645031
fw,-69.695068359375,-62.0975189208984,100.42817874625007,25.309762647336903,2511661698
fw,-67.8639755249023,-62.665225982666,93.68991034801924,22.471345603441634,2511678365
fw,-66.3026428222656,-63.3282432556152,84.81055825608253,17.06255499173634,2511695032
fw,-65.2385330200195,-63.6894035339355,73.60183768671516,10.619906195910072,2511711699
fw,-64.5450897216796,-63.6156730651855,59.77230942135437,4.743739737928605,2511728366
fw,-64.038703918457,-63.4908905029296,42.96903800344325,0.7919553019245287,2511745033
fw,-63.6147918701171,-63.3926239013671,22.89564694429274,-0.38019339159213406,2511761700
fw,-63.2624893188476,-63.5083770751953,-0.4966945956890916,1.4359417749296575,2511778367
fw,-63.3180274963378,-63.923583984375,-26.805042377816385,5.824653119401643,2511795034
fw,-64.0230712890625,-65.086311340332,-55.05409905583276,11.932586442065874,2511811701
fw,-65.4305343627929,-65.6483688354492,-83.74097650080532,18.75695148127765,2511828368
fw,-67.3906707763671,-66.0918350219726,-111.06101369951281,25.43511794115568,2511845035
fw,-69.8690338134765,-67.0120239257812,-135.24923173914644,31.444563184676724,2511861702
fw,-72.5793228149414,-68.2640686035156,-154.91977967522678,36.667444019566005,2511878369
fw,-75.153335571289,-69.4906311035156,-169.28851129930953,41.324226015792675,2511895036
fw,-77.6624526977539,-70.704231262207,-178.21891979358384,45.81672221753628,2511911703
fw,-80.3024749755859,-71.8740921020507,-182.10980101249953,50.54235415962292,2511928370
fw,-82.9391479492187,-73.1578292846679,-181.70181925815854,55.745919418045844,2511945037
fw,-85.4780578613281,-74.6009216308593,-177.8895365890364,61.45456085082324,2511961704
fw,-87.0417022705078,-76.1537170410156,-171.5886820540587,67.5008383638007,2511978371
fw,-86.3143234252929,-77.7236633300781,-163.65686154249383,73.60058769726602,2511995038
fw,-84.2879333496093,-79.2982482910156,-154.83345067014318,79.43922222614836,2512011705
fw,-82.0356292724609,-80.8583602905273,-145.665981080227,84.73534725416687,2512028372
fw,-79.8191833496093,-82.4566268920898,-136.41800706997498,89.27676993890752,2512045039
fw,-77.7819595336914,-84.1404037475586,-126.98738813400513,92.94012665163841,2512061706
fw,-76.0132675170898,-85.9169235229492,-116.88616107649021,95.70269667367124,2512078373
fw,-74.4684371948242,-87.7439804077148,-105.33324675452705,97.6406281021284,2512095040
fw,-73.024169921875,-89.7405624389648,-91.48441277529557,98.89726668501723,2512111707
fw,-71.5330963134765,-89.0620574951171,-74.77132462557338,99.61100191967311,2512128374
fw,-70.1094970703125,-87.4076919555664,-55.25636470472149,99.81418786732065,2512145041
fw,-68.9922409057617,-85.8568344116211,-33.862167034235306,99.34005673658481,2512161708
fw,-68.7545471191406,-84.2285385131836,-12.342171149687342,97.78489785581858,2512178375
fw,-69.2937622070312,-82.4443054199218,7.059779561054842,94.5569516782174,2512195042
fw,-70.2284622192382,-80.6520156860351,22.18183356182442,89.00596070254649,2512211709
fw,-71.3299713134765,-79.0636291503906,31.55576066742416,80.58812502336804,2512228376
fw,-72.0535888671875,-77.8554534912109,34.834940457591344,69.00429250408718,2512245043
fw,-72.6054382324218,-77.0374908447265,32.888598692236094,54.26523877710091,2512261710
fw,-73.3908615112304,-76.5685043334961,27.5457124553218,36.675624421160094,2512278377
fw,-73.705322265625,-76.3648910522461,21.094593628281242,16.763190268948392,2512295044
fw,-73.3564529418945,-76.3805160522461,15.707804805991337,-4.80761408357083,2512311711
fw,-73.1470794677734,-76.6689682006836,12.965441291906027,-27.310000180390478,2512328378
fw,-73.5638885498046,-77.5584259033203,13.607732103326509,-50.01042606106265,2512345045
fw,-74.3022308349609,-78.9894027709961,17.56420459407603,-72.20988892238753,2512361712
fw,-75.1735534667968,-80.5974502563476,24.198921899546356,-93.27196492549645,2512378379
fw,-75.9302749633789,-82.6221389770507,32.63225540494383,-112.63208374687697,2512395046
fw,-76.287612915039,-84.6067886352539,41.99803290550788,-129.7852698675312,2512411713
fw,-77.1677093505859,-85.5809326171875,51.56482484519131,-144.26069023884838,2512428380
fw,-78.3987045288086,-85.1879348754882,60.73688462644874,-155.60223860359034,2512445047
fw,-79.8205947875976,-83.8449554443359,69.00091600213358,-163.3785774840424,2512461714
fw,-81.2858734130859,-81.9242630004882,75.88670532309345,-167.23834147673588,2512478381
fw,-82.748779296875,-79.5586318969726,80.98331333463756,-167.0041129605665,2512495048
fw,-84.2437133789062,-76.96826171875,84.01916375831894,-162.77052260174858,2512511715
fw,-85.9323501586914,-74.3474960327148,84.98108078717192,-154.95471893710507,2512528382
fw,-87.7591171264648,-71.8051300048828,84.21848967081108,-144.25534054050556,2512545049
fw,-90.0,-69.45654296875,82.46665019960432,-131.51016801681388,2512561716
fw,-88.8939437866211,-67.4078521728515,80.74091437211065,-117.49060600075309,2512578383
fw,-87.2732315063476,-65.7226333618164,80.10411135928622,-102.71174904733243,2512595050
fw,-85.9185562133789,-64.2984237670898,81.37162384899958,-87.34768505273784,2512611717
fw,-84.5949554443359,-62.9819793701171,84.86004150506105,-71.31012535774282,2512628384
fw,-83.1289367675781,-61.6799354553222,90.27852190020081,-54.480215023516095,2512645051
fw,-81.4398193359375,-60.5975265502929,96.80575180970058,-37.00526271775556,2512661718
fw,-79.5669326782226,-59.910041809082,103.31747545164932,-19.52349392207515,2512678385
fw,-77.6005783081054,-59.8040237426757,108.67079971374847,-3.192753689479289,2512695052
fw,-75.6947479248046,-60.3042869567871,111.94039521634363,10.523597766868278,2512711719
fw,-74.0134506225586,-61.1680755615234,112.53883819030607,20.25146997540217,2512728386
fw,-72.4192504882812,-61.9693641662597,110.2141603778343,25.133509425720316,2512745053
fw,-70.7185821533203,-62.4504470825195,104.96747486821035,25.1254553122652,2512761720
fw,-68.8407974243164,-63.0022392272949,96.94668791817531,21.060028101769873,2512778387
fw,-67.109504699707,-63.6826972961425,86.34954256729168,14.475209234647055,2512795054
fw,-65.9325714111328,-64.0453338623046,73.33935899692887,7.276267097234757,2512811721
fw,-65.2732620239257,-63.7281188964843,57.972545977896466,1.3234343823566819,2512828388
fw,-64.9336853027343,-63.4409141540527,40.16173688098355,-1.963648225764693,2512845055
fw,-64.7077484130859,-63.5315589904785,19.719982612700168,-1.8916332061395316,2512861722
fw,-64.5610046386718,-63.603717803955,-3.4863612940482267,1.4139510281535967,2512878389
fw,-64.5954284667968,-64.4671478271484,-29.307512689976466,7.144541589607361,2512895056
fw,-65.1738128662109,-65.4580917358398,-57.09701595730415,14.129157358624308,2512911723
fw,-66.5244369506836,-65.968276977539,-85.62834785140731,21.225691079309648,2512928390
fw,-68.4646682739257,-66.7145156860351,-113.20946020061335,27.64664765520512,2512945057
fw,-70.9945831298828,-67.7911682128906,-137.97699808720918,33.1206705057755,2512961724
fw,-73.8169937133789,-68.979751586914,-158.27230538277516,37.86302728048157,2512978391
fw,-76.5674743652343,-70.2367782592773,-172.96990328376472,42.395143476140554,2512995058
fw,-79.3190536499023,-71.4657897949218,-181.65745951426865,47.293326085198956,2513011725
fw,-82.1236877441406,-72.7095565795898,-184.63357231877566,52.95726480697268,2513028392
fw,-84.8617630004882,-74.1561050415039,-182.75757773566485,59.4714148373284,2513045059
fw,-87.262336730957,-75.766975402832,-177.22184530109317,66.59169210923967,2513061726
fw,-87.6146850585937,-77.4935226440429,-169.31379708129538,73.84079295502113,2513078393
fw,-85.5944213867187,-79.241096496582,-160.20772727418915,80.65956831967681,2513095060
fw,-83.2220764160156,-80.9329757690429,-150.7990491626796,86.5543498255468,2513111727
fw,-80.8900604248046,-82.6006088256836,-141.58224849484392,91.19871945196488,2513128394
fw,-78.7110290527343,-84.2806320190429,-132.58034128374825,94.47628930728806,2513145061
fw,-76.7336807250976,-85.9870223999023,-123.34730360986889,96.47110323530188,2513161728
fw,-74.9757919311523,-87.7086868286132,-113.0710933590015,97.4175048856269,2513178395
fw,-73.3988342285156,-89.2582244873046,-100.79268730454372,97.6174565441425,2513195062
fw,-71.9001770019531,-88.7167129516601,-85.72286441534784,97.33195472427619,2513211729
fw,-70.4681854248046,-87.2919540405273,-67.59015025164328,96.66228658985474,2513228396
fw,-69.1372756958007,-85.9098815917968,-46.909055045331854,95.45351675877042,2513245063
fw,-68.3652954101562,-84.4502334594726,-25.04550280642777,93.26314746513907,2513261730
fw,-68.427734375,-82.8130493164062,-4.001494824374595,89.42696402655186,2513278397
fw,-69.3749771118164,-81.1127014160156,14.055679879092864,83.2181585340358,2513295064
fw,-70.4980316162109,-79.5739288330078,27.37409472165329,74.05094593452183,2513311731
fw,-71.1679458618164,-78.3627395629882,35.09539313245779,61.65353948464321,2513328398
fw,-71.7063903808593,-77.624038696289,37.45599513975257,46.14619579570838,2513345065
fw,-72.6274108886718,-77.3155364990234,35.660557123470845,28.002992420589514,2513361732
fw,-73.1293792724609,-77.3332138061523,31.507707776837147,7.926110531469328,2513378399
fw,-73.1056594848632,-77.5525283813476,26.917309040929503,-13.308435207586834,2513395066
fw,-73.1847915649414,-78.0717391967773,23.5095549356271,-34.976574872740805,2513411733
fw,-73.8481674194336,-79.1208038330078,22.345578382141348,-56.471965635540414,2513428400
fw,-74.5427169799804,-80.4231185913086,23.871197314602203,-77.31004853341943,2513445067
fw,-75.4857711791992,-81.9885025024414,28.024262206054047,-97.08857920402443,2513461734
fw,-76.0652389526367,-83.9310150146484,34.40971503937091,-115.43037197608662,2513478401
fw,-76.4194564819336,-85.3074798583984,42.449416565025075,-131.93186095760254,2513495068
fw,-77.3765335083007,-85.1030731201171,51.46699200221533,-146.1336432835624,2513511735
fw,-78.6487045288086,-83.8516540527343,60.72569304015622,-157.52286881151502,2513528402
fw,-80.1060638427734,-82.0879592895507,69.4612462221326,-165.5738452346022,2513545069
fw,-81.5834274291992,-79.9440994262695,76.9406250560888,-169.82540576440317,2513561736
fw,-83.0575408935546,-77.5483322143554,82.55447438628484,-169.97766378386868,2513578403
fw,-84.5569152832031,-74.9993591308593,85.93128004846595,-165.97617367086247,2513595070
fw,-86.2511138916015,-72.4543914794921,87.04573414269353,-158.05060145378627,2513611737
fw,-88.0748138427734,-70.0366973876953,86.28138558444512,-146.68952729882184,2513628404
fw,-90.0,-67.7867355346679,84.40603582938226,-132.5553087738357,2513645071
fw,-88.5719375610351,-65.8247299194336,82.43726630822623,-116.36448020362367,2513661738
fw,-87.0144348144531,-64.213752746582,81.4146971790825,-98.77414116568185,2513678405
fw,-85.6915664672851,-62.8941650390625,82.1388681767944,-80.3187047348377,2513695072
fw,-84.3843765258789,-61.8279190063476,84.96014113574759,-61.429312262848164,2513711739
fw,-82.8920135498046,-60.9646568298339,89.68872130366017,-42.53725669591963,2513728406
fw,-81.2144165039062,-60.2076416015625,95.65151202897664,-24.218971046319847,2513745073
fw,-79.3791046142578,-59.7131958007812,101.86496481252901,-7.302879903550064,2513761740
fw,-77.5052947998046,-59.9162712097168,107.25450986988776,7.145936628300237,2513778407
fw,-75.7016448974609,-60.5644416809082,110.84853512681143,18.00262533446972,2513795074
fw,-74.0254974365234,-61.5434494018554,111.90416496785791,24.38017734981759,2513811741
fw,-72.3248062133789,-62.3283805847168,109.96126109943795,25.936355430598535,2513828408
fw,-70.4419479370117,-62.7392501831054,104.84456273857133,23.06467296979707,2513845075
fw,-68.4687576293945,-63.1889343261718,96.629753801461,16.895735209477134,2513861742
fw,-66.8100662231445,-63.8174514770507,85.57011628283207,9.111832435803898,2513878409
fw,-65.7655868530273,-63.9495391845703,71.9758118768755,1.6287136564809683,2513895076
fw,-65.2455062866211,-63.6016311645507,56.06624404527611,-3.7864135507904746,2513911743
fw,-65.0033645629882,-63.3351440429687,37.8604658936619,-5.884386274762979,2513928410
fw,-64.8176956176757,-63.2244033813476,17.187455043033903,-4.200848209393994,2513945077
fw,-64.5727081298828,-63.3167572021484,-6.144052320910577,0.8676886617557767,2513961744
fw,-64.5446090698242,-64.3552551269531,-32.06372636900874,8.22166408758372,2513978411
fw,-65.1924209594726,-65.3925552368164,-59.97193032946384,16.413036003770507,2513995078
fw,-66.5761032104492,-65.9699478149414,-88.62733058482985,24.08207803855399,2514011745
fw,-68.6166763305664,-66.8414916992187,-116.26797463937137,30.3310189600844,2514028412
fw,-71.1324615478515,-67.8262557983398,-140.93880102689246,34.92081783589051,2514045079
fw,-73.9117355346679,-68.9360809326171,-160.91003639200628,38.24789262991526,2514061746
fw,-76.6203079223632,-70.0758819580078,-175.04083990970943,41.13014422698876,2514078413
fw,-79.3779602050781,-71.1662826538086,-182.97606508818012,44.48561569792817,2514095080
fw,-82.0485534667968,-72.2367095947265,-185.13613818485015,49.01449086903159,2514111747
fw,-84.5877838134765,-73.5139236450195,-182.53393908050538,54.98747964121729,2514128414
fw,-86.5824127197265,-75.0293197631836,-176.49804717774643,62.19882369155613,2514145081
fw,-86.7640228271484,-76.6863632202148,-168.38739708341336,70.07618136529581,2514161748
fw,-85.1545944213867,-78.3967361450195,-159.35716490335648,77.88323842780738,2514178415
fw,-82.9432296752929,-80.0936508178711,-150.20027242211455,84.93044726950363,2514195082
fw,-80.6174926757812,-81.72412109375,-141.2627354247079,90.72834122850865,2514211749
fw,-78.4437255859375,-83.4182586669921,-132.42335062681562,95.05671896989975,2514228416
fw,-76.5237197875976,-85.1690826416015,-123.13690116621879,97.95613541381297,2514245083
fw,-74.8299789428711,-86.9657821655273,-112.55456392448326,99.66205227958561,2514261750
fw,-73.3501358032226,-88.7457046508789,-99.73900856230753,100.50057764888308,2514278417
fw,-72.039321899414,-89.7405624389648,-83.96978900769393,100.76164091038427,2514295084
fw,-70.6637115478515,-88.0537872314453,-65.08554002439736,100.57071303487842,2514311751
fw,-69.2398834228515,-86.5262756347656,-43.75256674623173,99.79146793967529,2514328418
fw,-68.361083984375,-84.9790954589843,-21.522051105173265,97.99686942001092,2514345085
fw,-68.7040328979492,-83.2616348266601,-0.5799786934806677,94.5331116369032,2514361752
fw,-69.9054870605468,-81.4462127685546,16.7856421430454,88.66840974381456,2514378419
fw,-70.9225006103515,-79.8231430053711,28.828906199818157,79.78098717712338,2514395086
fw,-71.3786392211914,-78.6225509643554,34.85350040846247,67.52091811161382,2514411753
fw,-72.0781631469726,-77.8484268188476,35.391078651215544,51.89370431841617,2514428420
fw,-72.9183349609375,-77.395393371582,32.00859436507855,33.251710056339796,2514445087
fw,-73.1311492919921,-77.225715637207,26.84745599109957,12.217234519633212,2514461754
fw,-72.9277725219726,-77.3354568481445,22.06921292154228,-10.42334770541478,2514478421
fw,-72.9786834716796,-77.8322296142578,19.383153757084667,-33.822416406457485,2514495088
fw,-73.7195053100586,-78.9100646972656,19.782001455412765,-57.15476672277931,2514511755
fw,-74.5721359252929,-80.3155975341796,23.52273208017364,-79.67631128150117,2514528422
fw,-75.5033569335937,-82.037727355957,30.28799781480892,-100.75509129287317,2514545089
fw,-76.0240631103515,-84.0665435791015,39.40496132272235,-119.87385670747247,2514561756
fw,-76.6852493286132,-85.4954223632812,50.017285139059915,-136.60824716719605,2514578423
fw,-77.7817611694336,-85.3605880737304,61.178012457400186,-150.591340495076,2514595090
fw,-79.2575759887695,-84.0358581542968,71.89738549903971,-161.4819963138164,2514611757
fw,-80.9559097290039,-82.1167373657226,81.20139933116815,-168.95630388479887,2514628424
fw,-82.6017227172851,-79.8201141357421,88.23696169330361,-172.73209071976697,2514645091
fw,-84.2410202026367,-77.3520278930664,92.42235076421862,-172.61800422859287,2514661758
fw,-85.9353408813476,-74.8103485107421,93.60705659745112,-168.56456819880253,2514678425
fw,-87.7116775512695,-72.2376861572265,92.18252486255865,-160.69506371820776,2514695092
fw,-89.3738021850586,-69.7293930053711,89.08156720297018,-149.3055294874826,2514711759
fw,-88.4920806884765,-67.3791961669921,85.62676778585744,-134.8361244999294,2514728426
fw,-86.8575134277343,-65.2716522216796,83.23776153453493,-117.82603128476381,2514745093
fw,-85.4725952148437,-63.4987678527832,83.06812157201632,-98.8707492804057,2514761760
fw,-84.2022552490234,-62.1105995178222,85.68579053085627,-78.60248511835151,2514778427
fw,-82.7682266235351,-61.0693092346191,90.9100095959396,-57.707733578641424,2514795094
fw,-81.0350723266601,-60.2600021362304,97.86511648984495,-36.97829185763945,2514811761
fw,-79.0217971801757,-59.5948486328125,105.22749655608037,-17.36510120858117,2514828428
fw,-76.9094161987304,-59.2630310058593,111.5674423032788,0.019683597299444244,2514845095
fw,-74.9210662841796,-59.6332740783691,115.66125136307933,14.0069683441618,2514861762
fw,-73.1358413696289,-60.4439048767089,116.6811450754383,23.59501756092641,2514878429
fw,-71.4454956054687,-61.5112075805664,114.23765673186345,28.23619110411297,2514895096
fw,-69.6517257690429,-62.1330757141113,108.30958403450232,28.071673107221546,2514911763
fw,-67.7415237426757,-62.8046264648437,99.11917038923563,24.004407283560937,2514928430
fw,-66.0381546020507,-63.5315933227539,86.99483359774993,17.567128135069545,2514945097
fw,-64.9190979003906,-64.0213546752929,72.23982660425455,10.620242446312258,2514961764
fw,-64.3384780883789,-63.7612915039062,55.02355834185622,4.958639428492667,2514978431
fw,-64.0918655395507,-63.1797065734863,35.333490258763824,1.922841623265399,2514995098
fw,-63.9923286437988,-63.3610649108886,13.037001154328271,2.1199023547682776,2515011765
fw,-63.9009971618652,-63.6517753601074,-11.92844030055125,5.349006027111423,2515028432
fw,-63.9978408813476,-64.7306289672851,-39.2889184735983,10.76698181565461,2515045099
fw,-64.6678237915039,-65.864990234375,-68.210627792382,17.23377591609714,2515061766
fw,-66.1204376220703,-66.4878921508789,-97.25028004945392,23.703985036783997,2515078433
fw,-68.2999496459961,-67.2783737182617,-124.54616466885798,29.523461512720377,2515095100
fw,-71.1873092651367,-68.2712860107421,-148.20481691992399,34.5468541136059,2515111767
fw,-74.1639328002929,-69.465461730957,-166.74003206676397,39.07110212527914,2515128434
fw,-76.9079132080078,-70.7961044311523,-179.39281762142852,43.639727845717694,2515145101
fw,-79.5373992919921,-72.0667877197265,-186.21923329254085,48.799455323374595,2515161768
fw,-82.2333526611328,-73.3988342285156,-187.94248245757294,54.89069808375493,2515178435
fw,-84.7857894897461,-74.9238815307617,-185.66117224946345,61.93309009652934,2515195102
fw,-86.6904525756836,-76.5997085571289,-180.53868960322157,69.62991876221191,2515211769
fw,-86.5139541625976,-78.341812133789,-173.5676568362385,77.47146913361166,2515228436
fw,-84.607666015625,-80.1035614013671,-165.4439044951228,84.88528384732794,2515245103
fw,-82.2479248046875,-81.8457565307617,-156.5350203385294,91.37531287732509,2515261770
fw,-79.779426574707,-83.5165328979492,-146.90738934283655,96.6105688428898,2515278437
fw,-77.4399719238281,-85.2201690673828,-136.37932713133736,100.45271199600316,2515295104
fw,-75.4021987915039,-86.9509811401367,-124.58498548019504,102.93440627495174,2515311771
fw,-73.7544708251953,-88.4920806884765,-111.05494530211257,104.2073192115059,2515328438
fw,-72.4700393676757,-88.5951461791992,-95.33547911435357,104.47315151362571,2515345105
fw,-71.3469696044921,-87.2125244140625,-77.16542348122391,103.90476700599937,2515361772
fw,-70.0918884277343,-85.707275390625,-56.69644745591077,102.56734365604787,2515378439
fw,-68.9436645507812,-84.2097930908203,-34.687501326633445,100.36013905638603,2515395106
fw,-68.3214035034179,-82.6295394897461,-12.562487307840817,97.00588882907564,2515411773
fw,-68.7193298339843,-80.9577331542968,7.7634296671029395,92.10465818222923,2515428440
fw,-69.7646026611328,-79.2787399291992,24.29315886669818,85.2414188932484,2515445107
fw,-70.8753356933593,-77.7596588134765,35.47425369709888,76.10654515492412,2515461774
fw,-71.8575820922851,-76.5923385620117,40.64784066939449,64.57714754821284,2515478441
fw,-72.5963439941406,-75.8585968017578,40.248656880504186,50.7261362362768,2515495108
fw,-73.4162826538086,-75.4658966064453,35.69208799889426,34.766034526500526,2515511775
fw,-74.0080184936523,-75.3373184204101,29.005850380968187,16.97081377642383,2515528442
fw,-73.9014282226562,-75.3780517578125,22.34026614305987,-2.372378609476654,2515545109
fw,-73.9119338989257,-75.5556488037109,17.508300244081195,-22.954251191987623,2515561776
fw,-74.3248825073242,-76.0638198852539,15.678805581345443,-44.39045824245387,2515578443
fw,-74.6754989624023,-77.290786743164,17.285076095969362,-66.16681935552839,2515595110
fw,-75.2720718383789,-78.819107055664,22.13036140874566,-87.62291921245732,2515611777
fw,-76.1053619384765,-80.6567306518554,29.604753761081273,-107.98718853327829,2515628444
fw,-76.5598754882812,-82.8065567016601,38.906065136888415,-126.44740484098348,2515645111
fw,-77.4032211303711,-84.3686599731445,49.1874877676637,-142.22880151516216,2515661778
fw,-78.5569686889648,-84.9166641235351,59.61549596070572,-154.66028497843385,2515678445
fw,-79.959976196289,-84.4546890258789,69.37679867411732,-163.22760776294686,2515695112
fw,-81.4467849731445,-83.1521759033203,77.69414574691785,-167.62516161253865,2515711779
fw,-83.0365753173828,-81.2054748535156,83.89305608489133,-167.81276873577974,2515728446
fw,-84.6425552368164,-78.8707885742187,87.52206437763569,-164.0627230413901,2515745113
fw,-86.3206024169921,-76.3141479492187,88.48931474972974,-156.96271336295314,2515761780
fw,-88.0584182739257,-73.7921447753906,87.1547494155153,-147.3398956853615,2515778447
fw,-90.0,-71.4014663696289,84.32009291200986,-136.09632693838512,2515795114
fw,-88.6113967895507,-69.2547912597656,81.09044528922884,-123.98849601860239,2515811781
fw,-87.0185623168945,-67.4488830566406,78.63158007170848,-111.42502746991774,2515828448
fw,-85.6433792114257,-65.9485473632812,77.8942155103656,-98.37396728690415,2515845115
fw,-84.3264007568359,-64.5694580078125,79.39633095678444,-84.4480463134764,2515861782
fw,-82.8943328857421,-63.1531257629394,83.13403826686321,-69.1721330436718,2515878449
fw,-81.2517166137695,-61.7634620666503,88.637764100689,-52.351597144932185,2515895116
fw,-79.4731979370117,-60.8130416870117,95.12992470091481,-34.392925056835814,2515911783
fw,-77.7085266113281,-60.507225036621,101.70567881928321,-16.42203361021876,2515928450
fw,-76.014175415039,-60.7547569274902,107.46830024999375,-0.11833633851803374,2515945117
fw,-74.3707885742187,-61.2751731872558,111.59579488464801,12.696942139947756,2515961784
fw,-72.7169113159179,-62.1087226867675,113.36419897024771,20.574370185798585,2515978451
fw,-70.8849182128906,-62.8439636230468,112.17338513656466,22.86989662635007,2515995118
fw,-68.732437133789,-63.3206024169921,107.60071207547132,19.956834853166253,2516011785
fw,-66.5837860107421,-63.8744735717773,99.46232091920943,13.164948681211817,2516028452
fw,-65.0272521972656,-64.2691955566406,87.82858616665048,4.4864596423957135,2516045119
fw,-64.1545944213867,-64.2587585449218,72.95373280406378,-3.8587772533082214,2516061786
fw,-63.6752052307128,-63.7313156127929,55.139767624334695,-9.894235132214643,2516078453
fw,-63.3595123291015,-63.3760643005371,34.61715157139403,-12.290607896790114,2516095120
fw,-63.0942573547363,-63.4927711486816,11.533968360185852,-10.606198981777887,2516111787
fw,-62.9814910888671,-63.4025077819824,-13.91436316038183,-5.2985563160384395,2516128454
fw,-63.2135848999023,-64.4576797485351,-41.2736399757657,2.493840798972673,2516145121
fw,-64.0831298828125,-65.3767700195312,-69.65796644429889,11.326949035584342,2516161788
fw,-65.6835861206054,-65.6563262939453,-97.72843552130797,19.860771492815726,2516178455
fw,-67.8686141967773,-66.2878189086914,-123.86496500637826,27.17857487084149,2516195122
fw,-70.5438461303711,-67.2447738647461,-146.47826773000475,32.93733123087691,2516211789
fw,-73.2377700805664,-68.3781661987304,-164.3426623205022,37.33687015546535,2516228456
fw,-75.8468704223632,-69.5194931030273,-176.82533912281534,40.94799929855576,2516245123
fw,-78.522720336914,-70.6381378173828,-183.9415741678663,44.46955445733707,2516261790
fw,-81.1885299682617,-71.7914505004882,-186.2441190730613,48.494478873471856,2516278457
fw,-83.7129745483398,-73.1626358032226,-184.61504840059743,53.35326658367693,2516295124
fw,-85.8770675659179,-74.7211761474609,-180.04456996842458,59.06730305025358,2516311791
fw,-86.5750350952148,-76.3353576660156,-173.4578516119627,65.39806523054239,2516328458
fw,-85.2674560546875,-77.8781509399414,-165.61015696830472,71.94633477049607,2516345125
fw,-83.0041732788086,-79.3647766113281,-157.03586153400397,78.2555437761264,2516361792
fw,-80.5376815795898,-80.8580856323242,-148.0220857784752,83.89747221712098,2516378459
fw,-78.2460708618164,-82.462532043457,-138.58539531715687,88.5416282375294,2516395126
fw,-76.2608337402343,-84.2024154663086,-128.45515732762408,92.01256886371765,2516411793
fw,-74.5890426635742,-86.0084991455078,-117.0976716720252,94.32442097164652,2516428460
fw,-73.1838760375976,-87.7427597045898,-103.83076539399602,95.66788932511515,2516445127
fw,-71.7113647460937,-89.2613983154296,-88.05770175761744,96.33056889366358,2516461794
fw,-70.0600814819336,-88.979133605957,-69.5869553465431,96.55960090191738,2516478461
fw,-68.5902786254882,-87.5531997680664,-48.926375274388775,96.4116011406008,2516495128
fw,-67.9293060302734,-86.0586624145507,-27.398645677735516,95.65497065929883,2516511795
fw,-68.1250915527343,-84.4058456420898,-6.966530802259229,93.77775810191322,2516528462
fw,-68.8383255004882,-82.5562362670898,10.221555382634415,90.1114248393944,2516545129
fw,-69.7066268920898,-80.7567367553711,22.417430451263947,84.02691063127972,2516561796
fw,-70.5933990478515,-79.2884368896484,28.772410093060202,75.12346795695548,2516578463
fw,-70.981216430664,-78.2853698730468,29.569767491969827,63.33465263363224,2516595130
fw,-71.5971755981445,-77.5602951049804,26.127277118308378,48.91812813676885,2516611797
fw,-72.4017715454101,-77.1457443237304,20.431966261783057,32.351059113828484,2516628464
fw,-72.3916931152343,-77.0062713623046,14.642358841522988,14.189943988984234,2516645131
fw,-72.0579071044921,-77.0792617797851,10.605688967061303,-5.042567950788584,2516661798
fw,-72.1058197021484,-77.4301300048828,9.515333553716735,-24.905813859168187,2516678465
fw,-72.660888671875,-78.1248245239257,11.788572210950834,-45.02213094593938,2516695132
fw,-73.1179428100586,-79.1647720336914,17.170084980467166,-65.01863652619484,2516711799
fw,-73.857681274414,-80.623550415039,24.982164334376577,-84.4701704712558,2516728466
fw,-74.7369842529296,-82.5795822143554,34.39659285195132,-102.87630238727564,2516745133
fw,-75.1714248657226,-84.8379135131836,44.62158903403811,-119.68342512716023,2516761800
fw,-75.9268722534179,-86.5603713989257,54.96233306278101,-134.33847690428703,2516778467
fw,-77.0824356079101,-86.4072952270507,64.78687051499007,-146.34759710914162,2516795134
fw,-78.5955429077148,-84.7290573120117,73.47411660476557,-155.31777963855833,2516811801
fw,-80.2407531738281,-82.5033645629882,80.4169564432231,-160.97524838989324,2516828468
fw,-81.8517227172851,-80.0662307739257,85.1095006459056,-163.1668407862256,2516845135
fw,-83.4077529907226,-77.5899429321289,87.29365171035246,-161.85338930873033,2516861802
fw,-85.0730361938476,-75.0063858032226,87.10377257904331,-157.1005115832305,2516878469
fw,-86.8166046142578,-72.3707656860351,85.13961143438674,-149.06765293683824,2516895136
fw,-88.7098693847656,-69.8094100952148,82.41486977297257,-137.99336244208473,2516911803
fw,-90.0,-67.5081253051757,80.16746958768287,-124.17657739007335,2516928470
fw,-88.2007141113281,-65.5878448486328,79.56946968982311,-107.96194132388202,2516945137
fw,-86.7917327880859,-64.0372619628906,81.42135696580935,-89.74638108521005,2516961804
fw,-85.3868408203125,-62.7216567993164,85.93266339428365,-70.0223639460596,2516978471
fw,-83.7809219360351,-61.5611038208007,92.66399290744346,-49.452971612489364,2516995138
fw,-81.9616165161132,-60.7434196472168,100.64367121403556,-28.94271372091824,2517011805
fw,-80.0082244873046,-60.3284187316894,108.60611293086411,-9.647152791044187,2517028472
fw,-78.0259933471679,-60.422679901123,115.26232514707496,7.125649063675517,2517045139
fw,-76.0978698730468,-60.9523849487304,119.5204425531736,20.125626757582747,2517061806
fw,-74.2599105834961,-61.7037925720214,120.61386149146385,28.43113336322569,2517078473
fw,-72.3760833740234,-62.4573593139648,118.13844703126618,31.691465617486234,2517095140
fw,-70.3294525146484,-63.117374420166,112.02320421315414,30.259968454452938,2517111807
fw,-68.238410949707,-63.9852180480957,102.45403574061585,25.177464765558717,2517128474
fw,-66.571418762207,-64.7723388671875,89.75494569248173,18.010544111059723,2517145141
fw,-65.6205520629882,-64.8219604492187,74.23393637489309,10.574221213986185,2517161808
fw,-65.2065658569336,-64.5108489990234,56.03377640088412,4.583070128594313,2517178475
fw,-64.966926574707,-64.2221527099609,35.06574201510369,1.3003417294490465,2517195142
fw,-64.7120132446289,-64.2850646972656,11.101104823687509,1.2828343448707487,2517211809
fw,-64.4623565673828,-64.541145324707,-15.971976862782554,4.314362987743944,2517228476
fw,-64.6138610839843,-65.7881469726562,-45.818358450008134,9.562048681679638,2517245143
fw,-65.6683044433593,-66.7043685913086,-77.41092379102822,15.900365134249673,2517261810
fw,-67.4677505493164,-67.1820526123046,-109.01095873573776,22.279702455465213,2517278477
fw,-69.9413299560546,-67.973274230957,-138.41690317973686,28.010648032430385,2517295144
fw,-73.0535430908203,-69.1533279418945,-163.4037613724642,32.88871441850202,2517311811
fw,-76.1390991210937,-70.4218673706054,-182.19615319590167,37.15289776778785,2517328478
fw,-79.137222290039,-71.6908493041992,-193.81508280237537,41.31820798807461,2517345145
fw,-82.0014419555664,-72.8819808959961,-198.2040944863382,45.94599025756652,2517361812
fw,-84.8287277221679,-74.1125793457031,-196.1337070076911,51.426705207689345,2517378479
fw,-87.0640182495117,-75.5025253295898,-188.9548388177393,57.84321732970787,2517395146
fw,-86.9866256713867,-77.065933227539,-178.29496336384685,64.95115605992889,2517411813
fw,-84.9500656127929,-78.7206573486328,-165.77171720303411,72.2667487480836,2517428480
fw,-82.644172668457,-80.4069519042968,-152.76379331464514,79.2152960260744,2517445147
fw,-80.274658203125,-81.9525756835937,-140.2504116883027,85.28278448864258,2517461814
fw,-77.9805450439453,-83.4691314697265,-128.71657706713017,90.12834571677512,2517478481
fw,-75.944953918457,-85.0689468383789,-118.120641896788,93.64032235591708,2517495148
fw,-74.2676315307617,-86.6262893676757,-107.93006455289758,95.93550376657944,2517511815
fw,-72.8931350708007,-87.8593597412109,-97.24360762225272,97.30403134795955,2517528482
fw,-71.6671600341796,-88.0747146606445,-85.01862189246958,98.10215018551955,2517545149
fw,-70.3814697265625,-87.2264633178711,-70.39459738817982,98.60561091802786,2517561816
fw,-69.0450057983398,-86.0255661010742,-53.04903082921001,98.85919540327632,2517578483
fw,-67.8961410522461,-84.6945266723632,-33.465782252954035,98.57740704464678,2517595150
fw,-67.6246719360351,-83.1665496826171,-12.983335857933891,97.14847299201232,2517611817
fw,-68.1785430908203,-81.3916625976562,6.4486270376413275,93.76016046430036,2517628484
fw,-69.0651931762695,-79.5505294799804,22.75631723478103,87.61289795115533,2517645151
fw,-70.2350540161132,-78.0044784545898,34.309509709564374,78.14144864382727,2517661818
fw,-70.9110260009765,-76.9012756347656,40.3656073773762,65.15969804343644,2517678485
fw,-71.6553344726562,-76.2473907470703,41.242101670996554,48.88161442281259,2517695152
fw,-72.5013046264648,-75.9494857788086,38.18522646942047,29.8324201042247,2517711819
fw,-72.9400863647461,-75.8957366943359,33.01166617497942,8.70985664331543,2517728486
fw,-72.9414520263671,-76.0384674072265,27.657724701861294,-13.738595071680608,2517745153
fw,-73.1100082397461,-76.4528579711914,23.773892843858167,-36.786458027137805,2517761820
fw,-73.775405883789,-77.5283126831054,22.467537150879913,-59.75011344202993,2517778487
fw,-74.4935455322265,-78.9439239501953,24.232256571990522,-81.98674723699645,2517795154
fw,-75.3096923828125,-80.5757141113281,29.02728042645335,-102.89035595729862,2517811821
fw,-75.811782836914,-82.5314788818359,36.42135586198049,-121.8930432748573,2517828488
fw,-76.4191055297851,-84.1646118164062,45.72156511147472,-138.4686984434958,2517845155
fw,-77.4012680053711,-84.7934265136718,56.05735708356509,-152.13641817727517,2517861822
fw,-78.7434158325195,-84.362434387207,66.44221464224262,-162.46853501041545,2517878489
fw,-80.3092880249023,-83.0518646240234,75.85491428413653,-169.1147925779263,2517895156
fw,-81.9430541992187,-81.1561813354492,83.36502913518305,-171.85030089203025,2517911823
fw,-83.5398025512695,-78.9112701416015,88.29286122043975,-170.63849094647057,2517928490
fw,-85.121353149414,-76.4548110961914,90.36488298629477,-165.68232409465713,2517945157
fw,-86.8257827758789,-73.8375854492187,89.81377403366616,-157.43094176969504,2517961824
fw,-88.6258468627929,-71.239875793457,87.37803121541839,-146.51942098114725,2517978491
fw,-89.874885559082,-68.8550567626953,84.17720668799659,-133.64327108518586,2517995158
fw,-87.9604873657226,-66.8213500976562,81.47342898517125,-119.40035314460572,2518011825
fw,-86.5859146118164,-65.1615753173828,80.37222030847583,-104.15984513340746,2518028492
fw,-85.3516006469726,-63.7353858947753,81.5494268904827,-88.02452118856576,2518045159
fw,-83.954833984375,-62.3993453979492,85.09445987775757,-70.92651237066922,2518061826
fw,-82.2974319458007,-61.1875953674316,90.5216126605192,-52.84123871722653,2518078493
fw,-80.4522705078125,-60.2269287109375,96.93442617383775,-34.04201061642843,2518095160
fw,-78.5835952758789,-59.6312217712402,103.26832186448154,-15.28100093790202,2518111827
fw,-76.7497177124023,-59.5895271301269,108.51765283363693,2.2051096434002972,2518128494
fw,-75.0018234252929,-60.0929946899414,111.8815606540826,16.90327289170925,2518145161
fw,-73.2962188720703,-60.8072624206543,112.81520942260259,27.395786797855177,2518161828
fw,-71.5303192138671,-61.7364463806152,111.01518056010762,32.772542034441344,2518178495
fw,-69.6099319458007,-62.5356407165527,106.37811417879071,32.93898386547206,2518195162
fw,-67.6087646484375,-63.42085647583,98.9516269194855,28.712175966649802,2518211829
fw,-65.9355773925781,-64.1779403686523,88.86919228842271,21.671274712638514,2518228496
fw,-64.8438491821289,-64.3282623291015,76.25550111004998,13.805433348079555,2518245163
fw,-64.1837844848632,-64.0746231079101,61.11768197442771,7.0582981023152955,2518261830
fw,-63.7756004333496,-63.6437644958496,43.27945886107071,2.8957984664484417,2518278497
fw,-63.4806060791015,-63.7082481384277,22.42877980763169,2.0190220860750983,2518295164
fw,-63.3025360107421,-63.9883766174316,-1.690626111172989,4.302690153226752,2518311831
fw,-63.3191795349121,-64.6267623901367,-28.99193129143112,8.968113219544525,2518328498
fw,-63.7800941467285,-66.0094757080078,-58.78134117667246,14.919891986947297,2518345165
fw,-65.1280822753906,-66.5959396362304,-89.65403896855273,21.120303360217836,2518361832
fw,-67.2326507568359,-67.1101913452148,-119.63177254408625,26.87266092271813,2518378499
fw,-69.9371109008789,-68.0672760009765,-146.52069871386064,31.93876236886137,2518395166
fw,-73.0302429199218,-69.3903121948242,-168.36939376687485,36.49149302152808,2518411833
fw,-76.0042419433593,-70.7450561523437,-183.86519748218333,40.95515426755715,2518428500
fw,-78.8378753662109,-72.0238037109375,-192.54233737478302,45.8000259254962,2518445167
fw,-81.6910171508789,-73.2725296020507,-194.76414450620868,51.354263069580654,2518461834
fw,-84.5228195190429,-74.6218490600586,-191.5320737006151,57.68772788595322,2518478501
fw,-86.8472595214843,-76.1605758666992,-184.21858938218202,64.59990466025859,2518495168
fw,-87.0138473510742,-77.8511505126953,-174.3073076639367,71.70397464774958,2518511835
fw,-85.1778182983398,-79.5911178588867,-163.17894399553415,78.55944633507654,2518528502
fw,-82.9159545898437,-81.2606430053711,-151.94365227541067,84.79127703281671,2518545169
fw,-80.5434799194336,-82.8174438476562,-141.30891683786905,90.15253774127753,2518561836
fw,-78.2831954956054,-84.3781051635742,-131.48317014530636,94.52522884904351,2518578503
fw,-76.3366241455078,-86.0698547363281,-122.13513721546204,97.88381729004594,2518595170
fw,-74.6645278930664,-87.8451461791992,-112.44535760845285,100.25126273879434,2518611837
fw,-73.1543426513671,-89.4134979248046,-101.28706407562544,101.66113447457363,2518628504
fw,-71.6840209960937,-88.4352722167968,-87.5456499519772,102.121048856193,2518645171
fw,-70.1966781616211,-86.8294219970703,-70.52722135039544,101.5697646783243,2518661838
fw,-68.7752609252929,-85.2440414428711,-50.33814146244581,99.83448710732605,2518678505
fw,-67.8658676147461,-83.7044982910156,-28.07945392316592,96.61207207823269,2518695172
fw,-67.8686904907226,-82.1211471557617,-5.731252855305265,91.50051821562143,2518711839
fw,-68.7160949707031,-80.4302444458007,14.289726273131151,84.08810765302579,2518728506
fw,-69.9811935424804,-78.8882293701171,29.772648874354687,74.07547494665135,2518745173
fw,-70.93408203125,-77.7333831787109,39.32781577212861,61.38141041163468,2518761840
fw,-71.7045211791992,-77.0068817138671,42.75243473908094,46.185465282173865,2518778507
fw,-72.6366653442382,-76.6825790405273,41.03427623851121,28.89103122381777,2518795174
fw,-73.37255859375,-76.6677551269531,36.02617145526003,10.032151344883328,2518811841
fw,-73.485595703125,-76.8348693847656,29.929953300983286,-9.829660098297806,2518828508
fw,-73.4582366943359,-77.1832962036132,24.765712433551226,-30.17803296468945,2518845175
fw,-73.894546508789,-77.9867095947265,21.982352230070166,-50.56882151700326,2518861842
fw,-74.7371292114257,-79.3496170043945,22.30017620226638,-70.62101331392796,2518878509
fw,-75.5047607421875,-80.8394317626953,25.77929433537432,-89.98899324528773,2518895176
fw,-76.4751586914062,-82.6649475097656,32.01960847804054,-108.32850317901604,2518911843
fw,-76.9051742553711,-84.4188995361328,40.36913277954127,-125.26256177827103,2518928510
fw,-77.6136703491211,-85.0296478271484,50.05914099511916,-140.35341546384961,2518945177
fw,-78.7782516479492,-84.399055480957,60.25863034595249,-153.09091414280186,2518961844
fw,-80.2813339233398,-83.0907897949218,70.09457437969256,-162.9116992534384,2518978511
fw,-81.8924026489257,-81.2582778930664,78.69339786231596,-169.259555842045,2518995178
fw,-83.5006484985351,-78.9878311157226,85.27414905063208,-171.68043852152087,2519011845
fw,-85.1215515136718,-76.5720138549804,89.28919499850191,-169.92428857034474,2519028512
fw,-86.8215866088867,-74.0693893432617,90.57839911613587,-164.01613740768423,2519045179
fw,-88.6403045654296,-71.54736328125,89.48251214872543,-154.268506927742,2519061846
fw,-90.0,-69.1163864135742,86.85667157935883,-141.22903692575917,2519078513
fw,-87.7385177612304,-66.8651657104492,83.94313515109101,-125.58070401064406,2519095180
fw,-86.09912109375,-64.9270401000976,82.1050198943197,-108.02964660118046,2519111847
fw,-84.8126525878906,-63.3454093933105,82.47848623280288,-89.22271236546032,2519128514
fw,-83.640998840332,-62.0873756408691,85.64652258825585,-69.72920281565463,2519145181
fw,-82.240966796875,-61.0659027099609,91.44698659044748,-50.09730872436655,2519161848
fw,-80.4945297241211,-60.2394065856933,98.98657109998159,-30.959925886010243,2519178515
fw,-78.4698410034179,-59.6089401245117,106.85448327683832,-13.12953152607621,2519195182
fw,-76.3654327392578,-59.4090461730957,113.45474636443547,2.3930877878366066,2519211849
fw,-74.4113311767578,-59.8396492004394,117.34427870772593,14.547801001734019,2519228516
fw,-72.6514816284179,-60.8787422180175,117.48650078939208,22.468937891337035,2519245183
fw,-70.8800964355468,-61.6044464111328,113.3833129063946,25.77480346873863,2519261850
fw,-68.9669036865234,-62.1288986206054,105.0928867502867,24.767114856624328,2519278517
fw,-67.0182571411132,-62.7764282226562,93.15302070244962,20.44902031672822,2519295184
fw,-65.5263977050781,-63.4654159545898,78.41985437049416,14.349780477461085,2519311851
fw,-64.7043151855468,-63.8199005126953,61.83249660179055,8.209968273883918,2519328518
fw,-64.3804473876953,-63.6102828979492,44.145861056537974,3.607470138666504,2519345185
fw,-64.2708587646484,-63.3434944152832,25.717811110127563,1.6129965948924159,2519361852
fw,-64.2688293457031,-63.4332122802734,6.448361817763013,2.5698992632061084,2519378519
fw,-64.323486328125,-63.7452125549316,-14.078808393508247,6.0765922023122885,2519395186
fw,-64.4642944335937,-64.8651885986328,-36.291589574124934,11.190186952297495,2519411853
fw,-65.0345230102539,-66.2753601074218,-60.28228586456051,16.78446391478106,2519428520
fw,-66.2962036132812,-66.9104232788086,-85.566099632015,21.930134226141803,2519445187
fw,-68.1605072021484,-67.4816284179687,-111.04894907458458,26.16066311550303,2519461854
fw,-70.5646286010742,-68.2388229370117,-135.21530301739693,29.546549165409584,2519478521
fw,-73.254150390625,-69.2933349609375,-156.4541901945491,32.58514368481701,2519495188
fw,-75.8553619384765,-70.5132446289062,-173.39561813950544,35.97232870897197,2519511855
fw,-78.6006240844726,-71.7369689941406,-185.1471425591229,40.340964732809375,2519528522
fw,-81.4078292846679,-72.9228286743164,-191.3823258220947,46.04479846664294,2519545189
fw,-84.1725082397461,-74.2701797485351,-192.2997639522298,53.04797938466781,2519561856
fw,-86.4955825805664,-75.8279037475586,-188.5090416954905,60.94719580177151,2519578523
fw,-86.8569564819336,-77.5337371826171,-180.897991074227,69.10709973842032,2519595190
fw,-84.9503097534179,-79.2730484008789,-170.5071461429593,76.84810584153266,2519611857
fw,-82.4919281005859,-80.9372406005859,-158.40634840596982,83.61230871593544,2519628524
fw,-80.0125961303711,-82.4680786132812,-145.55580597340816,89.05590766048603,2519645191
fw,-77.8090133666992,-84.0190963745117,-132.64724477130875,93.05913464542466,2519661858
fw,-75.9821243286132,-85.6564331054687,-119.9528865111381,95.67989272361845,2519678525
fw,-74.4490127563476,-87.3315658569336,-107.24289861874578,97.08660055445146,2519695192
fw,-73.1425704956054,-88.8266372680664,-93.84287253207957,97.49121487184381,2519711859
fw,-71.9109573364257,-88.7527465820312,-78.87321226256552,97.08355393250514,2519728526
fw,-70.5184478759765,-87.3676834106445,-61.640755816013765,95.96147448963669,2519745193
fw,-69.1343536376953,-85.9607620239257,-42.06421724650221,94.06267509430845,2519761860
fw,-68.2151107788086,-84.6129302978515,-20.955757151382116,91.12207818652364,2519778527
fw,-68.3237380981445,-83.15673828125,0.0005141358665566587,86.68673957444354,2519795194
fw,-69.3427505493164,-81.5606918334961,18.620365974751568,80.20590535375726,2519811861
fw,-70.6312789916992,-80.0435333251953,32.828590714933604,71.17959573116639,2519828528
fw,-71.4664230346679,-78.8705825805664,41.27532706887562,59.31440507598972,2519845195
fw,-72.2725753784179,-78.1266555786132,43.72889045887166,44.624898210566634,2519861862
fw,-73.340705871582,-77.7884216308593,41.12355392200623,27.442829389711857,2519878529
fw,-74.1217422485351,-77.7675247192382,35.28143506171898,8.339645873360162,2519895196
fw,-74.2627182006836,-77.9976501464843,28.426655705447214,-11.996762520379834,2519911863
fw,-74.1390914916992,-78.4942550659179,22.6510748272544,-32.880397322440295,2519928530
fw,-74.4495773315429,-79.4670181274414,19.488008457151352,-53.704204711054544,2519945197
fw,-75.1153869628906,-80.8053207397461,19.70374682147087,-73.96299993458341,2519961864
fw,-75.7996978759765,-82.3068313598632,23.32777864027083,-93.22923049703968,2519978531
fw,-76.6901626586914,-84.0607299804687,29.8485602417387,-111.10107372539039,2519995198
fw,-77.2300415039062,-85.2934341430664,38.45630348887018,-127.14845829194148,2520011865
fw,-78.0386199951171,-84.9128875732421,48.23700932457116,-140.8822229564061,2520028532
fw,-79.1795120239257,-83.5167160034179,58.28400183685852,-151.76522370276297,2520045199
fw,-80.5296249389648,-81.7775802612304,67.74951846649532,-159.2726019396322,2520061866
fw,-82.0298156738281,-79.8307495117187,75.88268667061698,-162.99113723394584,2520078533
fw,-83.6115646362304,-77.6753921508789,82.09075512784389,-162.72802683496533,2520095200
fw,-85.1919326782226,-75.313980102539,86.03113015716747,-158.5882050021292,2520111867
fw,-86.8994140625,-72.8725891113281,87.70873113213234,-150.98496793093148,2520128534
fw,-88.7573089599609,-70.4787521362304,87.53119751333637,-140.56899175803488,2520145201
fw,-90.0,-68.2081222534179,86.27395640665974,-128.08754131158068,2520161868
fw,-87.7236785888671,-66.1785354614257,84.93118070762354,-114.21171130429666,2520178535
fw,-86.1422805786132,-64.5254821777343,84.47155348975416,-99.38869771851343,2520195202
fw,-84.8535003662109,-63.2118186950683,85.56448122225181,-83.78035585385456,2520211869
fw,-83.6286163330078,-62.1219635009765,88.37124395253261,-67.3305766578743,2520228536
fw,-82.2054977416992,-61.1138763427734,92.48646989530458,-49.96000181364608,2520245203
fw,-80.4386978149414,-60.2718162536621,97.06276445335277,-31.827927198914338,2520261870
fw,-78.4306182861328,-59.7558898925781,101.0747179839713,-13.553568359602313,2520278537
fw,-76.491340637207,-59.7121849060058,103.61735762454406,3.7175641207563257,2520295204
fw,-74.7802047729492,-60.2859077453613,104.12421326492954,18.46698352859991,2520311871
fw,-73.2869491577148,-61.2197799682617,102.43727613049153,29.151471076600366,2520328538
fw,-71.8394241333007,-62.3340606689453,98.73477148811929,34.633668801581145,2520345205
fw,-70.2682723999023,-63.2558708190918,93.37760059559258,34.54202813041789,2520361872
fw,-68.6495208740234,-63.9266967773437,86.74441369036595,29.435672661515568,2520378539
fw,-67.2212982177734,-64.6076202392578,79.09725088351203,20.728410217288232,2520395206
fw,-66.0563735961914,-65.3134460449218,70.4871584017041,10.406533103562767,2520411873
fw,-65.124771118164,-65.3185653686523,60.69864978404243,0.6191520774166471,2520428540
fw,-64.4003601074218,-64.8069915771484,49.24335804228687,-6.767040663603492,2520445207
fw,-63.9500427246093,-64.4620895385742,35.426616785358476,-10.547439518194741,2520461874
fw,-63.8286094665527,-64.4672775268554,18.50695648690434,-10.389656475270028,2520478541
fw,-63.8239250183105,-64.4047470092773,-2.0581379115381124,-6.804641065043209,2520495208
fw,-63.7686614990234,-65.3060302734375,-26.33016205694809,-0.8876591927054228,2520511875
fw,-64.1291351318359,-66.3755111694336,-53.66415386444691,6.075897280178816,2520528542
fw,-65.347053527832,-66.6598129272461,-82.64681981013574,12.996861584729807,2520545209
fw,-67.3477096557617,-67.2830734252929,-111.26407285130466,19.23377171285331,2520561876
fw,-69.8890533447265,-68.265151977539,-137.273484228156,24.653409041645023,2520578543
fw,-72.6788177490234,-69.3927536010742,-158.6649091245371,29.525618726107634,2520595210
fw,-75.448501586914,-70.4643325805664,-174.05474182447622,34.32512293567738,2520611877
fw,-78.1441268920898,-71.6243743896484,-182.8967226305125,39.520303410786866,2520628544
fw,-80.9417343139648,-72.8836059570312,-185.47717543144606,45.41311231439098,2520645211
fw,-83.7199630737304,-74.2768325805664,-182.74292423755162,52.06560418929198,2520661878
fw,-86.2704925537109,-75.8118438720703,-176.04672262278558,59.31254788716458,2520678545
fw,-87.5700531005859,-77.4217147827148,-166.88379941282912,66.82937306030136,2520695212
fw,-86.3743133544921,-79.0255508422851,-156.6587111061417,74.21464545108037,2520711879
fw,-84.2491302490234,-80.5940780639648,-146.49275499204154,81.05865987534622,2520728546
fw,-81.9923934936523,-82.1141204833984,-137.07258161148155,86.9928965496887,2520745213
fw,-79.8311691284179,-83.7143478393554,-128.54778298302347,91.73184100316314,2520761880
fw,-77.8582916259765,-85.4482650756836,-120.49888525660195,95.11756178672036,2520778547
fw,-76.1382217407226,-87.2892761230468,-112.0067666979613,97.15999688949665,2520795214
fw,-74.662727355957,-89.1495819091796,-101.85053366653663,98.04628177940421,2520811881
fw,-73.2927627563476,-89.1632690429687,-88.83512191110538,98.08886183332473,2520828548
fw,-71.8302688598632,-87.6150131225586,-72.20047514869961,97.6039324084123,2520845215
fw,-70.4257202148437,-86.1763305664062,-52.00405817026222,96.75082708051251,2520861882
fw,-69.419921875,-84.7000274658203,-29.329311557132527,95.39631133457293,2520878549
fw,-69.2662658691406,-83.0539779663086,-6.193098423597856,93.07106175026072,2520895216
fw,-70.1146163940429,-81.2753067016601,14.878079923403792,89.05069057404725,2520911883
fw,-71.1993942260742,-79.5244903564453,31.492650417543658,82.5371376739389,2520928550
fw,-72.2224884033203,-78.0829010009765,42.039454688311764,72.87083807431465,2520945217
fw,-72.9691009521484,-77.1030502319336,46.10509069496425,59.696520997679585,2520961884
fw,-73.9320831298828,-76.5051956176757,44.53192819194462,43.037546782064034,2520978551
fw,-74.807502746582,-76.2478256225586,39.129140253410554,23.28145311170511,2520995218
fw,-75.069839477539,-76.24365234375,32.16242012403901,1.1117778539187368,2521011885
fw,-74.9275436401367,-76.432258605957,25.796598695051408,-22.577468303985164,2521028552
fw,-75.1385498046875,-77.0166702270507,21.655154474306638,-46.76920626452674,2521045219
fw,-76.0584411621093,-78.3808364868164,20.603143523959595,-70.41626061118482,2521061886
fw,-76.7374649047851,-80.1319580078125,22.76790230714866,-92.54277812381964,2521078553
fw,-77.2702941894531,-82.2111206054687,27.722269621254615,-112.33978114717237,2521095220
fw,-77.6616897583007,-84.484878540039,34.71793489954222,-129.22746135985972,2521111887
fw,-78.5233306884765,-86.1134033203125,42.884643317663894,-142.8631265389012,2521128554
fw,-79.6663742065429,-86.2683944702148,51.36669988183594,-153.09646644938226,2521145221
fw,-80.9719543457031,-85.0507049560546,59.407819567788856,-159.89846190871057,2521161888
fw,-82.3118591308593,-83.1124267578125,66.40735944570886,-163.30157629730905,2521178555
fw,-83.5773391723632,-80.7178649902343,71.96689447390598,-163.3785483653086,2521195222
fw,-84.9496078491211,-78.1350021362304,75.93506659058279,-160.2604867374477,2521211889
fw,-86.4071884155273,-75.5206069946289,78.4422930872104,-154.1691584684197,2521228556
fw,-87.8786468505859,-72.9952545166015,79.90023090269193,-145.4293469762854,2521245223
fw,-89.1637344360351,-70.551284790039,80.93682044325918,-134.43905833274624,2521261890
fw,-88.7238998413086,-68.2757568359375,82.25740042745892,-121.600545317518,2521278557
fw,-87.3780364990234,-66.2416915893554,84.46033267887407,-107.24065153923455,2521295224
fw,-85.9805908203125,-64.5597305297851,87.86834287470256,-91.56318993999037,2521311891
fw,-84.4351043701171,-63.2296447753906,92.44027999587352,-74.67238499820724,2521328558
fw,-82.6397171020507,-62.1365280151367,97.79647057905451,-56.6836361154048,2521345225
fw,-80.6770095825195,-61.2275047302246,103.34044035655431,-37.89956581111465,2521361892
fw,-78.7086029052734,-60.4508552551269,108.41802329327523,-18.98589699269854,2521378559
fw,-76.7861175537109,-60.0737838745117,112.44480167650785,-1.053169575474839,2521395226
fw,-74.9113693237304,-60.3939476013183,114.95894560510483,14.438633893712163,2521411893
fw,-73.1891479492187,-61.1288948059082,115.6017814856273,25.972855118124425,2521428560
fw,-71.4311370849609,-62.3415946960449,114.06565394208313,32.39237990300629,2521445227
fw,-69.502326965332,-63.1256141662597,110.05723353116977,33.29018691815307,2521461894
fw,-67.5085144042968,-63.7450485229492,103.3014212782762,29.21885513007155,2521478561
fw,-65.7698287963867,-64.4690017700195,93.57390973596664,21.633690309697617,2521495228
fw,-64.3880538940429,-64.9126739501953,80.72809173345635,12.585178799208991,2521511895
fw,-63.4361686706543,-64.5830078125,64.69302574142431,4.2537137358214245,2521528562
fw,-62.9794616699218,-64.0631332397461,45.4549291848436,-1.5433828243438397,2521545229
fw,-62.791275024414,-64.0133361816406,23.06500526238077,-3.7352674630256377,2521561896
fw,-62.7147789001464,-63.9761161804199,-2.2870041776351373,-2.159969940869362,2521578563
fw,-62.8221626281738,-64.6613311767578,-30.13663159952,2.537010313467862,2521595230
fw,-63.4433670043945,-65.7200241088867,-59.60630820083597,9.217481865829786,2521611897
fw,-64.6848602294921,-66.1287841796875,-89.35665958768254,16.654176803585806,2521628564
fw,-66.6478729248046,-66.7308273315429,-117.69595198473581,23.88055842521553,2521645231
fw,-69.2916870117187,-67.6511077880859,-142.84468620019848,30.387357784260782,2521661898
fw,-72.2346038818359,-68.8153991699218,-163.27271054541157,36.13983662722851,2521678565
fw,-75.0410766601562,-70.1617431640625,-177.9861171569684,41.45095154974666,2521695232
fw,-77.7923355102539,-71.450454711914,-186.66548411929202,46.77575957269471,2521711899
fw,-80.6740188598632,-72.6878128051757,-189.6299502468931,52.49937248724442,2521728566
fw,-83.5128479003906,-74.0558166503906,-187.67623450006852,58.78329066022637,2521745233
fw,-86.1630935668945,-75.5912322998046,-181.87513470525008,65.51154592459575,2521761900
fw,-87.6606674194336,-77.2363815307617,-173.39151243834263,72.34001480188385,2521778567
fw,-86.3818283081054,-78.9317321777343,-163.350675361379,78.8144561340907,2521795234
fw,-84.0641937255859,-80.6174545288086,-152.73605340744734,84.50490809081289,2521811901
fw,-81.6367721557617,-82.2412185668945,-142.29020125729957,89.11237025053462,2521828568
fw,-79.381851196289,-83.8817291259765,-132.40603241585137,92.5263244028627,2521845235
fw,-77.4509963989257,-85.556396484375,-123.02732889467015,94.83096573853076,2521861902
fw,-75.8515625,-87.2156829833984,-113.61023344709923,96.26526670533121,2521878569
fw,-74.4625396728515,-88.6824035644531,-103.21092330552892,97.1415952179239,2521895236
fw,-73.0417709350586,-88.8696212768554,-90.74064006907167,97.73049178030361,2521911903
fw,-71.4048995971679,-87.6463165283203,-75.36248939143607,98.13183021780895,2521928570
fw,-69.7300186157226,-86.2405776977539,-56.9162094294373,98.16996995893405,2521945237
fw,-68.5998229980468,-84.7471542358398,-36.19571413776765,97.35859031673986,2521961904
fw,-68.4933700561523,-83.0621795654296,-14.921865600824336,94.96663172733014,2521978571
fw,-69.0804443359375,-81.1863555908203,4.635050599260701,90.17938149651155,2521995238
fw,-70.1735687255859,-79.4707565307617,20.270689058919164,82.30467766718175,2522011905
fw,-70.8908233642578,-78.1821823120117,30.473175367466258,70.95007125996015,2522028572
fw,-71.527587890625,-77.3450927734375,34.831418108501026,56.1106374737987,2522045239
fw,-72.3148880004882,-76.861587524414,34.09984856166629,38.1514539860649,2522061906
fw,-72.928352355957,-76.6519546508789,29.93589957979442,17.714174129960497,2522078573
fw,-73.0121307373046,-76.6478805541992,24.43189402042297,-4.4035512379282045,2522095240
fw,-72.8756866455078,-76.9690170288086,19.604362618529585,-27.3579192167626,2522111907
fw,-73.1839752197265,-77.8296508789062,16.991668634896175,-50.34341504733054,2522128574
fw,-73.7566146850586,-79.2598342895507,17.456548766869183,-72.65148573765748,2522145241
fw,-74.6859893798828,-80.8292846679687,21.20369134519979,-93.70254411390076,2522161908
fw,-75.5082855224609,-82.8221969604492,27.936613915908904,-113.04621310837948,2522178575
fw,-75.8275756835937,-84.7997131347656,37.04101894179496,-130.32870505550682,2522195242
fw,-76.5857315063476,-85.5621795654296,47.713810957215316,-145.23756536606018,2522211909
fw,-77.7606582641601,-84.68408203125,59.02685777509841,-157.44517256668837,2522228576
fw,-79.1737670898437,-83.0200653076171,69.96789701929293,-166.57813895903334,2522245243
fw,-80.7006454467773,-81.0016479492187,79.50932734848722,-172.23517622404782,2522261910
fw,-82.2932205200195,-78.6457901000976,86.73076954056437,-174.05757187457715,2522278577
fw,-83.9336013793945,-76.0671997070312,90.98703787228766,-171.83062156914755,2522295244
fw,-85.7012176513671,-73.4237518310546,92.08225811406223,-165.575917159034,2522311911
fw,-87.6150894165039,-70.8249282836914,90.38970116624441,-155.59361966819588,2522328578
fw,-90.0,-68.3207550048828,86.8543376205051,-142.43056613672215,2522345245
fw,-88.8699645996093,-66.0683898925781,82.83927141458597,-126.77779677086066,2522361912
fw,-87.2438125610351,-64.2335357666015,79.82713586311897,-109.33149121084189,2522378579
fw,-86.0077133178711,-62.8057899475097,79.0478935348876,-90.67401716087721,2522395246
fw,-84.83642578125,-61.6498832702636,81.14789893677892,-71.23387412971016,2522411913
fw,-83.5027923583984,-60.5724411010742,86.01461233296602,-51.35475869884686,2522428580
fw,-81.873779296875,-59.6777687072753,92.8186380383781,-31.44963801349597,2522445247
fw,-79.9945678710937,-59.2309761047363,100.25132553243935,-12.16164039365583,2522461914
fw,-78.029296875,-59.2590980529785,106.86428762291904,5.565251486301578,2522478581
fw,-76.1629104614257,-59.7547721862793,111.3927827655763,20.56818968759181,2522495248
fw,-74.4279861450195,-60.5221824645996,112.97422680698126,31.6904361054982,2522511915
fw,-72.7455139160156,-61.4023361206054,111.23127897631264,38.070868927008675,2522528582
fw,-70.9335479736328,-62.1684112548828,106.2388169760561,39.39315878238438,2522545249
fw,-69.0102920532226,-62.969741821289,98.4113658635564,36.015612401747106,2522561916
fw,-67.258071899414,-63.9371643066406,88.3367277817221,28.954870614516164,2522578583
fw,-66.058609008789,-64.7140197753906,76.57086530503511,19.736992679134,2522595250
fw,-65.3760375976562,-64.8053970336914,63.42389847222867,10.144781822103655,2522611917
fw,-64.9092636108398,-64.6313934326171,48.802211907054264,1.9002661997042243,2522628584
fw,-64.5258255004882,-64.5820999145507,32.1911057984732,-3.656162313911778,2522645251
fw,-64.2496490478515,-64.3358764648437,12.832042805611383,-5.806671255487851,2522661918
fw,-64.0716552734375,-64.4248123168945,-9.929799451854814,-4.540385116536265,2522678585
fw,-64.0820159912109,-65.3708801269531,-36.23927408851099,-0.44991919453139434,2522695252
fw,-64.7834777832031,-65.947265625,-65.42565208431026,5.523083394853046,2522711919
fw,-66.2834854125976,-66.1994018554687,-95.93525240329144,12.399224631128673,2522728586
fw,-68.4540405273437,-67.0354232788086,-125.55258724878026,19.42236901936082,2522745253
fw,-71.2205429077148,-68.2624130249023,-151.8459859877305,26.197985571574446,2522761920
fw,-74.1174774169921,-69.4366302490234,-172.68764367337076,32.68908398838032,2522778587
fw,-76.9511184692382,-70.5509643554687,-186.6806684002467,39.09553556105314,2522795254
fw,-79.7771530151367,-71.7029037475586,-193.37904846991577,45.676013422282566,2522811921
fw,-82.5202178955078,-72.9694213867187,-193.2753235692387,52.5869298117233,2522828588
fw,-85.047737121582,-74.3821868896484,-187.60665760117894,59.79714616525546,2522845255
fw,-86.6624145507812,-75.9402465820312,-178.06207214168043,67.09485515709409,2522861922
fw,-86.0802383422851,-77.5979385375976,-166.4633143305587,74.15974038156921,2522878589
fw,-84.1538314819336,-79.2683792114257,-154.4634156927744,80.65438945488722,2522895256
fw,-81.9909210205078,-80.8619308471679,-143.28633177248443,86.29838483640185,2522911923
fw,-79.894172668457,-82.4074630737304,-133.52958359411494,90.9119046552331,2522928590
fw,-77.9554672241211,-84.023193359375,-125.0629277008741,94.43409223126409,2522945257
fw,-76.1926498413086,-85.726577758789,-117.06331888277838,96.92443754079362,2522961924
fw,-74.5787582397461,-87.4539337158203,-108.21530645323163,98.54564153303873,2522978591
fw,-73.0654983520507,-88.9713058471679,-97.0710011643601,99.51676045387201,2522995258
fw,-71.5680313110351,-88.8397216796875,-82.51032258256514,100.02938699333414,2523011925
fw,-70.0630874633789,-87.4486389160156,-64.18665962375772,100.14006797729144,2523028592
fw,-68.8431320190429,-85.9844360351562,-42.810385271339555,99.67721621958893,2523045259
fw,-68.3727493286132,-84.4004592895507,-20.14013684706737,98.21133961264744,2523061926
fw,-68.8354873657226,-82.6345443725586,1.3665063327448732,95.12039610224555,2523078593
fw,-69.5970840454101,-80.7997894287109,19.16496341991114,89.74081090359358,2523095260
fw,-70.8402481079101,-79.1135482788086,31.30602515067978,81.55021832967635,2523111927
fw,-71.6387939453125,-77.816665649414,36.95763217625704,70.30810843425168,2523128594
fw,-72.1386337280273,-77.0082168579101,36.596881630214725,56.10067003725136,2523145261
fw,-72.9723663330078,-76.5681228637695,31.833288136802054,39.2859141526065,2523161928
fw,-73.4372634887695,-76.399658203125,24.953619443293675,20.383774606891713,2523178595
fw,-73.3048019409179,-76.3789672851562,18.350395912993292,-0.026679253220859872,2523195262
fw,-73.2541046142578,-76.5290756225586,14.002013913339088,-21.362288876703705,2523211929
fw,-73.5442123413086,-77.1062927246093,13.13405206053263,-43.043562747032546,2523228596
fw,-74.0218963623046,-78.3394012451171,16.12321810401305,-64.48519613232523,2523245263
fw,-74.7799530029296,-79.8137969970703,22.61997585743552,-85.09946507989054,2523261930
fw,-75.5608825683593,-81.6064682006836,31.795420959304888,-104.32103644393858,2523278597
fw,-76.1067733764648,-83.6603393554687,42.59850205860704,-121.6404629989634,2523295264
fw,-77.0994873046875,-84.9375991821289,53.94601997911313,-136.62660695949148,2523311931
fw,-78.3851089477539,-84.7112808227539,64.82864017897737,-148.92598075508542,2523328598
fw,-79.8285751342773,-83.5756301879882,74.36211706240182,-158.24404086580455,2523345265
fw,-81.3553237915039,-81.9657592773437,81.82608268450315,-164.32921248181384,2523361932
fw,-82.9055786132812,-79.9172973632812,86.71994866028716,-166.98111035428366,2523378599
fw,-84.4850234985351,-77.6478729248046,88.84089229032891,-166.08694351697264,2523395266
fw,-86.1652374267578,-75.2429962158203,88.36246030350787,-161.66795650061215,2523411933
fw,-87.9455795288086,-72.8427963256836,85.87247277023506,-153.9073588655948,2523428600
fw,-90.0,-70.4717636108398,82.32590864885204,-143.1381909717245,2523445267
fw,-88.8520965576171,-68.2239837646484,78.89009970054109,-129.78924549954118,2523461934
fw,-87.288345336914,-66.2338638305664,76.70274178323622,-114.31018381478088,2523478601
fw,-85.9481735229492,-64.5980072021484,76.60915845735497,-97.1132389029458,2523495268
fw,-84.6206893920898,-63.3097076416015,78.96680412252732,-78.57011237439838,2523511935
fw,-83.2038116455078,-62.2929306030273,83.58478260394286,-59.08430068645413,2523528602
fw,-81.5752639770507,-61.4519081115722,89.81093875313317,-39.22253709209956,2523545269
fw,-79.7878341674804,-60.7279930114746,96.71776703387363,-19.845637256418446,2523561936
fw,-77.9737548828125,-60.3890838623046,103.30451611425323,-2.1514186760809113,2523578603
fw,-76.2480773925781,-60.7367897033691,108.64389132306255,12.443876600972061,2523595270
fw,-74.6411209106445,-61.5245361328125,111.94851136718164,22.5947721543472,2523611937
fw,-73.0503387451171,-62.4961624145507,112.58446209765276,27.40532058243859,2523628604
fw,-71.2548599243164,-63.0701713562011,110.08316302895382,26.75416862650089,2523645271
fw,-69.1438293457031,-63.5909271240234,104.18203454399418,21.432770489496342,2523661938
fw,-67.0049285888671,-64.1207504272461,94.8738857732062,13.040237091034609,2523678605
fw,-65.4962997436523,-64.4709854125976,82.40603786302295,3.6679709465337056,2523695272
fw,-64.7334899902343,-64.1514511108398,67.183427317419,-4.538289212726869,2523711939
fw,-64.3987197875976,-63.4967803955078,49.59710618031164,-9.832495483389238,2523728606
fw,-64.2580413818359,-63.2163734436035,29.871995464651814,-11.225472964737282,2523745273
fw,-64.0824203491211,-63.2638778686523,8.042577726314159,-8.642025008980092,2523761940
fw,-63.8954315185546,-63.6657981872558,-15.899439269504592,-2.8250968293282286,2523778607
fw,-64.0917816162109,-64.8579406738281,-41.74621060081537,4.977579888941941,2523795274
fw,-64.9858322143554,-65.4661560058593,-68.83953520009852,13.425927661792226,2523811941
fw,-66.5363998413086,-66.0048828125,-95.99432699188725,21.451333139292498,2523828608
fw,-68.6458435058593,-66.8946762084961,-121.63566850180848,28.46394511973905,2523845275
fw,-71.2731323242187,-68.0839157104492,-144.10271032710318,34.374972833799006,2523861942
fw,-73.9660263061523,-69.3334732055664,-162.0012130627232,39.4748805885889,2523878609
fw,-76.6181411743164,-70.6091156005859,-174.4774515164633,44.240101542362986,2523895276
fw,-79.2911758422851,-71.8756561279296,-181.33441883216952,49.140072963589,2523911943
fw,-81.9651794433593,-73.2466659545898,-182.98394436739687,54.49709023335148,2523928610
fw,-84.4656143188476,-74.7615203857421,-180.2857436917601,60.42216406402404,2523945277
fw,-86.4242324829101,-76.3894348144531,-174.34346186094265,66.8197799490213,2523961944
fw,-86.637336730957,-78.0518417358398,-166.3115013668319,73.43552645561235,2523978611
fw,-84.9593505859375,-79.706558227539,-157.2347844572585,79.92023621178342,2523995278
fw,-82.7527313232421,-81.3327941894531,-147.91865113565655,85.89745097647642,2524011945
fw,-80.4904708862304,-82.9568328857421,-138.8213101287525,91.0333903680236,2524028612
fw,-78.3670120239257,-84.7134628295898,-129.97584832747336,95.10823466252873,2524045279
fw,-76.5220031738281,-86.5809783935546,-120.96983243842115,98.07420964126821,2524061946
fw,-74.9236755371093,-88.4279098510742,-111.0217657736866,100.07141138810653,2524078613
fw,-73.4689865112304,-89.6779632568359,-99.18276601991077,101.37257754566868,2524095280
fw,-72.0120544433593,-88.1691207885742,-84.65371548589664,102.25193230618913,2524111947
fw,-70.4680023193359,-86.6743392944336,-67.14974263063755,102.81328133582666,2524128614
fw,-69.1141662597656,-85.1441268920898,-47.18915130816518,102.84644765850335,2524145281
fw,-68.4026107788086,-83.4388732910156,-26.168949931902883,101.78517601101633,2524161948
fw,-68.5651626586914,-81.5199203491211,-6.141840728186703,98.80438578514678,2524178615
fw,-69.2213058471679,-79.5818786621093,10.677265618006869,93.0335355375643,2524195282
fw,-70.107551574707,-77.8918838500976,22.52422210859306,83.80743950522775,2524211949
fw,-71.0780334472656,-76.5724182128906,28.601684291870473,70.8577851113073,2524228616
fw,-71.5505599975586,-75.7516860961914,29.312549070987373,54.37826687288704,2524245283
fw,-72.1317749023437,-75.3600234985351,26.136750205086273,34.95551127218584,2524261950
fw,-72.6090011596679,-75.2991104125976,21.211263813987966,13.41324796885011,2524278617
fw,-72.4012680053711,-75.4960250854492,16.76684988328449,-9.35859570888536,2524295284
fw,-72.1523361206054,-75.9353561401367,14.601724836518594,-32.531259611830954,2524311951
fw,-72.651008605957,-76.7726364135742,15.740923155810187,-55.397764710266706,2524328618
fw,-73.4291534423828,-78.1961975097656,20.355580558780535,-77.37703536638837,2524345285
fw,-74.2505874633789,-79.869384765625,27.91792685930323,-97.98653561161426,2524361952
fw,-75.1024475097656,-81.876480102539,37.486743287406505,-116.80492891221297,2524378619
fw,-75.7671585083007,-83.871223449707,47.996440466075335,-133.4364924195544,2524395286
fw,-76.7983474731445,-84.8324432373046,58.461763207882925,-147.48327584508448,2524411953
fw,-78.1640472412109,-84.5387954711914,68.07282895704473,-158.53221053627237,2524428620
fw,-79.7038269042968,-83.3667068481445,76.20632392072693,-166.16885360817494,2524445287
fw,-81.2262878417968,-81.6573638916015,82.40439713227201,-170.02828356919662,2524461954
fw,-82.7466354370117,-79.5091323852539,86.37288107474066,-169.87980338606116,2524478621
fw,-84.3271179199218,-77.0978164672851,88.0274402829236,-165.72029315104334,2524495288
fw,-86.026008605957,-74.5783081054687,87.5768021900963,-157.83583327731805,2524511955
fw,-87.8103713989257,-72.0852661132812,85.59287230191781,-146.79444166990578,2524528622
fw,-89.826416015625,-69.6791687011718,83.00089225556766,-133.35570137036785,2524545289
fw,-88.7283554077148,-67.5063552856445,80.94399034677176,-118.31731541372567,2524561956
fw,-87.2524185180664,-65.7026290893554,80.53065758429504,-102.3505249913903,2524578623
fw,-85.9564971923828,-64.2500991821289,82.53515931570176,-85.89146108542154,2524595290
fw,-84.5994567871093,-63.031322479248,87.15593759827856,-69.1432828722147,2524611957
fw,-83.0212707519531,-61.9270591735839,93.92371906535732,-52.20266831483475,2524628624
fw,-81.2188186645507,-60.9229393005371,101.79409741253731,-35.26572228980141,2524645291
fw,-79.2061920166015,-60.1785011291503,109.38869863705716,-18.81819263294745,2524661958
fw,-77.1674499511718,-59.9680976867675,115.30031153304334,-3.7033038099294493,2524678625
fw,-75.2313385009765,-60.3789329528808,118.36998105689385,8.995099235747102,2524695292
fw,-73.3545913696289,-60.9956321716308,117.87268276887922,18.229603589951715,2524711959
fw,-71.4561767578125,-61.73876953125,113.58988275210616,23.318869444481276,2524728626
fw,-69.583740234375,-62.2813682556152,105.77762485059077,24.19457750991001,2524745293
fw,-67.7862167358398,-62.8242378234863,95.0482116565405,21.474785579621642,2524761960
fw,-66.2675704956054,-63.5131797790527,82.18252121205441,16.35387315134689,2524778627
fw,-65.2611389160156,-64.1462173461914,67.89754527340592,10.360022426672039,2524795294
fw,-64.7083511352539,-64.0544128417968,52.61810378350672,5.046931105377058,2524811961
fw,-64.4375839233398,-63.7675552368164,36.329083262338706,1.682346406048144,2524828628
fw,-64.2975463867187,-63.888614654541,18.586388420537066,1.0017299857264828,2524845295
fw,-64.1082916259765,-64.1156387329101,-1.2792079138006127,3.0986818051914615,2524861962
fw,-64.0280685424804,-64.7404251098632,-23.81174117362143,7.492857811990458,2524878629
fw,-64.3955993652343,-65.9996490478515,-49.057526416490276,13.351903145116257,2524895296
fw,-65.4142150878906,-66.5559768676757,-76.32310345677435,19.783209832090485,2524911963
fw,-67.104377746582,-67.0910110473632,-104.17255047354975,26.090318495335655,2524928630
fw,-69.5164184570312,-67.9658279418945,-130.6753678852438,31.916899999345524,2524945297
fw,-72.3471145629882,-69.0952758789062,-153.8136973128015,37.256591452417474,2524961964
fw,-75.0580673217773,-70.3566284179687,-171.90162494564234,42.354928951382576,2524978631
fw,-77.7586135864257,-71.6556625366211,-183.8845924996623,47.55326792785921,2524995298
fw,-80.604995727539,-72.9019699096679,-189.45760379806174,53.129825805451375,2525011965
fw,-83.4358673095703,-74.2329177856445,-189.01996990917743,59.18706910516556,2525028632
fw,-86.0021743774414,-75.7639236450195,-183.52769135242318,65.6162466732416,2525045299
fw,-87.3459091186523,-77.4027709960937,-174.30170628864317,72.14004280814726,2525061966
fw,-86.1237411499023,-79.1080169677734,-162.8224502022863,78.40499942406596,2525078633
fw,-83.9961929321289,-80.8342819213867,-150.51720982903038,84.08187913136975,2525095300
fw,-81.7591171264648,-82.4339752197265,-138.54342351399046,88.93971451120503,2525111967
fw,-79.6421585083007,-84.0329055786132,-127.58775391493955,92.87915142152929,2525128634
fw,-77.7536010742187,-85.6760940551757,-117.7240697196803,95.92859580896506,2525145301
fw,-76.135269165039,-87.3015899658203,-108.38748167372258,98.2132180601125,2525161968
fw,-74.7312698364257,-88.5940322875976,-98.5143630189959,99.90292926195572,2525178635
fw,-73.3131103515625,-88.3542022705078,-86.86216868278065,101.14089556459876,2525195302
fw,-71.7393188476562,-87.0458679199218,-72.45778664985787,101.95893175532146,2525211969
fw,-70.1848831176757,-85.5726547241211,-55.04702076611476,102.20002879592197,2525228636
fw,-69.1612854003906,-84.0078582763671,-35.37082852024842,101.48006523915086,2525245303
fw,-68.919563293457,-82.3245315551757,-15.120740993751479,99.21724119923347,2525261970
fw,-69.5873794555664,-80.5250625610351,3.4610974934906227,94.7347511424349,2525278637
fw,-70.4885940551757,-78.8297500610351,18.217334348438865,87.40928804052578,2525295304
fw,-71.2907638549804,-77.3768157958984,27.714217331729184,76.81392847273796,2525311971
fw,-71.695442199707,-76.3001632690429,31.648826237017445,62.804641497432826,2525328638
fw,-72.5025024414062,-75.6828842163086,30.894793118763797,45.52661228479382,2525345305
fw,-73.034065246582,-75.4091415405273,27.20266858770526,25.355081793735234,2525361972
fw,-72.9425048828125,-75.4313583374023,22.6838344816943,2.8135086889067935,2525378639
fw,-72.6939620971679,-75.7299652099609,19.25729844149974,-21.48597512038135,2525395306
fw,-73.0658493041992,-76.4506454467773,18.232620771882264,-46.85751044788209,2525411973
fw,-73.760139465332,-77.7597579956054,20.142521041566944,-72.5206660915032,2525428640
fw,-74.6715316772461,-79.2217483520507,24.833717155424992,-97.5742000841981,2525445307
fw,-75.7058410644531,-81.053352355957,31.718733318825397,-120.9996888379814,2525461974
fw,-76.1721038818359,-83.2123336791992,40.04560212926751,-141.7196391882624,2525478641
fw,-76.8154525756836,-84.5534591674804,49.07830015202511,-158.7109084846143,2525495308
fw,-77.8840408325195,-84.1824340820312,58.16171228711911,-171.14536736282045,2525511975
fw,-79.3172836303711,-82.7723007202148,66.71146830277976,-178.51345798061783,2525528642
fw,-80.9026412963867,-80.9121780395507,74.18876096597009,-180.69463793879467,2525545309
fw,-82.3936233520507,-78.7288665771484,80.1039699493751,-177.96261208087972,2525561976
fw,-83.8763809204101,-76.4061126708984,84.06717066470712,-170.9332724405188,2525578643
fw,-85.4430160522461,-73.9890518188476,85.88037430464988,-160.47006519315997,2525595310
fw,-87.1616592407226,-71.5725326538086,85.64366647636263,-147.5595278602591,2525611977
fw,-89.0326766967773,-69.2483139038086,83.82735296763173,-133.1679655354416,2525628644
fw,-89.6909942626953,-67.1025238037109,81.25713047446793,-118.09510880645053,2525645311
fw,-87.7800064086914,-65.2811965942382,78.98104363838519,-102.85263288562426,2525661978
fw,-86.4190902709961,-63.8376121520996,78.03330884053618,-87.60729732019409,2525678645
fw,-85.2305068969726,-62.6817932128906,79.1614303605552,-72.22740394501562,2525695312
fw,-83.969741821289,-61.6560020446777,82.61159902361328,-56.4467413021802,2525711979
fw,-82.5127182006836,-60.6501197814941,88.0529934897584,-40.113303778413794,2525728646
fw,-80.7826461791992,-59.8154907226562,94.66695942009964,-23.438914877300874,2525745313
fw,-78.9008560180664,-59.6085586547851,101.35995005170993,-7.140775499601798,2525761980
fw,-77.0246505737304,-59.9116401672363,107.0155890795004,7.608140782150992,2525778647
fw,-75.2458419799804,-60.5999946594238,110.7014150128752,19.42872209272594,2525795314
fw,-73.5352706909179,-61.5900917053222,111.78246090410705,27.107875460945152,2525811981
fw,-71.7218399047851,-62.2562751770019,109.93954162687687,29.96407931086436,2525828648
fw,-69.7764511108398,-62.9363899230957,105.11754874083461,28.08513711205862,2525845315
fw,-67.9176559448242,-63.7149543762207,97.43016567527229,22.371233583993238,2525861982
fw,-66.4978866577148,-64.3218460083007,87.0383909342974,14.379310920034712,2525878649
fw,-65.5590515136718,-64.3574905395507,74.02418183265247,6.00878108001895,2525895316
fw,-64.8264770507812,-64.0648117065429,58.30090998383613,-0.902333858076851,2525911983
fw,-64.2614364624023,-63.8008232116699,39.61556736453614,-4.974149660929127,2525928650
fw,-63.8624610900878,-63.7047309875488,17.676688085464633,-5.56244352826014,2525945317
fw,-63.7048263549804,-63.9111862182617,-7.613665342668741,-2.8280550758832446,2525961984
fw,-63.9142761230468,-64.9149322509765,-35.90588591675828,2.422869997904556,2525978651
fw,-64.7829208374023,-65.494873046875,-66.23709070626997,9.064136920056756,2525995318
fw,-66.3459243774414,-65.704849243164,-97.04090270308743,16.018827110441954,2526011985
fw,-68.5291290283203,-66.4709091186523,-126.35367056175107,22.55019617323533,2526028652
fw,-71.2234420776367,-67.6136627197265,-152.15921947396285,28.399166857337608,2526045319
fw,-74.114501953125,-68.8586273193359,-172.76037663535922,33.75320701249006,2526061986
fw,-76.9447631835937,-70.0330200195312,-187.06163271404145,39.07846344538497,2526078653
fw,-79.7920227050781,-71.1932525634765,-194.69299588296093,44.881405871802244,2526095320
fw,-82.6136093139648,-72.4511032104492,-195.97422208155953,51.48639831516257,2526111987
fw,-85.2690658569336,-73.886474609375,-191.773235382268,58.90687735623851,2526128654
fw,-87.03271484375,-75.511489868164,-183.32632680241267,66.84501931523766,2526145321
fw,-86.1802291870117,-77.2575607299804,-172.06234664272063,74.7982275642484,2526161988
fw,-83.9930267333984,-79.0356903076171,-159.4345537832115,82.21199335078232,2526178655
fw,-81.6658706665039,-80.7349243164062,-146.74246972697543,88.61564970775811,2526195322
fw,-79.4552536010742,-82.3608703613281,-134.9364379807972,93.70406693128085,2526211989
fw,-77.4893112182617,-84.0402297973632,-124.43102086929284,97.36238300032484,2526228656
fw,-75.7943344116211,-85.8239288330078,-114.98750547036995,99.65093109900329,2526245323
fw,-74.258804321289,-87.6973495483398,-105.73842325911623,100.76588673373139,2526261990
fw,-72.7985305786132,-89.6666183471679,-95.40392774981086,100.97760330569226,2526278657
fw,-71.3031005859375,-88.9031829833984,-82.68955696484663,100.54189734971061,2526295324
fw,-69.7710266113281,-87.3278274536132,-66.77364788094128,99.59122750853138,2526311991
fw,-68.4522476196289,-85.835708618164,-47.72471494296167,98.03647019206083,2526328658
fw,-67.7211151123046,-84.2774887084961,-26.67494146031206,95.52579449724314,2526345325
fw,-67.7607879638671,-82.5677947998046,-5.6405919216697935,91.49660491229749,2526361992
fw,-68.6499404907226,-80.7983322143554,12.988531479506998,85.31817701334546,2526378659
fw,-69.7159576416015,-79.1875915527343,27.125668341639305,76.47609613865147,2526395326
fw,-70.5550689697265,-77.9723129272461,35.58557315003785,64.72430871302186,2526411993
fw,-71.1957015991211,-77.2387313842773,38.393165250598116,50.14494629956209,2526428660
fw,-72.1538619995117,-76.8878631591796,36.7167479521368,33.10285347916679,2526445327
fw,-72.7280578613281,-76.7960052490234,32.486070177300434,14.132038810515857,2526461994
fw,-72.7181091308593,-76.8397903442382,27.851248384741854,-6.184888421750857,2526478661
fw,-72.6649932861328,-77.1691589355468,24.664073335443856,-27.29564799832221,2526495328
fw,-73.2368621826171,-78.0219421386718,24.131080549157875,-48.70025247760217,2526511995
fw,-74.2230758666992,-79.3172531127929,26.70961767767591,-69.92966018031045,2526528662
fw,-75.1491470336914,-80.8174819946289,32.21558065447004,-90.50596186626485,2526545329
fw,-75.7491073608398,-82.7791976928711,40.03510680967649,-109.90659334319747,2526561996
fw,-76.3117523193359,-84.7335205078125,49.328080851037974,-127.54821990352309,2526578663
fw,-77.4390716552734,-85.5933151245117,59.169279046529034,-142.79842757580678,2526595330
fw,-78.8813934326171,-85.1887969970703,68.637456653521,-155.0171699022442,2526611997
fw,-80.5114822387695,-83.9127578735351,76.88967831521309,-163.62603374037778,2526628664
fw,-82.151123046875,-81.9570922851562,83.24766296667934,-168.19724912465122,2526645331
fw,-83.7003555297851,-79.5242614746093,87.29810577471198,-168.54230819267477,2526661998
fw,-85.2505111694336,-76.9272537231445,88.98654936185156,-164.7693796699618,2526678665
fw,-86.9735336303711,-74.3168792724609,88.67004005415912,-157.280984424195,2526695332
fw,-88.8249740600586,-71.8240585327148,87.09103597322819,-146.70071437846676,2526711999
fw,-89.6909942626953,-69.4777679443359,85.24894857344384,-133.7426051955762,2526728666
fw,-87.7890167236328,-67.3199844360351,84.17875179746181,-119.06033140212507,2526745333
fw,-86.3040313720703,-65.4337844848632,84.68957491415615,-103.12832873635712,2526762000
fw,-84.8915557861328,-63.8778686523437,87.14766585514923,-86.20616878813833,2526778667
fw,-83.3645248413086,-62.6622581481933,91.38368618523478,-68.41604441975845,2526795334
fw,-81.6258544921875,-61.6235046386718,96.75805914562692,-49.92197136702625,2526812001
fw,-79.6868209838867,-60.6631050109863,102.35116869863006,-31.148005284170086,2526828668
fw,-77.738540649414,-60.0104179382324,107.19480499648316,-12.932181239008198,2526845335
fw,-75.961799621582,-60.0291175842285,110.45601676372256,3.48816020711308,2526862002
fw,-74.2939834594726,-60.7676277160644,111.52479929687621,16.705212365429702,2526878669
fw,-72.6697769165039,-61.8134460449218,110.01478904438957,25.525142002570842,2526895336
fw,-70.9507980346679,-62.4907798767089,105.7241300908846,29.357948115185568,2526912003
fw,-69.0568161010742,-62.9959564208984,98.60072737282533,28.448901053342965,2526928670
fw,-67.2370834350586,-63.7624397277832,88.72139115658238,23.864117931850636,2526945337
fw,-65.8688583374023,-64.561897277832,76.26081907796814,17.249935157601968,2526962004
fw,-65.0555343627929,-64.6043395996093,61.425836011096,10.453795934376256,2526978671
fw,-64.6412506103515,-64.1464157104492,44.3666009376625,5.112501873335709,2526995338
fw,-64.4747619628906,-64.1280364990234,25.11871926671277,2.313582181523115,2527012005
fw,-64.3404159545898,-64.3640975952148,3.6372747534847147,2.4246550667121363,2527028672
fw,-64.3222274780273,-64.6729202270507,-20.05958160907818,5.140745709366181,2527045339
fw,-64.7422332763671,-65.9106216430664,-45.68840532801248,9.71963371721576,2527062006
fw,-65.8073959350586,-66.6766586303711,-72.53729918302756,15.300475152843195,2527078673
fw,-67.3843231201171,-67.0388793945312,-99.43185624530015,21.177246192113863,2527095340
fw,-69.4598770141601,-67.791519165039,-124.86318673482928,26.94045482406883,2527112007
fw,-72.0121841430664,-68.890869140625,-147.23978014238037,32.4773583663191,2527128674
fw,-74.6356735229492,-70.1033248901367,-165.17716919602822,37.87927635654364,2527145341
fw,-77.3005676269531,-71.4036483764648,-177.7342136829198,43.31765157172722,2527162008
fw,-80.0995254516601,-72.6954116821289,-184.53837623405002,48.9349445643746,2527178675
fw,-82.9227752685546,-74.0574798583984,-185.79199717817065,54.77730940055958,2527195342
fw,-85.5429306030273,-75.5619735717773,-182.1889917722427,60.77866543241134,2527212009
fw,-87.208381652832,-77.1826095581054,-174.78106093986233,66.78713269596943,2527228676
fw,-86.3748016357421,-78.8250961303711,-164.8196776580677,72.61008760750438,2527245343
fw,-84.2680435180664,-80.4212265014648,-153.5822178622829,78.05316460493377,2527262010
fw,-81.9570693969726,-81.9686965942382,-142.18356876071033,82.94238492328523,2527278677
fw,-79.7144317626953,-83.5126953125,-131.3841585834194,87.13555505053776,2527295344
fw,-77.7594985961914,-85.1461944580078,-121.42644350699688,90.53493542721829,2527312011
