Label,Left_Hip_q,Right_Hip_q,Left_Hip_qd,Right_Hip_qd,SampleTimeFine
fw,-68.0993118286132,-83.6694641113281,37.8102912902832,95.6503601074218,2236106187
fw,-68.9704208374023,-81.7741165161132,56.52084299553458,108.23408396981682,2236122854
fw,-69.5358047485351,-79.78125,46.60333836872965,98.18178958387517,2236139521
fw,-70.1579360961914,-78.0307006835937,37.59953771333473,86.92246729987811,2236156188
fw,-71.0293731689453,-76.6832275390625,30.274089664358815,73.58617678001303,2236172855
fw,-71.7028350830078,-75.766487121582,25.16032234198302,57.693662643684156,2236189522
fw,-71.9564590454101,-75.2358169555664,22.53049912015003,39.19425936187229,2236206189
fw,-72.0736770629882,-75.0013961791992,22.410217815946396,18.4142961515231,2236222856
fw,-72.6762084960937,-75.053482055664,24.62282306126638,-4.044499021147295,2236239523
fw,-73.4333419799804,-75.368423461914,28.856773202948563,-27.419129748463806,2236256190
fw,-74.2214279174804,-76.1538467407226,34.740527931159875,-50.89213135933721,2236272857
fw,-75.2082443237304,-77.6221771240234,41.89421027037309,-73.6847865549456,2236289524
fw,-75.7006225585937,-79.2942504882812,49.932371407644546,-95.13042764614681,2236306191
fw,-76.6073913574218,-81.3628921508789,58.424136939569344,-114.71503595820178,2236322858
fw,-77.9677276611328,-83.6797866821289,66.85108363434112,-132.0732021330455,2236339525
fw,-79.5166778564453,-85.4752044677734,74.60958333081018,-146.94001521246955,2236356192
fw,-81.128677368164,-85.9256210327148,81.07835579331669,-159.0773058351925,2236372859
fw,-82.7469940185546,-84.875015258789,85.73621716993678,-168.20731858817996,2236389526
fw,-84.3920593261718,-82.9566955566406,88.29284582290461,-173.9898196237088,2236406193
fw,-86.135383605957,-80.5804061889648,88.79093740486952,-176.06349498824923,2236422860
fw,-87.951301574707,-78.0335006713867,87.64432961213434,-174.14338160274528,2236439527
fw,-90.0,-75.3440628051757,85.59002091557824,-168.13811505391564,2236456194
fw,-88.6234283447265,-72.5986938476562,83.55310373350666,-158.238118830043,2236472861
fw,-86.9938507080078,-69.9069213867187,82.45015250177951,-144.93324514446473,2236489528
fw,-85.5304718017578,-67.5374145507812,82.98031657947244,-128.94335292433254,2236506195
fw,-84.0966491699218,-65.6506195068359,85.4630908799656,-111.08126905317503,2236522862
fw,-82.5658111572265,-64.2057800292968,89.76934860862328,-92.10222427124515,2236539529
fw,-80.8908615112304,-63.0237426757812,95.35940405898215,-72.60938510078653,2236556196
fw,-79.1189575195312,-61.9355888366699,101.40324525441903,-53.06637604842261,2236572863
fw,-77.3246841430664,-60.9271049499511,106.93433101365115,-33.91513983556076,2236589530
fw,-75.5541305541992,-60.215705871582,110.99146870501133,-15.734260457415393,2236606197
fw,-73.8665390014648,-60.1085014343261,112.72704436993726,0.6634845112318533,2236622864
fw,-72.1036148071289,-60.4919662475585,111.48471783593853,14.276622642782478,2236639531
fw,-70.1744613647461,-61.2760124206543,106.85700175231875,24.115748114990534,2236656198
fw,-68.150650024414,-62.2657318115234,98.71881032018607,29.48947020437671,2236672865
fw,-66.4796905517578,-62.9865913391113,87.21320752528175,30.259545722707415,2236689532
fw,-65.4479217529296,-63.6987266540527,72.66710907437212,26.964383257412727,2236706199
fw,-64.9097442626953,-64.3922042846679,55.45049772351451,20.769803974005292,2236722866
fw,-64.6166229248046,-64.9417266845703,35.84187365574588,13.266592977057046,2236739533
fw,-64.4000930786132,-64.8734436035156,13.982082863701129,6.166570678676968,2236756200
fw,-64.3177642822265,-64.6734542846679,-10.038145116128828,0.9618267181902319,2236772867
fw,-64.5423049926757,-64.7741394042968,-35.987335666529056,-1.3746394621689562,2236789534
fw,-65.2790451049804,-64.705337524414,-63.295268753561466,-0.562089582472157,2236806201
fw,-66.7162170410156,-65.1947250366211,-90.95724401538533,3.0008531648115846,2236822868
fw,-68.7365112304687,-66.2272338867187,-117.60281234405934,8.435092434454436,2236839535
fw,-71.2875747680664,-66.5126647949218,-141.7119471262621,14.69654943904772,2236856202
fw,-74.0683212280273,-67.105110168457,-161.89468797437166,20.896902527121586,2236872869
fw,-76.7409896850586,-68.0902862548828,-177.12993046888096,26.52646868251728,2236889536
fw,-79.4769744873046,-69.2253723144531,-186.89173924713387,31.52469060726407,2236906203
fw,-82.2920761108398,-70.3943176269531,-191.15338380871518,36.20078437069734,2236922870
fw,-85.0194931030273,-71.5238265991211,-190.31106182931677,41.05045798535381,2236939537
fw,-87.1948089599609,-72.6828308105468,-185.0830241036231,46.53895867836562,2236956204
fw,-86.7470703125,-74.0110549926757,-176.41641351182298,52.92280320665143,2236972871
fw,-84.5080261230468,-75.4942321777343,-165.3977862437372,60.159879615182156,2236989538
fw,-82.0400924682617,-77.0743865966796,-153.14167724286526,67.91938169657014,2237006205
fw,-79.6632308959961,-78.677001953125,-140.63858446802686,75.66894534028535,2237022872
fw,-77.5747451782226,-80.2975921630859,-128.57413726034244,82.80145254872146,2237039539
fw,-75.8142700195312,-81.9236068725586,-117.1675955969795,88.76756791700016,2237056206
fw,-74.2556991577148,-83.6187133789062,-106.10087412123949,93.19010060678967,2237072873
fw,-72.866958618164,-85.3606338500976,-94.6032356260337,95.94221473788781,2237089540
fw,-71.5301361083984,-87.1660003662109,-81.71414480995806,97.17220523365495,2237106207
fw,-70.0600891113281,-89.031265258789,-66.6752196225194,97.25963220565754,2237122874
fw,-68.6092147827148,-90.0,-49.32767722448616,96.69888752412379,2237139541
fw,-67.656135559082,-88.0648803710937,-30.352915373239146,95.92900972219134,2237156208
fw,-67.8095779418945,-86.5573043823242,-11.226669554984557,95.15536822763325,2237172875
fw,-68.415901184082,-85.0496292114257,6.133864738083578,94.2245361743488,2237189542
fw,-69.2866592407226,-83.4355010986328,19.913243665082188,92.60448359063108,2237206209
fw,-70.0157470703125,-81.6767654418945,28.92754926397724,89.48683245863998,2237222876
fw,-70.6821594238281,-80.0110931396484,32.95002177546124,83.98122423088681,2237239543
fw,-71.4624786376953,-78.6072616577148,32.73800952510587,75.33721412100324,2237256210
fw,-72.0842056274414,-77.5112915039062,29.783865121547603,63.12366951498509,2237272877
fw,-72.25,-76.7556686401367,25.896483768709796,47.319239165683676,2237289544
fw,-72.1613845825195,-76.3098449707031,22.754699976383957,28.304201477188986,2237306211
fw,-72.4739608764648,-76.2308578491211,21.56562997811084,6.775037000451642,2237322878
fw,-73.2329711914062,-76.5148162841796,22.914637100086974,-16.38165652369145,2237339545
fw,-74.0676040649414,-77.2065200805664,26.815476014700383,-40.21900336283127,2237356212
fw,-75.2315216064453,-78.4185333251953,32.88929085323176,-63.83518545221765,2237372879
fw,-75.6539764404296,-79.9309844970703,40.563494866699486,-86.43834565799324,2237389546
fw,-76.2418899536132,-81.7954635620117,49.20671833945595,-107.36852530551691,2237406213
fw,-77.3028335571289,-83.8681869506836,58.18069778836646,-126.08614635524478,2237422880
fw,-78.7152023315429,-85.4652557373046,66.84596120924628,-142.14367224794324,2237439547
fw,-80.3040771484375,-85.6401901245117,74.57314800156975,-155.15790972847785,2237456214
fw,-81.8502349853515,-84.4595336914062,80.7920375036339,-164.79741263503107,2237472881
fw,-83.4089126586914,-82.5452575683593,85.08150443985208,-170.79395222941366,2237489548
fw,-85.0497131347656,-80.1884078979492,87.28021921073912,-172.9772075411833,2237506215
fw,-86.87451171875,-77.6207275390625,87.5806618818475,-171.31927343798588,2237522882
fw,-88.7699661254882,-74.975341796875,86.56003499549257,-165.96774159590063,2237539549
fw,-89.1893997192382,-72.3310317993164,85.10935013260503,-157.24832879922016,2237556216
fw,-87.5254364013671,-69.7085342407226,84.25210199956848,-145.62816978885616,2237572883
fw,-86.091796875,-67.3321762084961,84.88972651658075,-131.64442962282683,2237589550
fw,-84.7381362915039,-65.3482894897461,87.55174941825922,-115.81812416083399,2237606217
fw,-83.2913818359375,-63.7584419250488,92.23915273844366,-98.58735906784997,2237622884
fw,-81.6484222412109,-62.4453201293945,98.41749662310785,-80.29835723740963,2237639551
fw,-79.757080078125,-61.2824516296386,105.15476175814892,-61.27514568393643,2237656218
fw,-77.7707595825195,-60.2931900024414,111.34149834841088,-41.94926309804848,2237672885
fw,-75.8833541870117,-59.5909614562988,115.90931678255058,-22.98772064655716,2237689552
fw,-74.0976333618164,-59.3980026245117,117.98566438075285,-5.3391529792662515,2237706219
fw,-72.3467025756836,-59.8063659667968,116.96822188898713,9.856516156350619,2237722886
fw,-70.417366027832,-60.6312408447265,112.53857272033775,21.4875520350473,2237739553
fw,-68.3531951904296,-61.494945526123,104.64035344249407,28.74658778637299,2237756220
fw,-66.4998245239257,-62.1480484008789,93.428079300932,31.36299271821893,2237772887
fw,-65.3173751831054,-62.9271011352539,79.1788908371417,29.71547544682243,2237789554
fw,-64.6645278930664,-63.8176956176757,62.175685944331924,24.80173829304425,2237806221
fw,-64.2355575561523,-64.5249633789062,42.60803360136063,18.081862045977815,2237822888
fw,-63.9313583374023,-64.6012268066406,20.557638012226928,11.224855288711044,2237839555
fw,-63.7594146728515,-64.5286254882812,-3.8939297747953168,5.796338106426987,2237856222
fw,-63.9119796752929,-64.5378875732421,-30.46605259860713,2.949835188433656,2237872889
fw,-64.6211624145507,-64.5115509033203,-58.48227209915594,3.208194599294502,2237889556
fw,-65.875244140625,-65.1228561401367,-86.78476311326224,6.411126610826889,2237906223
fw,-67.8097305297851,-66.0391769409179,-113.82597365723126,11.849285880682244,2237922890
fw,-70.3243255615234,-66.248779296875,-137.9257658383332,18.531866146362695,2237939557
fw,-73.171760559082,-66.9162216186523,-157.6091263333064,25.48782832950004,2237956224
fw,-75.9903488159179,-68.1103744506836,-171.90496235844876,32.005008400082026,2237972891
fw,-78.7962646484375,-69.501838684082,-180.506156891516,37.75064120524806,2237989558
fw,-81.5241165161132,-70.8416595458984,-183.75334610078136,42.76093422569607,2238006225
fw,-84.143684387207,-72.0496139526367,-182.47591599647404,47.32515118909564,2238022892
fw,-86.5528717041015,-73.2737503051757,-177.76743786241568,51.82053326095987,2238039559
fw,-87.6652755737304,-74.6823806762695,-170.77246822296195,56.56557787054165,2238056226
fw,-86.129150390625,-76.2525024414062,-162.52693387381777,61.73766929256633,2238072893
fw,-83.7243347167968,-77.8971481323242,-153.8518285945162,67.35806100714389,2238089560
fw,-81.2042694091796,-79.5392074584961,-145.27569507953572,73.31387153927615,2238106227
fw,-78.8635940551757,-81.0804290771484,-136.96610377203064,79.38514003890161,2238122894
fw,-76.8245010375976,-82.5642395019531,-128.67708970567668,85.26888431334243,2238139561
fw,-75.0313415527343,-84.1708602905273,-119.75048001912688,90.6153238621408,2238156228
fw,-73.4275207519531,-85.9614868164062,-109.22294962016285,95.091572300595,2238172895
fw,-71.9586715698242,-87.8890991210937,-96.07061415066944,98.46398902430163,2238189562
fw,-70.4372024536132,-90.0,-79.56721864130718,100.66187282646818,2238206229
fw,-68.9227218627929,-88.6228561401367,-59.660103024082346,101.77752886515114,2238222896
fw,-67.7380294799804,-86.9379730224609,-37.21696442487015,101.98230889652693,2238239563
fw,-67.482177734375,-85.3970031738281,-14.005687466724755,101.3837266300103,2238256230
fw,-68.2133483886718,-83.8484649658203,7.64306978787488,99.88816428500724,2238272897
fw,-69.240737915039,-82.1931991577148,25.40494281425909,97.14103894492824,2238289564
fw,-70.2633438110351,-80.3713302612304,37.56622935169225,92.5832938795356,2238306231
fw,-70.990119934082,-78.577407836914,43.45043255737137,85.60589845832239,2238322898
fw,-71.9014587402343,-77.0737838745117,43.53844419765308,75.73496970273276,2238339565
fw,-72.8108139038086,-75.9878692626953,39.28071445459623,62.76789203566033,2238356232
fw,-73.3912734985351,-75.3398361206054,32.69736373119779,46.81174622201708,2238372899
fw,-73.3615188598632,-75.0634689331054,25.901823751779233,28.228914013734983,2238389566
fw,-73.5172500610351,-75.024673461914,20.679592417797707,7.5376474056351315,2238406233
fw,-74.1892318725586,-75.1904373168945,18.22168428778016,-14.675709162085418,2238422900
fw,-74.7598724365234,-75.6769790649414,19.05270007134792,-37.800366498474816,2238439567
fw,-75.4615249633789,-76.7648773193359,23.119509736586075,-61.20345552067943,2238456234
fw,-76.0466384887695,-78.2695159912109,29.956851879580764,-84.21570734264849,2238472901
fw,-76.4400634765625,-80.0414047241211,38.848541091308626,-106.12492889570457,2238489568
fw,-77.3519973754882,-82.2300949096679,48.94481095121305,-126.18958545444652,2238506235
fw,-78.6443252563476,-84.2955245971679,59.34081958834561,-143.67324230817874,2238522902
fw,-80.0505676269531,-85.3661193847656,69.14215767596802,-157.89448528184627,2238539569
fw,-81.5333023071289,-85.1175384521484,77.53989771914065,-168.28596240825945,2238556236
fw,-83.0616378784179,-83.6199798583984,83.90404189858273,-174.45736680229805,2238572903
fw,-84.6647644042968,-81.4449691772461,87.88820393539629,-176.25467596175702,2238589570
fw,-86.4454879760742,-78.981704711914,89.52037737382963,-173.80034137688173,2238606237
fw,-88.3396377563476,-76.3824920654296,89.23985809509583,-167.49409070487727,2238622904
fw,-90.0,-73.7190399169921,87.84149515043362,-157.95928279629584,2238639571
fw,-88.2416381835937,-71.139404296875,86.31407155979468,-145.93470390922207,2238656238
fw,-86.7037277221679,-68.8027954101562,85.6031660825336,-132.13130048668478,2238672905
fw,-85.3280639648437,-66.7918548583984,86.36916542924212,-117.09272044291919,2238689572
fw,-83.8861541748046,-65.1387939453125,88.8243451297464,-101.11043691984256,2238706239
fw,-82.2783889770507,-63.7485656738281,92.70710577350678,-84.23877129986471,2238722906
fw,-80.4979171752929,-62.4808235168457,97.39561878298504,-66.42647871361616,2238739573
fw,-78.6154708862304,-61.3781585693359,102.10529324608433,-47.73488997190648,2238756240
fw,-76.7413024902343,-60.5286331176757,106.08525725631691,-28.565426206146807,2238772907
fw,-74.9608459472656,-60.0763511657714,108.74180677912464,-9.795710361241113,2238789574
fw,-73.2923126220703,-60.1737632751464,109.6606955944855,7.257945864333564,2238806241
fw,-71.6220321655273,-60.7176780700683,108.54948830389081,21.073298991358644,2238822908
fw,-69.877700805664,-61.5434875488281,105.15077584379254,30.29254407549759,2238839575
fw,-68.0832443237304,-62.6077003479003,99.1753957954515,34.11155973117295,2238856242
fw,-66.4581604003906,-63.3403549194335,90.28020553797586,32.55632701066996,2238872909
fw,-65.2011795043945,-64.1080856323242,78.0893142020711,26.555312022993853,2238889576
fw,-64.3465957641601,-64.8994369506836,62.24911111978797,17.786743950117327,2238906243
fw,-63.7712783813476,-65.3121719360351,42.51474250342596,8.34308005385121,2238922910
fw,-63.4300422668457,-64.899917602539,18.870266491940015,0.2932772167025525,2238939577
fw,-63.3327445983886,-64.5021362304687,-8.329888563567177,-4.753989225207324,2238956244
fw,-63.6753540039062,-64.4637145996093,-38.24003755922468,-5.970801275831456,2238972911
fw,-64.7010116577148,-64.5606689453125,-69.48549333240503,-3.4167193145014054,2238989578
fw,-66.2987518310546,-65.3616256713867,-100.25962364405207,2.1015748404750645,2239006245
fw,-68.4039840698242,-66.7044525146484,-128.56300860786905,9.361152860523479,2239022912
fw,-71.1113128662109,-66.999282836914,-152.5347384556783,17.11827323793073,2239039579
fw,-74.0921325683593,-67.545425415039,-170.78329946909307,24.432274543381148,2239056246
fw,-76.9795379638671,-68.5136642456054,-182.61679408801461,30.833314332412655,2239072913
fw,-79.7494812011718,-69.7919921875,-188.10628626821364,36.322427827528436,2239089580
fw,-82.5619354248046,-71.0378036499023,-187.9795936134179,41.242544141308606,2239106247
fw,-85.2415237426757,-72.2034301757812,-183.40376795267397,46.079195670016446,2239122914
fw,-87.4321212768554,-73.3884201049804,-175.73949006871035,51.256299195929756,2239139581
fw,-87.1859664916992,-74.7525253295898,-166.33109173754502,56.98865470187652,2239156248
fw,-85.0739135742187,-76.3208770751953,-156.35279852173178,63.22937673696914,2239172915
fw,-82.6480331420898,-78.0065536499023,-146.69585607233716,69.71079981544293,2239189582
fw,-80.3201675415039,-79.6979827880859,-137.87188387965415,76.04242440256971,2239206249
fw,-78.1871795654296,-81.2792053222656,-129.92599166972394,81.81891648359104,2239222916
fw,-76.3455505371093,-82.7722244262695,-122.3858147333039,86.70627642847901,2239239583
fw,-74.721565246582,-84.3407440185546,-114.2994299478559,90.49822977586196,2239256250
fw,-73.2108840942382,-86.078987121582,-104.41497517485871,93.14775618177156,2239272917
fw,-71.6116714477539,-87.8665084838867,-91.51503715563852,94.77346202531429,2239289584
fw,-69.9237747192382,-89.6993408203125,-74.84641898935328,95.62820462661776,2239306251
fw,-68.4341964721679,-88.8051605224609,-54.511824915707535,96.01669538106464,2239322918
fw,-67.5928573608398,-87.2381362915039,-31.659521620714713,96.16835019009528,2239339585
fw,-67.6285171508789,-85.7086486816406,-8.35371026514972,96.10121243193674,2239356252
fw,-68.2182235717773,-84.166389465332,12.874872470462014,95.53164651011677,2239372919
fw,-69.2412643432617,-82.519905090332,29.665445311260974,93.87734936056738,2239389586
fw,-70.2261047363281,-80.7713317871093,40.43797157779715,90.36791504029307,2239406253
fw,-71.0198135375976,-79.0769729614257,44.77808621726805,84.23244788687629,2239422920
fw,-71.871109008789,-77.5734786987304,43.489091900218156,74.89952877705731,2239439587
fw,-72.7463150024414,-76.4507217407226,38.32605836522243,62.13908313980148,2239456254
fw,-73.1381378173828,-75.8054733276367,31.522668459601984,46.10207218317151,2239472921
fw,-73.0756530761718,-75.5186691284179,25.26436498472612,27.259107447988775,2239489588
fw,-73.2748184204101,-75.5305404663086,21.256352687783767,6.279446601537688,2239506255
fw,-73.912971496582,-75.7792739868164,20.490753773778444,-16.09326069694268,2239522922
fw,-74.6438217163086,-76.2785263061523,23.238358918045822,-39.127226771776726,2239539589
fw,-75.4756317138671,-77.3229370117187,29.202152767625435,-62.140090812636736,2239556256
fw,-75.9783477783203,-78.877944946289,37.720534783252376,-84.50115545618391,2239572923
fw,-76.6618118286132,-80.7353897094726,47.92728235988084,-105.61785311899204,2239589590
fw,-77.855598449707,-83.0733489990234,58.840925131809485,-124.9199766291437,2239606257
fw,-79.27490234375,-85.3995056152343,69.41659984605695,-141.84846930087375,2239622924
fw,-80.7929458618164,-86.5165939331054,78.613734888075,-155.8534712230413,2239639591
fw,-82.3969802856445,-85.7773818969726,85.51439467393976,-166.40831131940075,2239656258
fw,-84.0375747680664,-83.8097686767578,89.4897148894881,-173.04846988444712,2239672925
fw,-85.7312545776367,-81.3332214355468,90.37348174037224,-175.43993633314383,2239689592
fw,-87.5495223999023,-78.6507720947265,88.576512658139,-173.46577638150748,2239706259
fw,-89.6225814819336,-75.9151382446289,85.07561769062863,-167.3007704571741,2239722926
fw,-89.0264282226562,-73.2085266113281,81.24227827191446,-157.43574245467966,2239739593
fw,-87.3389816284179,-70.5498504638671,78.53172590558322,-144.6234225780706,2239756260
fw,-86.0135650634765,-68.1115798950195,78.11308894815535,-129.74397201130694,2239772927
fw,-84.8820571899414,-65.9989547729492,80.55891394250087,-113.62204258576973,2239789594
fw,-83.5971527099609,-64.3593215942382,85.70432183161364,-96.85676941985287,2239806261
fw,-81.8696746826171,-63.0704650878906,92.72600178140047,-79.7376747185247,2239822928
fw,-79.7616119384765,-61.9159317016601,100.40067179612839,-62.30034658076731,2239839595
fw,-77.7206420898437,-60.8019485473632,107.42762057869295,-44.52221782071546,2239856262
fw,-75.9558029174804,-59.8288993835449,112.68583433840976,-26.586626400530783,2239872929
fw,-74.4163970947265,-59.4024009704589,115.35278365087436,-9.08996708069835,2239889596
fw,-72.8301544189453,-59.668041229248,114.90000946210513,6.927368742237673,2239906263
fw,-70.9705352783203,-60.3615226745605,111.03860359862765,20.17013114748922,2239922930
fw,-68.8023529052734,-61.3488502502441,103.6793789188026,29.434544754840125,2239939597
fw,-66.7905578613281,-62.0887298583984,92.91581700081741,33.97510683171956,2239956264
fw,-65.5221786499023,-62.8315658569335,78.98930614967959,33.75552969626436,2239972931
fw,-64.8688735961914,-63.7998809814453,62.20271020968933,29.50969288295336,2239989598
fw,-64.4873657226562,-64.7279357910156,42.804799316089465,22.611580124482728,2240006265
fw,-64.279426574707,-64.9990158081054,20.920693666787777,14.797584003644399,2240022932
fw,-64.2779541015625,-64.7205505371093,-3.399940136140624,7.804857069821458,2240039599
fw,-64.4644317626953,-64.7757110595703,-30.008184829366925,3.009108332159338,2240056266
fw,-65.0697555541992,-64.7991867065429,-58.42564642920493,1.160344533959377,2240072933
fw,-66.2373962402343,-64.8492126464843,-87.67561500950596,2.2982114415374904,2240089600
fw,-67.9817886352539,-65.8832550048828,-116.27853921272589,5.871140823774969,2240106267
fw,-70.4511413574218,-66.706916809082,-142.44740343551578,11.008433408548102,2240122934
fw,-73.5157165527343,-66.9404373168945,-164.42937974635038,16.83855203112892,2240139601
fw,-76.4899826049804,-67.6958465576171,-180.87179280846252,22.74092464363043,2240156268
fw,-79.2597198486328,-68.8744277954101,-191.07956841953515,28.46270034011013,2240172935
fw,-81.92822265625,-70.0638732910156,-195.08637457131968,34.09120685705719,2240189602
fw,-84.4390563964843,-71.1836624145507,-193.5498313972418,39.915621727511315,2240206269
fw,-86.3453292846679,-72.25048828125,-187.54726142855745,46.236432111163424,2240222936
fw,-86.1131973266601,-73.4291839599609,-178.3575936650952,53.194144978672234,2240239603
fw,-84.2074584960937,-74.8279800415039,-167.27704539067815,60.67993128227283,2240256270
fw,-81.8548889160156,-76.4296112060546,-155.4696417472892,68.35407781780678,2240272937
fw,-79.5074234008789,-78.1173324584961,-143.83192437522084,75.74968867592656,2240289604
fw,-77.3505020141601,-79.7975616455078,-132.86286199313113,82.40735155529268,2240306271
fw,-75.512451171875,-81.388671875,-122.56158701259955,87.98713819761839,2240322938
fw,-73.8941497802734,-82.9935836791992,-112.40454930080804,92.32935352008771,2240339605
fw,-72.4449920654296,-84.7038421630859,-101.45831299194508,95.46283404285856,2240356272
fw,-71.0296478271484,-86.510139465332,-88.65173444373515,97.57197789795806,2240372939
fw,-69.4984664916992,-88.3606338500976,-73.16600271571511,98.93065813475955,2240389606
fw,-68.0279235839843,-90.0,-54.82801277762233,99.80644798225012,2240406273
fw,-67.0770874023437,-88.5696029663086,-34.351346213713974,100.34539735489629,2240422940
fw,-67.0568161010742,-86.9275741577148,-13.296171112705311,100.46534115242999,2240439607
fw,-67.6231460571289,-85.3287353515625,6.279376625047394,99.79984622753429,2240456274
fw,-68.5715103149414,-83.6413116455078,22.370633872552784,97.72921925579669,2240472941
fw,-69.6378097534179,-81.8024597167968,33.58206244864555,93.50514917415057,2240489608
fw,-70.2278442382812,-80.0130844116211,39.48875522310671,86.43405167256019,2240506275
fw,-71.0370025634765,-78.5781478881836,40.69540872906246,76.05448466109617,2240522942
fw,-71.9388046264648,-77.5855712890625,38.60866206587942,62.24605514338845,2240539609
fw,-72.2786026000976,-76.9935989379882,35.03185033782369,45.24183901635046,2240556276
fw,-72.3739013671875,-76.6995315551757,31.72432197700094,25.561704778331805,2240572943
fw,-72.7761764526367,-76.6235275268554,30.052636447462355,3.911282173114125,2240589610
fw,-73.7466125488281,-76.7431335449218,30.81449342534382,-18.912838245247126,2240606277
fw,-74.6787872314453,-77.3358459472656,34.24454537868719,-42.095811850341995,2240622944
fw,-75.7783432006836,-78.6724319458007,40.13751302220887,-64.86034596945875,2240639611
fw,-76.2882995605468,-80.2099609375,47.992005232165944,-86.51264148510215,2240656278
fw,-77.0258712768554,-82.07763671875,57.109723230510575,-106.47456915149644,2240672945
fw,-78.252326965332,-84.2542114257812,66.64975454588941,-124.29218162812907,2240689612
fw,-79.7868347167968,-85.8704681396484,75.68269522698706,-139.61693531519913,2240706279
fw,-81.4726791381836,-86.0124740600586,83.28672296636697,-152.16790115652907,2240722946
fw,-83.198013305664,-84.7323303222656,88.69283240583928,-161.6928222494861,2240739613
fw,-84.8630599975586,-82.7122344970703,91.45033465650806,-167.9483853378098,2240756280
fw,-86.568977355957,-80.2803268432617,91.56357487385199,-170.71203357228487,2240772947
fw,-88.4210815429687,-77.6756515502929,89.54831127766468,-169.821396511031,2240789614
fw,-90.0,-75.0296173095703,86.36974089559662,-165.22278627649055,2240806281
fw,-88.2264556884765,-72.4265365600586,83.25365298015605,-157.00604581569416,2240822948
fw,-86.6006240844726,-69.8642425537109,81.40412387390155,-145.4105275328595,2240839615
fw,-85.2080917358398,-67.4648132324218,81.7022398206474,-130.80142904336498,2240856282
fw,-83.8786849975586,-65.3902359008789,84.4797957667179,-113.6307528045106,2240872949
fw,-82.3854217529296,-63.7281913757324,89.44393705554373,-94.40715843780522,2240889616
fw,-80.6613616943359,-62.4547462463378,95.77496343059168,-73.6991591847543,2240906283
fw,-78.7591705322265,-61.3979988098144,102.35275126821634,-52.18222224142148,2240922950
fw,-76.8224411010742,-60.5098838806152,108.02125818826323,-30.712179733182936,2240939617
fw,-75.0221939086914,-59.9746627807617,111.7993528446722,-10.37559188883207,2240956284
fw,-73.3715057373046,-60.0263671875,112.98720300827443,7.545804026756848,2240972951
fw,-71.6776733398437,-60.5699729919433,111.17299238895114,21.73558131482225,2240989618
fw,-69.7987747192382,-61.3634529113769,106.1806521495676,31.109642862282026,2241006285
fw,-67.8567657470703,-62.3671684265136,97.998622241948,35.11105476303978,2241022952
fw,-66.2735137939453,-63.2797966003418,86.70567006867773,33.92681841623523,2241039619
fw,-65.2974319458007,-64.245849609375,72.39461975982246,28.540726631159018,2241056286
fw,-64.7247848510742,-65.0337677001953,55.10793055076525,20.58906546156959,2241072953
fw,-64.3429565429687,-65.1935577392578,34.82473492376397,12.04499464963423,2241089620
fw,-64.0681381225586,-64.9254684448242,11.540328297856544,4.805912762425847,2241106287
fw,-63.9278182983398,-64.7762603759765,-14.562702720540143,0.29028455279099574,2241122954
fw,-64.3057479858398,-64.7899322509765,-42.91551014178952,-0.8414728851829474,2241139621
fw,-65.3728561401367,-64.8382797241211,-72.43829460443125,1.2446489088741544,2241156288
fw,-67.0252456665039,-65.7473907470703,-101.57456360273747,5.720686107992099,2241172955
fw,-69.2613372802734,-66.9831314086914,-128.5031678330869,11.434194842469774,2241189622
fw,-71.9992599487304,-67.3376998901367,-151.46963880885488,17.29481071777017,2241206289
fw,-74.8561630249023,-67.8786468505859,-169.12821846042374,22.574940894367373,2241222956
fw,-77.6141967773437,-68.7474899291992,-180.78350649434486,27.04091713736703,2241239623
fw,-80.3334808349609,-69.7747268676757,-186.46380694507405,30.909057306658166,2241256290
fw,-83.1314239501953,-70.8117294311523,-186.82484176820606,34.678314586945945,2241272957
fw,-85.737319946289,-71.840576171875,-182.9396721385123,38.91231845974696,2241289624
fw,-87.5105285644531,-72.8905487060546,-176.0536841133766,44.04131950681312,2241306291
fw,-86.6440963745117,-74.1233749389648,-167.36971350180073,50.23793852694064,2241322958
fw,-84.4431838989257,-75.5846252441406,-157.89393735111196,57.390337930657445,2241339625
fw,-81.9998245239257,-77.2012939453125,-148.33963399247972,65.15958495780873,2241356292
fw,-79.6273193359375,-78.8381576538086,-139.06939017292711,73.08109720455393,2241372959
fw,-77.4982833862304,-80.4292221069336,-130.06215901847986,80.66654087860722,2241389626
fw,-75.667251586914,-81.9731750488281,-120.91358639569022,87.4803804905883,2241406293
fw,-74.0418167114257,-83.6142654418945,-110.90057436471626,93.18818654099591,2241422960
fw,-72.5822296142578,-85.3873901367187,-99.1444866441627,97.58481077017106,2241439627
fw,-71.1080551147461,-87.2584762573242,-84.87878870557934,100.60521770966042,2241456294
fw,-69.5817947387695,-89.1891632080078,-67.77125638021529,102.30946466483287,2241472961
fw,-68.2566528320312,-89.3778762817382,-48.19413814721825,102.83147334837638,2241489628
fw,-67.5716247558593,-87.6213455200195,-27.315448911964697,102.29566430611715,2241506295
fw,-67.6778564453125,-85.9868774414062,-6.9287728518582545,100.72788062834259,2241522962
fw,-68.2612838745117,-84.3492355346679,10.95965009998147,97.99983720625647,2241539629
fw,-69.1192321777343,-82.5968933105468,24.657817136118492,93.83665811953215,2241556296
fw,-70.0096740722656,-80.8092269897461,33.24320338858101,87.88711680418275,2241572963
fw,-70.5608291625976,-79.2522964477539,36.78887961296499,79.82351767883809,2241589630
fw,-71.2294998168945,-78.0326461791992,36.29859266394013,69.42462844732799,2241606297
fw,-72.0679397583007,-77.132453918457,33.39877769895533,56.610547380459295,2241622964
fw,-72.2789993286132,-76.5877075195312,29.907632193587272,41.43172936946403,2241639631
fw,-72.3168106079101,-76.2881774902343,27.418610155585743,24.041760674095578,2241656298
fw,-72.7097549438476,-76.142219543457,27.01258050533756,4.686814450962158,2241672965
fw,-73.4881286621093,-76.1904067993164,29.16221902605668,-16.27627272082289,2241689632
fw,-74.6029434204101,-76.6398162841796,33.81793505334706,-38.35036845011773,2241706299
fw,-75.7433166503906,-77.7832946777343,40.59036914399694,-60.888988459650264,2241722966
fw,-76.1626205444336,-79.3145980834961,48.915948803140566,-83.1298024078816,2241739633
fw,-76.943977355957,-81.2465362548828,58.13417436991395,-104.26671367039535,2241756300
fw,-78.1571655273437,-83.668716430664,67.48871559642745,-123.53530032429335,2241772967
fw,-79.6677017211914,-85.8282470703125,76.12534292019768,-140.28209450254266,2241789634
fw,-81.3930969238281,-86.5845947265625,83.1571925491569,-153.99898992546602,2241806301
fw,-83.1184921264648,-85.4438400268554,87.8155274504217,-164.32259112842274,2241822968
fw,-84.717544555664,-83.3052597045898,89.6461038177337,-171.0150157693829,2241839635
fw,-86.35009765625,-80.7892379760742,88.68000898430988,-173.94709853437018,2241856302
fw,-88.1016311645507,-78.1316528320312,85.5096637418287,-173.0949217112002,2241872969
fw,-90.0,-75.4205093383789,81.22644487132183,-168.54591545538148,2241889636
fw,-88.6008682250976,-72.7056503295898,77.21587140091516,-160.50221876867505,2241906303
fw,-87.1078186035156,-70.0092468261718,74.85188509462021,-149.2692636120864,2241922970
fw,-85.7708969116211,-67.5303955078125,75.17153562407664,-135.2248334558921,2241939637
fw,-84.4272918701171,-65.4472198486328,78.62668559556307,-118.7766739450703,2241956304
fw,-82.9307327270507,-63.778995513916,84.98640819702796,-100.33131815188717,2241972971
fw,-81.2046966552734,-62.4324378967285,93.40843588935553,-80.30357025065734,2241989638
fw,-79.373664855957,-61.310073852539,102.63700187849518,-59.183936057909534,2242006305
fw,-77.5265884399414,-60.3479042053222,111.2492873631844,-37.64807622886575,2242022972
fw,-75.6634216308593,-59.6241645812988,117.87847857124628,-16.652273475288297,2242039639
fw,-73.7607269287109,-59.4294166564941,121.3766131103603,2.5615732933821436,2242056306
fw,-71.8381958007812,-60.0008163452148,120.91702844494402,18.60549540050622,2242072973
fw,-69.8158950805664,-60.8704414367675,116.0513537437494,30.218447917744847,2242089640
fw,-67.7552795410156,-61.8885917663574,106.72635190711846,36.587389061451184,2242106307
fw,-65.9180297851562,-62.6547660827636,93.24777070291235,37.59682504531012,2242122974
fw,-64.7240905761718,-63.4048652648925,76.17583548419363,33.91682307040688,2242139641
fw,-64.1502304077148,-64.3098373413086,56.16402530637279,26.907220943342903,2242156308
fw,-63.962303161621,-64.9870681762695,33.79670587415234,18.371464613551908,2242172975
fw,-63.8960304260253,-64.8870773315429,9.505521397762486,10.215578969688545,2242189642
fw,-63.8790664672851,-64.6549301147461,-16.382167392077122,4.078065323485918,2242206309
fw,-64.2245407104492,-64.7087631225586,-43.48079629388128,1.015154229556895,2242222976
fw,-65.13671875,-64.7792663574218,-71.15902478804952,1.3336296465952058,2242239643
fw,-66.63623046875,-65.3011322021484,-98.437890954216,4.6294511462604575,2242256310
fw,-68.7383956909179,-66.6076889038086,-124.04369678014066,10.01760154352161,2242272977
fw,-71.4080657958984,-67.1000595092773,-146.60618617986546,16.46416179915528,2242289644
fw,-74.2069244384765,-67.6738662719726,-164.9230196990263,23.097445735552665,2242306311
fw,-76.8681411743164,-68.6586990356445,-178.1867312824862,29.399734056661362,2242322978
fw,-79.566780090332,-69.8956222534179,-186.09920991600816,35.24407784028684,2242339645
fw,-82.3636779785156,-71.1132507324218,-188.8590304277766,40.80015182159248,2242356312
fw,-85.0754623413086,-72.3144760131836,-187.059259236512,46.36665372088052,2242372979
fw,-87.1040954589843,-73.5127258300781,-181.54988046391023,52.19844313765659,2242389646
fw,-86.6201477050781,-74.8651428222656,-173.3018199086416,58.38856783678466,2242406313
fw,-84.5296554565429,-76.4006729125976,-163.2818874211162,64.83746171925657,2242422980
fw,-82.134033203125,-78.051040649414,-152.33228671231083,71.30226712389478,2242439647
fw,-79.8057785034179,-79.757080078125,-141.052524678285,77.48797120863807,2242456314
fw,-77.6795501708984,-81.3932647705078,-129.6990034006515,83.13434065546855,2242472981
fw,-75.8406372070312,-82.9422225952148,-118.13565678756545,88.06796018676006,2242489648
fw,-74.2439880371093,-84.5395126342773,-105.8760076167968,92.21294245926357,2242506315
fw,-72.8431396484375,-86.2231216430664,-92.24424321914276,95.57100338795223,2242522982
fw,-71.5210342407226,-88.0133819580078,-76.64674972303283,98.1841750158134,2242539649
fw,-70.1503295898437,-90.0,-58.89246384902674,100.08645930491942,2242556316
fw,-68.9342651367187,-88.6974945068359,-39.45065501597618,101.24633537035734,2242572983
fw,-68.3501968383789,-87.0467376708984,-19.519807350050364,101.50819120727256,2242589650
fw,-68.5809860229492,-85.4007034301757,-0.8286916825115087,100.55332975631131,2242606317
fw,-69.4657287597656,-83.7334594726562,14.802295986215459,97.9071108207118,2242622984
fw,-70.5244369506836,-82.0148315429687,25.993166090583646,93.0077554949517,2242639651
fw,-71.1464004516601,-80.338752746582,32.22488966436171,85.32660534521702,2242656318
fw,-71.6867370605468,-78.9049530029296,33.98684960353717,74.50336202709313,2242672985
fw,-72.4359359741211,-77.820556640625,32.610215396234246,60.449323518120735,2242689652
fw,-72.8464965820312,-77.1150360107421,29.871484052518735,43.38395746656773,2242706319
fw,-72.8681106567382,-76.8304367065429,27.519175826073734,23.79833351015412,2242722986
fw,-73.1221160888671,-76.8636016845703,26.878188167235855,2.3669604535079345,2242739653
fw,-73.7981262207031,-77.1035690307617,28.63954026606365,-20.15691612052992,2242756320
fw,-74.6905288696289,-77.6949768066406,32.86599209537329,-43.0322545326147,2242772987
fw,-75.9511413574218,-78.9794845581054,39.1593905288531,-65.5914223602401,2242789654
fw,-76.8014755249023,-80.5748748779296,46.88185066954565,-87.26699795043525,2242806321
fw,-77.4551773071289,-82.4486694335937,55.329573267591876,-107.5844053047487,2242822988
fw,-78.4968566894531,-84.6643981933593,63.81661275821215,-126.12585163246891,2242839655
fw,-79.8735275268554,-86.1087112426757,71.69310522255996,-142.48022585205524,2242856322
fw,-81.4451522827148,-85.7237777709961,78.35519558271521,-156.20172913049498,2242872989
fw,-83.104507446289,-84.0993423461914,83.29122670684325,-166.80119057533713,2242889656
fw,-84.7630004882812,-81.9218978881836,86.17139233133923,-173.78541683526058,2242906323
fw,-86.3688659667968,-79.4405822753906,86.95304889596332,-176.7411005938667,2242922990
fw,-88.0453567504882,-76.7998886108398,85.95651637578815,-175.43728179144358,2242939657
fw,-90.0,-74.0359115600586,83.86901485969466,-169.90687704893995,2242956324
fw,-88.6710205078125,-71.2747955322265,81.6525582686257,-160.47147602017947,2242972991
fw,-86.930061340332,-68.6613693237304,80.35870842360323,-147.69272201648,2242989658
fw,-85.4643859863281,-66.2635498046875,80.88410097989164,-132.26148371515515,2243006325
fw,-84.1738510131836,-64.256233215332,83.72930119338147,-114.86406199699339,2243022992
fw,-82.7970428466796,-62.6699104309082,88.83753609940636,-96.08153240076838,2243039659
fw,-81.2010726928711,-61.3751640319824,95.5745471016062,-76.37268176897962,2243056326
fw,-79.3847732543945,-60.2215194702148,102.8638010038008,-56.158079445758595,2243072993
fw,-77.3980484008789,-59.2072372436523,109.43236049077821,-35.97077321271601,2243089660
fw,-75.3818206787109,-58.5447273254394,114.08305045307691,-16.591493837104448,2243106327
fw,-73.4958724975586,-58.5141220092773,115.90786748421442,0.9257736534708868,2243122994
fw,-71.7096557617187,-58.9974136352539,114.39143744969978,15.3903233664921,2243139661
fw,-69.8660049438476,-59.9955406188964,109.39886795874934,25.7452309294218,2243156328
fw,-67.9593048095703,-60.8126792907714,101.07505192031778,31.369903728872742,2243172995
fw,-66.395637512207,-61.4752693176269,89.6937252436378,32.293272650451286,2243189662
fw,-65.3234252929687,-62.2881278991699,75.4962231596241,29.242232925523755,2243206329
fw,-64.6822662353515,-63.0712661743164,58.567038532279334,23.52324018072478,2243222996
fw,-64.2818069458007,-63.697410583496,38.801330252681176,16.782437101597182,2243239663
fw,-63.944953918457,-63.7375144958496,16.005177186701584,10.697216492271057,2243256330
fw,-63.7486763000488,-63.6676292419433,-9.881271473851712,6.651249022966211,2243272997
fw,-63.9761085510253,-63.7756271362304,-38.51594342669472,5.460800005227519,2243289664
fw,-64.8192138671875,-63.8967704772949,-68.96395048639536,7.23399766961664,2243306331
fw,-66.4647521972656,-64.8490524291992,-99.68978350934151,11.421140694434373,2243322998
fw,-68.7988204956054,-65.9615249633789,-128.7655078240474,17.04785213104088,2243339665
fw,-71.6334915161132,-66.2673416137695,-154.23398095193122,23.048668462645075,2243356332
fw,-74.6150207519531,-66.9647598266601,-174.5004101436245,28.582811289072502,2243372999
fw,-77.5006027221679,-68.042854309082,-188.6198056338079,33.23465357798653,2243389666
fw,-80.3906784057617,-69.2642517089843,-196.40018805890026,37.05521155754507,2243406333
fw,-83.21337890625,-70.4623794555664,-198.32003383590305,40.45446452224766,2243423000
fw,-85.7237396240234,-71.6341171264648,-195.3228607431345,43.99603870791957,2243439667
fw,-87.1140518188476,-72.815689086914,-188.57644597568762,48.17346579684256,2243456334
fw,-85.8711853027343,-74.1731796264648,-179.26762822161155,53.24805906924601,2243473001
fw,-83.485366821289,-75.6895446777343,-168.46268656365066,59.19421579408921,2243489668
fw,-80.8718490600586,-77.2940521240234,-157.02184170762612,65.74510839239592,2243506335
fw,-78.3560714721679,-78.8846359252929,-145.53558802371296,72.4922824240535,2243523002
fw,-76.1201782226562,-80.376106262207,-134.2596224296071,78.98782643459965,2243539669
fw,-74.2252120971679,-81.8437042236328,-123.05756272680694,84.82217659402902,2243556336
fw,-72.6205596923828,-83.4223403930664,-111.39657813855369,89.67936903551556,2243573003
fw,-71.2194595336914,-85.161262512207,-98.45475374588312,93.38143831733491,2243589670
fw,-69.8627853393554,-87.0173187255859,-83.37165369866185,95.92048290754127,2243606337
fw,-68.3706588745117,-88.9477996826171,-65.60698836316618,97.45679062714444,2243623004
fw,-66.9948272705078,-90.0,-45.29448712312692,98.25699461534941,2243639671
fw,-66.2828292846679,-88.0614471435546,-23.43483368313924,98.56860962475393,2243656338
fw,-66.4636993408203,-86.568977355957,-1.8031792624521832,98.4665295084699,2243673005
fw,-67.2499008178711,-85.0690231323242,17.4438638898479,97.73766442819561,2243689672
fw,-68.4186706542968,-83.3455123901367,32.34009634537774,95.86727528959496,2243706339
fw,-69.3452911376953,-81.4266891479492,41.65237932038224,92.14849367876,2243723006
fw,-70.0429382324218,-79.6075668334961,45.200696494360386,85.8752672989889,2243739673
fw,-70.9880981445312,-78.1439514160156,43.86477502536231,76.53596016061746,2243756340
fw,-71.8621978759765,-77.1575393676757,39.31094656507529,63.92918556326219,2243773007
fw,-72.1230392456054,-76.605239868164,33.555795621594655,48.172506638899314,2243789674
fw,-72.1149139404296,-76.2835159301757,28.50795887493997,29.634372263108318,2243806341
fw,-72.5509033203125,-76.1080322265625,25.613696642111453,8.850291574908264,2243823008
fw,-73.3865661621093,-76.0998153686523,25.684951036292645,-13.530389672367283,2243839675
fw,-74.316535949707,-76.4972152709961,28.91345976869778,-36.76302273516743,2243856342
fw,-75.0744552612304,-77.6089324951171,35.00099366261194,-60.02153486457892,2243873009
fw,-75.3827667236328,-79.1198577880859,43.311481271532294,-82.43909339504674,2243889676
fw,-76.2732772827148,-81.035903930664,52.989048943622386,-103.18081162472625,2243906343
fw,-77.6014404296875,-83.3311157226562,63.046575266661144,-121.52540299380544,2243923010
fw,-79.1635208129882,-85.3095245361328,72.46031403441896,-136.92294003259656,2243939677
fw,-80.8149337768554,-86.2563400268554,80.29370144050225,-149.00834390262656,2243956344
fw,-82.4583740234375,-85.6840286254882,85.84228399932306,-157.5757278562003,2243973011
fw,-83.9938049316406,-84.0028915405273,88.76824414720224,-162.54108378819157,2243989678
fw,-85.610107421875,-81.818115234375,89.18485392900519,-163.9240293673689,2244006345
fw,-87.3755722045898,-79.3404312133789,87.65562387363222,-161.86020031881267,2244023012
fw,-89.2231750488281,-76.7723999023437,85.08863267686368,-156.6281997695637,2244039679
fw,-89.3835678100586,-74.2463607788086,82.53476914121818,-148.65792872147142,2244056346
fw,-87.8029556274414,-71.7939529418945,80.93636969421104,-138.49123631643909,2244073013
fw,-86.4342727661132,-69.500747680664,80.90482975258654,-126.6889932743937,2244089680
fw,-84.9818267822265,-67.4860458374023,82.60833162723625,-113.70967738526478,2244106347
fw,-83.3111801147461,-65.8178100585937,85.809943912677,-99.80938678342562,2244123014
fw,-81.5100860595703,-64.4066085815429,90.02631361051564,-85.01960638170203,2244139681
fw,-79.7327728271484,-63.1475982666015,94.71802092987178,-69.23889777334068,2244156348
fw,-78.0730895996093,-62.0087013244628,99.41317987716721,-52.428525478697615,2244173015
fw,-76.5206756591796,-61.0436210632324,103.71331671572307,-34.84520739599486,2244189682
fw,-75.025405883789,-60.4036750793457,107.20483191645262,-17.205503131398068,2244206349
fw,-73.4815673828125,-60.4176750183105,109.355224867804,-0.6841240467872314,2244223016
fw,-71.6777114868164,-60.9435920715332,109.47920569168744,13.289822310360128,2244239683
fw,-69.5920867919921,-61.7761878967285,106.81381476532853,23.384329748810746,2244256350
fw,-67.3989334106445,-62.4603576660156,100.6711154761303,28.739303390426155,2244273017
fw,-65.6765213012695,-62.9130706787109,90.58603141737063,29.231153635847463,2244289684
fw,-64.6785583496093,-63.6525955200195,76.38184158856735,25.546369493021754,2244306351
fw,-64.1398620605468,-64.4245986938476,58.137201352810266,19.05710418334561,2244323018
fw,-63.842788696289,-64.7323989868164,36.11243687632751,11.542673758094091,2244339685
fw,-63.5712356567382,-64.5515365600586,10.720625411483317,4.822008142636794,2244356352
fw,-63.3943405151367,-64.3267517089843,-17.413727517644514,0.37620262963156725,2244373019
fw,-63.8465270996093,-64.2745285034179,-47.34626083834465,-0.9450921581903673,2244389686
fw,-65.045295715332,-64.308120727539,-77.74847292633591,0.9532440928663126,2244406353
fw,-66.7795867919921,-65.1995315551757,-106.97163876616543,5.498207071559042,2244423020
fw,-69.0882492065429,-66.0684738159179,-133.2570784428732,11.708065514235239,2244439687
fw,-71.8717193603515,-66.3347549438476,-155.03448406741123,18.524471878221433,2244456354
fw,-74.7090301513671,-67.095832824707,-171.20613221931285,25.10247924543557,2244473021
fw,-77.4195556640625,-68.2521057128906,-181.32147130807144,30.981671778808238,2244489688
fw,-80.0790328979492,-69.4484405517578,-185.5959148738018,36.117601134748455,2244506355
fw,-82.743423461914,-70.6380767822265,-184.7918176964835,40.793316601221214,2244523022
fw,-85.2596740722656,-71.7972335815429,-180.02362465036904,45.45339816140763,2244539689
fw,-86.9568939208984,-72.9983139038086,-172.55334863664092,50.51672677918208,2244556356
fw,-86.4493408203125,-74.3365478515625,-163.61504783330088,56.22558040164936,2244573023
fw,-84.5134506225586,-75.8231048583984,-154.27332491039834,62.57015871593554,2244589690
fw,-82.2342910766601,-77.382209777832,-145.30318991172595,69.29603234889106,2244606357
fw,-80.0144805908203,-78.9433670043945,-137.08394496658653,75.97507341957731,2244623024
fw,-77.9387054443359,-80.5254745483398,-129.52088340312383,82.11049026679565,2244639691
fw,-76.0425872802734,-82.1202774047851,-122.03057873343532,87.25080406129872,2244656358
fw,-74.3056640625,-83.7829666137695,-113.63222724219982,91.09377086752028,2244673025
fw,-72.6593475341796,-85.5346298217773,-103.16851048271303,93.56120912939804,2244689692
fw,-71.1008224487304,-87.3257827758789,-89.6362316526259,94.82213088849561,2244706359
fw,-69.5861129760742,-89.0729598999023,-72.55377678533748,95.24421852884824,2244723026
fw,-68.3373107910156,-90.0,-52.25156166706072,95.27056180571644,2244739693
fw,-67.5638198852539,-88.1043167114257,-29.9665579103571,95.24801688457097,2244756360
fw,-67.5616226196289,-86.6076583862304,-7.667929980231098,95.26190012210184,2244773027
fw,-68.1070022583007,-85.0475006103515,12.368213578363655,95.0406251628793,2244789694
fw,-69.2103958129882,-83.3726196289062,28.115185341549843,93.97331874601734,2244806361
fw,-70.0336456298828,-81.5678634643554,38.301918060516634,91.23988012293538,2244823028
fw,-70.6175308227539,-79.834846496582,42.70438095779049,86.00681383761726,2244839695
fw,-71.563491821289,-78.3851470947265,42.146527760467876,77.6172496065427,2244856362
fw,-72.520034790039,-77.3363647460937,38.24376872253958,65.71363323449779,2244873029
fw,-72.9502944946289,-76.6656646728515,32.99269371701218,50.27073095877675,2244889696
fw,-72.9689331054687,-76.2980804443359,28.32911603036054,31.560998500892318,2244906363
fw,-73.3505325317382,-76.1407775878906,25.76427677664448,10.097161317226712,2244923030
fw,-73.9936752319336,-76.1868438720703,26.177740299167336,-13.413396320724397,2244939697
fw,-74.802619934082,-76.6162719726562,29.78971061911185,-38.0990775417771,2244956364
fw,-75.6154098510742,-77.8247985839843,36.26974231094126,-62.96169587592427,2244973031
fw,-76.0757980346679,-79.3578948974609,44.90242383717625,-86.94374972788957,2244989698
fw,-77.0551986694336,-81.2953643798828,54.74530826054163,-109.02553689737617,2245006365
fw,-78.3999099731445,-83.5778884887695,64.75843755115703,-128.32869788310077,2245023032
fw,-79.9347152709961,-85.4321975708007,73.91832525390681,-144.19530294226254,2245039699
fw,-81.5184860229492,-85.9100265502929,81.33405996761276,-156.22225361355524,2245056366
fw,-83.1289596557617,-84.9127731323242,86.3693276969175,-164.25128904922562,2245073033
fw,-84.7131729125976,-83.0656814575195,88.75647136760676,-168.33277331611288,2245089700
fw,-86.4113311767578,-80.801025390625,88.67352117029634,-168.6849623891104,2245106367
fw,-88.1851196289062,-78.3337631225586,86.74735593169385,-165.6583437318763,2245123034
fw,-90.0,-75.7708282470703,83.95405621552126,-159.69860361936847,2245139701
fw,-88.5320663452148,-73.2118225097656,81.41603886957208,-151.29517305305166,2245156368
fw,-87.0428924560546,-70.7676620483398,80.13800625257281,-140.90969234198295,2245173035
fw,-85.6885223388671,-68.4929504394531,80.76038344050203,-128.8956401312514,2245189702
fw,-84.3012008666992,-66.4691848754882,83.41623572506275,-115.4375163942587,2245206369
fw,-82.6898422241211,-64.764289855957,87.74374758238804,-100.54533024705748,2245223036
fw,-80.8903427124023,-63.3109855651855,93.0420569245789,-84.1309058604366,2245239703
fw,-79.0219116210937,-62.0486373901367,98.49555796692762,-66.16579169963593,2245256370
fw,-77.238410949707,-61.0262794494628,103.36661113058206,-46.88264392621948,2245273037
fw,-75.5737838745117,-60.2381591796875,107.08432500417085,-26.94700056720631,2245289704
fw,-74.0023651123046,-59.8481674194335,109.22029124231925,-7.513685390216992,2245306371
fw,-72.3656539916992,-60.118293762207,109.40221273383212,9.892705070228784,2245323038
fw,-70.6019439697265,-60.7266998291015,107.23918566230745,23.671045706513056,2245339705
fw,-68.6946411132812,-61.814769744873,102.30893756549386,32.53220209729222,2245356372
fw,-66.7971420288086,-62.589744567871,94.20722938484106,35.85466832730586,2245373039
fw,-65.2975463867187,-63.2285385131835,82.61823008237465,33.886968715765065,2245389706
fw,-64.3476333618164,-64.1078109741211,67.3605224269339,27.73660370683896,2245406373
fw,-63.8560523986816,-64.8759765625,48.397901352755774,19.157083900829903,2245423040
fw,-63.677505493164,-64.9550857543945,25.847745744056237,10.190645721239294,2245439707
fw,-63.6052894592285,-64.585823059082,0.03271006024006018,2.746438004157738,2245456374
fw,-63.6565971374511,-64.3842086791992,-28.413531348886778,-1.786994280614587,2245473041
fw,-64.2482070922851,-64.38916015625,-58.4363902153484,-2.787341998190303,2245489708
fw,-65.5704956054687,-64.6470108032226,-88.53527638310757,-0.42589000929109255,2245506375
fw,-67.4541473388671,-65.8330535888671,-116.89442402155603,4.523923548114314,2245523042
fw,-69.9619598388671,-66.5434494018554,-141.6708724615828,11.012710956070922,2245539709
fw,-72.9625091552734,-66.7570037841796,-161.3592209158,18.047604560014616,2245556376
fw,-75.8670349121093,-67.4832000732421,-175.10538295943482,24.923562264739044,2245573043
fw,-78.5991897583007,-68.6271057128906,-182.85417663058757,31.31144522729409,2245589710
fw,-81.3055953979492,-69.8532638549804,-185.28269641904015,37.21959192904499,2245606377
fw,-83.8523559570312,-71.0513534545898,-183.55766742396256,42.870614356266195,2245623044
fw,-86.0988159179687,-72.2181167602539,-179.01451946506057,48.54118230052221,2245639711
fw,-86.927505493164,-73.4826507568359,-172.86289914410153,54.41649453068151,2245656378
fw,-85.6407241821289,-74.9108657836914,-165.98631724109194,60.50537072400286,2245673045
fw,-83.4564132690429,-76.5059127807617,-158.85242179781557,66.63641258146924,2245689712
fw,-81.0087661743164,-78.1416015625,-151.51266516806598,72.52089426197826,2245706379
fw,-78.5858917236328,-79.7520065307617,-143.6576545239519,77.84551743065605,2245723046
fw,-76.4343109130859,-81.2632293701171,-134.70416299038015,82.35880296530306,2245739713
fw,-74.5849304199218,-82.7571411132812,-123.91082091498478,85.93109986769839,2245756380
fw,-72.9643325805664,-84.3738098144531,-110.53676640423144,88.58360028064261,2245773047
fw,-71.433120727539,-86.0689163208007,-94.05458439047807,90.4858132121099,2245789714
fw,-69.9593505859375,-87.7778015136718,-74.39788645645052,91.91637032982486,2245806381
fw,-68.6802368164062,-89.5661468505859,-52.17660147673203,93.18096236078549,2245823048
fw,-67.8453598022461,-89.2801818847656,-28.75971320381079,94.49344405246508,2245839715
fw,-67.7276000976562,-87.6549911499023,-6.137922866745782,95.84892466056587,2245856382
fw,-68.2140350341796,-86.0930480957031,13.451706256662368,96.93627830201,2245873049
fw,-69.1942062377929,-84.44677734375,28.05503653931172,97.13613806566374,2245889716
fw,-70.3917083740234,-82.6517486572265,36.51656234597949,95.62363687172109,2245906383
fw,-71.001220703125,-80.7636489868164,38.79888321862775,91.55243052833431,2245923050
fw,-71.6236572265625,-79.0605316162109,35.99269856722937,84.25861132657349,2245939717
fw,-72.5177536010742,-77.758560180664,30.023480317243305,73.41169368972434,2245956384
fw,-72.7281646728515,-76.90283203125,23.165012848923602,59.06413747460614,2245973051
fw,-72.4999465942382,-76.3751983642578,17.51550091279272,41.598788138099245,2245989718
fw,-72.5632019042968,-76.108901977539,14.583420381898978,21.6171900462088,2246006385
fw,-73.0236740112304,-76.0575866699218,15.085912999298023,-0.17398733006882305,2246023052
fw,-73.5857162475586,-76.232421875,18.98750142709507,-23.040320285070436,2246039719
fw,-74.5905532836914,-76.9519348144531,25.717841896507665,-46.256688483535086,2246056386
fw,-75.3018569946289,-78.2829132080078,34.4471742332228,-69.12295574420394,2246073053
fw,-75.772216796875,-79.8888549804687,44.30288866812747,-90.97723740927373,2246089720
fw,-76.6987380981445,-81.997200012207,54.473429920665104,-111.21177071872515,2246106387
fw,-77.9708862304687,-84.3402938842773,64.22136036230285,-129.28520072679407,2246123054
fw,-79.4657821655273,-86.0003204345703,72.8685510002404,-144.724304723156,2246139721
fw,-81.0194625854492,-85.9764022827148,79.80992064501773,-157.1158319591692,2246156388
fw,-82.5626220703125,-84.5023193359375,84.5788603928562,-166.09996030775636,2246173055
fw,-84.1169052124023,-82.3860702514648,86.95250253471943,-171.38228234967008,2246189722
fw,-85.8403701782226,-79.9322967529296,87.05903445403528,-172.7729959352757,2246206389
fw,-87.6685485839843,-77.3095169067382,85.43537156085459,-170.24281600465181,2246223056
fw,-89.8021774291992,-74.6001052856445,82.98675831599053,-163.96866975375931,2246239723
fw,-88.8701400756836,-71.8970565795898,80.82597601120887,-154.34006412939829,2246256390
fw,-87.3170776367187,-69.3571166992187,80.01619123485818,-141.91094025109774,2246273057
fw,-86.0086517333984,-67.1067657470703,81.29068450625685,-127.3063741673781,2246289724
fw,-84.6743240356445,-65.2248916625976,84.84768243446598,-111.11870767587008,2246306391
fw,-83.1501235961914,-63.643814086914,90.2989071052822,-93.84062664375264,2246323058
fw,-81.3838195800781,-62.3109626770019,96.78973772858214,-75.87274528301381,2246339725
fw,-79.4645843505859,-61.1328430175781,103.2374703993151,-57.60989766117863,2246356392
fw,-77.5576171875,-60.1336364746093,108.59112559650006,-39.56632107442558,2246373059
fw,-75.7751846313476,-59.4851341247558,112.02271186487759,-22.467334964611492,2246389726
fw,-74.0993118286132,-59.4152374267578,113.00641775177273,-7.23608845169307,2246406393
fw,-72.3996353149414,-59.7328338623046,111.29767252935953,5.153072068996265,2246423060
fw,-70.5261535644531,-60.3042678833007,106.8561960114631,13.915266670248263,2246439727
fw,-68.5383148193359,-60.9363174438476,99.75342651381334,18.69649181838117,2246456394
fw,-66.9189529418945,-61.3731727600097,90.08062093071389,19.71697512205811,2246473061
fw,-65.8590087890625,-61.9252014160156,77.86060183305703,17.76316025764504,2246489728
fw,-65.1592025756836,-62.4647712707519,62.98095086996192,14.038542627983682,2246506395
fw,-64.616584777832,-62.9413604736328,45.1923550537216,9.92453643097019,2246523062
fw,-64.1397171020507,-63.0130920410156,24.215465566575528,6.709099962628913,2246539729
fw,-63.8459167480468,-62.965404510498,-0.04555708953077153,5.33507385423302,2246556396
fw,-63.8803367614746,-63.2023963928222,-27.252387927018585,6.222485997759692,2246573063
fw,-64.5220947265625,-63.3934097290039,-56.458817856856314,9.218968887202701,2246589730
fw,-65.907974243164,-64.183120727539,-86.11561408065832,13.706192113036815,2246606397
fw,-67.9516296386718,-65.3392868041992,-114.28746340188533,18.836193532327147,2246623064
fw,-70.4827499389648,-65.7178878784179,-139.02507147893945,23.816881345464697,2246639731
fw,-73.267219543457,-66.2514114379882,-158.76803563267418,28.145533671368966,2246656398
fw,-75.9738693237304,-67.1878051757812,-172.6418563280912,31.717159442317897,2246673065
fw,-78.5480880737304,-68.3204269409179,-180.55916146845115,34.79088990528072,2246689732
fw,-81.1273040771484,-69.5000610351562,-183.11615117295827,37.84754682244145,2246706399
fw,-83.5761489868164,-70.6531677246093,-181.3504915983256,41.39871760578237,2246723066
fw,-85.7015304565429,-71.7219161987304,-176.46244120607398,45.81419819862502,2246739733
fw,-86.6078948974609,-72.9836196899414,-169.5869436361885,51.22177344038848,2246756400
fw,-85.5086975097656,-74.4828872680664,-161.65721303942968,57.500832866721034,2246773067
fw,-83.4722900390625,-76.0964889526367,-153.34962359482356,64.35025263388901,2246789734
fw,-81.1843948364257,-77.7137374877929,-145.07081147347728,71.38304896222587,2246806401
fw,-78.9368362426757,-79.2333221435546,-136.94987945099703,78.2023715264046,2246823068
fw,-76.8546142578125,-80.6799545288086,-128.82368392843318,84.441919827323,2246839735
fw,-75.0321502685546,-82.2030639648437,-120.23514882287628,89.78558268631836,2246856402
fw,-73.4713973999023,-83.9143753051757,-110.48646168141437,93.99157572528657,2246873069
fw,-72.0315628051757,-85.7532424926757,-98.78668984277333,96.92960773648821,2246889736
fw,-70.5224227905273,-87.6262817382812,-84.49958835380922,98.61183842227587,2246906403
fw,-68.9409561157226,-89.7112884521484,-67.43918593397274,99.1842022975146,2246923070
fw,-67.7008209228515,-89.3338241577148,-48.10455362117343,98.85792894952029,2246939737
fw,-67.0043411254882,-87.6532287597656,-27.72976057977815,97.79501320606806,2246956404
fw,-67.1874465942382,-86.0921478271484,-8.077376986227186,95.99394944430162,2246973071
fw,-67.941177368164,-84.4888610839843,8.98817899540119,93.2310692827033,2246989738
fw,-68.747314453125,-82.8127288818359,22.00272537061746,89.09049795226152,2247006405
fw,-69.3751983642578,-81.1319122314453,30.292095766424115,83.07373444523054,2247023072
fw,-69.9164733886718,-79.6380920410156,34.11249609454909,74.74190842455471,2247039739
fw,-70.7410812377929,-78.4938812255859,34.515033633196396,63.83114371275839,2247056406
fw,-71.3804016113281,-77.7734832763671,33.01116597752404,50.300651620474916,2247073073
fw,-71.5704269409179,-77.3960266113281,31.166065447258976,34.312082865108614,2247089740
fw,-71.6866912841796,-77.2329177856445,30.24646216877872,16.173212503919377,2247106407
fw,-72.387954711914,-77.2120590209961,31.018419452601226,-3.711938199081039,2247123074
fw,-73.3520050048828,-77.3835067749023,33.733810002941475,-24.864209614290786,2247139741
fw,-74.5482788085937,-78.1141128540039,38.26749519216193,-46.72990913076613,2247156408
fw,-75.6368789672851,-79.4886169433593,44.30422908180946,-68.6854403833189,2247173075
fw,-76.1495361328125,-81.0685806274414,51.46877650452021,-90.06213982549377,2247189742
fw,-76.9175338745117,-83.0994873046875,59.35170838040055,-110.18735016355993,2247206409
fw,-78.164192199707,-85.23095703125,67.4639753393386,-128.42529657586252,2247223076
fw,-79.7050094604492,-86.310073852539,75.19851617712854,-144.20313009171642,2247239743
fw,-81.3795318603515,-85.4606323242187,81.8631997842421,-157.01831919576762,2247256410
fw,-83.025405883789,-83.5874862670898,86.79911478174085,-166.43685889781503,2247273077
fw,-84.6360092163086,-81.3063430786132,89.55017760314178,-172.10023981992032,2247289744
fw,-86.3471450805664,-78.7759857177734,90.02522104417302,-173.75494103676513,2247306411
fw,-88.2022399902343,-76.1517868041992,88.5921224057162,-171.30169382907016,2247323078
fw,-90.0,-73.5240097045898,86.05875774590447,-164.84392469528407,2247339745
fw,-88.3515930175781,-70.9121932983398,83.52446384785306,-154.70753135451713,2247356412
fw,-86.7751770019531,-68.3942489624023,82.12601000438694,-141.41179143119902,2247373079
fw,-85.4532165527343,-66.1343841552734,82.74459822558576,-125.59081369349686,2247389746
fw,-84.1205673217773,-64.2833557128906,85.76626109066825,-107.88961814637145,2247406413
fw,-82.5927352905273,-62.8100051879882,90.97790244675755,-88.878769835185,2247423080
fw,-80.8340911865234,-61.6353073120117,97.63178941510857,-69.03421556407994,2247439747
fw,-78.9092102050781,-60.61669921875,104.64414704340895,-48.805360413163086,2247456414
fw,-76.9430465698242,-59.7341575622558,110.84413668153434,-28.747958612770145,2247473081
fw,-74.9764404296875,-59.1504096984863,115.18294046637224,-9.650288279713692,2247489748
fw,-73.1803131103515,-59.0924491882324,116.84753422900462,7.437666238526965,2247506415
fw,-71.4670715332031,-59.6375160217285,115.27642148545803,21.3304572454306,2247523082
fw,-69.6534423828125,-60.4604530334472,110.11551490383755,30.972801001463925,2247539749
fw,-67.7772140502929,-61.3946228027343,101.1622301411803,35.751042697702,2247556416
fw,-66.1477737426757,-62.1552543640136,88.32696774812851,35.724401465214626,2247573083
fw,-65.0325927734375,-62.9199066162109,71.61613685912427,31.68316021670126,2247589750
fw,-64.3909912109375,-63.6568717956543,51.133329738475176,25.01532507870492,2247606417
fw,-64.1156234741211,-64.0945281982421,27.106118141621973,17.429669199249847,2247623084
fw,-64.1179656982421,-64.1147537231445,-0.04757866428698365,10.612179522674847,2247639751
fw,-64.2803115844726,-63.9311714172363,-29.61842005878613,5.895267578742847,2247656418
fw,-64.9028930664062,-63.98530960083,-60.51309965403337,4.016521575791829,2247673085
fw,-66.3001174926757,-64.1874618530273,-91.24063323282148,5.033345794639962,2247689752
fw,-68.3056030273437,-64.9845275878906,-120.03375350457983,8.42193801450943,2247706419
fw,-70.7628097534179,-65.6248245239257,-145.10548519274582,13.324764458550288,2247723086
fw,-73.6250305175781,-66.0307235717773,-164.97370828738028,18.8536249975607,2247739753
fw,-76.4980850219726,-66.9343109130859,-178.74739464956497,24.342046287420487,2247756420
fw,-79.1856079101562,-68.0936431884765,-186.27800245767236,29.47572017252466,2247773087
fw,-81.8387451171875,-69.1973342895507,-188.1320331451967,34.285873251704295,2247789754
fw,-84.267349243164,-70.3432998657226,-185.4084699346291,39.0384001209152,2247806421
fw,-86.0973052978515,-71.5028457641601,-179.4732476985238,44.077833676745115,2247823088
fw,-86.1970748901367,-72.7767486572265,-171.69131646243216,49.686308024870804,2247839755
fw,-84.5474548339843,-74.2264556884765,-163.2106095385209,55.99585686965731,2247856422
fw,-82.3172760009765,-75.8161849975586,-154.81525413606326,62.96028091731478,2247873089
fw,-79.9828414916992,-77.4157257080078,-146.8416077746374,70.3692307031748,2247889756
fw,-77.7382736206054,-78.9891586303711,-139.1494267710402,77.88331207430276,2247906423
fw,-75.6634750366211,-80.537368774414,-131.15370694084265,85.08073511803272,2247923090
fw,-73.7210083007812,-82.1579284667968,-121.93412231354003,91.51853898831591,2247939757
fw,-71.9375991821289,-83.9141159057617,-110.43507367166043,96.81138240735338,2247956424
fw,-70.3375549316406,-85.7743225097656,-95.74615582303119,100.71632527974248,2247973091
fw,-68.917121887207,-87.6604995727539,-77.41713299308283,103.19382956015205,2247989758
fw,-67.7166976928711,-89.2889328002929,-55.72770942676359,104.40938980343181,2248006425
fw,-66.8801116943359,-88.5374069213867,-31.81711283856616,104.65633466642137,2248023092
fw,-66.6362609863281,-87.0378646850586,-7.595705318210019,104.21408616456979,2248039759
fw,-67.0246429443359,-85.4805679321289,14.583861670805799,103.19061357734464,2248056426
fw,-67.9602508544921,-83.8110656738281,32.43580432466997,101.4126575704676,2248073093
fw,-69.2994079589843,-82.0543365478515,44.29157263862061,98.41142160483882,2248089760
fw,-70.3152160644531,-80.2848129272461,49.51802970382383,93.5116377730966,2248106427
fw,-71.1185226440429,-78.6443176269531,48.66735051009403,85.98977500497683,2248123094
fw,-72.1271286010742,-77.2757186889648,43.31960278382495,75.24464102196038,2248139761
fw,-72.8634338378906,-76.2688598632812,35.68510048485134,60.92930771875613,2248156428
fw,-72.9120635986328,-75.6518402099609,28.097925518862187,43.01937843613789,2248173095
fw,-72.8641052246093,-75.3704986572265,22.54277655904057,21.822028536928233,2248189762
fw,-73.4623489379882,-75.3608856201171,20.33042843838077,-2.0530696736726664,2248206429
fw,-74.0935897827148,-75.6701354980468,21.981641498825915,-27.74204971739894,2248223096
fw,-74.8079223632812,-76.5596389770507,27.304215925042698,-54.189093916608144,2248239763
fw,-75.4447784423828,-78.0333786010742,35.585502610544516,-80.22692466217495,2248256430
fw,-76.2088088989257,-79.8085479736328,45.80851464807676,-104.67615010014244,2248273097
fw,-77.2898559570312,-82.0300140380859,56.83309295732139,-126.45222110989506,2248289764
fw,-78.6296691894531,-84.2227325439453,67.53071489268808,-144.6608333492211,2248306431
fw,-80.1299438476562,-85.4693527221679,76.89128551024727,-158.6651885844179,2248323098
fw,-81.7273559570312,-85.2407073974609,84.12363058558046,-168.11970358258935,2248339765
fw,-83.3754348754882,-83.7342834472656,88.75554923887574,-172.9766374414284,2248356432
fw,-85.0354080200195,-81.6101913452148,90.71630574930853,-173.47468971207132,2248373099
fw,-86.685546875,-79.2052307128906,90.3675409131257,-170.10918262542415,2248389766
fw,-88.3412933349609,-76.6984252929687,88.4496875991684,-163.5723137182544,2248406433
fw,-89.6251831054687,-74.1869506835937,85.93449514230406,-154.65277657820351,2248423100
fw,-88.2345352172851,-71.7121124267578,83.81181259067934,-144.10009240395323,2248439767
fw,-86.7740859985351,-69.3015899658203,82.87154603821985,-132.4816351032661,2248456434
fw,-85.3078994750976,-67.1101455688476,83.55045441193334,-120.07654916495355,2248473101
fw,-83.7228317260742,-65.3003463745117,85.88990699567181,-106.8509950958994,2248489768
fw,-82.0370330810546,-63.7866325378418,89.603836936096,-92.5413385692776,2248506435
fw,-80.2886047363281,-62.4200630187988,94.20937597784962,-76.84005173201089,2248523102
fw,-78.5350265502929,-61.194465637207,99.15154781884061,-59.640337436963826,2248539769
fw,-76.8402557373046,-60.1656074523925,103.8691307283783,-41.26109186439807,2248556436
fw,-75.2001266479492,-59.5314712524414,107.79083390758571,-22.56066842266833,2248573103
fw,-73.5546951293945,-59.4686737060546,110.29436423280103,-4.871624026733102,2248589770
fw,-71.7986373901367,-59.8836288452148,110.68147583166696,10.250467130712073,2248606437
fw,-69.8222427368164,-60.4856300354003,108.20871068771751,21.39653130402283,2248623104
fw,-67.8096923828125,-61.2612800598144,102.17489872228103,27.674062458705375,2248639771
fw,-66.0941162109375,-61.8103218078613,92.0281896255113,28.960941345362,2248656438
fw,-64.9158706665039,-62.6379089355468,77.44546699402724,25.973262026362967,2248673105
fw,-64.2315826416015,-63.5213279724121,58.3642205123889,20.138159469296,2248689772
fw,-63.8960571289062,-63.9381446838378,34.989456905197706,13.30654594788653,2248706439
fw,-63.7060966491699,-63.7520446777343,7.81809147564025,7.365489023703577,2248723106
fw,-63.7015151977539,-63.5043869018554,-22.30114943061597,3.8327148561545323,2248739773
fw,-64.2623443603515,-63.4374465942382,-54.10692028707644,3.5374716594000186,2248756440
fw,-65.5144119262695,-63.555606842041,-85.9359082492613,6.4876674709413,2248773107
fw,-67.4249114990234,-64.6567001342773,-115.86515439687366,11.972006849521991,2248789774
fw,-69.9559631347656,-65.8121719360351,-141.9860375808425,18.859953898377892,2248806441
fw,-72.9164199829101,-66.3023223876953,-162.73798142928646,25.98493364014218,2248823108
fw,-75.6569519042968,-67.0997924804687,-177.1901245360606,32.47360095680915,2248839775
fw,-78.2526473999023,-68.2189025878906,-185.17592683200482,37.92653975766826,2248856442
fw,-80.9152450561523,-69.4701538085937,-187.24980257077812,42.42633825442243,2248873109
fw,-83.570442199707,-70.8014373779296,-184.50680152874898,46.40410095805591,2248889776
fw,-85.9038467407226,-72.0254516601562,-178.34268898313059,50.42476800655476,2248906443
fw,-86.690689086914,-73.2520904541015,-170.21915954666804,54.9647671150563,2248923110
fw,-85.4086380004882,-74.6505889892578,-161.46119571097694,60.252724123679606,2248939777
fw,-83.3604965209961,-76.1973571777343,-153.0856829960842,66.21813722086537,2248956444
fw,-81.1079330444336,-77.8638153076171,-145.65889573785452,72.54892131426351,2248973111
fw,-78.8624420166015,-79.6080856323242,-139.19712382076156,78.81704939368541,2248989778
fw,-76.7986984252929,-81.2661895751953,-133.14138686298253,84.6132734942552,2249006445
fw,-74.8953781127929,-82.8749847412109,-126.4415209784729,89.64286711271149,2249023112
fw,-73.1333618164062,-84.5210342407226,-117.77208059851766,93.76264025626853,2249039779
fw,-71.4025650024414,-86.2423019409179,-105.87016879057921,96.96600026365563,2249056446
fw,-69.6060333251953,-88.0629577636718,-89.935995152237,99.33449726249562,2249073113
fw,-67.9660339355468,-90.0,-69.98614384117762,100.97186519761233,2249089780
fw,-66.9051055908203,-88.7003479003906,-47.02686223917017,101.93129269520153,2249106447
fw,-66.722427368164,-86.9589538574218,-22.949025886482286,102.14822091397048,2249123114
fw,-67.040168762207,-85.2727508544921,-0.13961998033385337,101.39803948649751,2249139781
fw,-67.7629852294921,-83.579963684082,19.0825519958437,99.30030113944774,2249156448
fw,-68.7954330444336,-81.831802368164,33.02569263504664,95.37979195239258,2249173115
fw,-69.5648651123046,-80.1032257080078,41.0006258343742,89.17175902122773,2249189782
fw,-70.2670745849609,-78.5512771606445,43.41051097196099,80.33606963415517,2249206449
fw,-71.2692260742187,-77.2973709106445,41.55851119891214,68.73784133791968,2249223116
fw,-72.0140228271484,-76.456428527832,37.26477324801507,54.46718829658442,2249239783
fw,-72.249755859375,-76.0010757446289,32.422103794341155,37.801293504833865,2249256450
fw,-72.4522857666015,-75.7891159057617,28.613371356905997,19.139884939320325,2249273117
fw,-73.0469131469726,-75.7712707519531,26.88093295601772,-1.0476612905322717,2249289784
fw,-73.8831481933593,-75.9371719360351,27.683755429022444,-22.243463531454616,2249306451
fw,-74.7466506958007,-76.5163116455078,31.007324567435898,-43.87961687138178,2249323118
fw,-75.5322570800781,-77.8216552734375,36.5361005787961,-65.34033431981409,2249339785
fw,-75.8895263671875,-79.3792343139648,43.79457881861869,-85.98659406040292,2249356452
fw,-76.6961288452148,-81.2972640991211,52.21233776200671,-105.19951825208503,2249373119
fw,-77.9791183471679,-83.4756240844726,61.131953095044615,-122.42239843613125,2249389786
fw,-79.4294738769531,-85.2177505493164,69.81268394528772,-137.18312732190805,2249406453
fw,-80.9435348510742,-85.812873840332,77.47540567882943,-149.09423579030218,2249423120
fw,-82.460220336914,-85.0184249877929,83.40487176927657,-157.84510179355527,2249439787
fw,-84.0200119018554,-83.2754745483398,87.09520145298927,-163.2083311803215,2249456454
fw,-85.7374038696289,-81.0067138671875,88.39965569210307,-165.07202556594345,2249473121
fw,-87.5886535644531,-78.4994354248046,87.62856225538334,-163.486097982624,2249489788
fw,-89.6608123779296,-75.9170150756836,85.53944575889703,-158.69088391360285,2249506455
fw,-89.0723266601562,-73.40478515625,83.19140660772554,-151.09583995264802,2249523122
fw,-87.4504013061523,-70.9635314941406,81.6879697806719,-141.19762016456977,2249539789
fw,-86.0532989501953,-68.6846389770507,81.88611781654403,-129.4591583654305,2249556456
fw,-84.6531295776367,-66.7112350463867,84.17321940893005,-116.19758552234448,2249573123
fw,-83.1195755004882,-65.0178298950195,88.39000762026562,-101.53549020922848,2249589790
fw,-81.4165954589843,-63.5205268859863,93.91583570933972,-85.4529497852893,2249606457
fw,-79.5784606933593,-62.1918792724609,99.86503859943588,-67.94106716411727,2249623124
fw,-77.7362060546875,-61.1153526306152,105.30622811814868,-49.21209614323017,2249639791
fw,-75.9799575805664,-60.3071136474609,109.4258021579965,-29.883889652718654,2249656458
fw,-74.2997055053711,-59.9095649719238,111.60116317356626,-11.047370070142987,2249673125
fw,-72.6198043823242,-60.1199607849121,111.39864725465712,5.842883474450916,2249689792
fw,-70.7672271728515,-60.6996726989746,108.53726376811977,19.249256441667615,2249706459
fw,-68.7390365600586,-61.6248512268066,102.85102471195873,27.92424327081459,2249723126
fw,-66.9085311889648,-62.2823448181152,94.25399771289588,31.25352041827333,2249739793
fw,-65.6409225463867,-62.9776306152343,82.69376338190918,29.455740101902013,2249756460
fw,-64.8656768798828,-63.8281326293945,68.09285560535656,23.580558558402387,2249773127
fw,-64.331069946289,-64.5380859375,50.31394914910589,15.311035954454056,2249789794
fw,-63.8945617675781,-64.6198806762695,29.204649391797272,6.621513818198392,2249806461
fw,-63.565559387207,-64.2174835205078,4.75033588164812,-0.6310823165435995,2249823128
fw,-63.5128784179687,-63.9691085815429,-22.703097855611425,-5.083062243267317,2249839795
fw,-64.0773239135742,-63.9412193298339,-52.256557586857795,-6.1016526181952715,2249856462
fw,-65.3651123046875,-64.2579345703125,-82.40739525990219,-3.8137768210496925,2249873129
fw,-67.178955078125,-65.4385986328125,-111.20435824967328,1.0702988001373346,2249889796
fw,-69.5906982421875,-65.7747726440429,-136.58587925311147,7.556757114896913,2249906463
fw,-72.4722290039062,-66.097053527832,-156.80221127270306,14.674503824698698,2249923130
fw,-75.3858337402343,-66.9221115112304,-170.78562019478153,21.696341210148564,2249939797
fw,-78.1274490356445,-68.0752716064453,-178.35070988181636,28.241354257647057,2249956464
fw,-80.8879241943359,-69.3436584472656,-180.17002704610346,34.2690676399243,2249973131
fw,-83.4075088500976,-70.5720138549804,-177.54975342706382,39.991326112710446,2249989798
fw,-85.574951171875,-71.749755859375,-172.09058639212245,45.73325306171664,2250006465
fw,-86.7974090576171,-73.0155181884765,-165.33753715721673,51.783127771835574,2250023132
fw,-86.095100402832,-74.4663848876953,-158.5010295432118,58.27364214980317,2250039799
fw,-84.2048873901367,-76.0661926269531,-152.28921055636664,65.123799990468,2250056466
fw,-81.9542388916015,-77.6760482788086,-146.85099119072584,72.04764821594348,2250073133
fw,-79.6012344360351,-79.2667236328125,-141.80732667588808,78.61784502209493,2250089800
fw,-77.435676574707,-80.8711242675781,-136.3479012950766,84.36588750314827,2250106467
fw,-75.5233001708984,-82.5505218505859,-129.38353469256492,88.90019124659372,2250123134
fw,-73.7992553710937,-84.3214569091796,-119.75683840902893,92.01832788507096,2250139801
fw,-72.1471176147461,-86.1109313964843,-106.50983677031627,93.78061584023474,2250156468
fw,-70.5011749267578,-87.9135284423828,-89.18030528829826,94.5096386689542,2250173135
fw,-69.027847290039,-90.0,-68.05819539092566,94.69487599476308,2250189802
fw,-67.8858032226562,-89.2348480224609,-44.30563362418041,94.81417451691993,2250206469
fw,-67.4888305664062,-87.6631774902343,-19.856665763460317,95.12269272828672,2250223136
fw,-67.9114151000976,-86.1681976318359,2.9238090535414756,95.48612097228494,2250239803
fw,-68.5497970581054,-84.5791778564453,21.749828374962018,95.33103108244245,2250256470
fw,-69.6715087890625,-82.8333053588867,34.94452348596207,93.74640154283023,2250273137
fw,-70.4435653686523,-80.9711761474609,41.82461003558694,89.71064676986317,2250289804
fw,-71.2110061645507,-79.2447204589843,42.82451655169973,82.3655806146631,2250306471
fw,-72.1378555297851,-77.8891143798828,39.338795549069864,71.2396587198216,2250323138
fw,-72.8096923828125,-76.9804077148437,33.35086721814937,56.34795931019157,2250339805
fw,-72.8671417236328,-76.5117492675781,26.967485122880042,38.15210055434554,2250356472
fw,-72.8781814575195,-76.3868560791015,21.988070989091288,17.41964060836677,2250373139
fw,-73.3003921508789,-76.5028381347656,19.617175271626785,-4.9484552494985525,2250389806
fw,-73.9704132080078,-76.8305130004882,20.377911385881234,-28.061455123882787,2250406473
fw,-74.6437530517578,-77.6339569091796,24.208746316949107,-51.12472681397001,2250423140
fw,-75.5289993286132,-79.0418090820312,30.657959917455276,-73.4706898483927,2250439807
fw,-75.9058303833007,-80.7642822265625,39.07124130492767,-94.55152141600462,2250456474
fw,-76.6401901245117,-82.815315246582,48.707298813770684,-113.90764120723291,2250473141
fw,-77.8544006347656,-84.7755813598632,58.781030614913234,-131.12133549192365,2250489808
fw,-79.2926254272461,-85.5760116577148,68.47913349598103,-145.7682914018626,2250506475
fw,-80.8253021240234,-84.8659973144531,76.99823761445022,-157.38885245832276,2250523142
fw,-82.4075622558593,-83.269790649414,83.6316350403944,-165.5046534474295,2250539809
fw,-83.9832382202148,-81.2354354858398,87.89826942923193,-169.69399188860655,2250556476
fw,-85.6601791381836,-78.8794631958007,89.67893005196153,-169.71030507409202,2250573143
fw,-87.4506378173828,-76.3180770874023,89.30615847418181,-165.59794225683854,2250589810
fw,-89.4229125976562,-73.6827774047851,87.55442894744,-157.74881111404318,2250606477
fw,-89.0418243408203,-71.1083297729492,85.50151959972871,-146.86107436303968,2250623144
fw,-87.4510192871093,-68.7789077758789,84.2768943064918,-133.7992696426653,2250639811
fw,-86.1083679199218,-66.7622604370117,84.76286528754729,-119.3981476090193,2250656478
fw,-84.7642669677734,-65.0630264282226,87.34600705322643,-104.28278268894171,2250673145
fw,-83.2439041137695,-63.5977516174316,91.80884552341398,-88.78014047422764,2250689812
fw,-81.4787826538086,-62.2735519409179,97.40115527416154,-72.96597162466156,2250706479
fw,-79.4999237060546,-61.0445175170898,103.05769092250154,-56.83435166298512,2250723146
fw,-77.5068359375,-60.0890960693359,107.67260789529577,-40.51892604868819,2250739813
fw,-75.6924591064453,-59.4609451293945,110.33003447449867,-24.463806592621626,2250756480
fw,-74.0445022583007,-59.3094902038574,110.42722219516352,-9.457056127010814,2250773147
fw,-72.4089431762695,-59.6488571166992,107.6849288133155,3.5024616481108524,2250789814
fw,-70.6445617675781,-60.135383605957,102.08238625297717,13.459875651125238,2250806481
fw,-68.785171508789,-60.7869148254394,93.75994895956147,19.782565819922016,2250823148
fw,-67.1569900512695,-61.2286186218261,82.91105616900369,22.358755441032528,2250839815
fw,-66.1175308227539,-61.8204917907714,69.66867059318261,21.654833834601092,2250856482
fw,-65.6607131958007,-62.6276359558105,54.004280573464214,18.62712925347357,2250873149
fw,-65.4240341186523,-63.1816825866699,35.6896567734177,14.522943150272873,2250889816
fw,-65.2754974365234,-63.1616287231445,14.3827346794455,10.619692990629868,2250906483
fw,-65.0589294433593,-63.0399093627929,-10.143206400084475,7.9590966327425035,2250923150
fw,-64.9780044555664,-63.2521286010742,-37.69204023416537,7.144990375199454,2250939817
fw,-65.7536239624023,-63.6330680847168,-67.395919667015,8.269715153177456,2250956484
fw,-67.4399871826171,-64.5842132568359,-97.66495155071766,10.995517520434129,2250973151
fw,-69.5667037963867,-65.517822265625,-126.39627096682361,14.75588563708336,2250989818
fw,-72.2540588378906,-65.9543151855468,-151.38658690459093,18.993220627850175,2251006485
fw,-75.2242736816406,-66.5483856201171,-170.80502481247203,23.34304378446614,2251023152
fw,-78.0708084106445,-67.4099960327148,-183.56647184868828,27.710830950198766,2251039819
fw,-80.879409790039,-68.4977264404296,-189.49679773444777,32.23791177254725,2251056486
fw,-83.5834197998046,-69.7135543823242,-189.26761756667614,37.189113262840785,2251073153
fw,-85.8539581298828,-70.858901977539,-184.1575303228369,42.80972097621712,2251089820
fw,-86.894172668457,-72.0096893310546,-175.73667470605952,49.20015015468719,2251106487
fw,-85.6927490234375,-73.3480529785156,-165.56459226346627,56.24745346139716,2251123154
fw,-83.6158905029296,-74.8619842529296,-154.95476078758952,63.63226389085963,2251139821
fw,-81.3258590698242,-76.4698104858398,-144.8191708256486,70.90187153295993,2251156488
fw,-79.018928527832,-78.0894775390625,-135.58264612061345,77.57764968780089,2251173155
fw,-76.9027252197265,-79.6829071044921,-127.15476766439208,83.2601212226023,2251189822
fw,-75.0945587158203,-81.2505493164062,-118.9613581953413,87.70702114388433,2251206489
fw,-73.5424880981445,-82.8967056274414,-110.05510831502312,90.87586480836072,2251223156
fw,-72.144790649414,-84.6127090454101,-99.32899241808632,92.92991835399916,2251239823
fw,-70.6574325561523,-86.3618087768554,-85.83105974561636,94.20337331422733,2251256490
fw,-69.1018371582031,-88.0664978027343,-69.12483877864125,95.1178927411762,2251273157
fw,-67.7207260131836,-89.6954574584961,-49.58106666003212,96.05075058838271,2251289824
fw,-67.099494934082,-88.9248046875,-28.466177097636606,97.17744440610973,2251306491
fw,-67.2315216064453,-87.4481048583984,-7.742967690632614,98.33782518147586,2251323158
fw,-67.7547836303711,-85.8866806030273,10.390410554315393,98.98533391187216,2251339825
fw,-68.6526947021484,-84.1445541381836,24.080570145044284,98.25972416305062,2251356492
fw,-69.4643630981445,-82.2631530761718,32.31831273291631,95.17726802519685,2251373159
fw,-69.9875869750976,-80.4254684448242,35.18962410823017,88.88003856275884,2251389826
fw,-70.7014770507812,-78.8793182373046,33.810960031679556,78.8561295806903,2251406493
fw,-71.4088897705078,-77.8356475830078,29.995677960298682,65.05409540640221,2251423160
fw,-71.6759414672851,-77.2223281860351,25.774663261205074,47.86273375119901,2251439827
fw,-71.5425109863281,-76.8944778442382,22.916845104153715,27.984923548214315,2251456494
fw,-71.6951904296875,-76.817153930664,22.579065159867753,6.269715148522715,2251473161
fw,-72.4609756469726,-76.9653854370117,25.169636886550695,-16.435130777191365,2251489828
fw,-73.3465270996093,-77.5623016357421,30.435629263586087,-39.3768786899635,2251506495
fw,-74.5681533813476,-78.8143692016601,37.700638283263785,-61.93522240920374,2251523162
fw,-75.1430358886718,-80.2228622436523,46.132927659092225,-83.61576386015766,2251539829
fw,-75.8594818115234,-81.9324264526367,54.9425175211004,-104.01353448234431,2251556496
fw,-77.0362014770507,-83.9077682495117,63.47075185495274,-122.7601067568999,2251573163
fw,-78.5044860839843,-85.0727233886718,71.19736690081118,-139.46950884723432,2251589830
fw,-80.076904296875,-84.7552947998046,77.71451202673943,-153.69911122948014,2251606497
fw,-81.5505981445312,-83.4453964233398,82.70953181490562,-164.9415339309199,2251623164
fw,-83.0640182495117,-81.6259078979492,85.98024913357031,-172.6613775344701,2251639831
fw,-84.681167602539,-79.4247360229492,87.48699669422214,-176.3798622044847,2251656498
fw,-86.4567947387695,-76.9070739746093,87.42248695448394,-175.78949187391171,2251673165
fw,-88.3182144165039,-74.2699737548828,86.25833135432278,-170.86031799559598,2251689832
fw,-90.0,-71.6368103027343,84.72035155611701,-161.8934323992296,2251706499
fw,-88.271728515625,-69.103157043457,83.66530163426725,-149.49166246022315,2251723166
fw,-86.7351760864257,-66.8322448730468,83.87496094594854,-134.44761294735102,2251739833
fw,-85.3643493652343,-64.9750137329101,85.82946958706987,-117.58451090550804,2251756500
fw,-83.9832153320312,-63.4477653503418,89.5446999241652,-99.61138153427221,2251773167
fw,-82.4313049316406,-62.1402778625488,94.5419585942964,-81.05580036775265,2251789834
fw,-80.6431732177734,-60.9917869567871,99.96641039416109,-62.30689146512531,2251806501
fw,-78.7233276367187,-59.9876060485839,104.8085673431155,-43.747297331441615,2251823168
fw,-76.8113250732421,-59.3375701904296,108.14359976623565,-25.902018302318417,2251839835
fw,-75.0084915161132,-59.0928726196289,109.30555561074638,-9.514540609296981,2251856502
fw,-73.3652801513671,-59.3514709472656,107.95250147710519,4.509469962542261,2251873169
fw,-71.7516021728515,-59.7955207824707,104.02900148670598,15.28685675000483,2251889836
fw,-70.0500259399414,-60.4634017944335,97.6660174027679,22.202462997643025,2251906503
fw,-68.3619613647461,-61.0668907165527,89.06189766681696,25.118752550293713,2251923170
fw,-66.9708023071289,-61.5290565490722,78.37146787318233,24.47146268891606,2251939837
fw,-65.9978103637695,-62.075927734375,65.61712424655269,21.22369834733019,2251956504
fw,-65.4234619140625,-62.880199432373,50.641190104798646,16.699482319804556,2251973171
fw,-65.1318283081054,-63.2155876159668,33.132543986058316,12.339769488786526,2251989838
fw,-64.8815765380859,-63.1858482360839,12.75612092144807,9.426173594698888,2252006505
fw,-64.663948059082,-63.2456550598144,-10.624913397191143,8.824779107141552,2252023172
fw,-64.8731079101562,-63.5176925659179,-36.70350437721052,10.817430619805489,2252039839
fw,-65.6367416381836,-64.0408401489257,-64.5687733343455,15.083588331539822,2252056506
fw,-67.0851669311523,-65.3998947143554,-92.7269860093332,20.851326116631892,2252073173
fw,-69.2621307373046,-66.3040466308593,-119.32868323507994,27.167230044545867,2252089840
fw,-71.8381958007812,-66.8192672729492,-142.53655641849525,33.18498213092734,2252106507
fw,-74.4732131958007,-67.7851333618164,-160.90642905246216,38.37512161534065,2252123174
fw,-76.9855880737304,-69.1067886352539,-173.65306844727147,42.60598160425227,2252139841
fw,-79.5689849853515,-70.5026092529296,-180.73072372667545,46.098232340702204,2252156508
fw,-82.142105102539,-71.801399230957,-182.73810797635846,49.28731542893875,2252173175
fw,-84.5444717407226,-73.0183334350586,-180.71315108865826,52.645379886585914,2252189842
fw,-86.2177352905273,-74.3286209106445,-175.89172167111954,56.523780064038405,2252206509
fw,-86.0465087890625,-75.831558227539,-169.47849995218337,61.06797969276513,2252223176
fw,-84.3951339721679,-77.4876251220703,-162.44746313045576,66.22225938606601,2252239843
fw,-82.2494659423828,-79.1673202514648,-155.37766187934102,71.7986707338155,2252256510
fw,-79.9635162353515,-80.808349609375,-148.33967641873173,77.5608984078774,2252273177
fw,-77.7171249389648,-82.353401184082,-140.8639904382297,83.2821126179174,2252289844
fw,-75.6677932739257,-83.9257888793945,-132.02656094642595,88.76457651190694,2252306511
fw,-73.8220825195312,-85.6267318725586,-120.67078529554692,93.83343985145048,2252323178
fw,-72.093032836914,-87.478889465332,-105.75034565735346,98.3220417597186,2252339845
fw,-70.5186920166015,-89.6133575439453,-86.73075847778603,102.05454067847975,2252356512
fw,-69.0888519287109,-89.1607055664062,-63.941293083663275,104.82059183308236,2252373179
fw,-67.9151458740234,-87.3298034667968,-38.74387659113304,106.34048216502713,2252389846
fw,-67.4074020385742,-85.6088027954101,-13.406438961482332,106.23612284601151,2252406513
fw,-67.8035659790039,-83.8489379882812,9.349717774363164,104.03683945947645,2252423180
fw,-69.4212570190429,-82.010627746582,27.029068603255524,99.24196008462636,2252439847
fw,-70.5324020385742,-80.1224136352539,38.046410338602875,91.43354293082903,2252456514
fw,-71.0638198852539,-78.5182342529296,42.16215502217841,80.3997601058271,2252473181
fw,-71.9489212036132,-77.3531875610351,40.50966283018813,66.21626022796748,2252489848
fw,-72.6637802124023,-76.5918807983398,35.22986847646842,49.25050230577269,2252506515
fw,-72.8814086914062,-76.2335968017578,28.87260541677494,30.091276685206182,2252523182
fw,-72.8341217041015,-76.1713485717773,23.7740110825309,9.437626472313863,2252539849
fw,-73.2353439331054,-76.3382034301757,21.588833075392106,-12.009877586297963,2252556516
fw,-73.9677352905273,-76.7559967041015,23.081144614436493,-33.626474489682025,2252573183
fw,-74.6907882690429,-77.6758422851562,28.17904611752768,-54.901735602929,2252589850
fw,-75.5409088134765,-79.177505493164,36.208554147731526,-75.44504698678566,2252606517
fw,-76.1055755615234,-80.7885284423828,46.180415281645956,-94.96423952127145,2252623184
fw,-77.1129531860351,-82.767578125,57.02625900846174,-113.22054404920192,2252639851
fw,-78.5125427246093,-84.799446105957,67.7403762172977,-129.96652656572743,2252656518
fw,-80.0885696411132,-85.4663772583007,77.4400519549397,-144.88234692160597,2252673185
fw,-81.6678924560546,-84.5440444946289,85.38843057991596,-157.53276852163282,2252689852
fw,-83.2896881103515,-82.8839035034179,91.02727924639294,-167.3686373813639,2252706519
fw,-84.9619598388671,-80.8527374267578,94.04717265626175,-173.78750370971923,2252723186
fw,-86.7470092773437,-78.5588302612304,94.48655010002625,-176.24589966656748,2252739853
fw,-88.5763244628906,-76.048355102539,92.8139138647287,-174.38988407673673,2252756520
fw,-89.4811172485351,-73.4341888427734,89.92995452153602,-168.1579031317064,2252773187
fw,-87.6656112670898,-70.8167648315429,87.04260905061882,-157.81831693980425,2252789854
fw,-86.1155624389648,-68.3474884033203,85.41540167230181,-143.92699240020957,2252806521
fw,-84.8230895996093,-66.1264572143554,86.04870179370478,-127.21870870027529,2252823188
fw,-83.5097351074218,-64.2775344848632,89.39624789152963,-108.472277341629,2252839855
fw,-81.9766387939453,-62.7775001525878,95.21960345872455,-88.40442556311879,2252856522
fw,-80.1025848388671,-61.5685272216796,102.63385106273165,-67.64112241658135,2252873189
fw,-77.9636459350586,-60.5703926086425,110.3205944756057,-46.78229526945692,2252889856
fw,-75.8389358520507,-59.7626876831054,116.82086774735332,-26.525695372141385,2252906523
fw,-73.8931655883789,-59.2502784729003,120.80507503328387,-7.771184183709889,2252923190
fw,-72.0910186767578,-59.3368530273437,121.25253821434374,8.383859091596428,2252939857
fw,-70.2396697998046,-59.9430809020996,117.52980952833158,20.806798707675792,2252956524
fw,-68.205337524414,-61.1226196289062,109.39485399848668,28.617524384454562,2252973191
fw,-66.2835540771484,-61.9107475280761,96.95507649692726,31.49128353257565,2252989858
fw,-64.8946685791015,-62.5661506652832,80.58801790134709,29.843195346580128,2253006525
fw,-64.1270294189453,-63.3353691101074,60.828142760459265,24.81192200424959,2253023192
fw,-63.8212814331054,-64.1048431396484,38.24511693503864,18.045679160224317,2253039859
fw,-63.7107620239257,-64.2870101928711,13.365114551118657,11.356620052066267,2253056526
fw,-63.7510414123535,-63.8242988586425,-13.319151269176631,6.333510191707959,2253073193
fw,-64.0912475585937,-63.7357063293457,-41.251177733259404,4.011327545877738,2253089860
fw,-64.9599456787109,-64.0055847167968,-69.68603371525695,4.696315760320024,2253106527
fw,-66.4921875,-64.7254638671875,-97.62379237296888,8.00910837634197,2253123194
fw,-68.5789947509765,-66.0043792724609,-123.85905634756146,13.1272016010113,2253139861
fw,-71.1344528198242,-66.5986251831054,-147.14178835461055,19.122214842091037,2253156528
fw,-73.8825531005859,-67.1915740966796,-166.38642672816007,25.254932842496547,2253173195
fw,-76.5138626098632,-68.0194396972656,-180.84641673184495,31.131612742334074,2253189862
fw,-79.2631072998046,-69.1462173461914,-190.19741834835895,36.703268910063194,2253206529
fw,-82.1626586914062,-70.4380493164062,-194.52318599785465,42.152214723535984,2253223196
fw,-84.9468536376953,-71.7154312133789,-194.23862755748166,47.73319883241148,2253239863
fw,-86.8548965454101,-72.9835357666015,-189.9924357110976,53.63111596416185,2253256530
fw,-86.1578903198242,-74.4520950317382,-182.57208596704325,59.87918160930513,2253273197
fw,-83.9362869262695,-76.0996704101562,-172.80993434518516,66.354758755277,2253289864
fw,-81.4365615844726,-77.8492202758789,-161.47992668669295,72.83825445806123,2253306531
fw,-78.9617309570312,-79.5845794677734,-149.18360163803916,79.09636769546225,2253323198
fw,-76.6930694580078,-81.2468719482421,-136.2428997433662,84.94790920784578,2253339865
fw,-74.759292602539,-82.8688125610351,-122.63492731609324,90.28844726055883,2253356532
fw,-73.172866821289,-84.5255355834961,-108.01225264609535,95.07463827368933,2253373199
fw,-71.8533935546875,-86.3096542358398,-91.84370781720742,99.28403142612605,2253389866
fw,-70.5555648803711,-88.1363830566406,-73.67693970565358,102.86599411023577,2253406533
fw,-69.1957550048828,-89.8380813598632,-53.46572985303394,105.6916812833599,2253423200
fw,-67.9779586791992,-88.2723999023437,-31.84339362973972,107.50787521433625,2253439867
fw,-67.510025024414,-86.5951538085937,-10.199053231260743,107.90651515131626,2253456534
fw,-68.0000228881836,-84.9558563232421,9.536641989756214,106.33218142799488,2253473201
fw,-69.1579055786132,-83.2340087890625,25.3685369480574,102.1501751913543,2253489868
fw,-70.2353439331054,-81.3605499267578,35.81543813011216,94.77886961292779,2253506535
fw,-71.0608139038086,-79.5790405273437,40.36625615010772,83.85611631751415,2253523202
fw,-71.8919372558593,-78.2121429443359,39.64108648142016,69.38009505527026,2253539869
fw,-72.6492309570312,-77.3468322753906,35.213953334983636,51.762887846672605,2253556536
fw,-72.8570327758789,-76.9523773193359,29.18288399302318,31.767275360200646,2253573203
fw,-72.7762603759765,-76.9194641113281,23.646210285107816,10.3466611632748,2253589870
fw,-72.9871444702148,-77.1545867919921,20.253420710210133,-11.553783561243847,2253606537
fw,-73.7481842041015,-77.7243881225586,19.953893882438447,-33.16775075574916,2253623204
fw,-74.4604797363281,-78.7430267333984,22.979275320788332,-54.00133927450404,2253639871
fw,-75.2407684326171,-79.9843673706054,28.999097074568212,-73.83112861714163,2253656538
fw,-75.6189270019531,-81.475715637207,37.33684580272216,-92.61788951382839,2253673205
fw,-76.350601196289,-83.3421554565429,47.15077478312254,-110.36873510441464,2253689872
fw,-77.4959335327148,-84.9012680053711,57.5438649248244,-126.99087406254463,2253706539
fw,-78.9662322998046,-85.0666046142578,67.62153671313936,-142.17901312792114,2253723206
fw,-80.5649795532226,-83.9812622070312,76.5370209652438,-155.3707326505554,2253739873
fw,-82.1161880493164,-82.335693359375,83.5573102876899,-165.79230604020398,2253756540
fw,-83.6725311279296,-80.3517227172851,88.16203372597704,-172.59626809228658,2253773207
fw,-85.3363723754882,-78.0345382690429,90.16188112021824,-175.06014269924282,2253789874
fw,-87.1669692993164,-75.5018920898437,89.79787342075434,-172.78662411735152,2253806541
fw,-89.1881942749023,-72.8756408691406,87.76810156112103,-165.83762105252734,2253823208
fw,-89.3017044067382,-70.2691497802734,85.13740039172045,-154.75378704804655,2253839875
fw,-87.5955581665039,-67.8031921386718,83.12240833685898,-140.44841815030685,2253856542
fw,-86.2241058349609,-65.6897583007812,82.79728316951591,-124.00618717395449,2253873209
fw,-84.8987350463867,-64.032485961914,84.80813087492557,-106.45157431908952,2253889876
fw,-83.4751739501953,-62.6827087402343,89.19203030566521,-88.5681206969196,2253906543
fw,-81.8212051391601,-61.4850158691406,95.36135573332948,-70.83639484068806,2253923210
fw,-79.9386672973632,-60.3596801757812,102.25174746341018,-53.51213130297722,2253939877
fw,-78.0103149414062,-59.4070816040039,108.57402620614806,-36.80162258808193,2253956544
fw,-76.1211242675781,-58.8753242492675,113.08410833098232,-21.041676896211488,2253973211
fw,-74.2539825439453,-58.7418556213378,114.79732697816459,-6.786752447482909,2253989878
fw,-72.3960876464843,-59.0967979431152,113.10882125128069,5.247974035292389,2254006545
fw,-70.4882659912109,-59.5152359008789,107.81558311255706,14.366934559567463,2254023212
fw,-68.6448059082031,-60.2047996520996,99.05397114368691,20.11956202393329,2254039879
fw,-67.1648025512695,-60.7500801086425,87.17295919807839,22.47809723484926,2254056546
fw,-66.1245193481445,-61.3276596069335,72.57205347874772,21.904850315221964,2254073213
fw,-65.4075698852539,-62.0790290832519,55.54972083878742,19.293859856300315,2254089880
fw,-64.9951095581054,-62.764965057373,36.22134243056469,15.807403384099342,2254106547
fw,-64.8374557495117,-62.7915077209472,14.55501750155935,12.643103508833667,2254123214
fw,-64.8133468627929,-62.6811790466308,-9.46898618930054,10.780471305257551,2254139881
fw,-64.8740234375,-63.091194152832,-35.629430649853,10.776177798818157,2254156548
fw,-65.6064376831054,-63.595645904541,-63.26724994899185,12.68117735784957,2254173215
fw,-67.1557388305664,-64.4880294799804,-91.22419343890435,16.113755655939407,2254189882
fw,-69.1722793579101,-65.4426193237304,-117.9669324341631,20.45567932476482,2254206549
fw,-71.7007217407226,-66.0547256469726,-141.86201425009162,25.08826145079077,2254223216
fw,-74.4608001708984,-66.7656631469726,-161.4996390836596,29.580110094426637,2254239883
fw,-77.1501998901367,-67.7173538208007,-175.95010741663236,33.77339827162709,2254256550
fw,-79.8620300292968,-68.925178527832,-184.87731267361397,37.76429808978225,2254273217
fw,-82.6401977539062,-70.2762603759765,-188.50093146443186,41.80944195353106,2254289884
fw,-85.2261962890625,-71.552375793457,-187.4557595300895,46.2034993560665,2254306551
fw,-87.0644836425781,-72.8366317749023,-182.61767048977808,51.16862500999848,2254323218
fw,-86.4541473388671,-74.259651184082,-174.94995183110004,56.783573389637226,2254339885
fw,-84.3141098022461,-75.845100402832,-165.38969402257916,62.963401661496476,2254356552
fw,-81.8087387084961,-77.4929046630859,-154.7637379589692,69.48341633082558,2254373219
fw,-79.2888793945312,-79.0970306396484,-143.7114596586524,76.02964307194303,2254389886
fw,-77.010871887207,-80.6574478149414,-132.60049486017448,82.2576561494356,2254406553
fw,-75.1104049682617,-82.2477951049804,-121.44685756578869,87.84906920645514,2254423220
fw,-73.5618133544921,-83.9195327758789,-109.88168476714777,92.56093695420009,2254439887
fw,-72.2652435302734,-85.6595458984375,-97.22342215637924,96.2615018067766,2254456554
fw,-70.936408996582,-87.426643371582,-82.69450846869175,98.93932471534288,2254473221
fw,-69.3207244873046,-89.0393753051757,-65.758388713445,100.67147414323112,2254489888
fw,-67.8948440551757,-88.9409408569336,-46.46967278928357,101.54773476199037,2254506555
fw,-67.0950851440429,-87.5242538452148,-25.678947984167436,101.57017127418186,2254523222
fw,-67.3295593261718,-86.0262069702148,-4.963399252101809,100.56888374504699,2254539889
fw,-68.0522842407226,-84.4098052978515,13.73149960864882,98.17937345164954,2254556556
fw,-69.0266036987304,-82.5946884155273,28.615093457469772,93.90538322910342,2254573223
fw,-69.6784591674804,-80.7540206909179,38.53746500623845,87.25014878932285,2254589890
fw,-70.4470672607421,-79.2406768798828,43.26496258568111,77.86152518545394,2254606557
fw,-71.4314956665039,-78.1337738037109,43.47882795202362,65.62808093991674,2254623224
fw,-72.0098037719726,-77.423599243164,40.54247369256585,50.6921628171498,2254639891
fw,-72.2615432739257,-77.0636901855468,36.14696220660583,33.393455998163255,2254656558
fw,-72.6388473510742,-76.8975601196289,31.954248743931057,14.190497504425613,2254673225
fw,-73.4821472167968,-76.9118347167968,29.329526956761228,-6.393106857792769,2254689892
fw,-74.3868179321289,-77.1527481079101,29.199779368792946,-27.782067373213284,2254706559
fw,-75.070556640625,-77.7883834838867,32.0157821398172,-49.34346325023969,2254723226
fw,-75.4666137695312,-79.1294555664062,37.7645465437949,-70.3979553247564,2254739893
fw,-76.1039428710937,-80.813980102539,45.996828224729434,-90.26865131561418,2254756560
fw,-77.2030792236328,-82.8035049438476,55.87575629455731,-108.35506596817703,2254773227
fw,-78.6167373657226,-84.860122680664,66.27600561074637,-124.19617818606504,2254789894
fw,-80.1846847534179,-86.1166229248046,75.95160219687148,-137.48962967356363,2254806561
fw,-81.7923736572265,-85.7312545776367,83.75951328624086,-148.05966716258197,2254823228
fw,-83.3899612426757,-84.1353912353515,88.8968311035972,-155.79609707243762,2254839895
fw,-84.9667434692382,-82.0555725097656,91.09209626971418,-160.6007815519809,2254856562
fw,-86.563735961914,-79.7545471191406,90.69002488007477,-162.36905927160456,2254873229
fw,-88.099365234375,-77.3894500732421,88.58723972119307,-161.0102226737282,2254889896
fw,-88.9286346435546,-74.9466247558593,86.0156656687965,-156.4911279999412,2254906563
fw,-88.0664978027343,-72.4768981933593,84.22244194534747,-148.8794753095283,2254923230
fw,-86.7377548217773,-70.0158309936523,84.14113364333971,-138.3665237661771,2254939897
fw,-85.2646789550781,-67.6873397827148,86.16331204890751,-125.25925680399988,2254956564
fw,-83.580940246582,-65.6535034179687,90.08646423124304,-109.94756078634622,2254973231
fw,-81.7002944946289,-64.0289230346679,95.24293587238647,-92.86857354074664,2254989898
fw,-79.7659530639648,-62.7250175476074,100.73974650802899,-74.49863448937364,2255006565
fw,-77.8933486938476,-61.6343650817871,105.70077890382653,-55.39328363912183,2255023232
fw,-76.1024703979492,-60.7179832458496,109.42019377148627,-36.26534086895496,2255039899
fw,-74.4173812866211,-60.0314903259277,111.39494447765239,-18.05244787087849,2255056566
fw,-72.8112869262695,-59.844554901123,111.26897663342687,-1.9034513193486629,2255073233
fw,-71.114761352539,-60.2418060302734,108.75736631011159,10.968285087707871,2255089900
fw,-69.2400436401367,-61.1500701904296,103.60963818281878,19.553992412198628,2255106567
fw,-67.2560501098632,-61.9473495483398,95.62728792817212,23.35424111522408,2255123234
fw,-65.5514068603515,-62.3830223083496,84.70163936432388,22.59383653705698,2255139901
fw,-64.4443893432617,-63.0569152832031,70.82070120501653,18.251607685566885,2255156568
fw,-63.8958129882812,-63.808536529541,54.02410434207831,11.887138220590236,2255173235
fw,-63.7175636291503,-64.0674362182617,34.34240285688402,5.316330970381512,2255189902
fw,-63.668888092041,-63.689582824707,11.793285099564692,0.22165163086360104,2255206569
fw,-63.5925369262695,-63.3926124572753,-13.514437938746694,-2.205197896856249,2255223236
fw,-63.7348937988281,-63.2993507385253,-41.191285881309376,-1.4893839156507191,2255239903
fw,-64.5037765502929,-63.6184577941894,-70.38954571306014,2.104759049014649,2255256570
fw,-66.136474609375,-64.7212753295898,-99.75607969637578,7.76260735436219,2255273237
fw,-68.3904800415039,-65.9102020263671,-127.5791854963865,14.445180734633228,2255289904
fw,-71.1485595703125,-66.2733764648437,-152.0949833245163,21.225152753023092,2255306571
fw,-74.0181121826171,-66.965950012207,-171.83861226452936,27.515323573921773,2255323238
fw,-76.8037643432617,-67.9256820678711,-185.90976978856935,33.13646554777503,2255339905
fw,-79.6085586547851,-69.1479873657226,-194.07329281768776,38.24534231804835,2255356572
fw,-82.5496520996093,-70.4571228027343,-196.69573143169487,43.18458785290585,2255373239
fw,-85.2975921630859,-71.7077865600586,-194.57852550051237,48.319295493482365,2255389906
fw,-86.910415649414,-72.9881820678711,-188.75995518490976,53.90921539351144,2255406573
fw,-85.9031829833984,-74.4514694213867,-180.33151835210091,60.043157621416164,2255423240
fw,-83.6889419555664,-76.0441818237304,-170.2817587025977,66.63737561906213,2255439907
fw,-81.2141647338867,-77.7265396118164,-159.3661452116142,73.47849343230041,2255456574
fw,-78.7370986938476,-79.3915863037109,-148.00690149023043,80.28314006408571,2255473241
fw,-76.4643249511718,-81.0317153930664,-136.23880088805996,86.75354672932112,2255489908
fw,-74.4779052734375,-82.7077941894531,-123.72472925795158,92.62222460658646,2255506575
fw,-72.7861099243164,-84.5277938842773,-109.86375188601956,97.68666288846451,2255523242
fw,-71.3635635375976,-86.4399337768554,-94.00086997322028,101.83137373364389,2255539909
fw,-69.9832305908203,-88.3401107788086,-75.71715962415354,105.02587654629323,2255556576
fw,-68.6162872314453,-90.0,-55.13365592521599,107.28563038655136,2255573243
fw,-67.4721450805664,-88.0798034667968,-33.11947251581295,108.5957791963259,2255589910
fw,-67.1418838500976,-86.3662185668945,-11.286239089498865,108.82009116346677,2255606577
fw,-67.4406433105468,-84.7116165161132,8.294366085797181,107.6358883380551,2255623244
fw,-68.7687759399414,-83.0018157958984,23.60031865448223,104.53655234779593,2255639911
fw,-69.7649002075195,-81.1465225219726,33.2288363293953,98.92069841663894,2255656578
fw,-70.2732315063476,-79.2856063842773,36.81206394573489,90.24801589059733,2255673245
fw,-71.1253280639648,-77.7344741821289,35.12864825037523,78.20543346664036,2255689912
fw,-71.9550247192382,-76.6326293945312,29.893565851021147,62.81655739057419,2255706579
fw,-72.1590881347656,-75.9786529541015,23.32355062423125,44.451784271803604,2255723246
fw,-71.8808822631836,-75.7631454467773,17.62448271603044,23.742738362570524,2255739913
fw,-71.9747009277343,-75.8577270507812,14.543767057653204,1.4455277433719087,2255756580
fw,-72.5977172851562,-76.1673736572265,15.095691046093139,-21.688860517605534,2255773247
fw,-73.1720352172851,-76.8133239746093,19.50183366692504,-44.994888407618184,2255789914
fw,-73.9689788818359,-78.0443725585937,27.308727415794852,-67.91256757481423,2255806581
fw,-74.3532562255859,-79.532470703125,37.59527649833237,-89.96198125182013,2255823248
fw,-75.1180801391601,-81.4223403930664,49.189049589412164,-110.69616995613399,2255839915
fw,-76.3486328125,-83.5169906616211,60.85248100281398,-129.65299724663106,2255856582
fw,-77.8895416259765,-84.9388732910156,71.4363904350309,-146.3201149104965,2255873249
fw,-79.5232620239257,-85.0313110351562,80.00970477584004,-160.12421123175628,2255889916
fw,-81.1310882568359,-83.9892120361328,85.96950939282996,-170.4569193299728,2255906583
fw,-82.7206954956054,-82.1979293823242,89.12749350732759,-176.7476048898738,2255923250
fw,-84.4179458618164,-79.8219604492187,89.75939693461495,-178.57842899475995,2255939917
fw,-86.2367782592773,-77.1710815429687,88.5930639790134,-175.81207494440105,2255956584
fw,-88.1546401977539,-74.4578628540039,86.7071070487917,-168.68356870447332,2255973251
fw,-90.0,-71.7970581054687,85.32878100304187,-157.8099297560444,2255989918
fw,-88.5519256591796,-69.2558288574218,85.55814053888396,-144.09672545175766,2256006585
fw,-86.9765090942382,-66.9611892700195,88.08855920962687,-128.55876251474484,2256023252
fw,-85.3800964355468,-65.0742874145507,93.01388448947857,-112.10880504149752,2256039919
fw,-83.6821746826171,-63.5598678588867,99.79209647397565,-95.38965099757161,2256056586
fw,-81.7681808471679,-62.2312278747558,107.37990836888393,-78.71938696685389,2256073253
fw,-79.6907119750976,-60.9076461791992,114.48891537724663,-62.180990646455164,2256089920
fw,-77.5710296630859,-59.6832809448242,119.87323238365892,-45.823652723908005,2256106587
fw,-75.5208969116211,-58.8674011230468,122.55905473431069,-29.882291656949757,2256123254
fw,-73.6158828735351,-58.6051406860351,121.96351028538915,-14.901438623971885,2256139921
fw,-71.8232955932617,-58.8058815002441,117.90058230123729,-1.6903440248368633,2256156588
fw,-69.9668426513671,-59.2608337402343,110.50840110776576,8.880283977064591,2256173255
fw,-68.0170364379882,-59.8878860473632,100.13883190773954,16.15127095146211,2256189922
fw,-66.3296356201171,-60.3988571166992,87.23298923497457,19.90121121404366,2256206589
fw,-65.2091903686523,-60.894416809082,72.1900634343359,20.442917381732254,2256223256
fw,-64.6023025512695,-61.5994148254394,55.24461064197593,18.572164907871727,2256239923
fw,-64.3434143066406,-62.3373260498046,36.39498621582726,15.401695634161248,2256256590
fw,-64.2269287109375,-62.5015029907226,15.44018297339986,12.12897479145172,2256273257
fw,-64.0701522827148,-62.3665466308593,-7.847017897657478,9.785985701504805,2256289924
fw,-64.1190032958984,-62.5531120300293,-33.45230538222591,9.028533296459884,2256306591
fw,-64.7757186889648,-62.9012908935546,-60.86763617932897,10.030891591834713,2256323258
fw,-66.0854568481445,-63.7596473693847,-88.98227435507566,12.52855179808535,2256339925
fw,-68.015510559082,-65.0836715698242,-116.19204246688112,15.9934537649059,2256356592
fw,-70.5658950805664,-65.5018844604492,-140.7047231029326,19.866984967629676,2256373259
fw,-73.4144897460937,-65.8917083740234,-160.93069904802732,23.75722004570138,2256389926
fw,-76.1127471923828,-66.7123794555664,-175.81296685020357,27.538558468517238,2256406593
fw,-78.7523422241211,-67.8934860229492,-184.98554972707734,31.344221619555114,2256423260
fw,-81.4584045410156,-69.0937271118164,-188.73273204235167,35.47731529446823,2256439927
fw,-83.961196899414,-70.2410278320312,-187.80526786690547,40.27746350708504,2256456594
fw,-85.9635238647461,-71.3249282836914,-183.1894390012531,45.98385821265749,2256473261
fw,-86.1817626953125,-72.5922164916992,-175.90958343751433,52.63717474190117,2256489928
fw,-84.5775833129882,-74.0868606567382,-166.89779587215367,60.05121828350416,2256506595
fw,-82.3466567993164,-75.7137985229492,-156.9201095464318,67.85691550863793,2256523262
fw,-79.9566802978515,-77.3721923828125,-146.52873708367275,75.59158847810349,2256539929
fw,-77.6958541870117,-79.020263671875,-136.01731813514857,82.79500117160082,2256556596
fw,-75.776496887207,-80.6057662963867,-125.3802662490681,89.0850025976635,2256573263
fw,-74.1192016601562,-82.2316131591796,-114.3043373419274,94.2061304887249,2256589930
fw,-72.6488952636718,-84.0269622802734,-102.2349767172541,98.05645761678369,2256606597
fw,-71.2511520385742,-85.9305725097656,-88.5469944389642,100.69403900259266,2256623264
fw,-69.7934265136718,-87.8365325927734,-72.80493909147349,102.31255661655045,2256639931
fw,-68.4738311767578,-90.0,-55.03983594586641,103.17252532413659,2256656598
fw,-67.5367584228515,-89.0128555297851,-35.928671275913906,103.48999132703331,2256673265
fw,-67.3002471923828,-87.2994842529296,-16.773177376713043,103.31227451643939,2256689932
fw,-67.6366500854492,-85.6623458862304,0.7559858031946837,102.4304409795271,2256706599
fw,-68.3263244628906,-83.9462509155273,15.042112210921866,100.37414490594915,2256723266
fw,-69.2239608764648,-82.0672454833984,24.964470682586583,96.50431165521987,2256739933
fw,-69.7527694702148,-80.2494583129882,30.198342360885672,90.17660789816334,2256756600
fw,-70.3382415771484,-78.7162475585937,31.274396056440185,80.91617731286789,2256773267
fw,-71.1643600463867,-77.5171661376953,29.400043570971366,68.54039186303777,2256789934
fw,-71.4702453613281,-76.7117309570312,26.128916381757932,53.193320979906055,2256806601
fw,-71.4281692504882,-76.2442779541015,22.99725755588332,35.29629230881094,2256823268
fw,-71.802734375,-76.0603790283203,21.234099186328727,15.450232988421464,2256839935
fw,-72.5700378417968,-76.1193542480468,21.61211802092862,-5.666288557682374,2256856602
fw,-73.2335891723632,-76.4478607177734,24.446045927985324,-27.372821838987523,2256873269
fw,-74.0803833007812,-77.2721710205078,29.685017636954917,-49.02833861241322,2256889936
fw,-74.6491775512695,-78.6037292480468,37.01958499905131,-70.04592953056857,2256906603
fw,-75.1178894042968,-80.1387329101562,45.94918888638924,-89.89237052598173,2256923270
fw,-76.0871276855468,-82.0267105102539,55.80787572590357,-108.08054437897451,2256939937
fw,-77.4564132690429,-84.0150985717773,65.78497971359961,-124.15989141438224,2256956604
fw,-79.0125503540039,-85.2406692504882,74.98161357919736,-137.70967505421044,2256973271
fw,-80.5836410522461,-85.1964950561523,82.52101281894467,-148.34099651016797,2256989938
fw,-82.1831741333007,-84.0888519287109,87.70214415515615,-155.7161496326739,2257006605
fw,-83.7847366333007,-82.388313293457,90.16386968738743,-159.59369556866253,2257023272
fw,-85.517822265625,-80.2743911743164,90.01252498597394,-159.8967788220392,2257039939
fw,-87.3296585083007,-77.9467620849609,87.86093697868982,-156.7816332153696,2257056606
fw,-89.2744903564453,-75.5195159912109,84.73935983705407,-150.66682841108036,2257073273
fw,-89.4887161254882,-73.0928573608398,81.87462561909065,-142.18702456282514,2257089940
fw,-87.9099731445312,-70.7591781616211,80.38624999377684,-132.06202566585674,2257106607
fw,-86.5370025634765,-68.6789245605468,80.99368428229509,-120.91265600404469,2257123274
fw,-85.0706176757812,-66.8900680541992,83.83798108362211,-109.09042520043621,2257139941
fw,-83.4710845947265,-65.3333587646484,88.48058043713179,-96.59906969847074,2257156608
fw,-81.7408447265625,-63.8917007446289,94.06900775835159,-83.16236677334365,2257173275
fw,-79.8916778564453,-62.51948928833,99.59296221277648,-68.43785290064758,2257189942
fw,-78.0693893432617,-61.3413619995117,104.12865317446882,-52.309603391763645,2257206609
fw,-76.3631515502929,-60.470890045166,106.99258931756843,-35.14495953233907,2257223276
fw,-74.7552032470703,-60.0192642211914,107.7801224019359,-17.89728808585286,2257239943
fw,-73.1498565673828,-60.129467010498,106.31783516775319,-1.987801127295204,2257256610
fw,-71.4830169677734,-60.5722579956054,102.58507891472162,11.014428706228331,2257273277
fw,-69.6902389526367,-61.2810668945312,96.64870445937939,19.811856998916674,2257289944
fw,-67.8600921630859,-62.0232620239257,88.61916618434407,23.753217401044942,2257306611
fw,-66.3767623901367,-62.4221649169921,78.60464645533536,23.03897344872193,2257323278
fw,-65.4681625366211,-62.9800415039062,66.64002677266538,18.701121312395234,2257339945
fw,-64.9892578125,-63.6627578735351,52.60411905580191,12.379085053914038,2257356612
fw,-64.7227401733398,-63.8796463012695,36.183850659938265,5.962252187562561,2257373279
fw,-64.4875717163086,-63.6160125732421,16.95460318314098,1.183512640680886,2257389946
fw,-64.2097244262695,-63.2954063415527,-5.401579549864488,-0.7484843948905189,2257406613
fw,-64.14794921875,-63.2971267700195,-30.802712871832533,0.6136327850541208,2257423280
fw,-64.7851257324218,-63.5172424316406,-58.52880035892001,4.924831770935828,2257439947
fw,-66.1895141601562,-64.7077484130859,-87.17021722738387,11.238993202052034,2257456614
fw,-68.2310791015625,-65.6286392211914,-114.8195022758445,18.355542036097912,2257473281
fw,-70.9171752929687,-66.1517257690429,-139.45351616531784,25.192842641958233,2257489948
fw,-73.7576675415039,-66.8952713012695,-159.36798825131632,31.060286284703484,2257506615
fw,-76.4472885131836,-67.9813842773437,-173.51005795158068,35.76064274748993,2257523282
fw,-79.0629425048828,-69.2416687011718,-181.61034873074306,39.52945920426166,2257539949
fw,-81.7852325439453,-70.5460739135742,-184.1092915267067,42.86705607492678,2257556616
fw,-84.4483642578125,-71.7692565917968,-181.9496964408858,46.33335175825605,2257573283
fw,-86.7977752685546,-73.0280303955078,-176.3316471101566,50.36963084116384,2257589950
fw,-87.3466491699218,-74.4425354003906,-168.49809594916627,55.19240070363331,2257606617
fw,-85.6017608642578,-75.9847335815429,-159.57176080166107,60.77433621399552,2257623284
fw,-83.2692108154296,-77.5755081176757,-150.43003206169644,66.89443254639731,2257639951
fw,-80.9155960083007,-79.1356506347656,-141.6000123605528,73.219943133384,2257656618
fw,-78.6914672851562,-80.6755142211914,-133.1749032269738,79.38623521253571,2257673285
fw,-76.7307357788086,-82.2332763671875,-124.77900089245472,85.05988953726597,2257689952
fw,-74.9941253662109,-83.8876953125,-115.62438972013054,89.98681980837696,2257706619
fw,-73.4312667846679,-85.6318359375,-104.69514361984236,94.02827926724186,2257723286
fw,-71.9159698486328,-87.4439620971679,-91.05839599855783,97.17614949364872,2257739953
fw,-70.3089904785156,-89.1221847534179,-74.24198034903128,99.5289362162799,2257756620
fw,-68.8032684326171,-88.907112121582,-54.55834445747307,101.21530140365968,2257773287
fw,-67.9439239501953,-87.4358520507812,-33.230568903425,102.27594746064702,2257789954
fw,-68.0064620971679,-85.9502029418945,-12.22062592086212,102.54570803985406,2257806621
fw,-68.5761413574218,-84.3772277832031,6.228704066597477,101.5948826937681,2257823288
fw,-69.4956893920898,-82.6021194458007,20.19796873299998,98.77510765044873,2257839955
fw,-70.1987915039062,-80.6773223876953,28.627093389117935,93.37065119227712,2257856622
fw,-70.6384963989257,-78.9263076782226,31.59466684065828,84.80268818978368,2257873289
fw,-71.3567123413086,-77.5616912841796,30.259817521975194,72.80393250743035,2257889956
fw,-71.8622741699218,-76.6330261230468,26.513441320278545,57.49440072913154,2257906623
fw,-71.7849731445312,-76.1376953125,22.472455288011478,39.33848502918478,2257923290
fw,-71.5907821655273,-76.0378723144531,19.97877438523195,19.018613916287336,2257939957
fw,-72.0294570922851,-76.1442947387695,20.244412143044507,-2.709355133873997,2257956624
fw,-72.6922454833984,-76.4128112792968,23.723042469245687,-25.121700480686844,2257973291
fw,-73.6166305541992,-77.0378646850586,30.198080876825227,-47.570921379047654,2257989958
fw,-74.4823150634765,-78.3289947509765,38.99701906713828,-69.48239065464234,2258006625
fw,-75.021484375,-79.8711929321289,49.2176521513771,-90.33331520589307,2258023292
fw,-76.0039672851562,-81.7497406005859,59.891962517956465,-109.63582891341035,2258039959
fw,-77.3563156127929,-83.8491058349609,70.0799243549719,-126.92938646738567,2258056626
fw,-78.9756698608398,-85.1293869018554,78.93070361857455,-141.77731806280136,2258073293
fw,-80.7001419067382,-85.0818405151367,85.75195444988213,-153.76369751646249,2258089960
fw,-82.3636016845703,-84.0107727050781,90.10132793618975,-162.49669116749448,2258106627
fw,-83.9387435913086,-82.3175811767578,91.88271512309517,-167.6333544416994,2258123294
fw,-85.6324691772461,-80.144775390625,91.41042708299612,-168.93608622587828,2258139961
fw,-87.3849182128906,-77.6822280883789,89.40218906473639,-166.35071218832476,2258156628
fw,-89.2166595458984,-75.1317062377929,86.87477158729041,-160.07362225582253,2258173295
fw,-88.9903182983398,-72.6021957397461,84.94279342520673,-150.56755146761046,2258189962
fw,-87.4622497558593,-70.1455993652343,84.55836136755853,-138.50017904872269,2258206629
fw,-86.0709609985351,-67.9101181030273,86.26437321403887,-124.61135347698308,2258223296
fw,-84.6371459960937,-66.0429382324218,90.0472912012167,-109.54959796172759,2258239963
fw,-82.9796524047851,-64.5076217651367,95.35052581613677,-93.74152197836708,2258256630
fw,-81.068603515625,-63.183307647705,101.25040314574385,-77.3570284642663,2258273297
fw,-79.0357284545898,-61.9887542724609,106.72863746532389,-60.40309389239065,2258289964
fw,-76.9867706298828,-60.9839668273925,110.93395866880554,-42.92524213048621,2258306631
fw,-75.0478134155273,-60.2518234252929,113.33413931139462,-25.23951122362404,2258323298
fw,-73.297134399414,-59.8334770202636,113.71353857628917,-8.087450159803698,2258339965
fw,-71.6388549804687,-59.8868751525878,112.04210750783157,7.377092420310717,2258356632
fw,-70.0305709838867,-60.4569129943847,108.2947747509845,19.79850478121081,2258373299
fw,-68.3727645874023,-61.3188018798828,102.31181449962803,27.97199990233924,2258389966
fw,-66.6592788696289,-62.2451934814453,93.75949842617938,31.21528796616394,2258406633
fw,-65.0289535522461,-62.7868576049804,82.19589102082602,29.62209965107882,2258423300
fw,-63.8172569274902,-63.3195762634277,67.19982855030044,24.109023245731088,2258439967
fw,-63.0951080322265,-64.0471649169921,48.50644704287659,16.247779800954802,2258456634
fw,-62.8396873474121,-64.432388305664,26.11253610734939,7.939058931973784,2258473301
fw,-62.9342231750488,-64.1614608764648,0.34729134512688953,1.0112273402300296,2258489968
fw,-63.2250251770019,-63.9071502685546,-28.080851119005153,-3.1633365227225405,2258506635
fw,-63.8794937133789,-63.8775558471679,-58.06423825599446,-3.9352108180213774,2258523302
fw,-65.1774063110351,-63.8604927062988,-88.13109987548185,-1.4447002158673299,2258539969
fw,-67.0614242553711,-64.8233032226562,-116.57039537214519,3.537106014879713,2258556636
fw,-69.4432067871093,-65.7759170532226,-141.65302557219516,9.93369592448415,2258573303
fw,-72.3113098144531,-66.0628051757812,-161.9073468415024,16.729258803546823,2258589970
fw,-75.1727142333984,-66.9474105834961,-176.3695742826264,23.24305991561842,2258606637
fw,-77.8518142700195,-68.2258911132812,-184.72989948166176,29.235391729853486,2258623304
fw,-80.5829086303711,-69.4554595947265,-187.33603683663173,34.84675152178111,2258639971
fw,-83.3178634643554,-70.6166839599609,-185.07315756969422,40.4281552514973,2258656638
fw,-85.8341598510742,-71.7809677124023,-179.175984989811,46.34160671215895,2258673305
fw,-86.9730834960937,-73.08740234375,-171.02548854764152,52.80274787372307,2258689972
fw,-85.7907638549804,-74.5412902832031,-161.95311986403738,59.8088811075898,2258706639
fw,-83.7011947631836,-76.1531829833984,-153.05188689557392,67.15520305385192,2258723306
fw,-81.4436798095703,-77.8207778930664,-144.99589520643897,74.50942636088166,2258739973
fw,-79.2539520263671,-79.4882278442382,-137.89322039907375,81.504588161579,2258756640
fw,-77.2769012451171,-81.1915283203125,-131.22090267733893,87.81984186958121,2258773307
fw,-75.4281463623046,-82.9128799438476,-123.89648337425778,93.23552448120432,2258789974
fw,-73.6623382568359,-84.6928253173828,-114.5178706314112,97.65912640091054,2258806641
