Label,Left_Hip_q,Right_Hip_q,Left_Hip_qd,Right_Hip_qd,SampleTimeFine
iw,-69.7764739990234,-79.4788284301757,27.3359699249267,31.0239963531494,3435946850
iw,-70.2214202880859,-79.2353744506836,19.46540018103374,14.940850309605475,3435963517
iw,-70.7039642333984,-79.2436981201171,28.62873647429352,-6.74023648936844,3435980184
iw,-71.7057418823242,-79.4852447509765,37.56419081587803,-28.207625446082645,3435996851
iw,-72.8098526000976,-80.1157302856445,46.05267531005254,-49.28326368425081,3436013518
iw,-73.8958358764648,-81.3487167358398,53.954865428758275,-69.64721090082507,3436030185
iw,-74.7083358764648,-83.058609008789,61.19346653355563,-88.85796819984957,3436046852
iw,-75.8871002197265,-84.9624252319336,67.70250193701668,-106.43492121203208,3436063519
iw,-77.3923645019531,-86.6640472412109,73.37287613859353,-121.95030236668794,3436080186
iw,-78.8305435180664,-86.8275756835937,78.02324177707189,-135.07924570109088,3436096853
iw,-80.2505111694336,-85.0635833740234,81.41179204768913,-145.58787330851217,3436113520
iw,-81.7109680175781,-82.7547836303711,83.29317818829315,-153.2800181769918,3436130187
iw,-83.2931365966796,-80.4411163330078,83.51546138593908,-157.9499884368742,3436146854
iw,-84.9995880126953,-78.1060409545898,82.13398920305505,-159.38750475837415,3436163521
iw,-86.717300415039,-75.6552352905273,79.49549556987398,-157.45147237676082,3436180188
iw,-88.4071350097656,-73.1827850341796,76.2382212896737,-152.18629960944267,3436196855
iw,-90.0,-70.7539825439453,73.17980188410114,-143.9215926464798,3436213522
iw,-88.8942947387695,-68.4192199707031,71.116818856666,-133.2928537750969,3436230189
iw,-87.5952377319336,-66.1966400146484,70.60873350282047,-121.15106379532284,3436246856
iw,-86.164924621582,-64.1884460449218,71.83279110409131,-108.37892368810888,3436263523
iw,-84.688247680664,-62.5196380615234,74.56430900281218,-95.678439338491,3436280190
iw,-83.2892227172851,-61.1222305297851,78.27761267620569,-83.41728282533133,3436296857
iw,-81.8570327758789,-59.7917900085449,82.31268577039151,-71.60619382861928,3436313524
iw,-80.3844451904296,-58.4498100280761,86.03672226588488,-60.025946907977904,3436330191
iw,-78.9234466552734,-57.2797546386718,88.9479185553575,-48.44993192764017,3436346858
iw,-77.5307312011718,-56.474510192871,90.70427213855709,-36.85562654564362,3436363525
iw,-76.1952285766601,-56.0573654174804,91.09518867400492,-25.520740715343,3436380192
iw,-74.802993774414,-55.9722595214843,89.99461628848948,-14.961168882153009,3436396859
iw,-73.2741546630859,-55.9495620727539,87.33196062648807,-5.7516621755661745,3436413526
iw,-71.7106399536132,-55.9674606323242,83.09198452451099,1.6754573594653388,3436430193
iw,-70.1991882324218,-56.0324058532714,77.32268983,7.1631991486111515,3436446860
iw,-68.8982467651367,-56.1923179626464,70.11403451410574,10.857044533822238,3436463527
iw,-68.0355529785156,-56.5027618408203,61.52533276938162,13.148165159866144,3436480194
iw,-67.478401184082,-57.0544242858886,51.47980393527342,14.580563322458632,3436496861
iw,-67.006591796875,-57.6281700134277,39.68543984675464,15.75542021938444,3436513528
iw,-66.6976623535156,-57.9155235290527,25.65161286397911,17.23837057970115,3436530195
iw,-66.4739685058593,-58.6187553405761,8.836882144189085,19.46731604271128,3436546862
iw,-66.3518905639648,-59.5676803588867,-11.100276102178455,22.672473430640306,3436563529
iw,-66.5635757446289,-60.6700592041015,-34.03618177407464,26.83216812996823,3436580196
iw,-67.3843078613281,-61.5838088989257,-59.21436959630373,31.68170537331691,3436596863
iw,-68.780532836914,-62.3087005615234,-85.26012916961895,36.7774330955468,3436613530
iw,-70.7732543945312,-63.359519958496,-110.39201091427368,41.60589181080737,3436630197
iw,-73.2537002563476,-64.6692428588867,-132.766240858799,45.717689178490545,3436646864
iw,-75.9042739868164,-66.1448516845703,-150.83922544780702,48.854568264164804,3436663531
iw,-78.5450286865234,-67.514404296875,-163.63295868326114,51.032578518902476,3436680198
iw,-81.0578918457031,-68.7692489624023,-170.83528812732806,52.55272120690941,3436696865
iw,-83.4649353027343,-70.0721435546875,-172.73654863993912,53.931648579076324,3436713532
iw,-85.736343383789,-71.4338150024414,-170.06197356532294,55.76864271960374,3436730199
iw,-87.4264068603515,-72.8126068115234,-163.7808271177065,58.58183319569791,3436746866
iw,-87.2127990722656,-74.1890792846679,-154.95491079694352,62.65442966102217,3436763533
iw,-85.2409133911132,-75.533706665039,-144.64660153539046,67.93242039918985,3436780200
iw,-83.0292892456054,-76.9101409912109,-133.86378964456173,74.0075361964202,3436796867
iw,-80.8839645385742,-78.4549942016601,-123.49799388361805,80.19964002365822,3436813534
iw,-78.9965591430664,-80.1654357910156,-114.22400523566156,85.72208847094741,3436830201
iw,-77.3614196777343,-81.8909530639648,-106.36848501773811,89.88223071733472,3436846868
iw,-75.8749008178711,-83.5421752929687,-99.79818420857372,92.25261665272745,3436863535
iw,-74.3963851928711,-85.1052703857421,-93.89831489230305,92.75730640482715,3436880202
iw,-72.8979110717773,-86.5415878295898,-87.69180356825385,91.64912469264641,3436896869
iw,-71.4275207519531,-87.8032302856445,-80.09616280085709,89.39303247107145,3436913536
iw,-70.0185852050781,-88.7106246948242,-70.25188762788446,86.50105765886065,3436930203
iw,-68.8440322875976,-88.5595169067382,-57.81567438704955,83.37497857299427,3436946870
iw,-67.9581985473632,-87.5037841796875,-43.11366923546434,80.20270943487097,3436963537
iw,-67.5600128173828,-86.2306976318359,-27.09540894999685,76.9292996070552,3436980204
iw,-67.5921096801757,-84.9559326171875,-11.100338135316361,73.2948563640689,3436996871
iw,-67.7581787109375,-83.7278060913086,3.4843144980908565,68.91137017561667,3437013538
iw,-68.1300277709961,-82.6114883422851,15.562575200278225,63.345320979564725,3437030205
iw,-68.5190505981445,-81.636116027832,24.567235807678646,56.18213391249201,3437046872
iw,-69.1927490234375,-80.8462905883789,30.543422547677732,47.065037535422064,3437063539
iw,-69.8929367065429,-80.3053588867187,34.07737109127277,35.71635140334548,3437080206
iw,-70.3727111816406,-80.0262832641601,36.10798549449405,21.95767912630451,3437096873
iw,-70.8554077148437,-79.9634399414062,37.681719142701404,5.743899475437269,3437113540
iw,-71.5229721069336,-80.1120910644531,39.71984965872333,-12.785937294828571,3437130207
iw,-72.7382507324218,-80.4903945922851,42.85535597001161,-33.255482546444455,3437146874
iw,-73.9523544311523,-81.323257446289,47.362697451119296,-55.0242267361919,3437163541
iw,-74.8341751098632,-82.6976852416992,53.16571531889542,-77.21367267207458,3437180208
iw,-75.6697540283203,-84.3512496948242,59.892364608893764,-98.79275248831463,3437196875
iw,-76.9752120971679,-86.072151184082,66.95445782953496,-118.70052436016852,3437213542
iw,-78.4986724853515,-86.6705703735351,73.64505663315592,-135.9672856064456,3437230209
iw,-80.0232696533203,-85.306396484375,79.24853022327471,-149.80100039423152,3437246876
iw,-81.4142303466796,-83.068115234375,83.15424180424809,-159.62975691364682,3437263543
iw,-82.9086227416992,-80.7587356567382,84.96502217341764,-165.11651556017642,3437280210
iw,-84.5375061035156,-78.3758163452148,84.59141821638411,-166.17253218183484,3437296877
iw,-86.2336044311523,-75.8929901123046,82.31262657469945,-162.98323565253537,3437313544
iw,-87.9635620117187,-73.3273162841796,78.77201982024933,-156.03345409239765,3437330211
iw,-89.5488967895507,-70.9280624389648,74.87963354340143,-146.09770559915486,3437346878
iw,-89.0943222045898,-68.7167892456054,71.62544900851476,-134.1630525659489,3437363545
iw,-87.7473678588867,-66.6262969970703,69.85050614169153,-121.27814582359903,3437380212
iw,-86.4334411621093,-64.6450042724609,70.04927410866247,-108.35811231541462,3437396879
iw,-85.1730575561523,-62.881965637207,72.26814675888903,-96.00237954078742,3437413546
iw,-83.9080276489257,-61.3937911987304,76.12702093799709,-84.3896886275312,3437430213
iw,-82.5564804077148,-60.0357704162597,80.94561802991936,-73.29792604265832,3437446880
iw,-81.0603561401367,-58.71968460083,85.92396104241453,-62.25766358949301,3437463547
iw,-79.4891815185546,-57.524299621582,90.31613912264682,-50.79647046412967,3437480214
iw,-77.9663162231445,-56.6689720153808,93.54785077167556,-38.687217926254,3437496881
iw,-76.5072708129882,-56.1766128540039,95.25577219318171,-26.104032711692504,3437513548
iw,-75.0171661376953,-55.9737091064453,95.25962397593527,-13.625612430093204,3437530215
iw,-73.4811172485351,-56.0386199951171,93.50063183070196,-2.0900583661974528,3437546882
iw,-71.9545440673828,-56.0466804504394,89.98181182195785,7.6372971429347185,3437563549
iw,-70.4515914916992,-56.2269630432128,84.72842812431115,14.899643319403786,3437580216
iw,-69.0494155883789,-56.6483688354492,77.76521446298334,19.42081377554548,3437596883
iw,-67.8578872680664,-57.1688499450683,69.09558909311892,21.380515707079176,3437613550
iw,-66.9494857788086,-57.838451385498,58.67367776080241,21.38735277239214,3437630217
iw,-66.3191528320312,-58.4689331054687,46.37794530908957,20.359145625071267,3437646884
iw,-65.912124633789,-58.7962570190429,32.01261973691979,19.33161546495993,3437663551
iw,-65.7107543945312,-59.1802291870117,15.365256971506279,19.23401145007108,3437680218
iw,-65.7282791137695,-59.8371849060058,-3.6711793384585794,20.687223130627533,3437696885
iw,-65.8917694091796,-60.7776451110839,-24.93898638775626,23.879607032134174,3437713552
iw,-66.3536071777343,-61.7884407043457,-47.88011228941687,28.552130777938658,3437730219
iw,-67.354248046875,-62.6132125854492,-71.49629474152104,34.091006079921094,3437746886
iw,-68.9410858154296,-63.5842056274414,-94.45183364299201,39.700031764994,3437763553
iw,-71.0891799926757,-64.7275314331054,-115.3088384665778,44.61073538961037,3437780220
iw,-73.5665206909179,-66.0821762084961,-132.82166232990943,48.28126122951571,3437796887
iw,-76.0800552368164,-67.5167465209961,-146.18354536311284,50.5338688226614,3437813554
iw,-78.3817367553711,-68.7905654907226,-155.13670936831988,51.59177893842596,3437830221
iw,-80.6288757324218,-70.0297164916992,-159.91973024185063,52.00296324059209,3437846888
iw,-82.909309387207,-71.3158645629882,-161.0980544243539,52.47443331546877,3437863555
iw,-85.0693893432617,-72.6689300537109,-159.36545789982793,53.669271057521236,3437880222
iw,-86.9760589599609,-74.0388107299804,-155.398136907525,56.026586837426194,3437896889
iw,-87.5364532470703,-75.3971328735351,-149.80004220594262,59.651739744096254,3437913556
iw,-85.8962097167968,-76.7516403198242,-143.1241495978379,64.30060065426976,3437930223
iw,-83.7245864868164,-78.1797561645507,-135.91495364247572,69.45642923391813,3437946890
iw,-81.5146713256836,-79.7324905395507,-128.70979754759642,74.47465570925426,3437963557
iw,-79.48974609375,-81.2975311279296,-121.96422153460107,78.75249539441238,3437980224
iw,-77.6627883911132,-82.8367538452148,-115.91559134457395,81.87312442478522,3437996891
iw,-75.9980239868164,-84.3183212280273,-110.44505682591318,83.68357885581092,3438013558
iw,-74.4162216186523,-85.7532424926757,-105.0170759686486,84.28934013067675,3438030225
iw,-72.7839660644531,-87.1903533935546,-98.75647411566084,83.97621075651087,3438046892
iw,-71.1483459472656,-88.6188812255859,-90.67028524492396,83.09008601599506,3438063559
iw,-69.6155166625976,-90.0,-79.95751379974567,81.91246569412813,3438080226
iw,-68.3728408813476,-89.0599670410156,-66.30496394189275,80.56566073729843,3438096893
iw,-67.3731536865234,-87.5924682617187,-50.06388071605451,78.97025226369568,3438113560
iw,-66.9171524047851,-86.2070846557617,-32.24164619049491,76.86124556849332,3438130227
iw,-66.8693313598632,-84.859130859375,-14.306322280249198,73.85217819221677,3438146894
iw,-66.9286956787109,-83.5669708251953,2.1375867269779834,69.52370303947147,3438163561
iw,-67.4524383544921,-82.4079513549804,15.708516437727225,63.509348225870006,3438180228
iw,-67.9718780517578,-81.4273300170898,25.547287221994722,55.556702609510296,3438196895
iw,-68.6887893676757,-80.6314163208007,31.486884868541598,45.55387009662912,3438213562
iw,-69.4974670410156,-80.0898971557617,34.06078596937363,33.523809659304334,3438230229
iw,-70.1944198608398,-79.8206939697265,34.35688785208658,19.59893622717541,3438246896
iw,-70.7934112548828,-79.8300476074218,33.757457004333176,3.99256012657429,3438263563
iw,-71.4502410888671,-80.0715637207031,33.629339414069825,-13.018997936315797,3438280230
iw,-72.0506591796875,-80.4738388061523,35.038037249894444,-31.099381039238473,3438296897
iw,-72.6162490844726,-81.212890625,38.55011450944855,-49.84827383269917,3438313564
iw,-73.1854476928711,-82.5576400756836,44.16324097109725,-68.80448790025379,3438330231
iw,-74.2227630615234,-84.1897201538086,51.37002294457141,-87.46291030635055,3438346898
iw,-75.5474700927734,-85.8573608398437,59.32747141386083,-105.29793979885734,3438363565
iw,-76.9428634643554,-87.2015914916992,67.07588105333781,-121.77943158636187,3438380232
iw,-78.2731628417968,-86.5261077880859,73.74254997176268,-136.37487152916532,3438396899
iw,-79.6229400634765,-84.0945281982421,78.6865060337325,-148.5448699732059,3438413566
iw,-81.0021896362304,-81.4674453735351,81.57712464587671,-157.74738543783127,3438430233
iw,-82.5459365844726,-79.0053176879882,82.42297478866557,-163.46726274630697,3438446900
iw,-84.1890182495117,-76.6832656860351,81.56216520808253,-165.28236618726768,3438463567
iw,-85.8215789794921,-74.2620162963867,79.60646632623838,-162.9635886239439,3438480234
iw,-87.3570709228515,-71.7485733032226,77.32633430558386,-156.5840131249768,3438496901
iw,-88.6544799804687,-69.2685623168945,75.48561346857679,-146.5921635584413,3438513568
iw,-89.1253128051757,-66.877571105957,74.66919992310248,-133.80066755558062,3438530235
iw,-88.2067108154296,-64.6592178344726,75.16537799692776,-119.26467102188806,3438546902
iw,-86.7770614624023,-62.7831344604492,76.94702689787707,-104.06954788002811,3438563569
iw,-85.236587524414,-61.281810760498,79.74866178465078,-89.09539292236381,3438580236
iw,-83.7362823486328,-59.9809036254882,83.18889944319898,-74.85024338889829,3438596903
iw,-82.3113174438476,-58.7073669433593,86.87175985538869,-61.44511021983652,3438613570
iw,-80.9033966064453,-57.474609375,90.42401270097697,-48.72272324224788,3438630237
iw,-79.4756698608398,-56.5628776550293,93.47044936192763,-36.47725287044157,3438646904
iw,-78.007698059082,-56.0332946777343,95.58540257518086,-24.657853960124594,3438663571
iw,-76.4896926879882,-55.8231506347656,96.26937965133112,-13.462795602101197,3438680238
iw,-74.9534072875976,-55.8020591735839,94.98439220182722,-3.293210970010164,3438696905
iw,-73.4108734130859,-55.8891067504882,91.25120614031833,5.3938721580782785,3438713572
iw,-71.8785934448242,-56.0073051452636,84.77919560992636,12.254455869103111,3438730239
iw,-70.3497161865234,-56.2651443481445,75.57590471606525,17.177368896180855,3438746906
iw,-69.0311965942382,-56.7085189819335,63.978093675795506,20.32385057895372,3438763573
iw,-68.1737365722656,-57.353759765625,50.56625021980623,22.095890431779704,3438780240
iw,-67.8139343261718,-58.1007041931152,35.97068919052355,23.056909909936326,3438796907
iw,-67.8253479003906,-58.5517578125,20.63477610560278,23.8210401543448,3438813574
iw,-68.0342864990234,-58.8643455505371,4.6396842978975,24.92401305323019,3438830241
iw,-68.3639068603515,-59.5347633361816,-12.313217984556504,26.702862641633008,3438846908
iw,-68.6377639770507,-60.4496688842773,-30.727411962034196,29.224160299144256,3438863575
iw,-69.0082626342773,-61.5247726440429,-50.997548809526954,32.287649627077336,3438880242
iw,-69.8743438720703,-62.5491867065429,-73.08291866550393,35.501137862640896,3438896909
iw,-71.3915023803711,-63.5317153930664,-96.30900927717947,38.400433499698686,3438913576
iw,-73.5286102294921,-64.4770050048828,-119.3846806176893,40.585110753382544,3438930243
iw,-76.0946578979492,-65.6046905517578,-140.62857453361497,41.844417607646534,3438946910
iw,-78.9039764404296,-66.9579772949218,-158.3152292421653,42.24656237489939,3438963577
iw,-81.7029800415039,-68.2779922485351,-171.01939050006038,42.1623984067787,3438980244
iw,-84.4713973999023,-69.4793853759765,-177.86224806098727,42.20226615468565,3438996911
iw,-87.0732345581054,-70.6643753051757,-178.62060969842824,43.06887525172016,3439013578
iw,-88.5811462402343,-71.8344116210937,-173.71418119802746,45.36267839863459,3439030245
iw,-86.9176483154296,-73.0312728881836,-164.11286550662516,49.4006131801354,3439046912
iw,-84.3457412719726,-74.276252746582,-151.2005974169533,55.10880123806435,3439063579
iw,-81.8741607666015,-75.6081085205078,-136.6072685579515,62.024862451361585,3439080246
iw,-79.7081298828125,-77.0507888793945,-121.99914019900459,69.40845825866819,3439096913
iw,-77.9039230346679,-78.6247863769531,-108.82304789836648,76.42397253813974,3439113580
iw,-76.4725646972656,-80.2372894287109,-98.0347345406869,82.33793821136487,3439130247
iw,-75.2447814941406,-81.8397064208984,-89.88491992129927,86.67228695940419,3439146914
iw,-73.913833618164,-83.3584899902343,-83.85342652623669,89.27241441800567,3439163581
iw,-72.3984985351562,-84.7707443237304,-78.78893094250378,90.27879831220905,3439180248
iw,-70.8410339355468,-86.0549392700195,-73.23735239694867,90.02099674994638,3439196915
iw,-69.447639465332,-87.1542129516601,-65.8628991023638,88.87335510838469,3439213582
iw,-68.4107589721679,-87.8513259887695,-55.82621426247787,87.11803019291143,3439230249
iw,-67.6801147460937,-87.7655944824218,-43.00395710646514,84.85390434652466,3439246916
iw,-67.2308273315429,-86.9621047973632,-27.99789771755069,81.97342639881367,3439263583
iw,-67.0087432861328,-85.8340682983398,-11.953589848180151,78.20757003557983,3439280250
iw,-67.2361602783203,-84.5930709838867,3.740131639785194,73.21675907105046,3439296917
iw,-67.6166229248046,-83.3745727539062,17.778795131815382,66.6898387239217,3439313584
iw,-68.1284790039062,-82.3604125976562,29.21180241179887,58.4120730824655,3439330251
iw,-68.8057479858398,-81.6401824951171,37.59700626198042,48.28048707588506,3439346918
iw,-69.5853042602539,-81.1845245361328,43.023711288998435,36.2743716935693,3439363585
iw,-70.2394943237304,-80.9089126586914,46.02442949848661,22.414392497105407,3439380252
iw,-70.8232650756836,-80.8035812377929,47.41873343361617,6.748996840573848,3439396919
iw,-71.6382522583007,-80.8974685668945,48.138878896092706,-10.612751686375118,3439413586
iw,-72.8099822998046,-81.1757736206054,49.07560918011049,-29.43526830449642,3439430253
iw,-74.1658325195312,-81.8598022460937,50.956636796967274,-49.29580499033083,3439446920
iw,-75.1816101074218,-83.1357879638671,54.24749457611543,-69.56892360248331,3439463587
iw,-75.9126052856445,-84.5577774047851,59.06806296618396,-89.47271487116551,3439480254
iw,-76.9519653320312,-85.9321060180664,65.1456418855608,-108.16100080226033,3439496921
iw,-78.3725128173828,-86.5133895874023,71.84271965945314,-124.8258928226332,3439513588
iw,-79.9484405517578,-85.4322891235351,78.27856384614843,-138.77794271622915,3439530255
iw,-81.4844055175781,-83.2580871582031,83.52321778046064,-149.48955093682653,3439546922
iw,-83.0210494995117,-80.8464660644531,86.8147667041716,-156.6073131619657,3439563589
iw,-84.6663055419921,-78.4260635375976,87.74846457931746,-159.9505073798553,3439580256
iw,-86.2942962646484,-76.0601959228515,86.3957147987542,-159.5120701110433,3439596923
iw,-87.9702072143554,-73.7043533325195,83.31988509276347,-155.46751009731435,3439613590
iw,-90.0,-71.3558120727539,79.47018356235218,-148.1836426769668,3439630257
iw,-89.1774215698242,-69.0683822631836,75.96447270129784,-138.2103074193706,3439646924
iw,-87.7093734741211,-66.8292083740234,73.81241468518475,-126.23804997042343,3439663591
iw,-86.2835311889648,-64.6811370849609,73.66103717804872,-113.01384869093167,3439680258
iw,-84.9008865356445,-62.7908096313476,75.64415661985305,-99.22452619070779,3439696925
iw,-83.5697402954101,-61.2884902954101,79.38063836625523,-85.37937785639383,3439713592
iw,-82.158332824707,-60.0771751403808,84.11183327452392,-71.73964737970297,3439730259
iw,-80.5649185180664,-58.9084167480468,88.92173965056112,-58.338203376509256,3439746926
iw,-78.8442611694336,-57.7509422302246,92.96141259610111,-45.0992427905233,3439763593
iw,-77.1809616088867,-56.9481697082519,95.60587758708984,-32.01573764481581,3439780260
iw,-75.6913681030273,-56.4315032958984,96.5036755300108,-19.30255971618733,3439796927
iw,-74.3061447143554,-56.2161254882812,95.52543417431599,-7.44532972080392,3439813594
iw,-72.9053421020507,-56.3117942810058,92.65861330643722,2.8881371734018755,3439830261
iw,-71.4007492065429,-56.5818748474121,87.90916323720585,11.04196655367392,3439846928
iw,-69.8566360473632,-56.848461151123,81.25003563461406,16.593195336425158,3439863595
iw,-68.4550170898437,-57.3606262207031,72.61726149817503,19.514829101341476,3439880262
iw,-67.4077529907226,-57.9543418884277,61.925580048171824,20.22757460293005,3439896929
iw,-66.7135543823242,-58.5426712036132,49.07695742955388,19.53044717573663,3439913596
iw,-66.3024520874023,-59.0998039245605,33.9617495471855,18.43314149849213,3439930263
iw,-66.1870422363281,-59.3519134521484,16.478973068133865,17.931501864179204,3439946930
iw,-66.2455139160156,-59.6321411132812,-3.395085294324244,18.780166277506936,3439963597
iw,-66.4276275634765,-60.4789848327636,-25.487745811346535,21.32381280766894,3439980264
iw,-66.9514846801757,-61.4037895202636,-49.299347552642544,25.438642096289083,3439996931
iw,-68.0142593383789,-62.285343170166,-73.92827182999575,30.60269625716905,3440013598
iw,-69.5608444213867,-63.4219055175781,-98.11108654268924,36.07078826168883,3440030265
iw,-71.696418762207,-64.6959228515625,-120.3926922224384,41.09851452447892,3440046932
iw,-74.1932067871093,-65.9498443603515,-139.3822820522247,45.15025451258933,3440063599
iw,-76.7808609008789,-67.2831954956054,-154.0099906775922,48.03635160012727,3440080266
iw,-79.295295715332,-68.6142044067382,-163.69873292507376,49.94858321384695,3440096933
iw,-81.7422409057617,-69.8940734863281,-168.40536668493698,51.39196327092515,3440113600
iw,-84.0819549560546,-71.2238693237304,-168.54192050639762,53.03595702422193,3440130267
iw,-86.1263732910156,-72.6212387084961,-164.8304039100992,55.52436152839384,3440146934
iw,-87.3128509521484,-74.0166397094726,-158.1545813288489,59.289728271029645,3440163601
iw,-86.4392700195312,-75.3850555419921,-149.45039390967676,64.41650329868898,3440180268
iw,-84.4793014526367,-76.7784576416015,-139.63981232880226,70.58824847078883,3440196935
iw,-82.3169631958007,-78.2959899902343,-129.5819059616601,77.13786540258297,3440213602
iw,-80.2144165039062,-79.9415740966796,-120.00638917558346,83.19493320778574,3440230269
iw,-78.3097991943359,-81.6454620361328,-111.41330889447731,87.89556439576229,3440246936
iw,-76.6376342773437,-83.3409194946289,-103.95789753308979,90.59853975941374,3440263603
iw,-75.1622161865234,-84.9910888671875,-97.37234059891743,91.04718295224579,3440280270
iw,-73.734504699707,-86.5787506103515,-90.98558626104672,89.43135081277185,3440296937
iw,-72.2463684082031,-88.0646743774414,-83.8762913830198,86.33152607636387,3440313604
iw,-70.7278518676757,-89.3303146362304,-75.1383671453569,82.55819294428359,3440330271
iw,-69.3713073730468,-89.1459121704101,-64.1792194545315,78.92714042621583,3440346938
iw,-68.4043502807617,-88.0083618164062,-50.94203033829337,76.0295034236369,3440363605
iw,-67.8968048095703,-86.8401794433593,-35.9660736865989,74.05896210830319,3440380272
iw,-67.7382659912109,-85.6313018798828,-20.26339352690949,72.74400513933409,3440396939
iw,-67.7210388183593,-84.3326873779296,-5.060882964365949,71.40240677291997,3440413606
iw,-68.0860214233398,-82.959846496582,8.50153515416087,69.09733162919333,3440430273
iw,-68.5068054199218,-81.6915664672851,19.625395787345695,64.84400467453305,3440446940
iw,-69.2117614746093,-80.6781463623046,27.998342706830524,57.805883466304024,3440463607
iw,-70.010009765625,-79.9142608642578,33.805494331334806,47.43410970987516,3440480274
iw,-70.6976776123046,-79.3949813842773,37.62112957658964,33.534442894200424,3440496941
iw,-71.1435623168945,-79.1874084472656,40.22441031601793,16.27395367452602,3440513608
iw,-71.8259201049804,-79.2867279052734,42.40130529266124,-3.848517891697085,3440530275
iw,-72.6636276245117,-79.6215515136718,44.79272335797894,-26.050377495460918,3440546942
iw,-73.9784851074218,-80.305923461914,47.82118124695538,-49.329188312651176,3440563609
iw,-75.2653274536132,-81.5963134765625,51.68740345504838,-72.55072929145874,3440580276
iw,-76.0497665405273,-83.2421951293945,56.39984059312679,-94.5656707075037,3440596943
iw,-76.9888610839843,-85.1055068969726,61.80135304798043,-114.34177132284911,3440613610
iw,-78.2489547729492,-86.5448684692382,67.58127234331668,-131.080404517753,3440630277
iw,-79.6578826904296,-86.1920394897461,73.28590963475017,-144.28277129751183,3440646944
iw,-81.1991119384765,-84.2882537841796,78.35145481207944,-153.74733567420438,3440663611
iw,-82.6937942504882,-82.0384445190429,82.17917086875045,-159.507998318146,3440680278
iw,-84.178596496582,-79.748306274414,84.25688280809256,-161.74679824002388,3440696945
iw,-85.7160034179687,-77.3681030273437,84.30593416720059,-160.7209743715687,3440713612
iw,-87.3002090454101,-74.8435287475586,82.40798163768248,-156.72818983813696,3440730279
iw,-88.8138656616211,-72.3112182617187,79.05615943408567,-150.1061879195746,3440746946
iw,-89.2042694091796,-69.8621749877929,75.09177919572194,-141.24205510944824,3440763613
iw,-88.1333465576171,-67.5272140502929,71.52921749336326,-130.56437314986877,3440780280
iw,-86.8394393920898,-65.358901977539,69.31976082186964,-118.50806232294006,3440796947
iw,-85.4699249267578,-63.4058227539062,69.13281303281941,-105.46419692092825,3440813614
iw,-84.124641418457,-61.7205734252929,71.2225359265984,-91.74113448856201,3440830281
iw,-82.8392486572265,-60.2338562011718,75.40689602344933,-77.5613648151934,3440846948
iw,-81.4653244018554,-58.9418678283691,81.1406378071383,-63.10196519149388,3440863615
iw,-79.9187240600586,-57.9493522644043,87.63746966662526,-48.5638500459548,3440880282
iw,-78.2978744506836,-57.2134017944335,93.99563410328064,-34.237878011198646,3440896949
iw,-76.7170028686523,-56.6840019226074,99.29759512835223,-20.53362987450211,3440913616
iw,-75.1212310791015,-56.5335731506347,102.67825665998097,-7.950920520031698,3440930283
iw,-73.474494934082,-56.50732421875,103.37593007484277,3.0015795439412334,3440946950
iw,-71.7822723388671,-56.6593551635742,100.78533955732847,11.91343212170426,3440963617
iw,-70.0281295776367,-56.9258308410644,94.51829051387622,18.5688031345243,3440980284
iw,-68.3897705078125,-57.4247741699218,84.45456295983239,23.00415946382352,3440996951
iw,-67.1195220947265,-58.11275100708,70.75191448623676,25.516266175052927,3441013618
iw,-66.325325012207,-58.9695854187011,53.79482632352055,26.620936095870416,3441030285
iw,-66.0005798339843,-59.617820739746,34.09504550051454,26.96654285238263,3441046952
iw,-66.0421676635742,-59.9073524475097,12.192014115196928,27.21296077156907,3441063619
iw,-66.2724380493164,-60.6983604431152,-11.389543248518962,27.90263112475649,3441080286
iw,-66.6077804565429,-61.9584693908691,-36.09753445260846,29.362705622528015,3441096953
iw,-67.2313003540039,-63.0179481506347,-61.25384241593726,31.667830126589468,3441113620
iw,-68.4289093017578,-63.9148635864257,-85.97240631981208,34.66713344768145,3441130287
iw,-70.2396469116211,-64.7615890502929,-109.16907477507185,38.05967133232667,3441146954
iw,-72.6193389892578,-65.8596649169921,-129.69010645723574,41.49875207895228,3441163621
iw,-75.2118988037109,-67.2058639526367,-146.51743447543214,44.70408104426473,3441180288
iw,-77.8707656860351,-68.6301193237304,-158.96401534190917,47.55314307162709,3441196955
iw,-80.4029083251953,-69.9145202636718,-166.7789816859681,50.120300386312906,3441213622
iw,-82.8467864990234,-71.194839477539,-170.13206029999657,52.64624051756259,3441230289
iw,-85.1785430908203,-72.5152893066406,-169.50613956107637,55.447442978163146,3441246956
iw,-87.0229721069336,-73.9146270751953,-165.56157512741345,58.798315007607265,3441263623
iw,-87.2991180419921,-75.3331451416015,-159.03117546150452,62.82561164933381,3441280290
iw,-85.5849227905273,-76.7394561767578,-150.6698072903053,67.44712820529851,3441296957
iw,-83.344123840332,-78.1631088256836,-141.23993907814994,72.371920658954,3441313624
iw,-81.0366973876953,-79.6536636352539,-131.48764656757425,77.1620254858157,3441330291
iw,-78.8985366821289,-81.1754150390625,-122.06719645596291,81.33792666036224,3441346958
iw,-77.1015319824218,-82.7137451171875,-113.40645258317333,84.49608466146039,3441363625
iw,-75.6413955688476,-84.213996887207,-105.55474607436139,86.40250248407257,3441380292
iw,-74.2841110229492,-85.6874389648437,-98.09310711392571,87.03412913090854,3441396959
iw,-72.8560562133789,-87.0806045532226,-90.18684304796193,86.55686816218126,3441413626
iw,-71.3276290893554,-88.3047637939453,-80.81119520112587,85.2487142692923,3441430293
iw,-69.7918472290039,-88.9620285034179,-69.10010496540252,83.39289822952671,3441446960
iw,-68.5640792846679,-88.348030090332,-54.69807789250507,81.17444728652343,3441463627
iw,-67.884292602539,-87.1950912475586,-37.97722581300353,78.61163457797609,3441480294
iw,-67.6703262329101,-85.9226379394531,-20.028526609318707,75.54115276625721,3441496961
iw,-67.5248870849609,-84.6148223876953,-2.422911639860456,71.6561479921256,3441513628
iw,-68.1769714355468,-83.3687744140625,13.18000238981374,66.57734688948072,3441530295
iw,-68.7584075927734,-82.2916717529296,25.45181275543293,59.92851272862624,3441546962
iw,-69.6050949096679,-81.4423217773437,33.71872515706735,51.393225984665406,3441563629
iw,-70.4700698852539,-80.8215713500976,38.10034019119458,40.74688742279016,3441580296
iw,-71.1748046875,-80.4512863159179,39.43743068779855,27.875089565330093,3441596963
iw,-71.7245101928711,-80.2620086669921,39.047294322158265,12.795827173453521,3441613630
iw,-72.362548828125,-80.2528076171875,38.39082441682635,-4.306065003675294,3441630297
iw,-73.1788101196289,-80.4882888793945,38.74705098235493,-23.042940197553598,3441646964
iw,-73.9432525634765,-81.0488052368164,40.96937791793239,-42.81350339027204,3441663631
iw,-74.7336120605468,-82.176773071289,45.360850116209946,-62.8429707468801,3441680298
iw,-75.7076873779296,-83.814582824707,51.6745293973795,-82.27835306906684,3441696965
iw,-76.88330078125,-85.5245590209961,59.223980804650274,-100.31230155968248,3441713632
iw,-78.2672119140625,-87.173469543457,67.06935722208482,-116.29104069272087,3441730299
iw,-79.6661071777343,-87.5221939086914,74.22763830619296,-129.76964225055693,3441746966
iw,-81.1211776733398,-85.5098800659179,79.85587705287998,-140.50335758885666,3441763633
iw,-82.5459671020507,-82.8086547851562,83.37922040305521,-148.38905029713135,3441780300
iw,-84.0840454101562,-80.2168884277343,84.56379189591891,-153.3864435698253,3441796967
iw,-85.7331390380859,-77.8069992065429,83.54541914687387,-155.45481521521504,3441813634
iw,-87.3578796386718,-75.4454956054687,80.81464199172409,-154.5358065166174,3441830301
iw,-88.9986877441406,-73.0743637084961,77.1447329088258,-150.59440548939168,3441846968
iw,-90.0,-70.7115325927734,73.454037322944,-143.70210719191536,3441863635
iw,-88.4655838012695,-68.3711624145507,70.61990676512893,-134.1217591069049,3441880302
iw,-87.0335083007812,-66.1061401367187,69.29078695258288,-122.34629591331952,3441896969
iw,-85.6693115234375,-63.9654731750488,69.75330741654977,-109.0590233221487,3441913636
iw,-84.3785858154296,-62.1213493347168,71.8942591442926,-95.01652610984875,3441930303
iw,-83.1382141113281,-60.7112503051757,75.2631422954608,-80.89391828621265,3441946970
iw,-81.8182067871093,-59.5850410461425,79.2077976512732,-67.15853600279597,3441963637
iw,-80.3846893310546,-58.5359649658203,83.03672103705023,-54.0345549098613,3441980304
iw,-78.877685546875,-57.5047302246093,86.15982059013308,-41.579787521924864,3441996971
iw,-77.4025192260742,-56.7879028320312,88.1714595449078,-29.83309175981033,3442013638
iw,-76.0075378417968,-56.3748588562011,88.86158706955764,-18.945327785596433,3442030305
iw,-74.644775390625,-56.2489509582519,88.16662682147457,-9.213759570165916,3442046972
iw,-73.2532348632812,-56.3772354125976,86.09136428054026,-0.9981655166435128,3442063639
iw,-71.8391494750976,-56.5499382019043,82.63624090439929,5.432910639956151,3442080306
iw,-70.4310455322265,-56.6986236572265,77.75007951710113,10.04158527741998,3442096973
iw,-69.0934371948242,-57.0970497131347,71.3072566174705,13.07774784385725,3442113640
iw,-68.0078125,-57.5820999145507,63.09644508776586,15.033851068890716,3442130307
iw,-67.2537612915039,-57.9450302124023,52.81448653095024,16.522171640290384,3442146974
iw,-66.8318481445312,-58.1937980651855,40.07921019669894,18.122566480559872,3442163641
iw,-66.6402587890625,-58.6388626098632,24.491771462759754,20.253254097259806,3442180308
iw,-66.4986114501953,-59.5130577087402,5.772199271280906,23.106270963555996,3442196975
iw,-66.3996963500976,-60.9007263183593,-16.0459058909251,26.660144807472694,3442213642
iw,-66.6286468505859,-62.3729553222656,-40.42733811114063,30.744077616162635,3442230309
iw,-67.5540161132812,-63.4130020141601,-66.24989837862405,35.10778993561651,3442246976
iw,-69.1379165649414,-64.1260223388671,-91.89610555650559,39.46823744645031,3442263643
iw,-71.2533645629882,-64.9689102172851,-115.5255088219262,43.54247219029248,3442280310
iw,-73.7313156127929,-66.3159637451171,-135.44872818055873,47.095374961417384,3442296977
iw,-76.3744354248046,-67.9153976440429,-150.47724488891063,50.01076398891122,3442313644
iw,-78.9011917114257,-69.2920303344726,-160.13428789399057,52.355399461093306,3442330311
iw,-81.3547821044921,-70.5654678344726,-164.6710600831569,54.38839271510614,3442346978
iw,-83.7146606445312,-71.8817443847656,-164.906353629484,56.49194113351379,3442363645
iw,-85.7619705200195,-73.2687377929687,-161.96267264838457,59.04333190225556,3442380312
iw,-87.2118911743164,-74.6959686279296,-156.99077696132716,62.278855381508016,3442396979
iw,-87.0737075805664,-76.1402587890625,-150.9591268451572,66.20170566904413,3442413646
iw,-85.3488235473632,-77.5602035522461,-144.54731777921143,70.56555560850545,3442430313
iw,-83.1783828735351,-79.0136642456054,-138.1380028324726,74.93783197539253,3442446980
iw,-80.8873596191406,-80.5668106079101,-131.86669451271248,78.82156592033742,3442463647
iw,-78.6935424804687,-82.1028060913086,-125.6780651092038,81.79722143919449,3442480314
iw,-76.6560134887695,-83.6372146606445,-119.3548376356423,83.63974779448559,3442496981
iw,-74.8532333374023,-85.1213912963867,-112.52048598325459,84.37337009946266,3442513648
iw,-73.2407455444336,-86.5294876098632,-104.65015910659673,84.2458392369685,3442530315
iw,-71.7345733642578,-87.8537902832031,-95.13591322254565,83.62905401112121,3442546982
iw,-70.2768859863281,-88.8996200561523,-83.43201379501195,82.87587103910838,3442563649
iw,-68.8251495361328,-88.8652954101562,-69.2598480481971,82.17662467052708,3442580316
iw,-67.6538848876953,-87.8135833740234,-52.8032548662244,81.46002324928278,3442596983
iw,-66.9657821655273,-86.5664672851562,-34.80408184157254,80.37150299932753,3442613650
iw,-66.73095703125,-85.265754699707,-16.492638480189168,78.34003366446781,3442630317
iw,-66.7294006347656,-83.9062957763671,0.6501204061729742,74.71661123585403,3442646984
iw,-67.4752426147461,-82.4912796020507,15.233003731825063,68.94188407157257,3442663651
iw,-68.0389404296875,-81.246223449707,26.28892306082369,60.68634848176435,3442680318
iw,-68.6963882446289,-80.3905792236328,33.49570521783524,49.91376923077974,3442696985
iw,-69.5198974609375,-79.9157028198242,37.219710602590666,36.849393082983866,3442713652
iw,-70.2943267822265,-79.7088317871093,38.38312429593556,21.87726012572939,3442730319
iw,-70.8163070678711,-79.7667236328125,38.21099945600596,5.422145018375672,3442746986
iw,-71.3680648803711,-79.9967346191406,37.94183734406425,-12.127429101473396,3442763653
iw,-72.1005706787109,-80.3965530395507,38.5832774082791,-30.427877958268997,3442780320
iw,-73.1351852416992,-80.9971542358398,40.765804063682154,-49.13482599751896,3442796987
iw,-74.3146591186523,-82.0572967529296,44.70274059077453,-67.84597774231351,3442813654
iw,-75.236213684082,-83.6012573242187,50.227271766270015,-86.07659211509926,3442830321
iw,-75.9888916015625,-85.2883224487304,56.86863824534679,-103.28538910232189,3442846988
iw,-77.2200088500976,-86.7162170410156,63.94739786947543,-118.93413547312734,3442863655
iw,-78.6308135986328,-86.5199127197265,70.68799245760411,-132.54448602932825,3442880322
iw,-80.0789718627929,-84.570327758789,76.3467230347314,-143.72158077336408,3442896989
iw,-81.5595474243164,-82.1332397460937,80.34168649317415,-152.13872646083007,3442913656
iw,-83.057991027832,-79.7121047973632,82.36437243263238,-157.50520398069304,3442930323
iw,-84.6167907714843,-77.3677368164062,82.45248663244236,-159.553780868117,3442946990
iw,-86.2075500488281,-75.0147323608398,81.00383641413767,-158.07652505827596,3442963657
iw,-87.8582611083984,-72.588150024414,78.71408469825231,-153.00953091537218,3442980324
iw,-89.7160720825195,-70.1882629394531,76.43570641886134,-144.53358206291773,3442996991
iw,-89.4446792602539,-67.8723068237304,74.98255723733047,-133.1375217973356,3443013658
iw,-87.8732986450195,-65.6812515258789,74.93187866379957,-119.59711456618973,3443030325
iw,-86.3854064941406,-63.7638549804687,76.48578017417286,-104.85448513645561,3443046992
iw,-84.9106903076171,-62.232810974121,79.43726150054633,-89.8290934482812,3443063659
iw,-83.5036697387695,-60.9829750061035,83.2478521886285,-75.22985329547673,3443080326
iw,-82.0379943847656,-59.8044891357421,87.20416886258568,-61.44734615810604,3443096993
iw,-80.4482803344726,-58.5906257629394,90.59745772551777,-48.57313713474371,3443113660
iw,-78.8358840942382,-57.5988159179687,92.86970912902387,-36.531477588348,3443130327
iw,-77.2911834716796,-57.0532188415527,93.68779770238932,-25.25239522730686,3443146994
iw,-75.8428344726562,-56.8210182189941,92.93542993263176,-14.80022527777162,3443163661
iw,-74.4648971557617,-56.7626419067382,90.6421555828831,-5.405099445645207,3443180328
iw,-73.0841979980468,-56.7966270446777,86.88797080332856,2.600287207738931,3443196995
iw,-71.650764465332,-56.8799667358398,81.72198100479034,8.896618769670518,3443213662
iw,-70.2143020629882,-57.0632972717285,75.11490932343628,13.297522424352165,3443230329
iw,-68.9770812988281,-57.5501556396484,66.94112464098657,15.839796316533407,3443246996
iw,-68.0526428222656,-58.2596168518066,56.9744778389934,16.827739609172323,3443263663
iw,-67.4789886474609,-58.970645904541,44.892606521840605,16.818573865876107,3443280330
iw,-67.2083587646484,-59.3399658203125,30.307124386950612,16.5369892684704,3443296997
iw,-67.1199417114257,-59.7132568359375,12.849711319434789,16.72433737862183,3443313664
iw,-67.1103363037109,-60.2149429321289,-7.6720347678773155,17.96033422295702,3443330331
iw,-67.2246017456054,-61.169261932373,-31.078590359877918,20.51728175548811,3443346998
iw,-67.8218002319336,-61.9906387329101,-56.657864514750884,24.299402044550806,3443363665
iw,-69.1119384765625,-62.7257957458496,-83.12915895819215,28.888978505043333,3443380332
iw,-71.0404739379882,-63.748046875,-108.78316175004781,33.68543347744459,3443396999
iw,-73.4874801635742,-64.9574203491211,-131.77478673512329,38.095432394500584,3443413666
iw,-76.1573333740234,-66.2116165161132,-150.47616723378462,41.716467734756016,3443430333
iw,-78.8273162841796,-67.5323410034179,-163.77247654444392,44.45785457445869,3443447000
iw,-81.3556213378906,-68.7855072021484,-171.21447314140454,46.563292631435665,3443463667
iw,-83.7121047973632,-70.0015563964843,-173.0072448900438,48.5307379797806,3443480334
iw,-85.8799743652343,-71.238899230957,-169.87742662831863,50.9559728620246,3443497001
iw,-87.3007888793945,-72.5288696289062,-162.89129242298097,54.346778795310435,3443513668
iw,-86.7940521240234,-73.8434066772461,-153.28574395471807,58.96105258272426,3443530335
iw,-84.8279418945312,-75.1889038085937,-142.3374117442871,64.71438807087146,3443547002
iw,-82.6501159667968,-76.5915603637695,-131.25649109386606,71.18325056238956,3443563669
iw,-80.5739593505859,-78.1208114624023,-121.07389992213024,77.70341549418357,3443580336
iw,-78.7018661499023,-79.8087921142578,-112.5032853515798,83.5357144406257,3443597003
iw,-77.0086441040039,-81.5297012329101,-105.79582682807398,88.05013983574844,3443613670
iw,-75.4232559204101,-83.1609191894531,-100.64247838493402,90.87356240380913,3443630337
iw,-73.834732055664,-84.7238540649414,-96.18931496729854,91.9598232207916,3443647004
iw,-72.2175216674804,-86.2590637207031,-91.20445345440147,91.56792575375181,3443663671
iw,-70.6853713989257,-87.7244567871093,-84.37890151146101,90.1609884892874,3443680338
iw,-69.3106842041015,-88.9204406738281,-74.68533913444163,88.25545514042527,3443697005
iw,-68.1730575561523,-88.9302825927734,-61.6872219069521,86.25753614672237,3443713672
iw,-67.3430786132812,-87.8707275390625,-45.70051958888685,84.32739581278942,3443730339
iw,-66.7406311035156,-86.5918807983398,-27.756225723369827,82.31022852096261,3443747006
iw,-66.8452758789062,-85.2086639404296,-9.374331763299445,79.75950607206025,3443763673
iw,-67.1748046875,-83.7844848632812,7.78242212557791,76.04862196211369,3443780340
iw,-67.6707992553711,-82.3490676879882,22.273308684158536,70.53332987403095,3443797007
iw,-68.1729202270507,-81.129409790039,33.16532605998394,62.70705584185882,3443813674
iw,-68.9598007202148,-80.259651184082,40.180437705831814,52.29741371517844,3443830341
iw,-70.0079956054687,-79.7022399902343,43.69263688516649,39.28328029121061,3443847008
iw,-70.9162902832031,-79.4403533935546,44.59592024832418,23.85058610216211,3443863675
iw,-71.5927810668945,-79.4144668579101,44.08098339723082,6.329084935350628,3443880342
iw,-72.2109375,-79.5970001220703,43.3723806194413,-12.851261990261168,3443897009
iw,-73.1771926879882,-79.9933853149414,43.48820018505393,-33.17188175841042,3443913676
iw,-74.3270416259765,-80.7188644409179,45.07465912983333,-54.02246935148915,3443930343
iw,-75.0672836303711,-82.0823287963867,48.33699084969802,-74.71320703038221,3443947010
iw,-75.9114227294921,-83.8540725708007,53.05992346417294,-94.51970704062799,3443963677
iw,-77.0977935791015,-85.8178787231445,58.702569554571134,-112.750433466569,3443980344
iw,-78.4797821044921,-87.4750900268554,64.54907692416954,-128.8063465532404,3443997011
iw,-79.8339157104492,-86.9915695190429,69.88219122239886,-142.20596869424423,3444013678
iw,-81.2345657348632,-84.7030181884765,74.1359120134659,-152.57228431440646,3444030345
iw,-82.5998077392578,-82.120620727539,76.9951561251162,-159.60348681644302,3444047012
iw,-84.0752029418945,-79.5699462890625,78.43546452083672,-163.0610440330706,3444063679
iw,-85.6345291137695,-77.0588073730468,78.70999534065373,-162.79885722309362,3444080346
iw,-87.1899337768554,-74.5076217651367,78.28884567943153,-158.83097449670308,3444097013
iw,-88.7960205078125,-71.9830322265625,77.75304509659729,-151.40656198630194,3444113680
iw,-90.0,-69.5339965820312,77.65587523270068,-141.0464577998306,3444130347
iw,-88.5517883300781,-67.1758193969726,78.38313655013243,-128.50516445848712,3444147014
iw,-87.0970077514648,-64.9600296020507,80.05577723564262,-114.65207539602461,3444163681
iw,-85.6214523315429,-63.0148468017578,82.51093471797894,-100.3025250853933,3444180348
iw,-84.1277389526367,-61.4414596557617,85.37113128739253,-86.05714315492168,3444197015
iw,-82.5778884887695,-60.1416320800781,88.17723842076786,-72.21439820097976,3444213682
iw,-80.8961639404296,-58.9067001342773,90.53447910149669,-58.79898700811191,3444230349
iw,-79.2260665893554,-57.6936454772949,92.21437260109518,-45.700859694154225,3444247016
iw,-77.6629409790039,-56.8479576110839,93.17288991546653,-32.86552994814934,3444263683
iw,-76.2400512695312,-56.3654136657714,93.48066999417063,-20.44714892789815,3444280350
iw,-74.849868774414,-56.1858596801757,93.20084454141035,-8.85320993519044,3444297017
iw,-73.4288635253906,-56.158218383789,92.27468519222239,1.3354343240677606,3444313684
iw,-71.9378585815429,-56.1669197082519,90.47057268114185,9.528410454854708,3444330351
iw,-70.3514556884765,-56.1897277832031,87.41850508235625,15.305833833000122,3444347018
iw,-68.6847915649414,-56.5322647094726,82.70738594080001,18.556309458022742,3444363685
iw,-67.1822128295898,-57.0434608459472,75.9896315875906,19.541035816949375,3444380352
iw,-66.0789794921875,-57.5825881958007,67.03644037969563,18.873111946066125,3444397019
iw,-65.3910217285156,-57.8799667358398,55.721084854592874,17.413767394269843,3444413686
iw,-64.9364776611328,-58.1271286010742,41.9586482093421,16.10269246251832,3444430353
iw,-64.623176574707,-58.3563842773437,25.665540838435362,15.760974002586698,3444447020
iw,-64.4881439208984,-58.5797615051269,6.794969241686115,16.920202431776563,3444463687
iw,-64.455581665039,-59.4550437927246,-14.542867653797023,19.727071119457268,3444480354
iw,-64.7117691040039,-60.5930747985839,-37.92590536311853,23.947298947659927,3444497021
iw,-65.6580734252929,-61.5646209716796,-62.51491537073321,29.057005137745797,3444513688
iw,-67.1281585693359,-62.4127540588378,-87.07027505564528,34.38391993177322,3444530355
iw,-68.9020156860351,-63.336986541748,-110.11170521970236,39.25913875403055,3444547022
iw,-71.2206268310546,-64.4338760375976,-130.17969984564635,43.15486630469962,3444563689
iw,-73.8327331542968,-65.7945327758789,-146.11559582379442,45.794323247303005,3444580356
iw,-76.4986267089843,-67.2371520996093,-157.27033147110598,47.21775513359149,3444597023
iw,-78.9395751953125,-68.4908294677734,-163.57892104314595,47.783461673066256,3444613690
iw,-81.3773651123046,-69.724494934082,-165.48821825798322,48.09025489663068,3444630357
iw,-83.7508850097656,-70.9793167114257,-163.7792045137206,48.83090940719689,3444647024
iw,-85.8941116333007,-72.2367324829101,-159.35698574862244,50.61235902763785,3444663691
iw,-87.5185623168945,-73.4691085815429,-153.079063785674,53.79222368240855,3444680358
iw,-87.1456985473632,-74.7119369506836,-145.66180098830293,58.37772059313454,3444697025
iw,-85.3624877929687,-76.0028991699218,-137.66404735367004,64.01604119647628,3444713692
iw,-83.2908935546875,-77.4068450927734,-129.51437478447255,70.08019489869538,3444730359
iw,-81.1814956665039,-78.9193725585937,-121.53731576476855,75.8269861462972,3444747026
iw,-79.2076568603515,-80.4854125976562,-113.94656546288697,80.58223157795217,3444763693
iw,-77.4720458984375,-82.0604705810546,-106.80109716636854,83.90013817440078,3444780360
iw,-75.9268188476562,-83.5702590942382,-99.95075532473761,85.65200277309366,3444797027
iw,-74.4246292114257,-84.9938735961914,-93.01680123202883,86.02128083791543,3444813694
iw,-72.9837112426757,-86.3095474243164,-85.44759803815151,85.41048684728501,3444830361
iw,-71.641242980957,-87.4547042846679,-76.65847735514338,84.29151285264892,3444847028
iw,-70.3289108276367,-88.3192596435546,-66.22228397408504,83.04699541307323,3444863695
iw,-69.253433227539,-88.4267959594726,-54.04554240137503,81.85145088266465,3444880362
iw,-68.4535522460937,-87.5650634765625,-40.461104346077256,80.62613733566933,3444897029
iw,-68.0819091796875,-86.320068359375,-26.19461544293681,79.07517287154093,3444913696
iw,-67.9929733276367,-84.9869079589843,-12.208687311550726,76.78179419252083,3444930363
iw,-68.2354583740234,-83.6812438964843,0.5250332652601709,73.32421923051918,3444947030
iw,-68.3384780883789,-82.4411392211914,11.251347365695182,68.36791780304137,3444963697
iw,-68.7836837768554,-81.3319549560546,19.58811099370896,61.70508231392467,3444980364
iw,-69.4293212890625,-80.4671936035156,25.579204233894806,53.2363075319464,3444997031
iw,-70.0544281005859,-79.875617980957,29.64382597299686,42.915104781362416,3445013698
iw,-70.5221557617187,-79.504653930664,32.447190007085254,30.693873854935983,3445030365
iw,-71.0263214111328,-79.3479309082031,34.734035348912556,16.51194065450731,3445047032
iw,-71.6311416625976,-79.304931640625,37.17388900693641,0.34764578005000935,3445063699
iw,-72.5653305053711,-79.3668670654296,40.25780581354321,-17.678247980510935,3445080366
iw,-73.6200332641601,-79.704475402832,44.25859347983933,-37.19568832806824,3445097033
iw,-74.6333389282226,-80.6021728515625,49.23623073754136,-57.53702453393098,3445113700
iw,-75.5163345336914,-82.1319961547851,55.05906623475923,-77.78852281020843,3445130367
iw,-76.5628662109375,-83.7989425659179,61.42458638777408,-96.93478109539552,3445147034
iw,-77.8804397583007,-85.5387649536132,67.88467984703577,-114.04219072843951,3445163701
iw,-79.2509460449218,-86.5786972045898,73.89051343934793,-128.41064949568795,3445180368
iw,-80.6787567138671,-85.7179718017578,78.86763049586679,-139.64208544766353,3445197035
iw,-82.1528244018554,-83.7109756469726,82.3197106283401,-147.6146252803768,3445213702
iw,-83.7191162109375,-81.5499954223632,83.94441989935014,-152.39164286212258,3445230369
iw,-85.3126144409179,-79.3611831665039,83.72958901602081,-154.1185889666824,3445247036
iw,-86.8854217529296,-77.0958862304687,81.99057793715215,-152.95733999076143,3445263703
iw,-88.487678527832,-74.8333435058593,79.3206956292395,-149.0803661806428,3445280370
iw,-90.0,-72.6093215942382,76.45728814823492,-142.7117438533993,3445297037
iw,-88.9376220703125,-70.3895263671875,74.10311280724659,-134.17801959020025,3445313704
iw,-87.4017333984375,-68.2061614990234,72.76489626292363,-123.928352572608,3445330371
iw,-85.8692398071289,-66.097915649414,72.66398231825505,-112.49839183112634,3445347038
iw,-84.44384765625,-64.2152252197265,73.74031142497093,-100.41941937986545,3445363705
iw,-83.0608749389648,-62.6686515808105,75.7299193029869,-88.1046958394147,3445380372
iw,-81.6825180053711,-61.3777389526367,78.2702991582748,-75.76635827616681,3445397039
iw,-80.2918014526367,-60.2082481384277,80.98753007847546,-63.41458511455811,3445413706
iw,-78.9291000366211,-59.09321975708,83.53848857379205,-50.958819025962,3445430373
iw,-77.6124954223632,-58.148452758789,85.60828190781919,-38.37840333072109,3445447040
iw,-76.276496887207,-57.5034599304199,86.88567604940224,-25.884864815091785,3445463707
iw,-74.8913040161132,-57.2361526489257,87.0487770119869,-13.990703158709874,3445480374
iw,-73.4439544677734,-57.2443008422851,85.78502080154713,-3.439524833837042,3445497041
iw,-71.979751586914,-57.3423881530761,82.8469729104216,4.982087203049148,3445513708
iw,-70.5265426635742,-57.4624214172363,78.11964607746258,10.67814671560004,3445530375
iw,-69.1470565795898,-57.7840156555175,71.65943339011162,13.437234493666846,3445547042
iw,-68.0019912719726,-58.217918395996,63.66873529587235,13.527210277338288,3445563709
iw,-67.1744308471679,-58.7135963439941,54.395699744696095,11.670040441043401,3445580376
iw,-66.6589202880859,-59.0579566955566,43.98741163019624,8.908087873532859,3445597043
iw,-66.37060546875,-59.2563095092773,32.360065373818266,6.394637138276365,3445613710
iw,-66.1935348510742,-59.3674659729003,19.160241243235507,5.157270466447475,3445630377
iw,-66.1459884643554,-59.6955261230468,3.864967722990103,5.891473411490423,3445647044
iw,-66.1289367675781,-60.3694801330566,-13.989078968409626,8.835145699753982,3445663711
iw,-66.3080825805664,-61.1222038269043,-34.520903059776316,13.750414994861211,3445680378
iw,-66.9628601074218,-61.7680702209472,-57.27790193995135,20.008769813059683,3445697045
iw,-68.2581939697265,-62.5854530334472,-81.16963809199271,26.753359827328406,3445713712
iw,-70.1294021606445,-63.6390571594238,-104.60747276015852,33.101375758938495,3445730379
iw,-72.4131622314453,-64.7708511352539,-125.81231484217828,38.34436239896539,3445747046
iw,-74.9431686401367,-66.0060882568359,-143.18716082535593,42.10374766050068,3445763713
iw,-77.4762802124023,-67.2486724853515,-155.6330313217817,44.4065465899809,3445780380
iw,-79.9527053833007,-68.4208755493164,-162.719711374819,45.66343704407938,3445797047
iw,-82.3239974975586,-69.6156997680664,-164.68488065975149,46.55472535418106,3445813714
iw,-84.5264358520507,-70.8616333007812,-162.29583171101035,47.85302051228002,3445830381
iw,-86.4977035522461,-72.1424407958984,-156.64271460353118,50.2273579788374,3445847048
iw,-87.5619354248046,-73.4402542114257,-148.93226020954333,54.0766276205154,3445863715
iw,-86.4430084228515,-74.7652130126953,-140.323337220602,59.43088619807451,3445880382
iw,-84.5155944824218,-76.1376190185546,-131.8092472880009,65.9422786162461,3445897049
iw,-82.4683685302734,-77.6069412231445,-124.1282137900885,72.96703184778347,3445913716
iw,-80.49169921875,-79.2328338623046,-117.68514576844633,79.71847453561419,3445930383
iw,-78.6373596191406,-80.968521118164,-112.48860177639624,85.4514103619691,3445947050
iw,-76.9003753662109,-82.664680480957,-108.12901151955094,89.62700004254654,3445963717
iw,-75.1638488769531,-84.3038482666015,-103.83095403531529,92.01202962984333,3445980384
iw,-73.4661788940429,-85.8734664916992,-98.59708829856214,92.6884131974554,3445997051
iw,-71.9243087768554,-87.3961639404296,-91.43016497124232,91.97920146713234,3446013718
iw,-70.5424575805664,-88.9029998779296,-81.58749152617037,90.3223545886266,3446030385
iw,-69.3179550170898,-89.8493423461914,-68.80384034173208,88.13366677640639,3446047052
iw,-68.2703018188476,-88.2501220703125,-53.419643464832,85.69517285838162,3446063719
iw,-67.4202499389648,-86.8568954467773,-36.36938306119938,83.0912785350328,3446080386
iw,-67.2219314575195,-85.4902877807617,-19.017687291789958,80.19893331855268,3446097053
iw,-67.305908203125,-84.099136352539,-2.8743810739601985,76.72463880118408,3446113720
iw,-67.6802444458007,-82.7623214721679,10.737735810213483,72.2711395127866,3446130387
iw,-68.0535278320312,-81.5539627075195,20.968944883803285,66.41163348946773,3446147054
iw,-68.6353759765625,-80.5479888916015,27.605740947091814,58.752135237463456,3446163721
iw,-69.3818664550781,-79.779556274414,31.077030507798206,48.973810147611175,3446180388
iw,-70.0189056396484,-79.2404403686523,32.31442219496926,36.86115644396908,3446197055
iw,-70.4586029052734,-78.8977127075195,32.510874200047034,22.32976175670209,3446213722
iw,-70.8453674316406,-78.8042831420898,32.84303824608296,5.463273160434537,3446230389
iw,-71.3351516723632,-78.9697723388671,34.22984762903909,-13.444749920983485,3446247056
iw,-72.2225341796875,-79.3656997680664,37.185406988608,-33.863646349112756,3446263723
iw,-73.2864303588867,-80.1828994750976,41.78802567103006,-55.03874893363384,3446280390
iw,-74.2996826171875,-81.6100234985351,47.74628155610971,-76.06031526262616,3446297057
iw,-75.150634765625,-83.3570175170898,54.51924743696214,-95.97899994304684,3446313724
iw,-76.3383865356445,-85.2313690185546,61.44855911871446,-113.93195955396114,3446330391
iw,-77.6371994018554,-86.3653564453125,67.87420310929367,-129.2342241246202,3446347058
iw,-79.0010528564453,-85.7700576782226,73.22164907060395,-141.4073902687108,3446363725
iw,-80.4551162719726,-84.0058975219726,77.06221437036356,-150.1526071549882,3446380392
iw,-81.8861312866211,-81.9396133422851,79.1587981252179,-155.30513991447916,3446397059
iw,-83.3255615234375,-79.7975616455078,79.50702077798216,-156.81434713180653,3446413726
iw,-84.7978286743164,-77.5272064208984,78.36478864766347,-154.77142178061357,3446430393
iw,-86.3514862060546,-75.1425857543945,76.24446976828968,-149.47021296304098,3446447060
iw,-87.9836502075195,-72.7569351196289,73.84024483687135,-141.45553739427413,3446463727
iw,-89.8615264892578,-70.4764862060546,71.88650568087873,-131.50735689647072,3446480394
iw,-89.6205139160156,-68.3685684204101,70.98067358459423,-120.53369083378945,3446497061
iw,-87.9799652099609,-66.459602355957,71.43211547294945,-109.38943381724312,3446513728
iw,-86.4774703979492,-64.7902603149414,73.19662036606931,-98.6806293635063,3446530395
iw,-85.0098266601562,-63.2804870605468,75.9204362336202,-88.63222441020855,3446547062
iw,-83.5900192260742,-61.7971076965332,79.06987096712994,-79.0800156188904,3446563729
iw,-82.1627655029296,-60.3101615905761,82.0905148590049,-69.59885083850398,3446580396
iw,-80.6819381713867,-58.9953498840332,84.53825241440371,-59.72041661774872,3446597063
iw,-79.2431335449218,-58.0501747131347,86.145763452972,-49.155008120448805,3446613730
iw,-77.86865234375,-57.4254112243652,86.81797982724117,-37.933786841582176,3446630397
iw,-76.5275573730468,-56.9897918701171,86.5758144146445,-26.42802799766752,3446647064
iw,-75.1612319946289,-56.7598342895507,85.48171374573873,-15.25435789705122,3446663731
iw,-73.7370986938476,-56.6334266662597,83.57873852873405,-5.112788335878614,3446680398
iw,-72.2931213378906,-56.6406135559082,80.85837353237525,3.3839689735290595,3446697065
iw,-70.8701019287109,-56.7465782165527,77.25060127362673,9.842202524621852,3446713732
iw,-69.5707778930664,-56.997085571289,72.61641352263563,14.156015721823037,3446730399
iw,-68.4878463745117,-57.4194831848144,66.72689285351221,16.514576606959025,3446747066
iw,-67.5996017456054,-57.9331474304199,59.232588009834075,17.363205994176383,3446763733
iw,-66.9130249023437,-58.4729309082031,49.65008268285531,17.331596360810757,3446780400
iw,-66.4457550048828,-58.8551177978515,37.403744928242084,17.134095221789206,3446797067
iw,-66.1307525634765,-59.2201194763183,21.949206860236107,17.44790318077163,3446813734
iw,-65.9137573242187,-59.853946685791,2.971462916488556,18.787482100390076,3446830401
iw,-65.8860702514648,-60.6700019836425,-19.393546037010406,21.404392020939703,3446847068
iw,-66.303596496582,-61.4187774658203,-44.39820044583919,25.240468515340318,3446863735
iw,-67.3926467895507,-62.3184127807617,-70.66715088871838,29.95058323588022,3446880402
iw,-69.122688293457,-63.2010040283203,-96.3658100220961,34.99516935056559,3446897069
iw,-71.3263168334961,-64.2728881835937,-119.52167193525888,39.784998616306545,3446913736
iw,-73.7998886108398,-65.6020812988281,-138.40362653014967,43.844311397097805,3446930403
iw,-76.3509750366211,-67.0337371826171,-151.84285410417013,46.94837963279198,3446947070
iw,-78.8182220458984,-68.2842407226562,-159.40731362305533,49.193129772613844,3446963737
iw,-81.1865310668945,-69.5246505737304,-161.4015624068707,50.971352597489194,3446980404
iw,-83.4694366455078,-70.7982559204101,-158.72339126268932,52.8595000383819,3446997071
iw,-85.5354232788086,-72.1373138427734,-152.6432112879073,55.448462598088824,3447013738
iw,-87.1480331420898,-73.5077819824218,-144.57333966572415,59.16747638073466,3447030405
iw,-87.351448059082,-74.9066848754882,-135.87132294213245,64.14922419764456,3447047072
iw,-85.9624557495117,-76.3608932495117,-127.69100172424241,70.1717482360159,3447063739
iw,-84.1124114990234,-77.926513671875,-120.87261280616995,76.69390361791892,3447080406
iw,-82.1702499389648,-79.6442718505859,-115.85820043812302,82.97719737064968,3447097073
iw,-80.3274459838867,-81.430679321289,-112.63120898298655,88.26103308952538,3447113740
iw,-78.5878219604492,-83.2002944946289,-110.69938526171258,91.93948272679054,3447130407
iw,-76.8283309936523,-84.8450469970703,-109.15193374193164,93.68655839713018,3447147074
iw,-74.99267578125,-86.3533630371093,-106.81191675793657,93.49693781662359,3447163741
iw,-73.1537094116211,-87.7406005859375,-102.47265501216549,91.64101558526364,3447180408
iw,-71.5075302124023,-88.7524337768554,-95.16855055778235,88.56083460107504,3447197075
iw,-70.0932159423828,-88.5263442993164,-84.40948561935545,84.74534346991385,3447213742
iw,-68.9514617919921,-87.4641036987304,-70.31592798431619,80.61916438352613,3447230409
iw,-68.0197219848632,-86.261474609375,-53.6217852154226,76.46593610000899,3447247076
iw,-67.3903045654296,-85.0646209716796,-35.54644500227071,72.3926582332921,3447263743
iw,-67.1299743652343,-83.8392639160156,-17.56461204338902,68.32928702953615,3447280410
iw,-67.2861404418945,-82.6665496826171,-1.1220154407179246,64.05029776253251,3447297077
iw,-67.6790237426757,-81.6477432250976,12.641028301363278,59.204281289997176,3447313744
iw,-68.2085800170898,-80.8062362670898,23.092745817852908,53.344999907064015,3447330411
iw,-68.7889022827148,-80.0738983154296,30.19010271332076,45.96918255557883,3447347078
iw,-69.5594100952148,-79.469856262207,34.421705368668206,36.57401648453358,3447363745
iw,-70.2047805786132,-79.0474090576171,36.64026712234409,24.743195514045333,3447380412
iw,-70.6814041137695,-78.8806838989257,37.84131691199286,10.255271303233192,3447397079
iw,-71.4236755371093,-78.9205474853515,38.9529518075634,-6.809741191300766,3447413746
iw,-72.3718948364257,-79.1871948242187,40.685774048975794,-26.001114495828613,3447430413
iw,-73.2012329101562,-79.8089752197265,43.45978856017594,-46.50056328613496,3447447080
iw,-74.0291595458984,-81.0362319946289,47.39506702762019,-67.21627344521582,3447463747
iw,-74.936408996582,-82.7406158447265,52.34372650248043,-86.95436584391058,3447480414
iw,-76.0250091552734,-84.5486373901367,57.948987950070325,-104.61915967732855,3447497081
iw,-77.4153671264648,-86.0560302734375,63.723599981331496,-119.37653991471166,3447513748
iw,-78.7668151855468,-86.2171096801757,69.13680537752776,-130.72997722901255,3447530415
iw,-80.0880966186523,-84.6819763183593,73.69658737696052,-138.49914710821662,3447547082
iw,-81.4160690307617,-82.6271667480468,77.02040211394977,-142.73394758479074,3447563749
iw,-82.8969039916992,-80.5785903930664,78.89536269670167,-143.62039171266835,3447580416
iw,-84.4780654907226,-78.5578994750976,79.32550291249004,-141.4288627036735,3447597083
iw,-86.0780868530273,-76.4797668457031,78.55063876896438,-136.52287314213058,3447613750
iw,-87.6882705688476,-74.3940963745117,77.0146405136435,-129.40425909281512,3447630417
iw,-89.2569046020507,-72.3416137695312,75.2741860983855,-120.74157533358401,3447647084
iw,-89.5638961791992,-70.3886489868164,73.86788049237437,-111.32944988414977,3447663751
iw,-88.0806198120117,-68.5655670166015,73.1903657306127,-101.95935398809902,3447680418
iw,-86.5896453857421,-66.8800811767578,73.4179659578457,-93.23150747177766,3447697085
iw,-85.1595230102539,-65.3644866943359,74.5083694259296,-85.37929305034437,3447713752
iw,-83.8411407470703,-64.0150070190429,76.26214520612083,-78.18991793263852,3447730419
iw,-82.5597763061523,-62.7046890258789,78.4103020502576,-71.078317126352,3447747086
iw,-81.2215728759765,-61.3701400756835,80.69027231654132,-63.31213123886277,3447763753
iw,-79.8193206787109,-60.2106742858886,82.8866179559473,-54.317337697194596,3447780420
iw,-78.4121322631836,-59.3391761779785,84.83045429953235,-43.94991197862407,3447797087
iw,-77.0020675659179,-58.7692489624023,86.36644577513266,-32.62464556686157,3447813754
iw,-75.6328887939453,-58.4880256652832,87.30679374241308,-21.24762689045013,3447830421
iw,-74.2409439086914,-58.4450225830078,87.39607337993041,-10.975790389319801,3447847088
iw,-72.7947235107421,-58.5858116149902,86.3058102729592,-2.8894455223729167,3447863755
iw,-71.3170013427734,-58.7283020019531,83.6627960888296,2.3114238372388534,3447880422
iw,-69.8450622558593,-58.8846817016601,79.09637575255344,4.494222136551466,3447897089
iw,-68.5034408569336,-59.2042655944824,72.27858431129812,4.120732901160579,3447913756
iw,-67.5280227661132,-59.5355834960937,62.93695214610841,2.1266621375223203,3447930423
iw,-66.9393081665039,-59.7217216491699,50.843404973229866,-0.29630675190035205,3447947090
iw,-66.5256042480468,-59.8730354309082,35.810431166820415,-1.955374642812451,3447963757
iw,-66.2512664794921,-60.0591392517089,17.735381956347496,-1.8940683811030812,3447980424
iw,-66.1882629394531,-60.2267837524414,-3.289003600426927,0.43093797914798304,3447997091
iw,-66.3404998779296,-60.9130897521972,-26.826407108652198,5.064835125232232,3448013758
iw,-66.8831710815429,-61.5556602478027,-51.981659430437155,11.577658937891812,3448030425
iw,-68.0740203857421,-62.2840042114257,-77.39768635794134,19.190084041931918,3448047092
iw,-69.777603149414,-63.3074264526367,-101.40902532424113,26.97136323184162,3448063759
iw,-71.8777084350586,-64.3965454101562,-122.33179319329172,34.05831659721116,3448080426
iw,-74.4774780273437,-65.5303649902343,-138.8069231517391,39.83989479557646,3448097093
iw,-77.0491333007812,-66.7397232055664,-150.08271319217465,44.066776219907354,3448113760
iw,-79.3573379516601,-67.8785629272461,-156.1401552460362,46.87098319522043,3448130427
iw,-81.5263214111328,-69.0193328857421,-157.6244834631295,48.70309388228158,3448147094
iw,-83.6654739379882,-70.2286758422851,-155.62122300114666,50.20773326729064,3448163761
iw,-85.6356964111328,-71.4938888549804,-151.3665064732276,52.063974278453216,3448180428
iw,-87.0213241577148,-72.7533264160156,-145.9860766834722,54.820461669279126,3448197095
iw,-86.8202972412109,-74.0059432983398,-140.32285723373272,58.757631911629915,3448213762
iw,-85.3195190429687,-75.2919540405273,-134.86682539850574,63.81005520305816,3448230429
iw,-83.4260940551757,-76.6849136352539,-129.76733746332997,69.57531286149316,3448247096
iw,-81.3663711547851,-78.2383499145507,-124.89548096142342,75.41634776291886,3448263763
iw,-79.328140258789,-79.9286956787109,-119.92735924264528,80.63390682669247,3448280430
iw,-77.3991241455078,-81.6099777221679,-114.4291769317048,84.6571632013958,3448297097
iw,-75.6513519287109,-83.2731399536132,-107.93599517088305,87.18994403723707,3448313764
iw,-74.0475845336914,-84.8385543823242,-100.02570621641874,88.26493907568137,3448330431
iw,-72.5698165893554,-86.3120956420898,-90.39434239345947,88.19228302638483,3448347098
iw,-71.200927734375,-87.7500610351562,-78.93385820138433,87.42590289046662,3448363765
iw,-69.9345932006836,-89.1635055541992,-65.7999049341998,86.395708513634,3448380432
iw,-68.9181518554687,-89.560317993164,-51.44360818894361,85.35908836830264,3448397099
iw,-68.1461639404296,-88.1211242675781,-36.57969410617017,84.31333479219188,3448413766
iw,-67.8846969604492,-86.7125854492187,-22.07972799659985,82.98852001715716,3448430433
iw,-67.8871307373046,-85.2681579589843,-8.808708748359823,80.91534206467485,3448447100
iw,-68.048110961914,-83.8174362182617,2.549673350211385,77.54088369064576,3448463767
iw,-68.0737915039062,-82.429573059082,11.626491597328561,72.35275340769716,3448480434
iw,-68.5567245483398,-81.2217941284179,18.42465990631107,64.97314058774332,3448497101
iw,-69.2169418334961,-80.2997589111328,23.29291784090867,55.199865929066824,3448513768
iw,-69.9029541015625,-79.6944274902343,26.83023711561967,42.9965806823732,3448530435
iw,-70.3561782836914,-79.3644256591796,29.74365761866157,28.45783675127054,3448547102
iw,-70.7079467773437,-79.2455596923828,32.692178759994086,11.783830650520148,3448563769
iw,-71.3475799560546,-79.2687606811523,36.15919110157636,-6.71305550919426,3448580436
iw,-72.2717514038086,-79.4590988159179,40.38972007999027,-26.576873426757945,3448597103
iw,-73.3288879394531,-80.0817489624023,45.39875110969364,-47.18608781237921,3448613770
iw,-74.3683547973632,-81.358528137207,51.022632423321944,-67.77932307832744,3448630437
iw,-75.1197738647461,-83.04345703125,56.97568872678031,-87.54091855895201,3448647104
iw,-76.1647338867187,-85.03173828125,62.893640013430506,-105.71757321154924,3448663771
iw,-77.5667953491211,-86.8238067626953,68.3706846089339,-121.71200757420915,3448680438
iw,-78.999267578125,-86.9623031616211,73.00470163906986,-135.10899565785928,3448697105
iw,-80.4351577758789,-85.1324844360351,76.45544207533445,-145.6281186125457,3448713772
iw,-81.873291015625,-82.8323211669921,78.50935859545706,-153.04251505513875,3448730439
iw,-83.3023605346679,-80.5234222412109,79.13897617422501,-157.1265132364239,3448747106
iw,-84.7725830078125,-78.1435928344726,78.53999159649007,-157.6806294164405,3448763773
iw,-86.2960968017578,-75.6515884399414,77.12517974279787,-154.63510229131958,3448780440
iw,-87.929443359375,-73.1787948608398,75.45910265841715,-148.18007509043616,3448797107
iw,-89.8102645874023,-70.7590637207031,74.13709073949971,-138.84429700139887,3448813774
iw,-89.5883636474609,-68.4531021118164,73.63942276462146,-127.46080859214344,3448830441
iw,-87.9845275878906,-66.3644943237304,74.21135070234243,-115.00859298457222,3448847108
iw,-86.4353103637695,-64.571418762207,75.81653732653243,-102.37871797577155,3448863775
iw,-84.88818359375,-63.020393371582,78.18219076689749,-90.1550148656714,3448880442
iw,-83.4082565307617,-61.5424041748046,80.91292309801295,-78.50278867718727,3448897109
iw,-81.9725875854492,-60.071964263916,83.62134042610491,-67.21833500891886,3448913776
iw,-80.5272445678711,-58.7192268371582,86.02214350676823,-55.921910866933544,3448930443
iw,-79.0458755493164,-57.6840133666992,87.95901823132208,-44.31124841010484,3448947110
iw,-77.5858612060546,-56.9946365356445,89.36390387223064,-32.367060838020926,3448963777
iw,-76.1617736816406,-56.6140975952148,90.17302292457708,-20.42913547527826,3448980444
iw,-74.7531051635742,-56.5549697875976,90.23765828342009,-9.123665981081153,3448997111
iw,-73.329360961914,-56.5773391723632,89.26805361074787,0.8150939553219734,3449013778
iw,-71.8519973754882,-56.5970573425293,86.83507575499239,8.752837044958117,3449030445
iw,-70.3042984008789,-56.789192199707,82.42944520272434,14.324078928561162,3449047112
iw,-68.8578109741211,-57.1499786376953,75.5524556670459,17.52703002656673,3449063779
iw,-67.7007675170898,-57.7843589782714,65.79961487311427,18.74148303721139,3449080446
iw,-66.9247589111328,-58.6646652221679,52.909375848426734,18.676080415266618,3449097113
iw,-66.525390625,-59.2599906921386,36.778455489911046,18.24506492176533,3449113780
iw,-66.3929595947265,-59.4563865661621,17.473114716481174,18.379379551265647,3449130447
iw,-66.4157638549804,-59.973762512207,-4.730521407183534,19.80631324643323,3449147114
iw,-66.6257171630859,-60.9189987182617,-29.271743007071425,22.864041767566135,3449163781
iw,-67.2594223022461,-61.7215919494628,-55.233133366743395,27.418036428966932,3449180448
iw,-68.4993820190429,-62.5338859558105,-81.33390028639784,32.910851896176716,3449197115
iw,-70.2357788085937,-63.5585250854492,-106.03806860271419,38.53148249433112,3449213782
iw,-72.4578018188476,-64.7318038940429,-127.77787903057373,43.45622249007366,3449230449
iw,-75.0763778686523,-65.9932785034179,-145.23548325180818,47.0927080657206,3449247116
iw,-77.8305587768554,-67.4135589599609,-157.591927654114,49.25445376859004,3449263783
iw,-80.2863311767578,-68.7169952392578,-164.6591947658758,50.210784504490405,3449280450
iw,-82.6096267700195,-69.9453506469726,-166.856304365685,50.5957297079454,3449297117
iw,-84.769775390625,-71.1767349243164,-165.05194705569667,51.206546699885976,3449313784
iw,-86.4518280029296,-72.4665908813476,-160.34145456021247,52.75918079591976,3449330451
iw,-86.8753814697265,-73.7829666137695,-153.83334421950747,55.67882333348333,3449347118
iw,-85.5658416748046,-75.0904541015625,-146.49379570292675,59.98617528152004,3449363785
iw,-83.6615371704101,-76.4315338134765,-139.05849280436544,65.30479679367906,3449380452
iw,-81.6360473632812,-77.8779907226562,-131.99336786976227,70.97724963992285,3449397119
iw,-79.6146926879882,-79.4282836914062,-125.48023785863519,76.24889591322757,3449413786
iw,-77.6386184692382,-80.9945526123046,-119.4163618151991,80.46398157509974,3449430453
iw,-75.7943344116211,-82.547866821289,-113.434968268073,83.22080980383917,3449447120
iw,-74.0548477172851,-84.0429382324218,-106.96362288954259,84.44914515065193,3449463787
iw,-72.3911056518554,-85.4336624145507,-99.33299060876791,84.39698377064822,3449480454
iw,-70.8542785644531,-86.719985961914,-89.93147535710213,83.53734614382208,3449497121
iw,-69.4493789672851,-87.8701705932617,-78.37816957473038,82.42291938536601,3449513788
iw,-68.1827774047851,-88.5687866210937,-64.66780658224786,81.52510417572974,3449530455
iw,-67.2306747436523,-88.2237014770507,-49.23726982992912,81.09485167894687,3449547122
iw,-66.6258316040039,-87.255630493164,-32.91943880651091,81.07702142828944,3449563789
iw,-66.4554061889648,-86.0542449951171,-16.784418199232324,81.09867378905938,3449580456
iw,-66.4818725585937,-84.6889877319336,-1.9086335451949643,80.53460126189658,3449597123
iw,-66.8433456420898,-83.2006454467773,10.859318543889895,78.63179699827647,3449613790
iw,-67.1668853759765,-81.7525482177734,21.065837456938077,74.65498314579793,3449630457
iw,-67.7400131225586,-80.5462646484375,28.709124674187066,68.00902912247264,3449647124
iw,-68.5100326538086,-79.6603546142578,34.18226924557173,58.30889334732677,3449663791
iw,-69.1989212036132,-79.0893325805664,38.13255741422357,45.398198274202386,3449680458
iw,-69.7301483154296,-78.7123489379882,41.284413693690325,29.34471035331276,3449697125
iw,-70.3038787841796,-78.4993133544921,44.27789761432609,10.44503147805069,3449713792
iw,-71.2719650268554,-78.4853744506836,47.566918521832505,-10.752721270003255,3449730459
iw,-72.643814086914,-78.7555999755859,51.39542487973386,-33.43410655770493,3449747126
iw,-74.0923461914062,-79.5746994018554,55.83062421291973,-56.55600097038648,3449763793
iw,-75.0515060424804,-81.1369857788086,60.80569007387126,-78.96538409562713,3449780460
iw,-75.8562469482421,-83.0882873535156,66.13530495928597,-99.58230025857803,3449797127
iw,-77.1232833862304,-85.2159881591796,71.50812059657689,-117.58352891901214,3449813794
iw,-78.6415939331054,-87.1321487426757,76.4931239417776,-132.50988168523224,3449830461
iw,-80.2450866699218,-87.3597335815429,80.59299086321185,-144.2510245314659,3449847128
iw,-81.7984085083007,-85.4700927734375,83.34491404011254,-152.91853134359187,3449863795
iw,-83.2630615234375,-83.0764083862304,84.43875123424009,-158.66855417041745,3449880462
iw,-84.7501449584961,-80.6188125610351,83.81308786745636,-161.5563643614299,3449897129
iw,-86.3246002197265,-78.0441436767578,81.69850238529571,-161.48877479572582,3449913796
iw,-87.9723281860351,-75.4117050170898,78.59203432901315,-158.29495319143768,3449930463
iw,-90.0,-72.8223037719726,75.16262223909102,-151.88090448671267,3449947130
iw,-89.4952621459961,-70.2735519409179,72.10616479606949,-142.39248231495515,3449963797
iw,-87.9736785888671,-67.8695755004882,69.98924256938209,-130.30532885524752,3449980464
iw,-86.5775527954101,-65.6967697143554,69.13120892181708,-116.39184340116564,3449997131
iw,-85.1907119750976,-63.8316650390625,69.56297574895649,-101.57138767520655,3450013798
iw,-83.8581008911132,-62.2417259216308,71.06884972008932,-86.70417292375657,3450030465
iw,-82.5922088623046,-60.8158416748046,73.28356869804222,-72.41500515532954,3450047132
iw,-81.3202667236328,-59.5216102600097,75.8003451836046,-59.017260829020586,3450063799
iw,-79.9791564941406,-58.4212455749511,78.2522824771045,-46.558706701008475,3450080466
iw,-78.6192092895507,-57.6214447021484,80.34910806591475,-34.95513920771319,3450097133
iw,-77.334228515625,-57.0275001525878,81.87181465445931,-24.143503073700323,3450113800
iw,-76.0458984375,-56.6505432128906,82.64306188328959,-14.186790191808246,3450130467
iw,-74.7175827026367,-56.4947814941406,82.49738078552188,-5.292668922434054,3450147134
iw,-73.3116989135742,-56.4991722106933,81.26906642588757,2.250819526928289,3450163801
iw,-71.858772277832,-56.6175842285156,78.79855238181075,8.184890406695713,3450180468
iw,-70.4491195678711,-56.8082122802734,74.93981393691607,12.385071988811308,3450197135
iw,-69.2490310668945,-57.1062850952148,69.54569696984615,14.925245555333541,3450213802
iw,-68.3254928588867,-57.4742584228515,62.42284235071486,16.090722014695192,3450230469
iw,-67.6370544433593,-57.8946838378906,53.27733974150616,16.349418207199555,3450247136
iw,-67.1490631103515,-58.393871307373,41.697921341794355,16.291894300698598,3450263803
iw,-66.810806274414,-58.8564834594726,27.224759827253113,16.54422276523231,3450280470
iw,-66.5490951538086,-59.2276916503906,9.519914818703391,17.658194643597067,3450297137
iw,-66.3614120483398,-60.0892028808593,-11.3995274999648,19.995815567779264,3450313804
iw,-66.467170715332,-60.990550994873,-34.9560585531429,23.638257326930436,3450330471
iw,-67.3002014160156,-61.821662902832,-59.94082057335541,28.35096770454472,3450347138
iw,-68.8060150146484,-62.6696586608886,-84.64557625373867,33.62567032154055,3450363805
iw,-70.8575897216796,-63.5252418518066,-107.18350062566357,38.80136477335468,3450380472
iw,-73.2479095458984,-64.721694946289,-125.89892462411773,43.242008088569186,3450397139
iw,-75.7198638916015,-66.1877822875976,-139.72398275426647,46.52273475369155,3450413806
iw,-77.9293823242187,-67.5418853759765,-148.36337184341255,48.562252908372486,3450430473
iw,-79.9976959228515,-68.7014007568359,-152.26211617198763,49.65036378335091,3450447140
iw,-82.0937347412109,-69.8981399536132,-152.3954723768725,50.35730177094107,3450463807
iw,-84.0095901489257,-71.1600799560546,-149.97428154953124,51.35764250297805,3450480474
iw,-85.6784057617187,-72.4705963134765,-146.16496500424515,53.23032359977554,3450497141
iw,-86.7014694213867,-73.7783203125,-141.8916010573935,56.29612446117742,3450513808
iw,-86.2416687011718,-75.0857696533203,-137.7428751713207,60.533437078455236,3450530475
iw,-84.7305450439453,-76.4294662475586,-133.9696590658483,65.587524800913,3450547142
iw,-82.7437210083007,-77.8880767822265,-130.53906587180066,70.86558434278297,3450563809
iw,-80.6012115478515,-79.4565048217773,-127.20815287804093,75.69063546454578,3450580476
iw,-78.5453720092773,-81.0164642333984,-123.5901559617503,79.47284931106388,3450597143
iw,-76.7022628784179,-82.5438079833984,-119.20367025036224,81.85209352690649,3450613810
iw,-74.987075805664,-84.0471801757812,-113.51573095345434,82.77390826063328,3450630477
iw,-73.3097381591796,-85.5155487060546,-106.00305807791743,82.48037750624272,3450647144
iw,-71.6776046752929,-86.9302520751953,-96.24926508188628,81.42027596602573,3450663811
iw,-70.0870742797851,-88.2854843139648,-84.06823536095678,80.10321739022066,3450680478
iw,-68.7422256469726,-90.0,-69.61214214950965,78.93687072726844,3450697145
iw,-67.818618774414,-89.6986923217773,-53.411306931252675,78.09163734179143,3450713812
iw,-67.3734436035156,-88.1097946166992,-36.314467702626345,77.4304933999566,3450730479
iw,-67.091552734375,-86.7516479492187,-19.34055132046819,76.5230926376601,3450747146
iw,-67.013198852539,-85.3331832885742,-3.4895671039759795,74.73773366713958,3450763813
iw,-67.388916015625,-83.8871459960937,10.429689206579729,71.38067325638848,3450780480
iw,-67.8093795776367,-82.6063385009765,21.912603735101555,65.83838687120317,3450797147
iw,-68.4400024414062,-81.6118011474609,30.79538445819446,57.681769628395735,3450813814
iw,-69.2766571044921,-80.9138641357421,37.22224859762593,46.71250666551461,3450830481
iw,-70.0060043334961,-80.4861984252929,41.56717926025321,32.960706104556856,3450847148
iw,-70.6202392578125,-80.2755889892578,44.342063744906916,16.662063833629027,3450863815
iw,-71.52587890625,-80.2574462890625,46.11918753456368,-1.7598088841664479,3450880482
iw,-72.786262512207,-80.4764099121093,47.478909491279175,-21.70162908124169,3450897149
iw,-73.8740234375,-81.0389785766601,48.96849327735349,-42.398399032532794,3450913816
iw,-74.7234344482421,-82.1864929199218,51.04537359286029,-62.97695031226807,3450930483
iw,-75.4143905639648,-83.7808532714843,53.99563425566009,-82.55363904678151,3450947150
iw,-76.3369750976562,-85.5806655883789,57.8544186057919,-100.35401026733193,3450963817
iw,-77.577522277832,-86.9700393676757,62.37405332493151,-115.8101137587237,3450980484
iw,-78.9677352905273,-86.4581298828125,67.06906327178852,-128.59450987242548,3450997151
iw,-80.4270858764648,-84.2807693481445,71.33173405543614,-138.57852093287661,3451013818
iw,-81.8401489257812,-81.7755737304687,74.58545181354158,-145.7406497459001,3451030485
iw,-83.2106018066406,-79.4134750366211,76.43589574222989,-150.07862004827444,3451047152
iw,-84.634407043457,-77.1718597412109,76.78433796274322,-151.57795331333958,3451063819
iw,-86.142578125,-74.953010559082,75.87420482160188,-150.25711068809363,3451080486
iw,-87.7033920288086,-72.6727600097656,74.25205481215994,-146.25997177064522,3451097153
iw,-89.3694381713867,-70.4070816040039,72.64240263161315,-139.93080211520245,3451113820
iw,-90.0,-68.2439727783203,71.76307867267346,-131.80917453503406,3451130487
iw,-88.2766036987304,-66.2117538452148,72.13454576976606,-122.52385506263502,3451147154
iw,-86.8321380615234,-64.2790985107421,73.94616955903426,-112.62240206751238,3451163821
iw,-85.3781433105468,-62.4784240722656,77.02352247180342,-102.41403801352773,3451180488
iw,-83.9048461914062,-60.8467597961425,80.89971894812363,-91.90410837709697,3451197155
iw,-82.4423370361328,-59.3176956176757,84.95308903898733,-80.85903541417146,3451213822
iw,-80.9247055053711,-57.9474220275878,88.55520156688907,-68.98178323039299,3451230489
iw,-79.3755874633789,-56.796287536621,91.18259874133899,-56.12742469786888,3451247156
iw,-77.8435440063476,-55.973030090332,92.4710092366263,-42.46844439030746,3451263823
iw,-76.3709335327148,-55.5375442504882,92.2165976538339,-28.538784067065436,3451280490
iw,-74.9356002807617,-55.3977394104003,90.34538622923942,-15.136814266971676,3451297157
iw,-73.5003662109375,-55.416202545166,86.87611030991968,-3.1273963518705,3451313824
iw,-72.0919952392578,-55.5884132385253,81.89366078829086,6.777257547547381,3451330491
iw,-70.7172927856445,-55.7201461791992,75.53405099432685,14.178599298463796,3451347158
iw,-69.4475021362304,-56.164623260498,67.96642361779584,19.052373304432532,3451363825
iw,-68.3972396850586,-56.8440513610839,59.35324880589352,21.714698717385414,3451380492
iw,-67.6304473876953,-57.5617218017578,49.78185472649687,22.728561581675443,3451397159
iw,-67.0875167846679,-58.1369667053222,39.18439053908689,22.786003022989,3451413826
iw,-66.7816925048828,-58.7074699401855,27.285842444403322,22.587946706718746,3451430493
iw,-66.6779708862304,-59.2247200012207,13.625603172645988,22.735138167306935,3451447160
iw,-66.7619094848632,-59.8129920959472,-2.3203576276078635,23.64353449107325,3451463827
iw,-66.9532928466796,-60.8244132995605,-20.92839580551772,25.497713954685388,3451480494
iw,-67.3906097412109,-61.8642082214355,-42.18394943194452,28.249612604075676,3451497161
iw,-68.1154174804687,-62.6451034545898,-65.49495752712458,31.658979288058173,3451513828
iw,-69.3494491577148,-63.3660202026367,-89.65065932588098,35.36501332258106,3451530495
iw,-71.3375396728515,-64.3320236206054,-112.9730909932762,38.979014487888925,3451547162
iw,-73.7965621948242,-65.5879135131836,-133.63610553344614,42.18685619577301,3451563829
iw,-76.5774459838867,-67.0634994506836,-150.0544729661143,44.84022199646211,3451580496
iw,-79.2154083251953,-68.3477706909179,-161.2122890394538,47.005479310278794,3451597163
iw,-81.7140197753906,-69.570068359375,-166.8262798989153,48.945607072851296,3451613830
iw,-84.0024337768554,-70.8626403808593,-167.31128050026211,51.03679605841193,3451630497
iw,-85.966438293457,-72.1945266723632,-163.59185707031716,53.6498246032955,3451647164
iw,-87.3065948486328,-73.522232055664,-156.84763573427375,57.037113169813,3451663831
iw,-86.7548446655273,-74.8628311157226,-148.27674972521444,61.256720068849184,3451680498
iw,-84.9410781860351,-76.2357025146484,-138.92497184466353,66.14707980037963,3451697165
iw,-82.8789138793945,-77.6630859375,-129.5850820024586,71.35257817402322,3451713832
iw,-80.8396377563476,-79.1945724487304,-120.74659966588621,76.39193218268288,3451730499
iw,-78.9256973266601,-80.7696685791015,-112.57781074360153,80.75513576878686,3451747166
iw,-77.2254562377929,-82.3473739624023,-104.93898160455785,84.0084335810173,3451763833
iw,-75.6646041870117,-83.8924789428711,-97.43971546747991,85.88278032043137,3451780500
iw,-74.1180953979492,-85.3866271972656,-89.55162473172173,86.32368963925589,3451797167
iw,-72.6540222167968,-86.815185546875,-80.76759733381921,85.49036625777447,3451813834
iw,-71.3024749755859,-88.1659164428711,-70.77070957351039,83.70584089317201,3451830501
iw,-70.1076583862304,-89.1855545043945,-59.557194343291215,81.37190566849509,3451847168
iw,-69.3068008422851,-88.7435302734375,-47.46409773133603,78.86932701356615,3451863835
iw,-68.8100280761718,-87.5584030151367,-35.08513928174073,76.46444441612742,3451880502
iw,-68.558609008789,-86.2934494018554,-23.10336181676906,74.23903350343448,3451897169
iw,-68.5044937133789,-85.0709381103515,-12.103212095910648,72.05348566909487,3451913836
iw,-68.4608612060546,-83.8834915161132,-2.429571961172473,69.54695107046673,3451930503
iw,-68.2977142333984,-82.725112915039,5.864977371739838,66.17397648364518,3451947170
iw,-68.7012710571289,-81.6102600097656,12.98440326860395,61.27425618279759,3451963837
iw,-69.2835388183593,-80.6562805175781,19.295063863291585,54.16832975091889,3451980504
iw,-69.8932952880859,-79.9148788452148,25.20837531066767,44.26787689965151,3451997171
iw,-70.2627716064453,-79.4241714477539,31.06671723241819,31.18694520135816,3452013838
iw,-70.652114868164,-79.1742782592773,37.0571691553288,14.839959078107546,3452030505
iw,-71.3687896728515,-79.2021331787109,43.18181926562875,-4.489173639467613,3452047172
iw,-72.5699615478515,-79.4962921142578,49.30088253913623,-26.12604324111575,3452063839
iw,-74.0329818725586,-80.139289855957,55.227534344309085,-49.052641111256264,3452080506
iw,-75.3272933959961,-81.4750671386718,60.81766503867639,-72.03169987379614,3452097173
iw,-76.0953598022461,-83.280403137207,65.99942633114662,-93.79331694027202,3452113840
iw,-77.1616134643554,-85.3767471313476,70.73105745627979,-113.23877517007983,3452130507
iw,-78.5954513549804,-87.3096466064453,74.92639853608496,-129.60049273971327,3452147174
iw,-80.0644989013671,-87.5003280639648,78.40583576543393,-142.50891809452352,3452163841
iw,-81.6128997802734,-85.3435592651367,80.9089108005554,-151.9523434688117,3452180508
iw,-83.1176147460937,-82.7233581542968,82.16778802703875,-158.15536187481132,3452197175
iw,-84.5455169677734,-80.0683517456054,82.01284529873878,-161.42750365381832,3452213842
iw,-86.0143508911132,-77.4450454711914,80.47028868311486,-162.03580858389245,3452230509
iw,-87.5184020996093,-74.7734832763671,77.81460844712623,-160.13558821633438,3452247176
iw,-89.0835800170898,-72.1676025390625,74.55265415281771,-155.76522225790154,3452263843
iw,-89.6834869384765,-69.6653518676757,71.33741864148124,-148.88960581401992,3452280510
iw,-88.2230377197265,-67.2098159790039,68.83296166018008,-139.47032796191192,3452297177
iw,-86.8810958862304,-64.7853698730468,67.5696935981782,-127.54379700018757,3452313844
iw,-85.5077819824218,-62.534984588623,67.83291611645727,-113.29190966569412,3452330511
iw,-84.171401977539,-60.6140708923339,69.61344547746322,-97.08996186714036,3452347178
iw,-82.9670104980468,-59.0196380615234,72.62460356434075,-79.51728470169886,3452363845
iw,-81.7088394165039,-57.7681007385253,76.36928102214415,-61.322354950133295,3452380512
iw,-80.3479995727539,-56.8183822631835,80.23297209243708,-43.345746460356516,3452397179
iw,-78.9471130371093,-56.2492942810058,83.58057461804546,-26.416979393057584,3452413846
iw,-77.4831619262695,-55.9619140625,85.83929128849685,-11.25039199084671,3452430513
iw,-76.02001953125,-55.8621864318847,86.55498005589988,1.6332712033125867,3452447180
iw,-74.642333984375,-55.8856010437011,85.41590705866169,11.942027106715424,3452463847
iw,-73.2859649658203,-55.9504661560058,82.24533465710498,19.60631751404891,3452480514
iw,-71.9412307739257,-56.3418884277343,76.96982150643392,24.752698671019836,3452497181
iw,-70.6770629882812,-57.1241340637207,69.57160239888165,27.68316580529983,3452513848
iw,-69.6035995483398,-57.9889831542968,60.03311282855835,28.865675832083927,3452530515
iw,-68.9020690917968,-58.853515625,48.28524792287569,28.91153823207882,3452547182
iw,-68.542366027832,-59.3870124816894,34.180686523543834,28.505657651863178,3452563849
iw,-68.4173202514648,-59.6818122863769,17.521758546086385,28.28201555202622,3452580516
iw,-68.4434356689453,-60.1670684814453,-1.8360013700854902,28.680782237024857,3452597183
iw,-68.5458831787109,-60.9487075805664,-23.816073472570302,29.848192476694045,3452613850
iw,-68.9853210449218,-61.9883804321289,-47.94526261893346,31.62569249787042,3452630517
iw,-70.0408935546875,-63.0136528015136,-73.25466590074885,33.6337501847138,3452647184
iw,-71.6660919189453,-64.0720062255859,-98.32781633311639,35.41760424940412,3452663851
iw,-73.8477020263671,-64.9946060180664,-121.50973829610432,36.60624780664692,3452680518
iw,-76.413818359375,-66.0521392822265,-141.21970090424196,37.04100958395323,3452697185
iw,-79.1727447509765,-67.2965087890625,-156.2636186993347,36.84434224118885,3452713852
iw,-81.6578826904296,-68.5469741821289,-166.0430030972151,36.413367923866524,3452730519
iw,-83.9278182983398,-69.6301803588867,-170.60373269797705,36.33604837894535,3452747186
iw,-85.9796142578125,-70.6467132568359,-170.5338700633451,37.24585692341857,3452763853
iw,-86.9674606323242,-71.7024230957031,-166.77007723206182,39.65253435028221,3452780520
iw,-86.0073776245117,-72.8617630004882,-160.38469487678526,43.79955445589058,3452797187
iw,-84.0121459960937,-74.0995941162109,-152.40515700663903,49.59172354234077,3452813854
iw,-81.7498626708984,-75.4035110473632,-143.68617401131488,56.61161927134085,3452830521
iw,-79.5921325683593,-76.7716827392578,-134.8317671670385,64.21492529179734,3452847188
iw,-77.569465637207,-78.2573547363281,-126.15594699064746,71.67356557348566,3452863855
iw,-75.7128372192382,-79.7998809814453,-117.67595399966496,78.32587491713903,3452880522
iw,-73.9968185424804,-81.3522109985351,-109.14244882137868,83.694932250515,3452897189
iw,-72.2942810058593,-82.861946105957,-100.11570335867295,87.54828357570403,3452913856
iw,-70.6637954711914,-84.3680038452148,-90.08874253597071,89.89053713376394,3452930523
iw,-69.2061538696289,-85.850227355957,-78.64007127946371,90.89809037671985,3452947190
iw,-67.964111328125,-87.1937637329101,-65.58051686629997,90.81731044294665,3452963857
iw,-66.9705200195312,-88.2316513061523,-51.05200333337091,89.8534194041452,3452980524
iw,-66.2718505859375,-88.4422912597656,-35.5457843811286,88.079483792452,3452997191
iw,-65.9188232421875,-87.5977554321289,-19.830785848071987,85.39302332321613,3453013858
iw,-65.9153976440429,-86.3848037719726,-4.810393827827503,81.53778742437318,3453030525
iw,-66.0239868164062,-85.1003112792968,8.653297968010529,76.18788041061819,3453047192
iw,-66.1914901733398,-83.7692031860351,19.904169918943936,69.06571493649912,3453063859
iw,-66.9717407226562,-82.4969787597656,28.61237456685065,60.0459677110264,3453080526
iw,-67.8522415161132,-81.5698318481445,34.83009040597497,49.19736991150587,3453097193
iw,-68.7406387329101,-81.0611877441406,38.97033417679534,36.73904702410806,3453113860
iw,-69.4671020507812,-80.9125366210937,41.706634891784354,22.931208616633388,3453130527
iw,-70.0260238647461,-81.0086364746093,43.814405386329454,7.959342444391868,3453147194
iw,-70.6720123291015,-81.228775024414,46.001584226810266,-8.11908717442083,3453163861
iw,-71.6212310791015,-81.511734008789,48.782648384816554,-25.326762649178303,3453180528
iw,-72.8483581542968,-81.9416351318359,52.424781354023395,-43.63464155061258,3453197195
iw,-74.1219406127929,-82.7616119384765,56.95424380580162,-62.81241514328216,3453213862
iw,-75.0744400024414,-84.2253875732421,62.18706346719208,-82.33995404370233,3453230529
iw,-75.855224609375,-85.9884414672851,67.7594946311927,-101.42594877132328,3453247196
iw,-77.1839141845703,-87.4593200683593,73.16517522095795,-119.12391656244549,3453263863
iw,-78.7902450561523,-86.7746276855468,77.82235816409381,-134.49171820430442,3453280530
iw,-80.343765258789,-84.2894821166992,81.17855363813707,-146.73212025952452,3453297197
iw,-81.7941741943359,-81.5995025634765,82.8305895782196,-155.27626819093902,3453313864
iw,-83.2154006958007,-78.9936981201171,82.6257161896802,-159.80878826887357,3453330531
iw,-84.6791763305664,-76.4933700561523,80.71905489933593,-160.25982374418135,3453347198
iw,-86.1506118774414,-74.0410232543945,77.57606385691997,-156.7925385619647,3453363865
iw,-87.6890335083007,-71.6231079101562,73.91397323816055,-149.7973989738689,3453380532
iw,-89.2848205566406,-69.3029479980468,70.58076133099537,-139.88222778610634,3453397199
iw,-90.0,-67.0930633544921,68.38531651020539,-127.83533078537543,3453413866
iw,-88.3780364990234,-64.9816589355468,67.91590164305089,-114.54419108428961,3453430533
iw,-87.0306777954101,-63.039737701416,69.40055453240068,-100.87052449381083,3453447200
iw,-85.6504440307617,-61.4131469726562,72.65679335446697,-87.50553197172113,3453463867
iw,-84.2760772705078,-60.1210403442382,77.14714918633317,-74.8485084901852,3453480534
iw,-82.8597183227539,-58.967658996582,82.11768350913334,-62.95860922990989,3453497201
iw,-81.3398895263671,-57.8343391418457,86.7703219011485,-51.61398370887732,3453513868
iw,-79.7726669311523,-56.7982597351074,90.4169981067565,-40.47239507805944,3453530535
iw,-78.2482986450195,-56.0282478332519,92.57975970574311,-29.278299216956775,3453547202
iw,-76.7641448974609,-55.6030731201171,93.02494936100607,-18.032574408826626,3453563869
iw,-75.2659912109375,-55.3987846374511,91.7407709877924,-7.053979841336735,3453580536
iw,-73.766731262207,-55.376853942871,88.87824853453812,3.0903160294835175,3453597203
iw,-72.2353439331054,-55.537742614746,84.673307538564,11.753043127635614,3453613870
iw,-70.7728500366211,-55.8179512023925,79.35804735802552,18.408452051438758,3453630537
iw,-69.5436782836914,-56.3425064086914,73.06366604653164,22.818904284621436,3453647204
iw,-68.5891418457031,-56.9589462280273,65.72485389885676,25.11764404107578,3453663871
iw,-67.7997741699218,-57.5824012756347,57.01328868838583,25.78738041433447,3453680538
iw,-67.127571105957,-58.1012725830078,46.34128113472697,25.543247298579363,3453697205
iw,-66.6366653442382,-58.4493598937988,32.96920582493727,25.15526698841912,3453713872
iw,-66.2997207641601,-58.9631118774414,16.218233942111844,25.264472701165108,3453730539
iw,-66.2195129394531,-59.5647201538085,-4.254920152979745,26.24874512307752,3453747206
iw,-66.308235168457,-60.8081932067871,-28.202851232118974,28.174370138927316,3453763873
iw,-66.8889770507812,-62.1343955993652,-54.648155957524935,30.83573061512853,3453780540
iw,-68.1422424316406,-63.2023696899414,-81.93561203719847,33.85604621977266,3453797207
iw,-69.9683685302734,-63.9680023193359,-107.9944170748356,36.81137249313109,3453813874
iw,-72.3901977539062,-64.8842010498046,-130.75172187617113,39.34874952198585,3453830541
iw,-75.1343154907226,-66.1934051513671,-148.5737433217395,41.28231082998948,3453847208
iw,-77.787109375,-67.6728439331054,-160.59176495461372,42.652832206964696,3453863875
iw,-80.1380767822265,-68.8329391479492,-166.81168795483768,43.73068392531358,3453880542
iw,-82.370361328125,-69.9255447387695,-167.99094090229855,44.94892321276078,3453897209
iw,-84.4154205322265,-71.1055450439453,-165.35315361468682,46.779348044167875,3453913876
iw,-85.9188461303711,-72.3863220214843,-160.25576885763277,49.59134151339655,3453930543
iw,-86.274429321289,-73.7036209106445,-153.91372126281507,53.53916064443783,3453947210
iw,-85.1888809204101,-75.0162963867187,-147.23287213193998,58.50729982435162,3453963877
iw,-83.4549179077148,-76.3356399536132,-140.75333596187724,64.1221409349577,3453980544
iw,-81.4430160522461,-77.7373352050781,-134.66944154487803,69.82338340253686,3453997211
iw,-79.3908615112304,-79.2080001831054,-128.88657601226876,74.97997636818704,3454013878
iw,-77.4179534912109,-80.7271652221679,-123.08811267358686,79.0273630499698,3454030545
iw,-75.5318298339843,-82.2886123657226,-116.80477223202834,81.59539885670091,3454047212
iw,-73.7387924194336,-83.8223190307617,-109.49267813319949,82.59378554554992,3454063879
iw,-72.094497680664,-85.306396484375,-100.62887309126621,82.2286890202628,3454080546
iw,-70.6152572631836,-86.7014083862304,-89.82396805094899,80.94092358615482,3454097213
iw,-69.2330322265625,-88.0760345458984,-76.9359319208071,79.27843402999055,3454113880
iw,-68.0770187377929,-89.6433715820312,-62.154940441291885,77.73620421454692,3454130547
iw,-67.2724227905273,-90.0,-46.025617927598915,76.60757977393995,3454147214
iw,-66.8378601074218,-88.4060287475586,-29.38595187647121,75.88807704316555,3454163881
iw,-66.7708663940429,-87.014175415039,-13.228806194574899,75.25658960991633,3454180548
iw,-66.8099822998046,-85.6405487060546,1.4808032327650085,74.13468290340076,3454197215
iw,-67.1544570922851,-84.2796783447265,13.98603299509393,71.80121313607737,3454213882
iw,-67.7304306030273,-83.0032806396484,23.873646350749997,67.52610437232708,3454230549
iw,-68.5195541381836,-81.9386672973632,31.13636202931006,60.68876145807706,3454247216
iw,-69.3472824096679,-81.1186065673828,36.15037389296215,50.86128131174755,3454263883
iw,-70.0753402709961,-80.5995407104492,39.574210606079596,37.85625708531747,3454280550
iw,-70.6557693481445,-80.3102493286132,42.19556636003702,21.752665460712933,3454297217
iw,-71.5243225097656,-80.2021484375,44.768832438588284,2.912578159304726,3454313884
iw,-72.4595794677734,-80.3621826171875,47.88542027128414,-18.013672424665767,3454330551
iw,-73.4977340698242,-80.8518524169921,51.89884154274449,-40.11414365102363,3454347218
iw,-74.6495590209961,-81.9671096801757,56.901070980333756,-62.29753024486722,3454363885
iw,-75.6000213623046,-83.6116867065429,62.733729307153595,-83.43481196014616,3454380552
iw,-76.758186340332,-85.5184326171875,69.0212821983881,-102.53030786419374,3454397219
iw,-78.2066421508789,-87.4033889770507,75.22394236674478,-118.86810171942649,3454413886
iw,-79.7591552734375,-87.646987915039,80.71356282802411,-132.08354739272744,3454430553
iw,-81.3434677124023,-85.4442672729492,84.87260613035656,-142.13884080744322,3454447220
iw,-82.9031143188476,-82.8625183105468,87.20790185598943,-149.21924908788964,3454463887
iw,-84.4950485229492,-80.3960189819336,87.4613031622395,-153.59500950502624,3454480554
iw,-86.102180480957,-77.9801559448242,85.69022447751823,-155.50180080414768,3454497221
iw,-87.67578125,-75.4866714477539,82.28715150283134,-155.07666435624367,3454513888
iw,-89.3483810424804,-72.9819717407226,77.91725249431154,-152.35554476692678,3454530555
iw,-89.7119674682617,-70.524787902832,73.3804127975394,-147.31267619572532,3454547222
iw,-88.1105194091796,-68.0753173828125,69.43762823828655,-139.91527850535545,3454563889
iw,-86.7443695068359,-65.6695022583007,66.66113215393649,-130.17666963192335,3454580556
iw,-85.3488616943359,-63.3850784301757,65.35737537632271,-118.2025325649791,3454597223
iw,-84.0137863159179,-61.3676795959472,65.57530390907198,-104.22820068230344,3454613890
iw,-82.7988128662109,-59.6787452697753,67.17172782329614,-88.64090376280905,3454630557
iw,-81.6238479614257,-58.2170372009277,69.88641665277429,-71.97803065105715,3454647224
iw,-80.4124298095703,-57.0755538940429,73.39028751206244,-54.89571163675291,3454663891
iw,-79.1789855957031,-56.3276824951171,77.2977082330782,-38.11042061981978,3454680558
iw,-77.9211044311523,-55.906681060791,81.15863965470324,-22.325879522804023,3454697225
iw,-76.5671691894531,-55.5942230224609,84.45638667664954,-8.163428357952029,3454713892
iw,-75.1044158935546,-55.3796043395996,86.63114715536216,3.8885920676911327,3454730559
iw,-73.636734008789,-55.4429969787597,87.13363940315139,13.502234825910728,3454747226
iw,-72.1539535522461,-55.6196670532226,85.49515327220664,20.522673913191948,3454763893
iw,-70.7028045654296,-56.0719413757324,81.3887635369944,24.979699652490588,3454780560
iw,-69.3538970947265,-56.7745780944824,74.65593608364529,27.10435035294975,3454797227
iw,-68.2064132690429,-57.6657447814941,65.28378381254208,27.340689512970435,3454813894
iw,-67.4047164916992,-58.4520645141601,53.33867055602875,26.327019418212554,3454830561
iw,-66.9788436889648,-58.8828620910644,38.88643657345814,24.82167542655535,3454847228
iw,-66.8497772216796,-59.2903938293457,21.947222889113398,23.57423217578278,3454863895
iw,-66.8587112426757,-59.8718605041503,2.5290712964442696,23.17818561720788,3454880562
iw,-66.9137344360351,-60.7290687561035,-19.248924566739355,23.956902314606694,3454897229
iw,-67.2667617797851,-61.5317459106445,-42.98572106665191,25.91942251611006,3454913896
iw,-68.2087631225586,-62.3603248596191,-67.86358964792677,28.793782537063066,3454930563
iw,-69.6612701416015,-63.3193855285644,-92.63429175406343,32.12399492773918,3454947230
iw,-71.7000427246093,-64.3533248901367,-115.76361518546764,35.405848937966326,3454963897
iw,-74.1615600585937,-65.5057907104492,-135.7009575876738,38.230203703673915,3454980564
iw,-76.8875656127929,-66.8662033081054,-151.1846850690124,40.39973884156205,3454997231
iw,-79.473518371582,-68.1492080688476,-161.48022461634665,41.98877109610194,3455013898
iw,-81.9684982299804,-69.3507614135742,-166.48012102237726,43.32680724768707,3455030565
iw,-84.3829879760742,-70.557258605957,-166.6541887599333,44.90544171216891,3455047232
iw,-86.5449829101562,-71.8139877319336,-162.891646091671,47.23183778384779,3455063899
iw,-87.8021545410156,-73.0914764404296,-156.30097430002135,50.67077752438004,3455080566
iw,-86.7363739013671,-74.3814468383789,-148.02380898468905,55.32200747276317,3455097233
iw,-84.7414855957031,-75.7099456787109,-139.09137937425845,60.96909213250114,3455113900
iw,-82.6638031005859,-77.1070861816406,-130.3253554172832,67.11514650489687,3455130567
iw,-80.6105422973632,-78.6354904174804,-122.27215565014768,73.09601946326846,3455147234
iw,-78.6221389770507,-80.180419921875,-115.16213418846267,78.23935004287321,3455163901
iw,-76.7927856445312,-81.7209014892578,-108.89501462628343,82.02504569959643,3455180568
iw,-75.0820846557617,-83.2392044067382,-103.06133710934269,84.20332379275085,3455197235
iw,-73.4160232543945,-84.7406692504882,-97.01104515222164,84.83965000930783,3455213902
iw,-71.8794326782226,-86.1683578491211,-89.97329975899244,84.27662866106414,3455230569
iw,-70.5475463867187,-87.4920501708984,-81.2184923338561,83.02530293420486,3455247236
iw,-69.3066940307617,-88.6647033691406,-70.23889398727097,81.61715202061376,3455263903
iw,-68.1852493286132,-89.0516815185546,-56.91190498825658,80.45777588552002,3455280570
iw,-67.2220153808593,-88.0634613037109,-41.60148656956762,79.71974891009357,3455297237
iw,-66.7206192016601,-86.7805862426757,-25.154858737049477,79.2969117459315,3455313904
iw,-66.7426071166992,-85.4350357055664,-8.772545212108547,78.82266672947603,3455330571
iw,-66.9952163696289,-84.0558471679687,6.228666756589019,77.73841945054373,3455347238
iw,-67.4265213012695,-82.7264862060546,18.696759208340705,75.38934726128302,3455363905
iw,-67.9106903076171,-81.4678421020507,27.888029629908893,71.12390370434704,3455380572
iw,-68.5879821777343,-80.3519515991211,33.609184302116454,64.37957156922954,3455397239
iw,-69.4323577880859,-79.4441146850586,36.23242466960648,54.74736814021735,3455413906
iw,-70.2245635986328,-78.7835159301757,36.594044529963426,42.017341377944625,3455430573
iw,-70.7318878173828,-78.4113998413086,35.81018455333721,26.21269397317297,3455447240
iw,-71.2386093139648,-78.3236465454101,35.055625750665385,7.618255854362394,3455463907
iw,-72.0549697875976,-78.4031219482421,35.35347276318941,-13.200845553688838,3455480574
iw,-72.6387863159179,-78.7490158081054,37.41225121326202,-35.408159869662825,3455497241
iw,-73.2616653442382,-79.6316223144531,41.52833524095352,-57.95714200221757,3455513908
iw,-74.175308227539,-81.2320480346679,47.559735276272455,-79.71651892111744,3455530575
iw,-75.1407623291015,-83.1219177246093,54.97373861103853,-99.6387847222262,3455547242
iw,-76.4110107421875,-85.1246795654296,62.9625745218544,-116.91792744403865,3455563909
iw,-77.7894515991211,-86.677749633789,70.60424514562342,-131.07706594490057,3455580576
iw,-79.2270584106445,-86.4937973022461,77.03348327861988,-141.9570048587349,3455597243
iw,-80.6382522583007,-84.7293548583984,81.59106401329356,-149.62393674929424,3455613910
iw,-82.1216201782226,-82.5659484863281,83.93216255046066,-154.25005809597255,3455630577
iw,-83.6775207519531,-80.2935180664062,84.08322391550708,-156.02597794066216,3455647244
iw,-85.2145919799804,-77.8961486816406,82.43794194722844,-155.1373718716854,3455663911
iw,-86.7561721801757,-75.4684295654296,79.68435267306161,-151.796710889121,3455680578
iw,-88.2642669677734,-73.0811004638671,76.66663384277192,-146.28929900284172,3455697245
iw,-90.0,-70.6744308471679,74.20716850028934,-138.9887384937228,3455713912
iw,-89.2322998046875,-68.2744369506836,72.93503725114833,-130.3189095193534,3455730579
iw,-87.6477355957031,-65.9749069213867,73.1711446618908,-120.6722622908239,3455747246
iw,-86.0888366699218,-63.9782943725585,74.90053137786732,-110.32099707656903,3455763913
iw,-84.5903549194336,-62.2223968505859,77.82719834197732,-99.36752319114657,3455780580
iw,-83.1562805175781,-60.5419082641601,81.47618849276591,-87.768367044258,3455797247
iw,-81.7269515991211,-58.955467224121,85.29922089443068,-75.4334490888159,3455813914
iw,-80.2828674316406,-57.5900192260742,88.75452233422403,-62.3633224869074,3455830581
iw,-78.8041381835937,-56.6012992858886,91.35440566140751,-48.76242398508881,3455847248
iw,-77.2636947631836,-55.9056243896484,92.69051374145933,-35.07347185489943,3455863915
iw,-75.6980209350586,-55.5168571472168,92.45042484196733,-21.91408281922941,3455880582
iw,-74.1893463134765,-55.2741508483886,90.43309416271353,-9.940592539083555,3455897249
iw,-72.7202758789062,-55.2013473510742,86.56058602319084,0.3073422139310725,3455913916
iw,-71.2385177612304,-55.1885643005371,80.87509850864535,8.526553353515057,3455930583
iw,-69.8233413696289,-55.4803962707519,73.50679958550099,14.702196385644532,3455947250
iw,-68.6896896362304,-56.0307006835937,64.6032002163117,19.088725015631923,3455963917
iw,-67.9448547363281,-56.6545333862304,54.22869210459767,22.13621238104795,3455980584
iw,-67.54150390625,-57.1041030883789,42.2705910350618,24.38370708023117,3455997251
iw,-67.2914810180664,-57.6512451171875,28.409162177302274,26.34356779259106,3456013918
iw,-67.0743331909179,-58.2368011474609,12.201119620172719,28.404963583502784,3456030585
iw,-66.8790054321289,-59.1578140258789,-6.719719151793763,30.782178161700482,3456047252
iw,-66.996841430664,-60.6307907104492,-28.385692186405443,33.516097883201695,3456063919
iw,-67.5591049194336,-61.9786338806152,-52.28906621979352,36.513398298869404,3456080586
iw,-68.7218856811523,-62.7440795898437,-77.32768542561224,39.596756159454024,3456097253
iw,-70.5672454833984,-63.3375396728515,-101.94539512306362,42.55196545428476,3456113920
iw,-72.9068832397461,-64.4314727783203,-124.42718094790725,45.18057941180726,3456130587
iw,-75.4011535644531,-65.9729995727539,-143.244193723065,47.37032237346098,3456147254
iw,-77.9344024658203,-67.4335021972656,-157.32997648782847,49.169640432403334,3456163921
iw,-80.3697509765625,-68.6676254272461,-166.2104689225922,50.82432556361399,3456180588
iw,-82.7606353759765,-69.9114608764648,-169.98002201378452,52.73824721607911,3456197255
iw,-84.9897232055664,-71.2220840454101,-169.17423298313776,55.3584469329053,3456213922
iw,-86.6582412719726,-72.5976028442382,-164.61139166394554,59.02537411326176,3456230589
iw,-86.8434677124023,-73.9983596801757,-157.25688171201472,63.8436989103654,3456247256
iw,-85.3127899169921,-75.418701171875,-148.12734418257295,69.61685653568723,3456263923
iw,-83.2661209106445,-76.8465118408203,-138.2168998924835,75.86420917434376,3456280590
iw,-81.159423828125,-78.4107818603515,-128.4136736604885,81.91534389270684,3456297257
iw,-79.1975936889648,-80.0558700561523,-119.38754392421602,87.05626937135095,3456313924
iw,-77.439453125,-81.7386779785156,-111.46212375993318,90.68965918399337,3456330591
iw,-75.8796615600586,-83.3953857421875,-104.51737726954042,92.4683397205606,3456347258
iw,-74.3611450195312,-84.9517440795898,-97.9833767931108,92.36875135533901,3456363925
iw,-72.7914581298828,-86.4131927490234,-90.96710684920328,90.68674108038435,3456380592
iw,-71.2690505981445,-87.6821823120117,-82.5051565525749,87.95696548857748,3456397259
iw,-69.8226547241211,-88.4335174560546,-71.87622015071298,84.81434633111438,3456413926
iw,-68.6393966674804,-88.1778030395507,-58.868701039900934,81.82824123182164,3456430593
iw,-67.8475723266601,-87.3125610351562,-43.90280079962538,79.34654321401395,3456447260
iw,-67.372817993164,-86.2775344848632,-27.954776156264,77.38761022626848,3456463927
iw,-67.3742904663086,-85.1392517089843,-12.30390864890444,75.6106166330063,3456480594
iw,-67.8018798828125,-83.8904800415039,1.8103418208457083,73.37674605733685,3456497261
iw,-68.0787811279296,-82.5580062866211,13.501201485540383,69.8863270462929,3456513928
iw,-68.4807510375976,-81.3150253295898,22.415394373307695,64.35064101157111,3456530595
iw,-69.0946197509765,-80.3346405029296,28.739097513156807,56.14631785166834,3456547262
iw,-69.7226638793945,-79.6572494506836,33.05502840611586,44.913318664941585,3456563929
iw,-70.1543045043945,-79.2722091674804,36.122274311450994,30.587783346803537,3456580596
iw,-70.6461334228515,-79.1427154541015,38.66269443752879,13.389560562464567,3456597263
iw,-71.305793762207,-79.2084197998046,41.22292289029299,-6.20652970815128,3456613930
iw,-72.4602508544921,-79.5193252563476,44.14396216352581,-27.500101132740827,3456630597
iw,-74.0870513916015,-80.1333923339843,47.617101326993705,-49.60291227343237,3456647264
iw,-75.3000717163086,-81.3976898193359,51.75843407866481,-71.50545152436871,3456663931
iw,-75.8858184814453,-82.9814987182617,56.62950455735667,-92.1828675666348,3456680598
iw,-76.674934387207,-84.6753540039062,62.18107300484085,-110.72342959760378,3456697265
iw,-77.9372940063476,-85.9388580322265,68.16519855748402,-126.43940615713043,3456713932
iw,-79.4423294067382,-85.6853485107421,74.09186047821271,-138.91976891389098,3456730599
iw,-80.9492263793945,-83.9494857788086,79.28088230541644,-148.00825145534412,3456747266
iw,-82.4197006225586,-81.7693252563476,83.00836423422739,-153.72535026539515,3456763933
iw,-83.9679489135742,-79.5572814941406,84.70660017513985,-156.17977112210446,3456780600
iw,-85.5529251098632,-77.329475402832,84.15808826502834,-155.51801260771336,3456797267
iw,-87.1738891601562,-75.0347824096679,81.62119328197035,-151.93630878914388,3456813934
iw,-88.9249877929687,-72.7305297851562,77.83575024500817,-145.73924852564681,3456830601
iw,-90.0,-70.4850769042968,73.8862626599018,-137.39658755321128,3456847268
iw,-88.5127334594726,-68.3279495239257,70.94642376551943,-127.54342731671767,3456863935
iw,-87.1348800659179,-66.2865982055664,69.97570324169679,-116.89404604777337,3456880602
iw,-85.8438644409179,-64.4824600219726,71.46359263732941,-106.0848788854952,3456897269
iw,-84.6182479858398,-62.9714698791503,75.30438402072981,-95.50625553903815,3456913936
iw,-83.3052597045898,-61.5762786865234,80.83926042988878,-85.20323483986678,3456930603
iw,-81.8004913330078,-60.1613159179687,87.04414131110967,-74.90773381817148,3456947270
iw,-80.0989990234375,-58.8037757873535,92.79497950482073,-64.2080623081784,3456963937
iw,-78.3428955078125,-57.6734619140625,97.12257699692684,-52.792631157533066,3456980604
iw,-76.6840209960937,-56.9062576293945,99.38157932130827,-40.66168261979982,3456997271
iw,-75.1511077880859,-56.4935035705566,99.2976749414498,-28.21249067474679,3457013938
iw,-73.6765441894531,-56.3887252807617,96.9063819309292,-16.163819557909658,3457030605
iw,-72.1958770751953,-56.3348350524902,92.43294197013608,-5.358478165761506,3457047272
iw,-70.6974716186523,-56.3378829956054,86.16921533106847,3.4721199887678806,3457063939
iw,-69.2499542236328,-56.4596557617187,78.3819054731621,9.899193177243511,3457080606
iw,-68.0014266967773,-56.8726234436035,69.25579267073665,13.896983074791867,3457097273
iw,-66.9992904663086,-57.5066146850585,58.85771488637768,15.843972198879666,3457113940
iw,-66.2910842895507,-58.1274909973144,47.111360296600935,16.43663468567281,3457130607
iw,-65.8743209838867,-58.5044441223144,33.791820840864276,16.534676503602444,3457147274
iw,-65.6887664794921,-58.8519630432128,18.56443733252733,16.968166819131067,3457163941
iw,-65.7077484130859,-59.3669471740722,1.0891335070367782,18.353303231036143,3457180608
iw,-65.8305511474609,-60.2107124328613,-18.814769763003042,20.967427508660226,3457197275
iw,-66.1345748901367,-61.1994247436523,-40.98664256572441,24.715522476255575,3457213942
iw,-66.9988327026367,-62.1093292236328,-64.7975208972314,29.190984085125542,3457230609
iw,-68.3766326904296,-63.0545578002929,-89.14642230861813,33.8095028508522,3457247276
iw,-70.326675415039,-64.1267852783203,-112.60609785119038,37.981421441230644,3457263943
iw,-72.7370452880859,-65.3680419921875,-133.68145149935097,41.28156138498975,3457280610
iw,-75.2864685058593,-66.747802734375,-151.0944397505904,43.57461015081071,3457297277
iw,-77.8006057739257,-68.034309387207,-164.00058637859078,45.06131079524343,3457313944
iw,-80.2801208496093,-69.2730560302734,-172.07759671251006,46.229041097234074,3457330611
iw,-82.6790618896484,-70.555923461914,-175.4840366895885,47.718144199501495,3457347278
iw,-84.837417602539,-71.8881607055664,-174.7337881412425,50.14243760258522,3457363945
iw,-86.3718338012695,-73.211196899414,-170.54913382184648,53.915616104111855,3457380612
iw,-86.3415756225586,-74.5649948120117,-163.74155075155747,59.13004435864753,3457397279
iw,-84.7453994750976,-75.9549713134765,-155.13786895276763,65.51696197802168,3457413946
iw,-82.5388641357421,-77.3999404907226,-145.5367082590901,72.49611173401541,3457430613
iw,-80.2191619873046,-78.9725952148437,-135.66114660305618,79.30270919507859,3457447280
iw,-78.0531158447265,-80.643569946289,-126.07925699698875,85.16203170153241,3457463947
iw,-76.2274627685546,-82.3610763549804,-117.0946917935377,89.46885169740196,3457480614
iw,-74.6846466064453,-84.0707702636718,-108.64995000044362,91.92430638158386,3457497281
iw,-73.1702880859375,-85.7472991943359,-100.30900642660224,92.59051640840659,3457513948
iw,-71.5534439086914,-87.3228530883789,-91.36989146657777,91.8441901533974,3457530615
iw,-69.8182983398437,-88.8118820190429,-81.09985241406373,90.24007491616904,3457547282
iw,-68.3520736694336,-90.0,-69.0156063071168,88.32409891561505,3457563949
iw,-67.3669891357421,-88.5606002807617,-55.09466210212886,86.4532559173187,3457580616
iw,-66.8267974853515,-87.0853042602539,-39.82847754493369,84.67673705945006,3457597283
iw,-66.5005416870117,-85.641487121582,-24.100252709029533,82.71066774133031,3457613950
iw,-66.4561538696289,-84.1819305419921,-8.94456907301518,80.0063338270667,3457630617
iw,-66.6799697875976,-82.7064208984375,4.716689344643741,75.88227316976078,3457647284
iw,-66.9928283691406,-81.3091430664062,16.276417570049,69.67442003006546,3457663951
iw,-67.5337905883789,-80.1952667236328,25.534162692538082,60.860203062912355,3457680618
iw,-68.2281265258789,-79.4694290161132,32.67279730510546,49.131246666811315,3457697285
iw,-68.8306198120117,-79.055549621582,38.148655629224514,34.41727399810854,3457713952
iw,-69.3962478637695,-78.8554611206054,42.54270963788103,16.885476887219884,3457730619
iw,-70.0868072509765,-78.8274536132812,46.42397323639322,-3.060033436202752,3457747286
iw,-71.1139144897461,-79.0591659545898,50.26250352230444,-24.77589321719833,3457763953
iw,-72.5097274780273,-79.6701431274414,54.39841011471414,-47.39769728818153,3457780620
iw,-74.0451583862304,-80.9134292602539,59.039282918888524,-69.90908309109454,3457797287
iw,-74.9783859252929,-82.7132034301757,64.24735189622906,-91.2694422648288,3457813954
iw,-75.8018798828125,-84.7866592407226,69.90321968271559,-110.56936054730726,3457830621
iw,-77.230972290039,-86.8175888061523,75.6748802139369,-127.15626250976175,3457847288
iw,-78.8945770263671,-87.4659576416015,81.03834165174018,-140.6790277367122,3457863955
iw,-80.6175765991211,-85.7230072021484,85.37136539480294,-151.03717735763536,3457880622
iw,-82.1818923950195,-83.2070159912109,88.09916740432082,-158.2658687342077,3457897289
iw,-83.7069244384765,-80.6278076171875,88.84681426801613,-162.4175663391366,3457913956
iw,-85.2846221923828,-78.0273132324218,87.55628672242689,-163.49993526899263,3457930623
iw,-86.8995361328125,-75.3475036621093,84.53991576906155,-161.497661236246,3457947290
iw,-88.5650939941406,-72.653938293457,80.45304422412512,-156.45941445953784,3457963957
iw,-89.7982635498046,-70.0718383789062,76.18104130230265,-148.594498850643,3457980624
iw,-88.4430465698242,-67.6241378784179,72.6567980200582,-138.3169809436627,3457997291
iw,-87.1289443969726,-65.3675384521484,70.6510792479359,-126.20254360945466,3458013958
iw,-85.846450805664,-63.3288192749023,70.59543541749632,-112.87064784727193,3458030625
iw,-84.5693130493164,-61.5478858947753,72.49231091914719,-98.84649466744892,3458047292
iw,-83.2580871582031,-59.9638442993164,75.93769431000676,-84.47096591972485,3458063959
iw,-81.8580627441406,-58.475170135498,80.24092801225444,-69.90414568142513,3458080626
iw,-80.3390579223632,-57.1889686584472,84.59388802601492,-55.22055679946738,3458097293
iw,-78.8077011108398,-56.2925300598144,88.2317979155797,-40.54731223767101,3458113960
iw,-77.3253021240234,-55.7363739013671,90.5420396979865,-26.17551159735232,3458130627
iw,-75.888687133789,-55.4136619567871,91.10614055021549,-12.590246128142676,3458147294
iw,-74.4537124633789,-55.2859420776367,89.68877170526304,-0.4040580273490031,3458163961
iw,-73.0258255004882,-55.4603652954101,86.20221557511391,9.779806139716552,3458180628
iw,-71.6039047241211,-55.6233825683593,80.66975096250621,17.522998698148537,3458197295
iw,-70.2227172851562,-56.0415382385253,73.19318090024773,22.674288148505056,3458213962
iw,-68.9930725097656,-56.701374053955,63.91283115253401,25.42498364721698,3458230629
iw,-68.0863037109375,-57.3768196105957,52.94667734372353,26.288691913007703,3458247296
iw,-67.5947189331054,-57.9903335571289,40.31360710204448,26.013722128983403,3458263963
iw,-67.4850082397461,-58.5688514709472,25.87486997110878,25.44495737773197,3458280630
iw,-67.5357284545898,-59.0356674194335,9.345806530755588,25.358865102223355,3458297297
iw,-67.5280227661132,-59.708927154541,-9.585047887259273,26.304503115102975,3458313964
iw,-67.6445388793945,-60.7926406860351,-31.04387187982493,28.49020255210959,3458330631
iw,-68.2060241699218,-61.7318229675293,-54.742956292119224,31.750872219993237,3458347298
iw,-69.3171997070312,-62.700439453125,-79.84256956529376,35.611541100247955,3458363965
iw,-71.1531448364257,-63.6890563964843,-104.98265253847613,39.43643969852958,3458380632
iw,-73.5203781127929,-64.8861007690429,-128.4900718495991,42.62848183478053,3458397299
iw,-76.1131591796875,-66.2509231567382,-148.69031958291228,44.82510679292967,3458413966
iw,-78.7188949584961,-67.6167297363281,-164.21541783961106,46.028517775030096,3458430633
iw,-81.335693359375,-68.8471298217773,-174.217284560247,46.62150038053376,3458447300
iw,-83.8137893676757,-70.0353317260742,-178.44865351829566,47.25722013972931,3458463967
iw,-85.9294128417968,-71.2270126342773,-177.22689769670654,48.658332957102,3458480634
iw,-86.9661712646484,-72.4515609741211,-171.32518341714453,51.393354338609214,3458497301
iw,-86.0725479125976,-73.7205200195312,-161.8364540833335,55.70164237118346,3458513968
iw,-84.0910415649414,-75.0462646484375,-150.03805743004813,61.41609121401896,3458530635
iw,-81.9369888305664,-76.4328079223632,-137.2609876596448,67.99885809291732,3458547302
iw,-79.7957534790039,-77.9236526489257,-124.75069573339559,74.67310714185612,3458563969
iw,-77.8097763061523,-79.4785690307617,-113.50720654406824,80.61045749505347,3458580636
iw,-76.1325073242187,-81.0916213989257,-104.1138654908874,85.12314539601702,3458597303
iw,-74.7281799316406,-82.6783370971679,-96.59703377708058,87.81244170865776,3458613970
iw,-73.4507141113281,-84.2200241088867,-90.38330068108628,88.63843591428834,3458630637
iw,-72.1068572998046,-85.7032699584961,-84.41365169213063,87.89680214221951,3458647304
iw,-70.6466445922851,-87.0684280395507,-77.42526214029655,86.11093767479434,3458663971
