Label,Left_Hip_q,Right_Hip_q,Left_Hip_qd,Right_Hip_qd,SampleTimeFine
iw,-67.6547164916992,-82.1747665405273,30.7325935363769,64.3059463500976,3343761673
iw,-68.2939453125,-81.3661956787109,34.63462530030378,45.232452606992354,3343778340
iw,-68.8422241210937,-80.7792739868164,35.686817286366946,36.57545385283518,3343795007
iw,-69.4042587280273,-80.3875122070312,37.1646442344874,27.103891110364685,3343811674
iw,-70.0655364990234,-80.1646881103515,39.44030971080082,16.0760955695739,3343828341
iw,-71.240966796875,-80.1020126342773,42.776511130580765,2.954764708138382,3343845008
iw,-72.3335876464843,-80.2330474853515,47.282169045173966,-12.499497399794079,3343861675
iw,-73.1218719482421,-80.6156539916992,52.875674658259705,-30.162041707754337,3343878342
iw,-73.9514694213867,-81.3962707519531,59.25838792491496,-49.53210310526255,3343895009
iw,-75.2648620605468,-82.6353759765625,65.92003081791609,-69.79159106916518,3343911676
iw,-76.7368240356445,-84.2434692382812,72.19986487134823,-89.92793913854479,3343928343
iw,-78.2436065673828,-85.9105529785156,77.404460484909,-108.88873320922697,3343945010
iw,-79.7008056640625,-86.8742599487304,80.95613691900384,-125.72342637084195,3343961677
iw,-81.2160873413086,-85.8888626098632,82.53612974625105,-139.67595836274765,3343978344
iw,-82.8615570068359,-83.6726837158203,82.18869782531794,-150.21664691437516,3343995011
iw,-84.5007171630859,-81.2214126586914,80.3543820038038,-157.02839680678164,3344011678
iw,-86.1064987182617,-78.8212890625,77.80561430337069,-159.9772298128172,3344028345
iw,-87.6371078491211,-76.4845352172851,75.479175455358,-159.09416505078207,3344045012
iw,-88.8985519409179,-74.1628494262695,74.23932288901678,-154.57858179992232,3344061679
iw,-89.2608642578125,-71.8235855102539,74.6439266841742,-146.81290961716942,3344078346
iw,-88.0916595458984,-69.4682693481445,76.79709945770989,-136.36460510450604,3344095013
iw,-86.5458908081054,-67.1435089111328,80.34238571817735,-123.94934028589479,3344111680
iw,-84.9647979736328,-65.0537109375,84.59290465124998,-110.3418775577394,3344128347
iw,-83.4563522338867,-63.331932067871,88.7406359696568,-96.24755724355812,3344145014
iw,-81.9454650878906,-61.9509925842285,92.06513392380229,-82.17803754894531,3344161681
iw,-80.4073638916015,-60.7499351501464,94.07753367725762,-68.39045244026843,3344178348
iw,-78.8782119750976,-59.5673904418945,94.57121545259874,-54.931817640707365,3344195015
iw,-77.356689453125,-58.5067443847656,93.5846663137939,-41.78132674399422,3344211682
iw,-75.8790893554687,-57.8427276611328,91.3043321478833,-29.027610073648695,3344228349
iw,-74.4843673706054,-57.4368362426757,87.94469415784093,-16.991309918391156,3344245016
iw,-73.1250915527343,-57.3704872131347,83.64142589960996,-6.2246870559976015,3344261683
iw,-71.8019561767578,-57.5454788208007,78.38310722592685,2.6214992517677596,3344278350
iw,-70.502944946289,-57.8778228759765,71.99043873181758,9.010268208249153,3344295017
iw,-69.2968826293945,-58.0947761535644,64.13517978291425,12.721761682965793,3344311684
iw,-68.3775329589843,-58.4777717590332,54.38256291314138,13.969667139584553,3344328351
iw,-67.8149719238281,-59.0824012756347,42.24640699372343,13.394589904012639,3344345018
iw,-67.5377502441406,-59.5512161254882,27.261636546312687,11.941505893795561,3344361685
iw,-67.5076828002929,-59.7206878662109,9.089740050932667,10.655356311907223,3344378352
iw,-67.566535949707,-59.828197479248,-12.336806832979423,10.44543677885323,3344395019
iw,-67.8471450805664,-59.9981498718261,-36.65653086199621,11.881828669722672,3344411686
iw,-68.6756515502929,-60.747817993164,-62.96707339280454,15.084848074238419,3344428353
iw,-70.0507202148437,-61.8531684875488,-89.82815624671439,19.739499857672328,3344445020
iw,-72.0303878784179,-62.7827911376953,-115.41679694071814,25.220948770448285,3344461687
iw,-74.4874725341796,-63.6819114685058,-137.81292026352395,30.78117111693308,3344478354
iw,-77.1775436401367,-64.6292724609375,-155.33838599331008,35.73983121695581,3344495021
iw,-79.9173812866211,-65.7324600219726,-166.85083731418874,39.637724844082854,3344511688
iw,-82.553237915039,-66.9913101196289,-171.91489355049563,42.32963933241464,3344528355
iw,-85.1397399902343,-68.2647705078125,-170.82286575446162,44.005131758979665,3344545022
iw,-87.3977432250976,-69.4390335083007,-164.48785795414,45.134220998041016,3344561689
iw,-88.1269607543945,-70.60107421875,-154.26048317046283,46.346820592732776,3344578356
iw,-86.523681640625,-71.7987823486328,-141.7202687433565,48.27011199816831,3344595023
iw,-84.5209197998046,-73.048599243164,-128.4741401979034,51.36094362911988,3344611690
iw,-82.5796127319336,-74.2998504638671,-115.9729275649693,55.774543826970344,3344628357
iw,-80.7668380737304,-75.5631866455078,-105.3453128184378,61.30452642967041,3344645024
iw,-79.1243515014648,-76.8685607910156,-97.2524153390535,67.41372404566232,3344661691
iw,-77.623550415039,-78.2910614013671,-91.78172489432555,73.35314625067183,3344678358
iw,-76.1798782348632,-79.8089294433593,-88.41503840003995,78.3416165189136,3344695025
iw,-74.7334671020507,-81.3616409301757,-86.10738636816835,81.75875745596458,3344711692
iw,-73.2911376953125,-82.8782577514648,-83.49362788426455,83.29705610199048,3344728359
iw,-71.9252014160156,-84.3209381103515,-79.19950687419492,83.02904300049683,3344745026
iw,-70.6039657592773,-85.6569290161132,-72.19003646816923,81.37058164675283,3344761693
iw,-69.3841247558593,-86.9075012207031,-62.06016720750552,78.95222849343541,3344778360
iw,-68.429946899414,-88.0683212280273,-49.17531775898465,76.43702196955874,3344795027
iw,-67.7933807373046,-89.045913696289,-34.605983345167424,74.33695269541896,3344811694
iw,-67.7853469848632,-89.0102844238281,-19.862712446854207,72.87861343657245,3344828361
iw,-67.9547729492187,-87.9859848022461,-6.505259472633416,71.9525111440947,3344845028
iw,-68.1536483764648,-86.8021240234375,4.254866654983731,71.15513806160058,3344861695
iw,-68.3684768676757,-85.551773071289,11.838644123403103,69.90546694635698,3344878362
iw,-68.8042449951171,-84.2816696166992,16.395620089111357,67.5959961266346,3344895029
iw,-69.2421646118164,-83.0296783447265,18.702465576817822,63.72927211247576,3344911696
iw,-69.7257766723632,-81.9824447631836,19.910842449508092,57.997752374351506,3344928363
iw,-69.9620132446289,-81.2181320190429,21.22449417646695,50.287822774581294,3344945030
iw,-70.1500244140625,-80.6629791259765,23.5971240442582,40.620974082730534,3344961697
iw,-70.4437179565429,-80.2679443359375,27.534368466337494,29.072445142059674,3344978364
iw,-71.2496566772461,-80.0938491821289,33.05040782226532,15.715376523568834,3344995031
iw,-72.3498840332031,-80.0973815917968,39.77392944858071,0.6220437763314157,3345011698
iw,-73.4023818969726,-80.2069702148437,47.14055160137247,-16.07825119285458,3345028365
iw,-74.227554321289,-80.5652923583984,54.582311241647076,-34.11669747321221,3345045032
iw,-75.2485198974609,-81.4307632446289,61.644643050994006,-53.02554791256913,3345061699
iw,-76.6221313476562,-82.7349395751953,68.0090847687134,-72.13935463416327,3345078366
iw,-77.8604202270507,-84.2239913940429,73.44458713709476,-90.66294107238934,3345095033
iw,-79.1241683959961,-85.6390228271484,77.73703754328302,-107.7782567934496,3345111700
iw,-80.4847946166992,-86.2193908691406,80.65454456374793,-122.74671060912429,3345128367
iw,-82.0513229370117,-85.226448059082,81.98928210850883,-134.97295370609044,3345145034
iw,-83.7690505981445,-83.3471908569336,81.67148321100952,-144.02160064222923,3345161701
iw,-85.4554138183593,-81.2898559570312,79.89785183866232,-149.60534882909033,3345178368
iw,-87.0646896362304,-79.216064453125,77.19245491554086,-151.57738120787226,3345195035
iw,-88.4889755249023,-77.0762100219726,74.34379071854052,-149.9537429584323,3345211702
iw,-89.0152359008789,-74.8838195800781,72.22304569415117,-144.9647353752771,3345228369
iw,-88.2037658691406,-72.7042465209961,71.54895198837397,-137.10343857340607,3345245036
iw,-86.9331817626953,-70.524658203125,72.6905773030026,-127.12378716344861,3345261703
iw,-85.5640792846679,-68.4013290405273,75.57925365737108,-115.95170090151177,3345278370
iw,-84.2335662841796,-66.475830078125,79.74993878729539,-104.50833453719795,3345295037
iw,-82.8935852050781,-64.8354949951171,84.48131399314968,-93.49063314131314,3345311704
iw,-81.4437255859375,-63.4609909057617,88.97705368913657,-83.19033746349908,3345328371
iw,-79.9478149414062,-62.1829795837402,92.53153983830617,-73.43702162126782,3345345038
iw,-78.430923461914,-60.8804206848144,94.64096096424602,-63.712169261634436,3345361705
iw,-76.9083786010742,-59.6216354370117,95.04406041516273,-53.40980919391761,3345378372
iw,-75.4040985107421,-58.6759376525878,93.6992709855425,-42.14809746944314,3345395039
iw,-73.9538650512695,-58.0555152893066,90.72184772808356,-30.005340113222534,3345411706
iw,-72.5991897583007,-57.7548103332519,86.31166944308303,-17.583130465725812,3345428373
iw,-71.3006362915039,-57.7840003967285,80.69745987512543,-5.873355556827269,3345445040
iw,-69.9528350830078,-58.0035667419433,74.10737038172259,4.01447444831247,3345461707
iw,-68.6102218627929,-58.2256813049316,66.75466645304525,11.161845074388353,3345478374
iw,-67.46484375,-58.5118942260742,58.81187539136321,15.084549624262312,3345495041
iw,-66.6929626464843,-58.9421691894531,50.350878818904704,15.851473700138818,3345511708
iw,-66.2782287597656,-59.5007820129394,41.2551519891008,14.07078724318164,3345528375
iw,-66.0210800170898,-59.9973106384277,31.14934491947967,10.76747901739728,3345545042
iw,-65.8405685424804,-60.3255233764648,19.411590065504104,7.184641671891087,3345561709
iw,-65.7272338867187,-60.4934005737304,5.313069031289213,4.5425273629079514,3345578376
iw,-65.6407089233398,-60.6279640197753,-11.72844569608132,3.7977480187017236,3345595043
iw,-65.746597290039,-60.839672088623,-31.859615480143965,5.455192536229062,3345611710
iw,-66.4406433105468,-61.2591896057128,-54.58150278421989,9.482477027345318,3345628377
iw,-67.7698059082031,-62.1192245483398,-78.7158160728621,15.353219477433619,3345645044
iw,-69.5790710449218,-62.8813514709472,-102.57908175663329,22.206928321264737,3345661711
iw,-71.8160324096679,-63.7940711975097,-124.31416923068451,29.076044649644206,3345678378
iw,-74.3697357177734,-64.8995056152343,-142.2705598561631,35.11324984821669,3345695045
iw,-76.9469604492187,-66.1214523315429,-155.3148158951343,39.76256131300882,3345711712
iw,-79.4838943481445,-67.3668746948242,-162.98856504124277,42.84579575608776,3345728379
iw,-81.9386672973632,-68.5735931396484,-165.49256154456063,44.56280578776988,3345745046
iw,-84.3179321289062,-69.7642517089843,-163.53521816929185,45.41873298674956,3345761713
iw,-86.4940185546875,-70.9744110107421,-158.11949712945267,46.096834087509755,3345778380
iw,-88.0388565063476,-72.2077941894531,-150.3430050051353,47.29882214533192,3345795047
iw,-87.2321853637695,-73.4594573974609,-141.25790053317937,49.57981973368397,3345811714
iw,-85.2933120727539,-74.7110290527343,-131.7964043534739,53.21000079111727,3345828381
iw,-83.2034149169921,-75.9348220825195,-122.7346305575323,58.09569871528153,3345845048
iw,-81.1717834472656,-77.1854705810546,-114.65702307632625,63.78571936734267,3345861715
iw,-79.2995986938476,-78.5474395751953,-107.89821808671292,69.57171550385992,3345878382
iw,-77.6500091552734,-80.0635223388671,-102.46916076637254,74.6655632063515,3345895049
iw,-76.1676788330078,-81.6122207641601,-98.00428941157067,78.40852982999203,3345911716
iw,-74.7074813842773,-83.1381378173828,-93.78013538032397,80.4494387790104,3345928383
iw,-73.2328414916992,-84.5907897949218,-88.84123075566363,80.83373426858246,3345945050
iw,-71.7607650756836,-85.9736251831054,-82.22815308634007,79.9734836726264,3345961717
iw,-70.272720336914,-87.2573318481445,-73.25228968505449,78.50844208748325,3345978384
iw,-69.0557785034179,-88.5093154907226,-61.72813287462487,77.10354852153122,3345995051
iw,-68.2512664794921,-90.0,-48.076408616846805,76.24569501144714,3346011718
iw,-67.7904815673828,-89.2872848510742,-33.25255311649708,76.09802279662146,3346028385
iw,-67.6178588867187,-87.8588180541992,-18.51758141951088,76.44799926828178,3346045052
iw,-67.8264083862304,-86.522102355957,-5.124093027554818,76.7564489797929,3346061719
iw,-67.9408798217773,-85.1502685546875,5.984285173554339,76.2884627702245,3346078386
iw,-68.2292785644531,-83.7416687011718,14.373772936489553,74.28844334899365,3346095053
iw,-68.8444061279296,-82.3532257080078,20.174706223112334,70.15144057327399,3346111720
iw,-69.4033660888671,-81.1289672851562,23.988382843456378,63.54342648115477,3346128387
iw,-69.7455520629882,-80.2167282104492,26.683655553898436,54.43791941436486,3346145054
iw,-70.0587539672851,-79.6045989990234,29.14802098564263,43.064976115408456,3346161721
iw,-70.4245376586914,-79.2454528808593,32.071982130582306,29.801442920990564,3346178388
iw,-71.3286666870117,-79.1179428100586,35.83269207009521,15.052701707259375,3346195055
iw,-72.5051727294921,-79.1802597045898,40.497329919634026,-0.825780845988674,3346211722
iw,-73.5605697631836,-79.3895645141601,45.910067444081136,-17.54319651838078,3346228389
iw,-74.2729721069336,-79.7755508422851,51.79706321063496,-34.834393003313636,3346245056
iw,-75.2161636352539,-80.6300888061523,57.83930323221594,-52.40236190859623,3346261723
iw,-76.5570831298828,-81.9141082763671,63.70152399954709,-69.88044417885486,3346278390
iw,-77.9092483520507,-83.3876724243164,69.03280373295472,-86.83285758013606,3346295057
iw,-79.219970703125,-84.9403457641601,73.46236941656281,-102.78494969922293,3346311724
iw,-80.5167846679687,-86.0427017211914,76.6159091731694,-117.25887462042274,3346328391
iw,-81.9503097534179,-85.7283248901367,78.1749983154563,-129.7941618191733,3346345058
iw,-83.535285949707,-84.1020355224609,77.98198952423903,-139.9501114577969,3346361725
iw,-85.1526489257812,-82.13720703125,76.15561543114667,-147.3064723858614,3346378392
iw,-86.7096099853515,-80.14404296875,73.15439026205517,-151.488515544234,3346395059
iw,-88.1630477905273,-78.0639724731445,69.73267534223594,-152.23349457335863,3346411726
iw,-89.0951843261718,-75.9065856933593,66.77965708076492,-149.4885784232719,3346428393
iw,-88.6694030761718,-73.6947402954101,65.0890416950791,-143.50036360349497,3346445060
iw,-87.4943923950195,-71.4302291870117,65.14352936855036,-134.84304818864672,3346461727
iw,-86.2528381347656,-69.247802734375,66.9933869050412,-124.34744746903222,3346478394
iw,-85.1173019409179,-67.2991790771484,70.26768222311111,-112.93227693246148,3346495061
iw,-83.9593811035156,-65.6231842041015,74.30400100207682,-101.38646125214163,3346511728
iw,-82.6671981811523,-64.1382522583007,78.34280314023134,-90.18416843160317,3346528395
iw,-81.2839965820312,-62.6831474304199,81.71774295738388,-79.41219904463344,3346545062
iw,-79.8965682983398,-61.2584381103515,83.98260537715878,-68.84642484510643,3346561729
iw,-78.572265625,-59.9806251525878,84.94367206025598,-58.14796632560088,3346578396
iw,-77.3167190551757,-58.9991188049316,84.60474290672161,-47.09519680207877,3346595063
iw,-76.1005172729492,-58.3433265686035,83.06643979793012,-35.75420498452144,3346611730
iw,-74.8143844604492,-57.9086952209472,80.43552132922292,-24.52312677957492,3346628397
iw,-73.4848556518554,-57.6762084960937,76.78535045121406,-14.043143773442239,3346645064
iw,-72.1361236572265,-57.5900382995605,72.17223956797308,-5.01988388526331,3346661731
iw,-70.7284317016601,-57.549877166748,66.67387472487472,1.9767866261229394,3346678398
iw,-69.5059432983398,-57.669807434082,60.397484017295824,6.671597792146611,3346695065
iw,-68.7202377319336,-57.8574523925781,53.42030388761668,9.162661463451046,3346711732
iw,-68.2916488647461,-58.2017211914062,45.670306511007354,9.910071046463608,3346728399
iw,-67.9550704956054,-58.6465454101562,36.808236629810345,9.644665460121523,3346745066
iw,-67.6766891479492,-58.9141807556152,26.197942353032275,9.217674984946882,3346761733
iw,-67.4660720825195,-59.1143798828125,13.027148415715917,9.419761080837123,3346778400
iw,-67.2503128051757,-59.274356842041,-3.4271302581780065,10.808991524828732,3346795067
iw,-67.2261276245117,-59.6459808349609,-23.470629120572532,13.5951442101716,3346811734
iw,-67.6850204467773,-60.6353797912597,-46.72823653780076,17.61810525784275,3346828401
iw,-68.8182525634765,-61.8487930297851,-72.06015248347276,22.425906937181853,3346845068
iw,-70.646728515625,-62.8919029235839,-97.70699766349452,27.41900960086321,3346861735
iw,-72.8699264526367,-63.8158874511718,-121.62242638112667,32.00809803871324,3346878402
iw,-75.3592300415039,-64.7200317382812,-141.88164140709156,35.74318248999827,3346895069
iw,-77.929573059082,-65.7724533081054,-157.03717846676255,38.39612335844136,3346911736
iw,-80.5245666503906,-67.0207366943359,-166.33018180398633,39.9953361127437,3346928403
iw,-83.0435409545898,-68.2956848144531,-169.72932442193454,40.81533896495544,3346945070
iw,-85.4104614257812,-69.4666976928711,-167.82761526255516,41.32337583459199,3346961737
iw,-87.3247528076171,-70.686050415039,-161.65901483380046,42.08810970519623,3346978404
iw,-87.6870880126953,-71.9475021362304,-152.49830803713274,43.662012586917264,3346995071
iw,-86.0419082641601,-73.182373046875,-141.68676683856765,46.45630458219762,3347011738
iw,-84.0087432861328,-74.3813781738281,-130.49586288005733,50.63276230128623,3347028405
iw,-81.9892120361328,-75.5567550659179,-120.01663428207777,56.03959528613583,3347045072
iw,-80.0703735351562,-76.7659225463867,-111.05545567328134,62.215916458421155,3347061739
iw,-78.275161743164,-78.1163024902343,-104.03059099319097,68.47633557031544,3347078406
iw,-76.6554794311523,-79.6244201660156,-98.88893417342351,74.06378833832684,3347095073
iw,-75.1077575683593,-81.1546478271484,-95.08294979201432,78.33316853407413,3347111740
iw,-73.5730056762695,-82.6776657104492,-91.64914227600845,80.91296934918701,3347128407
iw,-72.0948410034179,-84.1519622802734,-87.40475529801877,81.7952483082723,3347145074
iw,-70.6940383911132,-85.5589981079101,-81.23579233588961,81.32495930207892,3347161741
iw,-69.3231582641601,-86.8913421630859,-72.40560663097924,80.08960106974111,3347178408
iw,-68.1376495361328,-88.1385955810546,-60.789845404543094,78.73916405943284,3347195075
iw,-67.1903991699218,-89.337661743164,-46.95338761159066,77.7869642534627,3347211742
iw,-66.8056182861328,-89.3638839721679,-32.02956081510108,77.44901227423742,3347228409
iw,-66.7834014892578,-88.0948486328125,-17.42941625805128,77.57001629125782,3347245076
iw,-66.9308929443359,-86.7592468261718,-4.472907139597925,77.65890219028849,3347261743
iw,-67.058120727539,-85.3394470214843,5.937407037320767,77.02248193919651,3347278410
iw,-67.3139495849609,-83.809326171875,13.50227374836032,74.95329591119909,3347295077
iw,-67.7685089111328,-82.327880859375,18.532779604751262,70.90804118815711,3347311744
iw,-68.2890243530273,-81.1252822875976,21.80133447965764,64.61570272136288,3347328411
iw,-68.5600051879882,-80.2741317749023,24.297921679381698,56.08283821989263,3347345078
iw,-68.9161071777343,-79.6923522949218,26.966950090527366,45.508453425070975,3347361745
iw,-69.2425460815429,-79.2596282958984,30.49709999080744,33.16064579247782,3347378412
iw,-69.9546279907226,-78.9882278442382,35.21693768959609,19.279236906808272,3347395079
iw,-71.1823577880859,-78.9124069213867,41.10972203408395,4.046855107782441,3347411746
iw,-72.5718231201171,-78.9975128173828,47.91147215031656,-12.37007183749544,3347428413
iw,-73.4236297607421,-79.2867813110351,55.225078518629104,-29.745764493283115,3347445080
iw,-74.2280960083007,-80.0293579101562,62.59568324262961,-47.73503765441513,3347461747
iw,-75.5669021606445,-81.3249740600586,69.53965997354308,-65.8657520363856,3347478414
iw,-77.1000671386718,-82.8109512329101,75.55904698190288,-83.58824275472651,3347495081
iw,-78.6250915527343,-84.4786300659179,80.17572998185136,-100.35385681377149,3347511748
iw,-80.0284347534179,-86.135383605957,82.99748993015568,-115.68166815964629,3347528415
iw,-81.5459747314453,-86.6580123901367,83.80779527245336,-129.1830201397637,3347545082
iw,-83.2047424316406,-85.2224197387695,82.65820482548996,-140.53809417615997,3347561749
iw,-84.8438339233398,-83.0380706787109,79.92913575153304,-149.4449839736811,3347578416
iw,-86.4053344726562,-80.7917556762695,76.31751979959313,-155.579260720542,3347595083
iw,-87.9011917114257,-78.5648422241211,72.72501271855404,-158.600958637911,3347611750
iw,-89.1030044555664,-76.2619400024414,70.06079723837931,-158.22320435593718,3347628417
iw,-89.1436233520507,-73.9511032104492,69.01816530160637,-154.32268921520648,3347645084
iw,-87.9539718627929,-71.6098251342773,69.90521026594679,-147.0453567269536,3347661751
iw,-86.5027999877929,-69.2388687133789,72.5915073663857,-136.8548333699783,3347678418
iw,-85.0425567626953,-66.9634475708007,76.58317661256201,-124.48839932952708,3347695085
iw,-83.6351165771484,-64.8888702392578,81.1861129639117,-110.81923689087088,3347711752
iw,-82.2009963989257,-63.2133598327636,85.68959031279765,-96.66401131199005,3347728419
iw,-80.7493362426757,-61.85400390625,89.50863790833073,-82.60702143685427,3347745086
iw,-79.2786712646484,-60.6570510864257,92.25153356088414,-68.9178782010526,3347761753
iw,-77.7943878173828,-59.505516052246,93.71107221595673,-55.6065771632704,3347778420
iw,-76.3168869018554,-58.4087448120117,93.80388482596157,-42.59604593864208,3347795087
iw,-74.8588485717773,-57.6505317687988,92.49568104436916,-29.929701094997753,3347811754
iw,-73.4452362060546,-57.2784538269043,89.74904433932392,-17.908876658122903,3347828421
iw,-72.0341873168945,-57.3341445922851,85.51459932830996,-7.089597024418685,3347845088
iw,-70.5336303710937,-57.4243736267089,79.76087023721969,1.8596047959328643,3347861755
iw,-69.0231399536132,-57.5674781799316,72.5126625547182,8.371786303040414,3347878422
iw,-67.8150100708007,-57.8046569824218,63.85614341791088,12.17866879570628,3347895089
iw,-67.0673294067382,-58.1674346923828,53.88370004789846,13.425390423019696,3347911756
iw,-66.6608047485351,-58.746971130371,42.59263608427608,12.67828261563084,3347928423
iw,-66.4283676147461,-59.2912330627441,29.796494691704762,10.830143105553145,3347945090
iw,-66.2736206054687,-59.4533958435058,15.12284233429652,8.922528252990594,3347961757
iw,-66.1376953125,-59.579303741455,-1.861412232871924,7.920940330719748,3347978424
iw,-66.1614608764648,-59.71577835083,-21.422382864162756,8.49998671077641,3347995091
iw,-66.5876922607421,-60.0487556457519,-43.416237115182334,10.903846761705408,3348011758
iw,-67.5774612426757,-61.0022239685058,-67.13855751429871,14.926496199024141,3348028425
iw,-69.0964202880859,-62.1576919555664,-91.34087336881409,20.01212983159546,3348045092
iw,-71.1026153564453,-63.0804443359375,-114.42088022314587,25.432545239528817,3348061759
iw,-73.4535369873046,-63.9325790405273,-134.72459976789932,30.478512493751275,3348078426
iw,-75.9943466186523,-64.8997192382812,-150.8616794975043,34.61400605798766,3348095093
iw,-78.5662765502929,-65.9389877319336,-161.94088058018056,37.57113347934014,3348111760
iw,-81.0890579223632,-67.2057418823242,-167.67253901813058,39.386516187959096,3348128427
iw,-83.5101318359375,-68.463752746582,-168.33672960767367,40.386039498272375,3348145094
iw,-85.6273193359375,-69.615364074707,-164.6570186397179,41.121148122360566,3348161761
iw,-87.0413055419921,-70.8120880126953,-157.63609903501117,42.25902822932016,3348178428
iw,-86.7443695068359,-72.0559158325195,-148.40068323146085,44.437241473331376,3348195095
iw,-85.1220321655273,-73.2894210815429,-138.07840196366323,48.10690956024624,3348211762
iw,-83.1499481201171,-74.5196380615234,-127.70301832053255,53.39963993659384,3348228429
iw,-81.1504745483398,-75.7499160766601,-118.12912302573962,60.05645583746607,3348245096
iw,-79.2634811401367,-77.0499114990234,-109.94083052096488,67.44873037943982,3348261763
iw,-77.542236328125,-78.5253067016601,-103.35851507886282,74.699773084583,3348278430
iw,-75.9737243652343,-80.129638671875,-98.17244096251436,80.88459229801023,3348295097
iw,-74.4981231689453,-81.809326171875,-93.74736582130738,85.25532881025995,3348311764
iw,-73.0874252319336,-83.4518051147461,-89.13512142215802,87.42507067799693,3348328431
iw,-71.6932373046875,-85.0298080444336,-83.2993558988165,87.45211111204533,3348345098
iw,-70.2673416137695,-86.5047531127929,-75.40813327531326,85.79803833380291,3348361765
iw,-68.9160995483398,-87.8790206909179,-65.10713950284155,83.1741728888922,3348378432
iw,-67.9400405883789,-89.2989120483398,-52.67291396957585,80.3259980978124,3348395099
iw,-67.4607925415039,-90.0,-38.976705178015756,77.82203008358242,3348411766
iw,-67.3719863891601,-88.5102310180664,-25.258459195526427,75.90748981634154,3348428433
iw,-67.320198059082,-87.1374130249023,-12.785803040562831,74.45826473699576,3348445100
iw,-67.4883346557617,-85.8184967041015,-2.5154483002841217,73.03737779228419,3348461767
iw,-67.5743789672851,-84.4748001098632,5.135826463282852,71.02626292647605,3348478434
iw,-67.9144058227539,-83.1400451660156,10.354185098935115,67.78485886213461,3348495101
iw,-68.4054260253906,-81.9091720581054,13.828719131928416,62.79131665705912,3348511768
iw,-68.7637023925781,-80.9337310791015,16.534020308927264,55.7240253730562,3348528435
iw,-68.9407043457031,-80.2224960327148,19.462161644162958,46.47263314169658,3348545102
iw,-69.1983337402343,-79.7249984741211,23.377821611609917,35.09279626454517,3348561769
iw,-69.6608657836914,-79.4478988647461,28.662938687388117,21.739507354287827,3348578436
iw,-70.513801574707,-79.4027404785156,35.287752805674685,6.616447802588718,3348595103
iw,-71.8004989624023,-79.5327377319336,42.89644474316821,-10.036592373631203,3348611770
iw,-72.9533004760742,-79.8673324584961,50.95174492359411,-27.9207679158186,3348628437
iw,-73.7303085327148,-80.5697937011718,58.87202696958058,-46.64306908727806,3348645104
iw,-74.9081573486328,-81.77978515625,66.12122469337437,-65.69845497682212,3348661771
iw,-76.3878631591796,-83.2614593505859,72.2503147651991,-84.48688826637016,3348678438
iw,-77.7550964355468,-84.977424621582,76.91027558940111,-102.3617028715829,3348695105
iw,-79.1580657958984,-86.5053176879882,79.8590407223022,-118.68908557375143,3348711772
iw,-80.6030883789062,-86.637222290039,80.98290512113297,-132.89535399473112,3348728439
iw,-82.1914901733398,-84.9229431152343,80.34432406699307,-144.488790895575,3348745106
iw,-83.8385314941406,-82.6154174804687,78.24279800228787,-153.05982163898418,3348761773
iw,-85.4184951782226,-80.2257766723632,75.24492369693249,-158.27825418733343,3348778440
iw,-86.9666900634765,-77.8490447998046,72.13350163537255,-159.9097892572234,3348795107
iw,-88.3032684326171,-75.4503021240234,69.75874388345254,-157.86228787473087,3348811774
iw,-89.0842208862304,-73.1019744873046,68.82974266582114,-152.251215339977,3348828441
iw,-88.6066131591796,-70.761474609375,69.72563139500551,-143.45481634746474,3348845108
iw,-87.3465728759765,-68.3784637451171,72.40509752416641,-132.12260813231646,3348861775
iw,-85.8968276977539,-66.0830764770507,76.44819831003382,-119.1101227527704,3348878442
iw,-84.4755096435546,-64.1116485595703,81.2022980053577,-105.33842269547095,3348895109
iw,-83.0451507568359,-62.5514259338378,85.96172208387328,-91.61301419200595,3348911776
iw,-81.6013412475586,-61.2610473632812,90.10971853465223,-78.4678511871766,3348928443
iw,-80.186767578125,-60.0317573547363,93.18424528586142,-66.1037610527752,3348945110
iw,-78.7447814941406,-58.7683563232421,94.87175279180445,-54.45415737365054,3348961777
iw,-77.2615127563476,-57.7896308898925,94.96358005983979,-43.348650943611545,3348978444
iw,-75.7645950317382,-57.1288681030273,93.31746382993899,-32.69464541399823,3348995111
iw,-74.2718811035156,-56.7140083312988,89.85294206850398,-22.591227972138828,3349011778
iw,-72.8086853027343,-56.589672088623,84.58294863328773,-13.330458427776627,3349028445
iw,-71.3318710327148,-56.5456428527832,77.65661439282823,-5.299807063205071,3349045112
iw,-69.8826065063476,-56.5083541870117,69.37141877629954,1.159211270499703,3349061779
iw,-68.7342224121093,-56.5925903320312,60.11564840590501,5.875671480623308,3349078446
iw,-68.0413513183593,-56.8847885131835,50.230092920160466,8.919869780258272,3349095113
iw,-67.6959075927734,-57.42036819458,39.82571897717856,10.61066031720889,3349111780
iw,-67.5269012451171,-57.8841743469238,28.63930264430497,11.464534948060244,3349128447
iw,-67.4492950439453,-58.1349220275878,16.02028350351452,12.095670307691003,3349145114
iw,-67.3533248901367,-58.4548568725585,1.1015756086410053,13.084636651934435,3349161781
iw,-67.224868774414,-58.7952041625976,-16.87293360385905,14.847841926349945,3349178448
iw,-67.3667984008789,-59.5577812194824,-38.17295741023746,17.546061275857312,3349195115
iw,-68.1177825927734,-60.6001625061035,-62.30665180158423,21.0588777264489,3349211782
iw,-69.6206817626953,-61.4369163513183,-87.96563323025056,25.0296451923812,3349228449
iw,-71.7104263305664,-62.3153495788574,-113.22367416771516,28.967020395962525,3349245116
iw,-74.1462097167968,-63.2890853881835,-135.92162212100533,32.379745581921696,3349261783
iw,-76.7445068359375,-64.4110260009765,-154.10700493199877,34.9158583189098,3349278450
iw,-79.3564300537109,-65.6400070190429,-166.3955747380863,36.47258591212221,3349295117
iw,-81.8708267211914,-66.8896789550781,-172.17197624526113,37.2451132995399,3349311784
iw,-84.2347640991211,-68.0752258300781,-171.61391306419517,37.69713456193721,3349328451
iw,-86.2538375854492,-69.2907943725586,-165.57712759329664,38.458831711005224,3349345118
iw,-87.2551956176757,-70.5475692749023,-155.40199711442958,40.17743278344081,3349361785
iw,-86.3517608642578,-71.7934188842773,-142.6975947641697,43.35488147140262,3349378452
iw,-84.5955352783203,-73.0138931274414,-129.1364170605981,48.20818598562199,3349395119
iw,-82.6900024414062,-74.2370300292968,-116.2672263018582,54.58574984872999,3349411786
iw,-80.8172302246093,-75.4835052490234,-105.33867446173153,61.967165428392285,3349428453
iw,-79.1521682739257,-76.871597290039,-97.13118539764486,69.55877196604871,3349445120
iw,-77.7604446411132,-78.4369888305664,-91.81728683368904,76.47074042866856,3349461787
iw,-76.4729614257812,-80.0905532836914,-88.8972983292324,81.93180910546666,3349478454
iw,-75.1290664672851,-81.755142211914,-87.26594637900146,85.47921280189455,3349495121
iw,-73.6996917724609,-83.3514938354492,-85.43892087521823,87.06427642210573,3349511788
iw,-72.2204055786132,-84.8975448608398,-81.91041231752406,87.03900469967763,3349528455
iw,-70.767463684082,-86.3448410034179,-75.55078200287781,86.02646921940409,3349545122
iw,-69.5885772705078,-87.6777114868164,-65.92196511468829,84.7143310327618,3349561789
iw,-68.7041320800781,-89.0746536254882,-53.40583092729731,83.6347682759737,3349578456
iw,-68.1385421752929,-90.0,-39.10087098570237,82.99824424741381,3349595123
iw,-67.9678726196289,-88.4124298095703,-24.519460331681408,82.6310143404584,3349611790
iw,-68.16455078125,-86.8944854736328,-11.181778913195172,82.03191603670808,3349628457
iw,-68.2281036376953,-85.3548049926757,-0.2312099872527595,80.52452325611776,3349645124
iw,-68.4150695800781,-83.7782440185546,7.819610781556674,77.45010561280056,3349661791
iw,-68.8454513549804,-82.3323593139648,13.154155475175004,72.33549963413603,3349678458
iw,-69.3144302368164,-81.1802291870117,16.53208415072311,64.98238892728689,3349695125
iw,-69.5989532470703,-80.3204574584961,19.034893632902488,55.45738593552583,3349711792
iw,-69.7928314208984,-79.6855392456054,21.756254726248113,44.00311196216932,3349728459
iw,-70.0822219848632,-79.252082824707,25.527350436005847,30.92056031748928,3349745126
iw,-70.7027435302734,-79.0347442626953,30.754901549926448,16.47834246726464,3349761793
iw,-71.4943542480468,-79.0560302734375,37.406652418002864,0.88445977674602,3349778460
iw,-72.6177139282226,-79.2163162231445,45.12013419788996,-15.677331046015112,3349795127
iw,-73.7556228637695,-79.5617599487304,53.366634433312974,-32.97609354857921,3349811794
iw,-74.6721801757812,-80.3055419921875,61.595626258649965,-50.672923543020495,3349828461
iw,-75.9723205566406,-81.6038208007812,69.31299014176764,-68.30907960938713,3349845128
iw,-77.329963684082,-83.2295532226562,76.08960349455936,-85.35282688349965,3349861795
iw,-78.6987533569336,-85.0214614868164,81.53439559617334,-101.28149152420674,3349878462
iw,-80.1938400268554,-86.8742599487304,85.28359878994087,-115.65759385953713,3349895129
iw,-81.8061981201171,-87.4815292358398,87.04716097764327,-128.16412480805658,3349911796
iw,-83.4888305664062,-85.7683944702148,86.7143164054787,-138.58645111017566,3349928463
iw,-85.1309585571289,-83.4158172607421,84.47182473341749,-146.75482663791558,3349945130
iw,-86.709487915039,-81.0654525756836,80.86267027604733,-152.48205557437143,3349961797
iw,-88.3448333740234,-78.7506713867187,76.7305228648759,-155.53594090917983,3349978464
iw,-90.0,-76.3254623413086,73.04706920547927,-155.67015105577488,3349995131
iw,-89.0706481933593,-73.826789855957,70.67587430426165,-152.7063560791306,3350011798
iw,-87.62109375,-71.3190841674804,70.15832052057665,-146.63158315286765,3350028465
iw,-86.1851501464843,-68.8274688720703,71.5993445274752,-137.66333310560967,3350045132
iw,-84.8045043945312,-66.4340591430664,74.68747659101697,-126.2466830326716,3350061799
iw,-83.4004364013671,-64.2751312255859,78.82700762890659,-112.97712205600807,3350078466
iw,-81.9244079589843,-62.4875030517578,83.31828739885063,-98.47782615128577,3350095133
iw,-80.3967742919921,-61.0425949096679,87.5131473013004,-83.28503567149026,3350111800
iw,-78.9458236694336,-59.7845916748046,90.89572400378836,-67.79614518991905,3350128467
iw,-77.5592651367187,-58.5775413513183,93.08054084724749,-52.306372320948284,3350145134
iw,-76.1495742797851,-57.6137046813964,93.76008445604057,-37.11189039111461,3350161801
iw,-74.6974792480468,-57.0541343688964,92.65453823203238,-22.61673743134038,3350178468
iw,-73.2075424194336,-56.8396949768066,89.50691656721841,-9.37508690142945,3350195135
iw,-71.6850662231445,-56.8985977172851,84.13312791268466,1.9648381464911862,3350211802
iw,-70.1330642700195,-56.8686141967773,76.49672748567616,10.797361941364409,3350228469
iw,-68.7671661376953,-57.0046234130859,66.7534389499506,16.72388842289493,3350245136
iw,-67.7980651855468,-57.3570938110351,55.21603131154078,19.69027918644374,3350261803
iw,-67.2544631958007,-57.9459648132324,42.228262537181486,20.05895601514153,3350278470
iw,-67.0985870361328,-58.6494483947753,27.99210274756721,18.592744216278508,3350295137
iw,-67.2013168334961,-59.1435317993164,12.435437020984402,16.337685467527503,3350311804
iw,-67.4320678710937,-59.2837486267089,-4.791131836914401,14.412649127513063,3350328471
iw,-67.6219711303711,-59.493408203125,-24.149250428624146,13.750754799882442,3350345138
iw,-67.8818283081054,-59.7195205688476,-45.92183258972448,14.87123384309352,3350361805
iw,-68.6523132324218,-60.4896736145019,-69.91093635572943,17.762129697873483,3350378472
iw,-70.0986251831054,-61.489891052246,-95.26032393445797,21.91729758747032,3350395139
iw,-72.2401809692382,-62.4531860351562,-120.49056957894508,26.515047734204185,3350411806
iw,-74.8797454833984,-63.3512077331543,-143.7415538635367,30.67837756559439,3350428473
iw,-77.6789169311523,-64.4027252197265,-163.13139249808395,33.736150238999734,3350445140
iw,-80.4415512084961,-65.5583953857421,-177.1074002984214,35.41235672716836,3350461807
iw,-83.0634765625,-66.7578506469726,-184.69273607337857,35.89708293924413,3350478474
iw,-85.422004699707,-67.9618072509765,-185.59454967572523,35.787199440454465,3350495141
iw,-86.9330596923828,-69.0842056274414,-180.19541987831906,35.91909684287288,3350511808
iw,-86.4392166137695,-70.2058868408203,-169.473259217158,37.14258767684936,3350528475
iw,-84.4726333618164,-71.365249633789,-154.88461144974298,40.09734976361881,3350545142
iw,-82.2829895019531,-72.5404586791992,-138.21937527022115,45.048015489479596,3350561809
iw,-80.1749725341796,-73.7446365356445,-121.4126829648914,51.814986507535295,3350578476
iw,-78.3061141967773,-75.0238494873046,-106.29800130554315,59.813053145331665,3350595143
iw,-76.7255554199218,-76.4306335449218,-94.31031793348686,68.18489796139522,3350611810
iw,-75.4486770629882,-77.9645156860351,-86.19123957961547,75.99465836348594,3350628477
iw,-74.2516708374023,-79.5760955810546,-81.78648352543763,82.43201129125116,3350645144
iw,-72.9931564331054,-81.2237243652343,-80.03242347426325,86.97505849869104,3350661811
iw,-71.5891571044921,-82.8103485107421,-79.18496392860537,89.47241469333802,3350678478
iw,-70.0944366455078,-84.3184509277343,-77.26050315574507,90.12743276947728,3350695145
iw,-68.6465454101562,-85.7261657714843,-72.57110261420937,89.39369659238054,3350711812
iw,-67.4756546020507,-87.0238952636718,-64.18759540764054,87.81417590815525,3350728479
iw,-66.438735961914,-88.1530532836914,-52.18067091785402,85.8512729986311,3350745146
iw,-65.9561157226562,-88.7094192504882,-37.56519082353555,83.75735208369686,3350761813
iw,-66.0168304443359,-88.0764465332031,-21.97618056086104,81.52326622813327,3350778480
iw,-66.1693115234375,-86.8914031982421,-7.195412352596098,78.91737974993035,3350795147
iw,-66.303237915039,-85.570571899414,5.31146896772243,75.59629898802008,3350811814
iw,-66.5386276245117,-84.2236557006836,14.712416359400217,71.24217810311686,3350828481
iw,-67.0033493041992,-82.9854660034179,20.918756813298742,65.67141277268234,3350845148
iw,-67.5640335083007,-81.9667205810546,24.501032562230037,58.87165395421389,3350861815
iw,-67.9683456420898,-81.1509628295898,26.470792862735152,50.955053248920656,3350878482
iw,-68.3503341674804,-80.5595245361328,28.0024350310673,42.05299390507263,3350895149
iw,-68.8601837158203,-80.1669692993164,30.165190749422077,32.20460863210961,3350911816
iw,-69.511245727539,-79.8857269287109,33.72013445018913,21.29556991205456,3350928483
iw,-70.3837890625,-79.7534713745117,39.01131980323068,9.082572293453037,3350945150
iw,-71.4206085205078,-79.6973342895507,45.95065679181995,-4.698959932222413,3350961817
iw,-72.2828063964843,-79.7730178833007,54.07662209223183,-20.185348230222925,3350978484
iw,-73.2651290893554,-80.2338638305664,62.66437068976734,-37.25700769379921,3350995151
iw,-74.7221069335937,-81.2659912109375,70.86977952329693,-55.489237668871745,3351011818
iw,-76.3705749511718,-82.6358489990234,77.88716017055323,-74.20222029100155,3351028485
iw,-77.9756240844726,-84.2352676391601,83.09088171641065,-92.5848075959393,3351045152
iw,-79.4100646972656,-85.977912902832,86.13248928039054,-109.83612219759702,3351061819
iw,-80.8998565673828,-86.910415649414,86.98388357543263,-125.26876183341896,3351078486
iw,-82.6041564941406,-85.7106552124023,85.93595971564991,-138.34316731491836,3351095153
iw,-84.3103866577148,-83.4775466918945,83.5613972195165,-148.63979892367297,3351111820
iw,-85.9181289672851,-81.1625366210937,80.63595034103125,-155.8074629781397,3351128487
iw,-87.5165939331054,-78.9142227172851,78.00921956755829,-159.5366232533539,3351145154
iw,-89.0793151855468,-76.6366424560546,76.43652281800391,-159.5887712398732,3351161821
iw,-90.0,-74.3695068359375,76.41399254656075,-155.87722377025608,3351178488
iw,-88.0511703491211,-72.0197219848632,78.07305439763284,-148.56245318282976,3351195155
iw,-86.3287506103515,-69.5543060302734,81.17394615152875,-138.1118299081088,3351211822
iw,-84.7286834716796,-67.1383895874023,85.19914538047666,-125.28217403582967,3351228489
iw,-83.1960906982421,-64.9959945678711,89.50909951131399,-111.01010859378735,3351245156
iw,-81.6151275634765,-63.240005493164,93.50431174580885,-96.23377729169466,3351261823
iw,-79.9524002075195,-61.8293266296386,96.74356729973294,-81.7064237179582,3351278490
iw,-78.2799377441406,-60.6040649414062,98.9885319518673,-67.87666926102449,3351295157
iw,-76.6269073486328,-59.4307594299316,100.1701262540568,-54.88781548547109,3351311824
iw,-75.0357894897461,-58.4153442382812,100.29698406399648,-42.69604654185877,3351328491
iw,-73.5166473388671,-57.607250213623,99.3462703154708,-31.251428922324713,3351345158
iw,-72.0188446044921,-57.0215225219726,97.18448928865111,-20.65542247438782,3351361825
iw,-70.4646682739257,-56.7572402954101,93.5540048549443,-11.219345081601206,3351378492
iw,-68.7900619506836,-56.6990890502929,88.13063730350181,-3.3942865500690966,3351395159
iw,-67.1714477539062,-56.8965148925781,80.62074992125564,2.3976909371685604,3351411826
iw,-65.8527374267578,-57.0768356323242,70.84306745269659,5.957168031202899,3351428493
iw,-64.9397506713867,-57.2703781127929,58.748886317868426,7.4446870227029365,3351445160
iw,-64.4414291381836,-57.5598831176757,44.374397571004295,7.410767539647702,3351461827
iw,-64.22802734375,-58.0217742919921,27.767425586042673,6.712273407042236,3351478494
iw,-64.1770477294921,-58.3596420288085,8.955159990458128,6.341560312524131,3351495161
iw,-64.2941131591796,-58.5520439147949,-11.9997799628347,7.209630843921087,3351511828
iw,-64.587417602539,-58.8190612792968,-34.8617653668406,9.93293018130253,3351528495
iw,-65.2328414916992,-59.5098266601562,-59.067690875820624,14.679529903208326,3351545162
iw,-66.423469543457,-60.376407623291,-83.64683785351005,21.122786118834078,3351561829
iw,-68.2669677734375,-61.4510078430175,-107.2832557689803,28.521872287011508,3351578496
iw,-70.680435180664,-62.5475959777832,-128.52523487056337,35.90937360802205,3351595163
iw,-73.3478927612304,-63.5839729309082,-146.07533918815946,42.33409550863403,3351611830
iw,-76.0524597167968,-64.7770614624023,-159.05510283404482,47.09352921126126,3351628497
iw,-78.6537017822265,-66.2671966552734,-167.15202505656825,49.896716329271705,3351645164
iw,-81.2080001831054,-67.6711196899414,-170.6122902866456,50.91925800723953,3351661831
iw,-83.6934509277343,-68.9253234863281,-170.1069073486675,50.740745763296026,3351678498
iw,-86.0233993530273,-70.207778930664,-166.53894259171946,50.18542513974118,3351695165
iw,-88.0331802368164,-71.5216979980468,-160.86219661653524,50.11218303565763,3351711832
iw,-87.4883804321289,-72.8421325683593,-153.95444967403802,51.21034829566495,3351728499
iw,-85.2915267944336,-74.1869506835937,-146.54955981462444,53.84988301743089,3351745166
iw,-82.9645538330078,-75.5612640380859,-139.2031860547686,58.01504297495764,3351761833
iw,-80.7397842407226,-76.9499206542968,-132.26180300683734,63.32876868967212,3351778500
iw,-78.6502532958984,-78.3953247070312,-125.82349174718762,69.15591246455655,3351795167
iw,-76.6865463256836,-79.9413604736328,-119.7058333411382,74.75835891895585,3351811834
iw,-74.7776489257812,-81.5098342895507,-113.45231551275381,79.4649906990843,3351828501
iw,-72.9041137695312,-83.0527954101562,-106.4042184746053,82.81602272742295,3351845168
iw,-71.1836624145507,-84.5768966674804,-97.84251721303832,84.64677366524614,3351861835
iw,-69.6496658325195,-86.0894393920898,-87.17563156985403,85.09077530484255,3351878502
iw,-68.2961044311523,-87.5389938354492,-74.12725152981632,84.50278531148173,3351895169
iw,-67.1959457397461,-88.9376220703125,-58.87134075333537,83.32332945937506,3351911836
iw,-66.3252639770507,-90.0,-42.069155761958996,81.92296784082346,3351928503
iw,-65.9468612670898,-88.6271286010742,-24.784027535341792,80.47223974559216,3351945170
iw,-65.7978515625,-87.3071746826171,-8.281927010441892,78.87809963549583,3351961837
iw,-66.125129699707,-85.9632797241211,6.237002156607441,76.80795539514068,3351978504
iw,-66.5774917602539,-84.5238189697265,17.902728698858873,73.79212987257242,3351995171
iw,-67.1889419555664,-83.0787582397461,26.358241399869037,69.36505260977027,3352011838
iw,-67.9336242675781,-81.8276443481445,31.808589343342298,63.18868769428802,3352028505
iw,-68.639045715332,-80.8840942382812,34.92743452559894,55.10981116970521,3352045172
iw,-69.111701965332,-80.2604217529296,36.658555701150085,45.13577661631627,3352061839
iw,-69.6266326904296,-79.8882369995117,37.98160438174319,33.35578318228571,3352078506
iw,-70.4474639892578,-79.6763153076171,39.71596665366877,19.86228891076721,3352095173
iw,-71.4703598022461,-79.582893371582,42.40897169669483,4.723370409949388,3352111840
iw,-72.6467666625976,-79.6705780029296,46.30872085705323,-11.975943849994335,3352128507
iw,-73.7171783447265,-79.9927978515625,51.38760690739109,-30.047054871787065,3352145174
iw,-74.3928985595703,-80.7081909179687,57.38188595884181,-49.11595354183394,3352161841
iw,-75.5538635253906,-82.0124435424804,63.836994337215295,-68.59325345568092,3352178508
iw,-77.0465240478515,-83.5424728393554,70.16828716414297,-87.71471072061975,3352195175
iw,-78.5016403198242,-85.292724609375,75.74447943131311,-105.6355773999645,3352211842
iw,-79.9872589111328,-86.6393203735351,79.98693934290736,-121.54085368445816,3352228509
iw,-81.4426727294921,-86.3372421264648,82.47141389114725,-134.73502790791622,3352245176
iw,-82.9593963623046,-84.3897857666015,83.01992522912144,-144.69338569596093,3352261843
iw,-84.5696029663086,-82.0235137939453,81.76646671362342,-151.08000731092855,3352278510
iw,-86.1828994750976,-79.6881332397461,79.17024159114274,-153.75314625722518,3352295177
iw,-87.7972640991211,-77.4125900268554,75.950194786505,-152.77832145217786,3352311844
iw,-89.2156600952148,-75.1429367065429,72.93662333818891,-148.45256701321415,3352328511
iw,-89.1188507080078,-72.9036178588867,70.87316380157603,-141.32001205743492,3352345178
iw,-87.8681564331054,-70.6927490234375,70.2334535095315,-132.1450782108453,3352361845
iw,-86.5299987792968,-68.5381393432617,71.11950268224007,-121.81634241128539,3352378512
iw,-85.2407073974609,-66.5926284790039,73.27760371995538,-111.18214391292342,3352395179
iw,-83.9536056518554,-64.8964614868164,76.21794499793339,-100.85836733235001,3352411846
iw,-82.5841903686523,-63.4187507629394,79.38261288526621,-91.0808308240915,3352428513
iw,-81.1802520751953,-61.9948348999023,82.29323048873107,-81.67687524389893,3352445180
iw,-79.7889328002929,-60.538890838623,84.62690654003946,-72.19034008236709,3352461847
iw,-78.4658203125,-59.1880836486816,86.20622409311723,-62.123934902259826,3352478514
iw,-77.1962661743164,-58.201374053955,86.92850834548071,-51.201266782167295,3352495181
iw,-75.8955154418945,-57.5497398376464,86.68458690573007,-39.53686090673079,3352511848
iw,-74.4800109863281,-57.1642417907714,85.31614628455758,-27.64642515621933,3352528515
iw,-72.9661026000976,-57.0944709777832,82.63327581320821,-16.304077686042177,3352545182
iw,-71.4256973266601,-57.0650253295898,78.47363192675418,-6.315815448178498,3352561849
iw,-69.9875030517578,-57.0250740051269,72.75466401495966,1.7000922945404322,3352578516
iw,-68.8568878173828,-57.0801773071289,65.47003586698366,7.457961921835008,3352595183
iw,-68.1044616699218,-57.3451614379882,56.614653986536624,11.052807033472783,3352611850
iw,-67.6222534179687,-57.8876762390136,46.07328028249642,12.926205361498301,3352628517
iw,-67.2926330566406,-58.4211349487304,33.54579602933118,13.772747890942691,3352645184
iw,-67.065673828125,-58.8077659606933,18.581176687459813,14.400926757347715,3352661851
iw,-66.8841247558593,-59.1348304748535,0.7462014657672698,15.56238641091337,3352678518
iw,-66.8036880493164,-59.4925384521484,-20.11572972789211,17.781834490010933,3352695185
iw,-67.168098449707,-60.3573303222656,-43.639014179825544,21.237090840981264,3352711852
iw,-68.1792831420898,-61.4509124755859,-68.81978125040304,25.730645190427733,3352728519
iw,-69.8386611938476,-62.5167770385742,-94.10059415074237,30.76125372028771,3352745186
iw,-72.0297241210937,-63.5977973937988,-117.64377282018847,35.66991242286545,3352761853
iw,-74.5230102539062,-64.5568084716796,-137.7020681168405,39.81804130336215,3352778520
iw,-77.0958862304687,-65.7363815307617,-152.9604128319146,42.755868288121796,3352795187
iw,-79.5806884765625,-67.1317062377929,-162.74502005457708,44.34521379676101,3352811854
iw,-81.9594650268554,-68.4841613769531,-167.05861806646456,44.80837055087685,3352828521
iw,-84.2570037841796,-69.7238388061523,-166.46834301938165,44.68676841336683,3352845188
iw,-86.2543563842773,-70.9694671630859,-161.91470131380618,44.71328852745242,3352861855
iw,-87.3464965820312,-72.2282638549804,-154.51416065820084,45.62674901667741,3352878522
iw,-86.5088500976562,-73.4703292846679,-145.40282893046546,47.97570028510312,3352895189
iw,-84.6659774780273,-74.6707763671875,-135.6325413192837,51.96346413588209,3352911856
iw,-82.601692199707,-75.8920974731445,-126.10083835936507,57.37759760020826,3352928523
iw,-80.5844268798828,-77.1976699829101,-117.4850614401733,63.62762515624924,3352945190
iw,-78.7426986694336,-78.6335144042968,-110.16284623831464,69.88673931210676,3352961857
iw,-77.0784683227539,-80.1325073242187,-104.13044890657439,75.30141009711434,3352978524
iw,-75.5597457885742,-81.6576461791992,-98.9597973510922,79.20895946715801,3352995191
iw,-74.112678527832,-83.1464004516601,-93.84498492070871,81.29849637336923,3353011858
iw,-72.6507949829101,-84.6148223876953,-87.7676767286518,81.66788584460681,3353028525
iw,-71.1655807495117,-86.0063934326171,-79.76393398474498,80.76163163936963,3353045192
iw,-69.7988357543945,-87.29296875,-69.22318853871515,79.21047708841573,3353061859
iw,-68.6431274414062,-88.5631942749023,-56.11986605679205,77.62277796517418,3353078526
iw,-67.8718185424804,-90.0,-41.087904949889605,76.39195308188472,3353095193
iw,-67.6084060668945,-89.3973693847656,-25.29854970941613,75.57815719452326,3353111860
iw,-67.6676788330078,-87.8867874145507,-10.172833310351677,74.8964947976589,3353128527
iw,-67.9728012084961,-86.4943542480468,2.979211362801338,73.80761295145987,3353145194
iw,-68.2798767089843,-85.0846633911132,13.277799616960944,71.67310354016647,3353161861
iw,-68.8445205688476,-83.7135391235351,20.458821093941257,67.9195955899731,3353178528
iw,-69.4571914672851,-82.5383911132812,24.88486742773008,62.15756720635737,3353195195
iw,-69.8893890380859,-81.648681640625,27.397072649806837,54.22294602755579,3353211862
iw,-70.2248306274414,-81.0139083862304,29.06609102249796,44.14361706782626,3353228529
iw,-70.6778259277343,-80.6146469116211,30.923336827594273,32.064642827757964,3353245196
iw,-71.4205169677734,-80.3761825561523,33.749406973424804,18.17983972558587,3353261863
iw,-72.2844924926757,-80.2841262817382,37.96417742277782,2.7058856104278,3353278530
iw,-73.2417373657226,-80.3851013183593,43.618223386520185,-14.095198324391207,3353295197
iw,-74.172866821289,-80.7664108276367,50.45355211752476,-31.870794506815226,3353311864
iw,-75.2571029663086,-81.6312103271484,57.99489798804594,-50.148943043146524,3353328531
iw,-76.6089935302734,-83.0088577270507,65.64170073245752,-68.35333481261411,3353345198
iw,-77.8661193847656,-84.5858612060546,72.74401484101368,-85.86072165589475,3353361865
iw,-79.1668624877929,-86.3006439208984,78.66296182195835,-102.07475778683316,3353378532
iw,-80.5775070190429,-87.6091079711914,82.83570355279842,-116.48495069330419,3353395199
iw,-82.1213455200195,-86.7937469482421,84.86893444303168,-128.69217009305132,3353411866
iw,-83.7876052856445,-84.4805450439453,84.65890737890983,-138.4007732500389,3353428533
iw,-85.4424591064453,-82.0118560791015,82.49375193393982,-145.39232913356008,3353445200
iw,-87.0453491210937,-79.6552200317382,79.07091424589578,-149.50374325157333,3353461867
iw,-88.5998916625976,-77.3881378173828,75.38384307093135,-150.63049625177192,3353478534
iw,-90.0,-75.1007461547851,72.49018629103286,-148.76175048755823,3353495201
iw,-89.0049514770507,-72.7953643798828,71.23516782666803,-144.03288713751212,3353511868
iw,-87.5409088134765,-70.4496841430664,72.03174975889893,-136.7638192029998,3353528535
iw,-86.0904464721679,-68.142219543457,74.77682458829348,-127.44893140103198,3353545202
iw,-84.6312637329101,-65.9325103759765,78.92336736243031,-116.68104812610517,3353561869
iw,-83.1396789550781,-64.0160751342773,83.66617610446457,-105.02351428063955,3353578536
iw,-81.635627746582,-62.4703865051269,88.16433648044841,-92.87878400326841,3353595203
iw,-80.0835952758789,-61.144905090332,91.72599455238725,-80.41940440665378,3353611870
iw,-78.5429000854492,-59.8041114807128,93.90921991965939,-67.63008105461026,3353628537
iw,-77.0494155883789,-58.4369354248046,94.52909003691758,-54.456457448566134,3353645204
iw,-75.5667037963867,-57.4282722473144,93.59193308864718,-40.99296486897984,3353661871
iw,-74.0967788696289,-56.8577232360839,91.19496739034628,-27.61030778948658,3353678538
iw,-72.6614456176757,-56.6874122619628,87.4302624996421,-14.949212295780072,3353695205
iw,-71.2275772094726,-56.6204605102539,82.31836025670961,-3.7766737428823034,3353711872
iw,-69.8301391601562,-56.6780853271484,75.77687189974307,5.231351684813334,3353728539
iw,-68.5808792114257,-56.827896118164,67.61356827151855,11.690506296059999,3353745206
iw,-67.645034790039,-57.1148033142089,57.530953323658736,15.622302812436656,3353761873
iw,-67.0526504516601,-57.5999336242675,45.142290734437935,17.456542651160404,3353778540
iw,-66.8406677246093,-58.1843338012695,30.018624107034707,17.934416836408758,3353795207
iw,-66.7604904174804,-58.5821380615234,11.794160364816763,17.94431198127135,3353811874
iw,-66.6691741943359,-58.8781852722168,-9.662803929701278,18.329412528819194,3353828541
iw,-66.7830429077148,-59.2618026733398,-34.05247349176568,19.71051276849897,3353845208
iw,-67.4502868652343,-60.2417373657226,-60.5035992058304,22.367268754788732,3353861875
iw,-68.816535949707,-61.270580291748,-87.58033113262485,26.20755988960121,3353878542
iw,-70.9886856079101,-62.25874710083,-113.47377274545086,30.828384116605932,3353895209
iw,-73.5827407836914,-63.1402854919433,-136.33134745697382,35.646693188123,3353911876
iw,-76.2457962036132,-64.1947402954101,-154.61035414349743,40.06617441262204,3353928543
iw,-78.8477020263671,-65.4867172241211,-167.33501004500073,43.64331546745962,3353945210
iw,-81.4059829711914,-66.9914855957031,-174.18998970198248,46.21485849515822,3353961877
iw,-83.8763122558593,-68.3684768676757,-175.46012534907095,47.95008120859131,3353978544
iw,-86.1041946411132,-69.6772842407226,-171.88003805370752,49.305096665943935,3353995211
iw,-87.5117950439453,-70.9952087402343,-164.46736863996213,50.88607092819345,3354011878
iw,-86.6928100585937,-72.3557357788086,-154.3869622483868,53.261645396215,3354028545
iw,-84.6584167480468,-73.7212982177734,-142.8533679679454,56.783374795208346,3354045212
iw,-82.5166397094726,-75.0889434814453,-131.04744965277564,61.46872782570464,3354061879
iw,-80.4386978149414,-76.4445877075195,-120.01444184459328,66.98000726827232,3354078546
iw,-78.5652999877929,-77.9120941162109,-110.52875915109215,72.70397201901143,3354095213
iw,-76.9487609863281,-79.4502487182617,-102.94575896669953,77.90805338408988,3354111880
iw,-75.4487838745117,-81.0343933105468,-97.09380843487394,81.92674978447766,3354128547
iw,-73.9710845947265,-82.6150436401367,-92.27113625343448,84.32359274481857,3354145214
iw,-72.4564971923828,-84.0876235961914,-87.38881330459665,84.98376977929712,3354161881
iw,-70.9896087646484,-85.506477355957,-81.2488372382951,84.11639414485568,3354178548
iw,-69.5687561035156,-86.870002746582,-72.8874373632354,82.17359940978028,3354195215
iw,-68.3540725708007,-88.1333465576171,-61.87671258908019,79.7152212588834,3354211882
iw,-67.4471588134765,-89.2384414672851,-48.48122632000857,77.25717892935428,3354228549
iw,-66.9977188110351,-89.1397476196289,-33.611073840639946,75.14019285123514,3354245216
iw,-66.8705825805664,-87.9880294799804,-18.582663904854808,73.44720617841773,3354261883
iw,-67.0896682739257,-86.7666244506836,-4.765512897126098,71.98515120406374,3354278550
iw,-67.353401184082,-85.5268325805664,6.769683405413308,70.33096475373436,3354295217
iw,-67.7249908447265,-84.2787170410156,15.49429786112296,67.92595990507014,3354311884
iw,-68.1660232543945,-83.0445022583007,21.49563027225757,64.19098982804039,3354328551
iw,-68.7091217041015,-81.9663467407226,25.38266092305227,58.63109952947211,3354345218
iw,-69.1189727783203,-81.099983215332,28.075947055432472,50.904739748835794,3354361885
iw,-69.4776916503906,-80.4256286621093,30.558883652372472,40.84789862021625,3354378552
iw,-70.0938644409179,-80.0130615234375,33.663985374818004,28.461712520691023,3354395219
iw,-71.044189453125,-79.8678359985351,37.939725416107095,13.884730332352497,3354411886
iw,-71.8916549682617,-79.933853149414,43.60296087049842,-2.6281230843165995,3354428553
iw,-72.964859008789,-80.1590118408203,50.55142473311384,-20.709201296502503,3354445220
iw,-73.89697265625,-80.6929779052734,58.40733199523847,-39.87131555998389,3354461887
iw,-75.0989608764648,-81.7798309326171,66.57967657992064,-59.50994433601011,3354478554
iw,-76.6115264892578,-83.2077178955078,74.34594280634008,-78.93182387764158,3354495221
iw,-78.1150588989257,-84.8319549560546,80.9522756409139,-97.4116372161019,3354511888
iw,-79.5986557006836,-86.5384140014648,85.72445049721863,-114.26165673286712,3354528555
iw,-81.0727157592773,-87.1217956542968,88.18151344336529,-128.892041851808,3354545222
iw,-82.7122573852539,-85.4539489746093,88.14445598035527,-140.8437400435426,3354561889
iw,-84.4779968261718,-83.0020446777343,85.82167751964747,-149.78851456777423,3354578556
iw,-86.1527481079101,-80.5270080566406,81.83502972614471,-155.5072539156615,3354595223
iw,-87.7593002319336,-78.1972351074218,77.14686975250483,-157.8701797054148,3354611890
iw,-89.1184005737304,-75.8495101928711,72.87673966880239,-156.84135592104283,3354628557
iw,-89.0580902099609,-73.5036163330078,70.04677268297992,-152.51337151484145,3354645224
iw,-87.8665084838867,-71.1407394409179,69.33659121366006,-145.15516051678884,3354661891
iw,-86.5067749023437,-68.733528137207,70.9327475707589,-135.23943797914964,3354678558
iw,-85.1524887084961,-66.3772735595703,74.52000760426199,-123.41568171829626,3354695225
iw,-83.8448638916015,-64.2374572753906,79.40393374350096,-110.41367776147769,3354711892
iw,-82.491096496582,-62.5196647644043,84.70828275287666,-96.89775891911029,3354728559
iw,-81.0052490234375,-61.1293182373046,89.57596591732515,-83.32865086477749,3354745226
iw,-79.4455490112304,-59.8610572814941,93.3163507983593,-69.90425792464113,3354761893
iw,-77.9168853759765,-58.571044921875,95.47094273401295,-56.62324897532237,3354778560
iw,-76.4631195068359,-57.4205322265625,95.80198379311156,-43.45168257327398,3354795227
iw,-75.0395812988281,-56.6340408325195,94.23507417507217,-30.50946726638315,3354811894
iw,-73.5927276611328,-56.2491455078125,90.79793820945784,-18.174336045746326,3354828561
iw,-72.1169738769531,-56.3337326049804,85.5864589322145,-7.043156210249656,3354845228
iw,-70.6033935546875,-56.3727912902832,78.76043123945833,2.232335021297408,3354861895
iw,-69.1921005249023,-56.5568046569824,70.54156947201018,9.156115564909847,3354878562
iw,-68.0646667480468,-56.7843894958496,61.17543280155356,13.554231038336502,3354895229
iw,-67.3475952148437,-57.1554489135742,50.83874983391138,15.642051638491978,3354911896
iw,-67.0192489624023,-57.6668701171875,39.51740095104175,15.986570725241261,3354928563
iw,-66.8910217285156,-58.191608428955,26.922462318035766,15.38927740305665,3354945230
iw,-66.8135681152343,-58.5642967224121,12.520661397547729,14.723322911503072,3354961897
iw,-66.6828918457031,-58.9171447753906,-4.284958758665533,14.758135689496322,3354978564
iw,-66.6195449829101,-59.2362556457519,-23.864294417678714,16.007440238068977,3354995231
iw,-66.9819412231445,-60.0710563659668,-46.070016735493404,18.63824805707857,3355011898
iw,-68.0112228393554,-61.2493057250976,-70.07956171515634,22.466305093505518,3355028565
iw,-69.7108078002929,-62.2707328796386,-94.45373429827396,27.036647077932727,3355045232
iw,-71.9379577636718,-63.0526885986328,-117.40371661479735,31.7614622751196,3355061899
iw,-74.4113311767578,-63.9847068786621,-137.1705396446057,36.07652504420509,3355078566
iw,-76.9202041625976,-65.1434326171875,-152.38373409021426,39.58139841117822,3355095233
iw,-79.4234619140625,-66.4982604980468,-162.2913601574197,42.13623723778597,3355111900
iw,-81.9042739868164,-67.8133773803711,-166.81842483083616,43.89461835474437,3355128567
iw,-84.2857437133789,-69.0123672485351,-166.4761311415327,45.26278136874177,3355145234
iw,-86.3369750976562,-70.2786483764648,-162.18262162971257,46.79408671948642,3355161901
iw,-87.5217971801757,-71.645751953125,-155.06140756029677,49.04599225277483,3355178568
iw,-86.6895599365234,-73.0359344482421,-146.2661103430008,52.43521081141291,3355195235
iw,-84.803108215332,-74.4171981811523,-136.85205290589113,57.1236504042249,3355211902
iw,-82.6911544799804,-75.7679901123046,-127.68835056090259,62.9599577792282,3355228569
iw,-80.6198196411132,-77.1300201416015,-119.38983706701589,69.49279752904802,3355245236
iw,-78.7052688598632,-78.6284790039062,-112.2534028024999,76.05930718766548,3355261903
iw,-77.0010833740234,-80.2455520629882,-106.20480943109048,81.93283538829033,3355278570
iw,-75.400894165039,-81.9447326660156,-100.7858754818708,86.49289486381271,3355295237
iw,-73.8318405151367,-83.623664855957,-95.22019351306967,89.36771153196457,3355311904
iw,-72.2942886352539,-85.231575012207,-88.57710639801064,90.50439346005788,3355328571
iw,-70.8155822753906,-86.7616653442382,-80.01344266499328,90.14386360061793,3355345238
iw,-69.5491256713867,-88.1589965820312,-69.03071387846386,88.70894802223157,3355361905
iw,-68.4421310424804,-89.3028335571289,-55.66501181272015,86.64271010291253,3355378572
iw,-67.5870132446289,-88.9502182006836,-40.53903191728966,84.25072140945211,3355395239
iw,-67.2533874511718,-87.6835403442382,-24.746400854374727,81.59976177861775,3355411906
iw,-67.2025299072265,-86.2740631103515,-9.593810058546856,78.50529243712006,3355428573
iw,-67.4603805541992,-84.8507614135742,3.7229013210755117,74.6067977542189,3355445240
iw,-67.9431610107421,-83.4817581176757,14.407414788823358,69.49690501555652,3355461907
iw,-68.5148162841796,-82.2185821533203,22.22778605798736,62.851631352426864,3355478574
iw,-69.1246337890625,-81.2184600830078,27.51444621372529,54.51299611366592,3355495241
iw,-69.5937805175781,-80.5219039916992,31.007543178481875,44.49917704093774,3355511908
iw,-69.963134765625,-80.0547790527343,33.62006489643765,32.9506561288985,3355528575
iw,-70.5410995483398,-79.8488998413086,36.20501973152339,20.048531208799947,3355545242
iw,-71.5077056884765,-79.8216247558593,39.39801604264765,5.950401122678438,3355561909
iw,-72.4802627563476,-79.9671020507812,43.55878613931043,-9.224169436986813,3355578576
iw,-73.6510009765625,-80.2783737182617,48.785192299887406,-25.355127594520724,3355595243
iw,-74.5574188232421,-80.8322677612304,54.95249678849966,-42.25534998283235,3355611910
iw,-75.5140762329101,-81.8861846923828,61.74644295898019,-59.61447536556636,3355628577
iw,-76.8033752441406,-83.2938690185546,68.68936382708857,-76.98358159621824,3355645244
iw,-78.1713409423828,-84.8529205322265,75.17795194118561,-93.80807010870232,3355661911
iw,-79.6432876586914,-86.5148544311523,80.55199726097561,-109.4930936653034,3355678578
iw,-81.1683654785156,-87.2626190185546,84.20296958076949,-123.47445160930369,3355695245
iw,-82.7188034057617,-85.7535171508789,85.71491267084046,-135.26981328023382,3355711912
iw,-84.3479232788086,-83.3556594848632,85.00784956085369,-144.49735756087588,3355728579
iw,-85.9925918579101,-80.8872146606445,82.43309543899757,-150.86717822149913,3355745246
iw,-87.6255416870117,-78.4969482421875,78.76664178468889,-154.16629729323412,3355761913
iw,-89.2947387695312,-76.1176681518554,75.07215622158114,-154.2602794837761,3355778580
iw,-90.0,-73.799331665039,72.4536101792861,-151.12138732865725,3355795247
iw,-88.3602828979492,-71.5163116455078,71.76776873500744,-144.87398479841892,3355811914
iw,-86.9043350219726,-69.1964950561523,73.39222247537104,-135.83323741991794,3355828581
iw,-85.4166183471679,-66.8603286743164,77.12876318660763,-124.50887403436279,3355845248
iw,-83.9419708251953,-64.6774215698242,82.27032196455569,-111.55431723000581,3355861915
iw,-82.4538650512695,-62.8899726867675,87.79905108758378,-97.66353000371731,3355878582
iw,-80.8875579833984,-61.4909286499023,92.64320626280174,-83.44773146208814,3355895249
iw,-79.2434616088867,-60.299144744873,95.91392538698994,-69.3452545929448,3355911916
iw,-77.5869750976562,-59.1121864318847,97.06242159821058,-55.610669557303225,3355928583
iw,-75.9872894287109,-58.1076164245605,95.92920076167886,-42.38972332576279,3355945250
iw,-74.5063934326171,-57.4817733764648,92.68917527787572,-29.8368994695101,3355961917
iw,-73.1359329223632,-57.0855331420898,87.72313062494402,-18.207183304620997,3355978584
iw,-71.8064193725586,-56.9138259887695,81.46045488716389,-7.87046178758083,3355995251
iw,-70.4952316284179,-57.0753211975097,74.23602516761963,0.7580883699786966,3356011918
iw,-69.277603149414,-57.2520561218261,66.18848034919198,7.336252156443316,3356028585
iw,-68.2906036376953,-57.4364128112793,57.208857080716626,11.710967471734929,3356045252
iw,-67.6106262207031,-57.8055305480957,46.93995205740747,13.995343799072279,3356061919
iw,-67.1965179443359,-58.3951416015625,34.830469198928185,14.592712359263224,3356078586
iw,-66.9560394287109,-58.9990997314453,20.25318741441321,14.164681774551608,3356095253
iw,-66.8428268432617,-59.4980392456054,2.6874892647754125,13.537961515888124,3356111920
iw,-66.8825378417968,-59.7947959899902,-18.06146837880545,13.550317767781001,3356128587
iw,-67.266975402832,-60.345344543457,-41.668512094844786,14.861316834187749,3356145254
iw,-68.2265853881836,-61.1153450012207,-67.19573848460362,17.782640887433345,3356161921
iw,-69.8101501464843,-61.7668228149414,-93.15628232990431,22.190262422603226,3356178588
iw,-71.9110336303711,-62.5956306457519,-117.73560682641585,27.5586348200438,3356195255
iw,-74.2960968017578,-63.7175941467285,-139.11178457929637,33.11630955390478,3356211922
iw,-76.871597290039,-64.9483566284179,-155.78204675812268,38.07909697306967,3356228589
iw,-79.504409790039,-66.1854934692382,-166.80816877395665,41.88721189947194,3356245256
iw,-82.0648956298828,-67.485481262207,-171.9288405591716,44.37063872707288,3356261923
iw,-84.3834381103515,-68.7444992065429,-171.53236204552712,45.79362695569061,3356278590
iw,-86.2978439331054,-69.9753875732421,-166.52058835893635,46.77058452774081,3356295257
iw,-87.1680068969726,-71.2374114990234,-158.11595455008236,48.08344795764319,3356311924
iw,-86.1977996826171,-72.5606002807617,-147.66412910877668,50.45408632342118,3356328591
iw,-84.3247756958007,-73.8621978759765,-136.46709676830542,54.33255360391839,3356345258
iw,-82.2945709228515,-75.1358261108398,-125.65470070964214,59.75598265542303,3356361925
iw,-80.2692413330078,-76.4457702636718,-116.08221201343021,66.31670968883,3356378592
iw,-78.4005508422851,-77.9117889404296,-108.23974963363457,73.25274596807746,3356395259
iw,-76.7524871826171,-79.5474472045898,-102.17702697520883,79.64057376324185,3356411926
iw,-75.2386627197265,-81.2431030273437,-97.47168729469554,84.6370014505566,3356428593
iw,-73.8400573730468,-82.9562225341796,-93.28271465015683,87.69701204786227,3356445260
iw,-72.4392395019531,-84.5121002197265,-88.51731644414569,88.69994317334967,3356461927
iw,-70.9419555664062,-85.9580383300781,-82.09907325753306,87.94767644308256,3356478594
iw,-69.396499633789,-87.3943634033203,-73.27289848476637,86.0427864649732,3356495261
iw,-68.1590881347656,-88.8326568603515,-61.84622817870886,83.69198943331762,3356511928
iw,-67.3586120605468,-90.0,-48.27221869774064,81.49654460828124,3356528595
iw,-67.1049880981445,-88.7103271484375,-33.53599284715819,79.78562780677011,3356545262
iw,-67.0102920532226,-87.3292236328125,-18.884740188823926,78.5298605672664,3356561929
iw,-67.2154006958007,-86.0099334716796,-5.503402849659615,77.34937834398188,3356578596
iw,-67.1880950927734,-84.6995086669921,5.752664297636954,75.60905276893082,3356595263
iw,-67.4968948364257,-83.3048477172851,14.497175998412171,72.57441501886865,3356611930
iw,-68.0816345214843,-81.9245529174804,20.813274133779867,67.58687956358953,3356628597
iw,-68.5880966186523,-80.7543487548828,25.147717234307315,60.2101617776621,3356645264
iw,-68.9999008178711,-79.8924789428711,28.149222426271134,50.307449119214645,3356661931
iw,-69.4466018676757,-79.2970581054687,30.502681802019048,38.03269663088056,3356678598
iw,-70.0205612182617,-78.99462890625,32.804614567983876,23.75106992316191,3356695265
iw,-71.0753936767578,-78.9997634887695,35.50495199421063,7.928138206148618,3356711932
iw,-72.1851501464843,-79.2064666748046,38.90480039591362,-8.966556218180695,3356728599
iw,-72.9974365234375,-79.5664367675781,43.17050112299351,-26.510134859708632,3356745266
iw,-73.7212982177734,-80.1868667602539,48.32787246154098,-44.32635412642938,3356761933
iw,-74.6993255615234,-81.2599258422851,54.23443325098052,-62.05485504060592,3356778600
iw,-75.9276275634765,-82.6608352661132,60.558086469552116,-79.31942303249946,3356795267
iw,-77.2529067993164,-84.2903442382812,66.79341867148258,-95.71643258967394,3356811934
iw,-78.5131225585937,-86.0219268798828,72.33023928377828,-110.82661152634905,3356828601
iw,-79.7863159179687,-86.8802719116211,76.57239105707349,-124.23827248139021,3356845268
iw,-81.3370056152343,-85.5972671508789,79.08997227906352,-135.56589984458458,3356861935
iw,-83.0174789428711,-83.2787704467773,79.7677601341905,-144.4558550778226,3356878602
iw,-84.6078414916992,-80.9290771484375,78.89375042971245,-150.58619708816784,3356895269
iw,-86.1139984130859,-78.7642211914062,77.13549937456992,-153.67928843700284,3356911936
iw,-87.3725967407226,-76.6117248535156,75.39012271119462,-153.54313108728724,3356928603
iw,-88.2211685180664,-74.3994445800781,74.55061405521397,-150.13904255266803,3356945270
iw,-88.4386596679687,-72.1764373779296,75.27244174856699,-143.6500072868423,3356961937
iw,-87.6419143676757,-69.9507293701171,77.82402033624737,-134.51090266952875,3356978604
iw,-86.3865966796875,-67.7487716674804,82.06303449483401,-123.36852732471688,3356995271
iw,-84.9591217041015,-65.8083801269531,87.5231193309468,-110.96585578128281,3357011938
iw,-83.4097137451171,-64.2511444091796,93.55430908459529,-97.98257605389736,3357028605
iw,-81.7894592285156,-62.9350929260253,99.45386669005781,-84.89642704030987,3357045272
iw,-80.1784133911132,-61.6795463562011,104.54750198948024,-71.93477410128158,3357061939
iw,-78.5533218383789,-60.3746643066406,108.21705938748786,-59.14811257342151,3357078606
iw,-76.8517074584961,-59.2836380004882,109.90062507587187,-46.5696168635423,3357095273
iw,-75.0853805541992,-58.5591888427734,109.10136991599376,-34.36997319432429,3357111940
iw,-73.2813644409179,-58.212043762207,105.42858419921673,-22.916181824688984,3357128607
iw,-71.4651412963867,-58.1561431884765,98.66591741157087,-12.700455644340806,3357145274
iw,-69.7532501220703,-58.1121711730957,88.83353598887112,-4.180756226215208,3357161941
iw,-68.3325958251953,-58.0730438232421,76.19937750863657,2.3835500914134986,3357178608
iw,-67.3178253173828,-58.1514663696289,61.20993053834199,7.030809355191742,3357195275
iw,-66.7863311767578,-58.5381774902343,44.3502157013993,10.106994710771176,3357211942
iw,-66.680419921875,-59.1249465942382,25.98816357801748,12.199489309056666,3357228609
iw,-66.8563995361328,-59.5124206542968,6.283859079623905,14.01694133870687,3357245276
iw,-67.0305862426757,-59.7171096801757,-14.772260558079124,16.23571890242945,3357261943
iw,-67.2711791992187,-60.2089500427246,-37.187139311680426,19.34241699066779,3357278610
iw,-67.9086761474609,-60.978759765625,-60.72833130590565,23.515481878590712,3357295277
iw,-69.0784683227539,-61.9846992492675,-84.73880283440013,28.58567818365373,3357311944
iw,-70.8584899902343,-63.0574493408203,-108.10550394345152,34.08977397209332,3357328611
iw,-73.2351455688476,-64.1761779785156,-129.41425498523975,39.40088879419145,3357345278
iw,-75.8871383666992,-65.3443069458007,-147.23735136022665,43.89889041114529,3357361945
iw,-78.5951080322265,-66.5582122802734,-160.44440800784344,47.13849754079901,3357378612
iw,-81.2023696899414,-67.9304962158203,-168.42704381520863,48.97660402354069,3357395279
iw,-83.6389694213867,-69.3592681884765,-171.17682162403264,49.62882912421833,3357411946
iw,-85.7883911132812,-70.7217330932617,-169.22172501225583,49.63716326884933,3357428613
iw,-87.1527023315429,-72.0467834472656,-163.47460680341896,49.748042534196856,3357445280
iw,-86.7841720581054,-73.3589706420898,-155.05885485892009,50.72386034915737,3357461947
iw,-84.9555053710937,-74.6825637817382,-145.1551685778836,53.13461801425039,3357478614
iw,-82.8132934570312,-75.9807891845703,-134.87762608272715,57.189389797856194,3357495281
iw,-80.703369140625,-77.2797012329101,-125.1609260384918,62.66162117887491,3357511948
iw,-78.7790756225586,-78.662109375,-116.6407248242787,68.9371195054328,3357528615
iw,-77.0687561035156,-80.2137145996093,-109.5351287699559,75.17528439906525,3357545282
iw,-75.4701080322265,-81.8302154541015,-103.56883303844789,80.53541964039422,3357561949
iw,-73.8913803100586,-83.423599243164,-97.99593718095905,84.39653722414877,3357578616
iw,-72.284065246582,-84.9656524658203,-91.75680975640093,86.50174890282446,3357595283
iw,-70.7472076416015,-86.4435577392578,-83.75392899066513,86.98611469352785,3357611950
iw,-69.2911529541015,-87.8697128295898,-73.17633207336053,86.2870959965883,3357628617
iw,-68.1399917602539,-89.2613983154296,-59.77122099040788,84.97315330452734,3357645284
iw,-67.33447265625,-89.4293899536132,-43.9705355920841,83.54684798836463,3357661951
iw,-66.9120025634765,-88.0339736938476,-26.826226794175426,82.28049353738712,3357678618
iw,-66.9292907714843,-86.6696319580078,-9.771662697349841,81.1278893398552,3357695285
iw,-67.3492279052734,-85.319351196289,5.71650821862671,79.7311469319626,3357711952
iw,-67.6027069091796,-83.9150466918945,18.453689349444492,77.51398709469362,3357728619
iw,-68.114013671875,-82.4417648315429,27.78953132034635,73.8284468836294,3357745286
iw,-68.9363098144531,-81.0891494750976,33.70917478342954,68.10684850085713,3357761953
iw,-69.7687911987304,-80.0417404174804,36.79152597450563,59.97193517464374,3357778620
iw,-70.4239883422851,-79.3153533935546,38.05116205178818,49.27889320249378,3357795287
iw,-71.0921325683593,-78.8423461914062,38.70491355929549,36.09630269767371,3357811954
iw,-71.7661819458007,-78.5910339355468,39.91478291421382,20.660175451445465,3357828621
iw,-72.7488098144531,-78.5060806274414,42.56250444197133,3.3386132973762117,3357845288
iw,-73.6702423095703,-78.6302413940429,47.09909559330114,-15.377401333761885,3357861955
iw,-74.5775680541992,-79.0077819824218,53.489376706545876,-34.87280108535785,3357878622
iw,-75.6189498901367,-79.8432464599609,61.25039030184339,-54.43031087273774,3357895289
iw,-77.0249862670898,-81.2672500610351,69.56918124835823,-73.2991237719371,3357911956
iw,-78.6069946289062,-83.0506515502929,77.47373531153194,-90.80154231246838,3357928623
iw,-80.1353225708007,-84.8982315063476,84.02058427567422,-106.43625548706856,3357945290
iw,-81.6379165649414,-86.7381820678711,88.46339961675918,-119.92932179489365,3357961957
iw,-83.2383041381836,-87.4046783447265,90.38098607229028,-131.2070018995494,3357978624
iw,-84.9502258300781,-85.6746444702148,89.75597887242621,-140.3015391466768,3357995291
iw,-86.6528625488281,-83.2788314819336,86.99467650923974,-147.23068655284982,3358011958
iw,-88.2566146850586,-80.9141235351562,82.8720331342468,-151.9037746605501,3358028625
iw,-90.0,-78.6203689575195,78.39345401347536,-154.09889664110645,3358045292
iw,-89.1078109741211,-76.2896041870117,74.5925432163404,-153.52812431549097,3358061959
iw,-87.6285858154296,-73.9415512084961,72.31487016604541,-149.96892243827415,3358078626
iw,-86.1508636474609,-71.5267639160156,72.04933231630025,-143.407064194635,3358095293
iw,-84.7446899414062,-69.1135559082031,73.85209663275467,-134.12551592088124,3358111960
iw,-83.3913803100586,-66.8290786743164,77.37397604259922,-122.69128343616372,3358128627
iw,-82.0179748535156,-64.7504119873046,81.96948759337144,-109.83343751291679,3358145294
iw,-80.546142578125,-63.0007362365722,86.84783097747928,-96.25620180104437,3358161961
iw,-78.9725952148437,-61.595718383789,91.2238777694871,-82.4686970175657,3358178628
iw,-77.3966064453125,-60.3520774841308,94.43564845656658,-68.71461060388602,3358195295
iw,-75.8214492797851,-59.0708503723144,96.0091132482736,-55.041358356395854,3358211962
iw,-74.2349700927734,-57.9431915283203,95.6683879073692,-41.47555702828278,3358228629
iw,-72.7229232788086,-57.2125396728515,93.3047725144003,-28.209563074603455,3358245296
iw,-71.2642974853515,-56.9244995117187,88.92591811381057,-15.693368047869606,3358261963
iw,-69.8614654541015,-56.9277915954589,82.6042254286517,-4.577742673338762,3358278630
iw,-68.5297012329101,-57.0802879333496,74.43403378202932,4.464713069212322,3358295297
iw,-67.3570785522461,-57.1717834472656,64.4966237995841,10.956607837046775,3358311964
iw,-66.4402160644531,-57.4511680603027,52.82792653757856,14.783667383045714,3358328631
iw,-65.8657760620117,-57.98876953125,39.390484783990665,16.26449061138279,3358345298
iw,-65.6635818481445,-58.7079010009765,24.065507619074495,16.11424000749575,3358361965
iw,-65.7184677124023,-59.3112258911132,6.691173767692716,15.314208822547574,3358378632
iw,-65.8670959472656,-59.5296745300293,-12.834512418517777,14.90804049939994,3358395299
iw,-66.1106262207031,-59.8961029052734,-34.39921477006147,15.764040025288212,3358411966
iw,-66.7792663574218,-60.3697547912597,-57.52412411961497,18.367670064310207,3358428633
iw,-67.9373550415039,-61.2895355224609,-81.29094515482707,22.712978544161146,3358445300
iw,-69.6486206054687,-62.2806434631347,-104.40635350577662,28.33213225246903,3358461967
iw,-71.9649276733398,-63.3017311096191,-125.40594152481991,34.452504635361514,3358478634
iw,-74.5041427612304,-64.4470443725586,-142.93521417953568,40.22750329405514,3358495301
iw,-77.065673828125,-65.6431350708007,-156.00917873166296,44.96885897038077,3358511968
iw,-79.5018081665039,-66.9241104125976,-164.1647570628408,48.31697130929633,3358528635
iw,-81.8298034667968,-68.3007049560546,-167.473160015982,50.311967494715255,3358545302
iw,-84.0972137451171,-69.599609375,-166.4407304097483,51.357616436823946,3358561969
iw,-86.0548400878906,-70.8572158813476,-161.8627658795842,52.09506106114836,3358578636
iw,-87.141860961914,-72.130012512207,-154.69084981648513,53.22201258509741,3358595303
iw,-86.2429275512695,-73.4397048950195,-145.9400466126546,55.30442284516672,3358611970
iw,-84.3395767211914,-74.7424774169921,-136.6220265970451,58.6283188366249,3358628637
iw,-82.2952804565429,-76.0754241943359,-127.66800895682334,63.128083823436214,3358645304
iw,-80.3085403442382,-77.4560852050781,-119.81414855551166,68.40716989775989,3358661971
iw,-78.4729080200195,-78.9400787353515,-113.45622673321384,73.8432468758507,3358678638
iw,-76.7783279418945,-80.4801483154296,-108.51961119287117,78.74753137133851,3358695305
iw,-75.1412963867187,-82.0522689819336,-104.41105692905452,82.53348197461096,3358711972
iw,-73.549331665039,-83.5924987792968,-100.10706491202457,84.84851298373734,3358728639
iw,-71.9512176513671,-85.0807952880859,-94.3901376508748,85.63509677521,3358745306
iw,-70.3578338623046,-86.5052642822265,-86.1851131021093,85.11001751533148,3358761973
iw,-68.9353637695312,-87.909683227539,-74.89808099529343,83.6744150825197,3358778640
iw,-67.8059768676757,-89.3130111694336,-60.644358124345885,81.78496445931852,3358795307
iw,-66.9586181640625,-89.6834869384765,-44.28060395936241,79.8238443389527,3358811974
iw,-66.7742691040039,-88.2096557617187,-27.220734037902233,78.0014548886371,3358828641
iw,-66.8744735717773,-86.8498077392578,-11.090889913573102,76.3130517753683,3358845308
iw,-67.0943527221679,-85.5426712036132,2.666045299131102,74.5525996583257,3358861975
iw,-67.3901977539062,-84.2070541381836,13.11571175878965,72.3700687058515,3358878642
iw,-67.8048400878906,-82.9374237060546,20.00404210724717,69.34777910853118,3358895309
iw,-68.4094009399414,-81.7498321533203,23.752760919438362,65.07033876378341,3358911976
iw,-69.0855255126953,-80.7293930053711,25.306667080699693,59.17108722176773,3358928643
iw,-69.501594543457,-79.9013137817382,25.887140828209617,51.352519762787175,3358945310
iw,-69.8032531738281,-79.2702407836914,26.71544581098144,41.392665553110426,3358961977
iw,-70.2347335815429,-78.8167953491211,28.770169372267166,29.156476944112867,3358978644
iw,-71.0144653320312,-78.5902404785156,32.63123759437099,14.626598365531363,3358995311
iw,-71.8871459960937,-78.5959243774414,38.432286716473094,-2.0468852162503652,3359011978
iw,-72.8020858764648,-78.7819671630859,45.90550943736556,-20.495982211596004,3359028645
iw,-73.7316360473632,-79.2845993041992,54.481570164889064,-40.11364009864909,3359045312
iw,-74.9860153198242,-80.3340682983398,63.40952869056254,-60.08908249672698,3359061979
iw,-76.4434738159179,-81.9501647949218,71.87412396432903,-79.50588698728109,3359078646
iw,-77.8615417480468,-83.7107925415039,79.09817616498198,-97.47831126641604,3359095313
iw,-79.3498001098632,-85.5397644042968,84.42873996060356,-113.28013159470028,3359111980
iw,-80.8474731445312,-86.9034576416015,87.41750807307471,-126.42346814623535,3359128647
iw,-82.4634399414062,-86.2833251953125,87.9058043789159,-136.668823965107,3359145314
iw,-84.1799774169921,-84.1195755004882,86.10322849851339,-143.97549778642914,3359161981
iw,-85.8724212646484,-81.7423629760742,82.6204284355661,-148.4217763384744,3359178648
iw,-87.5117111206054,-79.4564666748046,78.40818396865022,-150.13281005180735,3359195315
iw,-89.0844268798828,-77.160530090332,74.58278863040017,-149.24741636185172,3359211982
iw,-89.4390716552734,-74.8785552978515,72.1708729281139,-145.93203190921423,3359228649
iw,-88.0939254760742,-72.5866012573242,71.85454555090813,-140.4201089077559,3359245316
iw,-86.7063980102539,-70.2501068115234,73.80961105739225,-133.03674891971346,3359261983
iw,-85.220458984375,-67.9847412109375,77.69530502360405,-124.17491856977496,3359278650
iw,-83.7471237182617,-65.8993530273437,82.79066893963977,-114.21972819428927,3359295317
iw,-82.2352752685546,-64.0537719726562,88.21495381829432,-103.45489708858294,3359311984
iw,-80.6775512695312,-62.4161872863769,93.1460419036406,-92.00763684630836,3359328651
iw,-79.094741821289,-60.8990516662597,96.96665634164584,-79.87707948912436,3359345318
iw,-77.4972610473632,-59.4809913635253,99.30707197004517,-67.04817330981044,3359361985
iw,-75.9278411865234,-58.3654098510742,99.99479333801159,-53.641309833152235,3359378652
iw,-74.422248840332,-57.5807838439941,98.95235372275523,-40.0206465641815,3359395319
iw,-72.9863586425781,-57.1078414916992,96.09680824657634,-26.79991831936664,3359411986
iw,-71.4778671264648,-56.9527206420898,91.2857070921991,-14.733966376603586,3359428653
iw,-69.8590545654296,-57.0207557678222,84.3264341747412,-4.537415629044515,3359445320
iw,-68.286392211914,-57.0240325927734,75.02952653499192,3.3000091745754654,3359461987
iw,-67.1232681274414,-57.130271911621,63.26213418978726,8.640542909597187,3359478654
iw,-66.5149307250976,-57.6556167602539,48.96465226773047,11.73977504319986,3359495321
iw,-66.3392257690429,-58.4207344055175,32.13175621924521,13.204264229622204,3359511988
iw,-66.3132781982421,-58.9884223937988,12.800563289355072,13.877192730428165,3359528655
iw,-66.316421508789,-59.3419952392578,-8.904128973618285,14.665559955033139,3359545322
iw,-66.5057144165039,-59.6401214599609,-32.65771943267625,16.33678840384648,3359561989
iw,-67.1917648315429,-60.1835212707519,-57.80722837623763,19.33669440484109,3359578656
iw,-68.4344253540039,-61.3546752929687,-83.31020759354391,23.688970540204448,3359595323
iw,-70.2986145019531,-62.4178810119628,-107.80426057725101,29.012523588438032,3359611990
iw,-72.7155532836914,-63.2405242919921,-129.80749732252858,34.649804861586134,3359628657
iw,-75.2927017211914,-64.266357421875,-147.98515972431485,39.8634779085002,3359645324
iw,-77.9499893188476,-65.5064468383789,-161.38800478764585,44.04421491411921,3359661991
iw,-80.5340957641601,-66.8344039916992,-169.58687824359325,46.874449177409375,3359678658
iw,-83.0077667236328,-68.2546310424804,-172.67918662595466,48.40569285799209,3359695325
iw,-85.3433532714843,-69.5553207397461,-171.195237687527,49.031098467862904,3359711992
iw,-87.0888595581054,-70.7763519287109,-165.9599179556166,49.366710268200784,3359728659
iw,-87.197883605957,-72.0502777099609,-157.96054623288623,50.081926341774235,3359745326
iw,-85.4183654785156,-73.3967666625976,-148.24456122917834,51.73011824846651,3359761993
iw,-83.2534027099609,-74.7476806640625,-137.8389988160517,54.62199031915213,3359778660
iw,-81.1144027709961,-76.0707321166992,-127.66572594437302,58.765281188312656,3359795327
iw,-79.1329345703125,-77.3851013183593,-118.43282693512577,63.87573966191192,3359811994
iw,-77.3369064331054,-78.7437515258789,-110.50995831000515,69.45103269339434,3359828661
iw,-75.67724609375,-80.2059249877929,-103.82707368038464,74.88955882929078,3359845328
iw,-74.0901489257812,-81.7364730834961,-97.85129136126908,79.62736313427334,3359861995
iw,-72.5383682250976,-83.27392578125,-91.68351327558916,83.25995410645989,3359878662
iw,-71.0425186157226,-84.7368698120117,-84.27702807228133,85.61673233193748,3359895329
iw,-69.658332824707,-86.1487808227539,-74.73109136012295,86.76735200002557,3359911996
iw,-68.417236328125,-87.4565505981445,-62.57572703108996,86.95926893376945,3359928663
iw,-67.5096359252929,-88.4588394165039,-47.95669074672888,86.50675705175631,3359945330
iw,-66.8028793334961,-88.5772857666015,-31.655770151452842,85.66649508455444,3359961997
iw,-66.7076263427734,-87.7110748291015,-14.932656299690745,84.53895694381609,3359978664
iw,-66.9756851196289,-86.4646530151367,0.7668330427137762,83.0262282805575,3359995331
iw,-67.1965026855468,-85.0604553222656,14.147729189481286,80.8564077254448,3360011998
iw,-67.5835037231445,-83.61767578125,24.351034886317947,77.6589045732087,3360028665
iw,-68.2804565429687,-82.2988510131836,31.11865840070553,73.055597799594,3360045332
iw,-69.1621170043945,-81.1625595092773,34.81355513717147,66.73091675317885,3360061999
iw,-69.844970703125,-80.2090530395507,36.30456283910592,58.460958466952825,3360078666
iw,-70.2915267944336,-79.4477920532226,36.74812721232196,48.10742947319135,3360095333
iw,-70.7784423828125,-78.965705871582,37.320882550280245,35.60143177146131,3360112000
iw,-71.4031295776367,-78.6790390014648,38.972920881767834,20.945163998070583,3360128667
iw,-72.2585220336914,-78.5531311035156,42.263953966492814,4.245783189984406,3360145334
iw,-73.3883209228515,-78.6017456054687,47.310539680055506,-14.228646758939341,3360162001
iw,-74.3777389526367,-78.9535980224609,53.83193871350671,-34.00396233556794,3360178668
iw,-75.3962936401367,-79.8542709350586,61.25719058635895,-54.40431378207622,3360195335
iw,-76.7509613037109,-81.3367614746093,68.85273083155641,-74.62521098571202,3360212002
iw,-78.2235488891601,-83.0296783447265,75.8408544750538,-93.85683265851013,3360228669
iw,-79.7108459472656,-84.8698120117187,81.49644484985518,-111.40840136548111,3360245336
iw,-81.1519393920898,-86.3752822875976,85.22749502283085,-126.78160816732122,3360262003
iw,-82.6989440917968,-86.2879638671875,86.65497999358655,-139.66718663148532,3360278670
iw,-84.3385009765625,-84.5428924560546,85.69816102420513,-149.87671552789595,3360295337
iw,-85.9323501586914,-82.3520736694336,82.64434336157433,-157.25217726229013,3360312004
iw,-87.4688949584961,-80.102783203125,78.15930910358583,-161.60592898280336,3360328671
iw,-88.9601516723632,-77.7567749023437,73.20022857666588,-162.72855691400954,3360345338
iw,-90.0,-75.2939224243164,68.83001861729163,-160.46695880361324,3360362005
iw,-88.4924697875976,-72.818733215332,65.9796996800605,-154.83651926191416,3360378672
iw,-87.1840209960937,-70.3266372680664,65.23473513128606,-146.10938988929723,3360395339
iw,-85.9269180297851,-67.873664855957,66.71594741049975,-134.8271565674113,3360412006
iw,-84.700210571289,-65.54638671875,70.0888761071562,-121.7177983713449,3360428673
iw,-83.3715591430664,-63.5278091430664,74.68656067391446,-107.5401776339572,3360445340
iw,-81.915901184082,-61.9246406555175,79.69220769785288,-92.91659911984779,3360462007
iw,-80.3844604492187,-60.5892143249511,84.31442745637669,-78.22804398674621,3360478674
iw,-78.9248275756836,-59.2594871520996,87.90147335489488,-63.625554259301,3360495341
iw,-77.5766983032226,-57.9522895812988,89.97522572868836,-49.157004490007125,3360512008
iw,-76.2671890258789,-57.0665626525878,90.20535417232315,-34.9453135547475,3360528675
iw,-74.8638305664062,-56.6089096069335,88.36906216697999,-21.320781617916815,3360545342
iw,-73.3518447875976,-56.472297668457,84.33702017827005,-8.832207552666713,3360562009
iw,-71.8396911621093,-56.5011100769043,78.09376874527521,1.8735493802505971,3360578676
iw,-70.4023513793945,-56.6726531982421,69.76250931793906,10.247756151183335,3360595343
iw,-69.253662109375,-56.9639930725097,59.58727751327634,16.02604606857873,3360612010
iw,-68.5779724121093,-57.3631324768066,47.84501785147914,19.333672707459474,3360628677
iw,-68.3286972045898,-57.8693809509277,34.70818474644789,20.679782956000846,3360645344
iw,-68.3050079345703,-58.4322967529296,20.126901763838397,20.852065128418218,3360662011
iw,-68.3816299438476,-58.8945426940918,3.8142566746985556,20.747817635338382,3360678678
iw,-68.4182586669921,-59.3300285339355,-14.619103956789315,21.18421771412771,3360695345
iw,-68.5600357055664,-59.7262268066406,-35.41032705911571,22.72861403235471,3360712012
iw,-69.2067184448242,-60.5932731628418,-58.37071480348222,25.586433951338957,3360728679
iw,-70.446044921875,-61.7362518310546,-82.71821927789473,29.57638652649952,3360745346
iw,-72.3082199096679,-62.9074211120605,-107.10047578735865,34.2024725294035,3360762013
iw,-74.6639709472656,-63.9054985046386,-129.80990090713024,38.803848270144535,3360778680
iw,-77.2750778198242,-64.8386154174804,-149.1137316320125,42.74236137066458,3360795347
iw,-79.9780120849609,-66.0597229003906,-163.58630721962095,45.582092530709026,3360812014
iw,-82.6275482177734,-67.4862060546875,-172.34820617145175,47.21903810453292,3360828681
iw,-85.1683578491211,-68.8358078002929,-175.16832903073484,47.92570124648043,3360845348
iw,-87.2295684814453,-70.1036376953125,-172.43958405406477,48.29032339109613,3360862015
iw,-87.6566543579101,-71.3394165039062,-165.0715377830287,49.059874447890635,3360878682
iw,-85.8348236083984,-72.619155883789,-154.3454511439918,50.93011337134395,3360895349
iw,-83.5255889892578,-73.9340744018554,-141.75581150095294,54.34527506604119,3360912016
iw,-81.3128280639648,-75.2724151611328,-128.8363205770888,59.364427654867505,3360928683
iw,-79.3388671875,-76.6390075683593,-116.95870907624105,65.62829265062358,3360945350
iw,-77.6048049926757,-78.0725326538086,-107.11042293962197,72.43192778072826,3360962017
iw,-76.0893478393554,-79.5451126098632,-99.69222275010574,78.8829810196696,3360978684
iw,-74.5900802612304,-81.0731582641601,-94.40397610886164,84.1058920647912,3360995351
iw,-73.0400772094726,-82.6603469848632,-90.28344058429279,87.44232349194048,3361012018
iw,-71.5025482177734,-84.1953887939453,-85.92296411640082,88.5990879373812,3361028685
iw,-70.1287231445312,-85.6025695800781,-79.82825888466459,87.70690223615514,3361045352
iw,-68.8034133911132,-86.816665649414,-70.82869109105246,85.27487774915757,3361062019
iw,-67.5930633544921,-87.7206726074218,-58.42203894634227,82.05244519912338,3361078686
iw,-66.607437133789,-88.0359725952148,-42.94734064545519,78.8344545672319,3361095353
iw,-66.4521026611328,-87.6070709228515,-25.526199284990405,76.25817523472303,3361112020
iw,-66.4575805664062,-86.7614288330078,-7.78593191192119,74.63964395574978,3361128687
iw,-66.9525451660156,-85.7762222290039,8.54724281961476,73.88463044562613,3361145354
iw,-67.342529296875,-84.6995849609375,22.054945269988213,73.49206321099939,3361162021
iw,-67.8836669921875,-83.5033950805664,31.91586382044562,72.64820852909894,3361178688
iw,-68.6204605102539,-82.2253952026367,38.01623512302355,70.3893828110984,3361195355
iw,-69.457405090332,-81.0128784179687,40.886187942267995,65.79334652725827,3361212022
iw,-70.0746536254882,-79.9773864746093,41.51245218727369,58.15247757271256,3361228689
iw,-70.7201461791992,-79.2087707519531,41.09549130330518,47.09094142273408,3361245356
iw,-71.5185317993164,-78.7209396362304,40.81409823179849,32.609943148099816,3361262023
iw,-72.5409088134765,-78.5157318115234,41.63925731430417,15.068057653313707,3361278690
iw,-73.5471115112304,-78.5368118286132,44.209896124882036,-4.88396596904338,3361295357
iw,-74.3643035888671,-78.8079147338867,48.76229637239663,-26.39547324266249,3361312024
iw,-75.0830993652343,-79.6417617797851,55.10560378341295,-48.52312987453644,3361328691
iw,-76.2912368774414,-81.0714340209961,62.650379937800444,-70.34093387227729,3361345358
iw,-77.7425003051757,-82.6132354736328,70.50260761005,-91.03181888894058,3361362025
iw,-79.1918334960937,-84.2008285522461,77.62149984555872,-109.93437069003289,3361378692
iw,-80.611587524414,-85.5358200073242,83.0189201902989,-126.53128396985079,3361395359
iw,-82.1391525268554,-85.7439804077148,85.96656870937355,-140.394504716615,3361412026
iw,-83.798469543457,-84.3981475830078,86.17253305035484,-151.1257687094718,3361428693
iw,-85.4418563842773,-82.2823028564453,83.8836888304678,-158.33433171154635,3361445360
iw,-87.0552368164062,-79.9488754272461,79.87105167759586,-161.6754473879782,3361462027
iw,-88.63916015625,-77.5789947509765,75.27684404190337,-160.9437773933139,3361478694
iw,-90.0,-75.1838989257812,71.34700036442503,-156.18849006611632,3361495361
iw,-88.8417434692382,-72.862319946289,69.12150790940953,-147.80220047603535,3361512028
iw,-87.4986114501953,-70.6033096313476,69.17950929821524,-136.53911010220264,3361528695
iw,-86.2329864501953,-68.4512634277343,71.52053846148097,-123.43703603183822,3361545362
iw,-84.9540328979492,-66.4782333374023,75.6138617159121,-109.64795417354158,3361562029
iw,-83.5580444335937,-64.8166427612304,80.5879371442946,-96.21537412793812,3361578696
iw,-81.9846267700195,-63.4897727966308,85.48675632672034,-83.865042862337,3361595363
iw,-80.3382263183593,-62.3078422546386,89.50425073265761,-72.88444992986409,3361612030
iw,-78.8096847534179,-61.0638465881347,92.1247728859271,-63.14285003731143,3361628697
iw,-77.409927368164,-59.7483863830566,93.14003798673974,-54.24735153163097,3361645364
iw,-76.0373992919921,-58.7345809936523,92.56446511891649,-45.767283513754144,3361662031
iw,-74.6549224853515,-58.1468353271484,90.50828564966083,-37.42838105910575,3361678698
iw,-73.1664657592773,-57.7803153991699,87.07258109017845,-29.202688232899327,3361695365
iw,-71.6569137573242,-57.5133438110351,82.30231280604349,-21.2811172196979,3361712032
iw,-70.241455078125,-57.2040634155273,76.19173818803473,-13.96944654568816,3361728699
iw,-69.003303527832,-57.0439643859863,68.70732678798825,-7.565487622868705,3361745366
iw,-68.0086975097656,-57.0418548583984,59.79228374199645,-2.259770936634675,3361762033
iw,-67.2986984252929,-57.1048583984375,49.3412921702811,1.9226245390009693,3361778700
iw,-66.8365402221679,-57.3041267395019,37.166594186736226,5.138838392172177,3361795367
iw,-66.5802307128906,-57.6993293762207,22.99630166087601,7.7094757410652015,3361812034
iw,-66.4624481201171,-58.2278671264648,6.5398886390573985,10.068279354705412,3361828701
iw,-66.565559387207,-58.6127967834472,-12.37501040131249,12.681836074159433,3361845368
iw,-66.868049621582,-59.1597328186035,-33.631758285458396,15.947177380282348,3361862035
iw,-67.5237503051757,-59.8293380737304,-56.68779467952755,20.089290373917922,3361878702
iw,-68.7779769897461,-60.8166999816894,-80.54153765724925,25.089955681563772,3361895369
iw,-70.4847412109375,-61.9303932189941,-103.84056341360187,30.67482121062396,3361912036
iw,-72.5990142822265,-62.9460067749023,-125.11346798451218,36.37062967909279,3361928703
iw,-75.1726837158203,-63.9280776977539,-143.05520753300453,41.62519223035741,3361945370
iw,-77.7768096923828,-65.0526046752929,-156.7708406939277,45.961927189751854,3361962037
iw,-80.217170715332,-66.3780136108398,-165.89832951528948,49.12464657669973,3361978704
iw,-82.5932922363281,-67.6924667358398,-170.58190773137918,51.16621086107016,3361995371
iw,-84.7931976318359,-68.9254913330078,-171.3296120469071,52.4502926776918,3362012038
iw,-86.4791946411132,-70.2045745849609,-168.82982634059826,53.56276923167292,3362028705
iw,-86.8111343383789,-71.518684387207,-163.80203253433427,55.15713025879294,3362045372
iw,-85.2418518066406,-72.8689956665039,-156.9208412389592,57.776979923006095,3362062039
iw,-83.0364990234375,-74.2093963623046,-148.80284487890268,61.704060939911244,3362078706
iw,-80.7455825805664,-75.5533447265625,-140.01031155457517,66.8733683163906,3362095373
iw,-78.5979461669921,-76.9668273925781,-131.02281911144976,72.88029089346436,3362112040
iw,-76.6376724243164,-78.5122985839843,-122.15786849376501,79.08040035645095,3362128707
iw,-74.8611145019531,-80.1586990356445,-113.46635780506897,84.75507309534638,3362145374
iw,-73.2383499145507,-81.8575820922851,-104.6633964232314,89.29449803907809,3362162041
iw,-71.7393035888671,-83.5637969970703,-95.15968259203234,92.34309094972781,3362178708
iw,-70.3047790527343,-85.217056274414,-84.22699727627489,93.86415352163104,3362195375
iw,-68.7746505737304,-86.807632446289,-71.27240468160144,94.10601540055082,3362212042
iw,-67.4676971435546,-88.3004989624023,-56.1333439304874,93.48172143056445,3362228709
iw,-66.5068969726562,-89.3571548461914,-39.27233497910629,92.39966625810835,3362245376
iw,-66.2792663574218,-88.5789413452148,-21.77145950681105,91.09708460838597,3362262043
iw,-66.2708358764648,-87.225830078125,-5.102473425662888,89.52836334871846,3362278710
iw,-66.8654098510742,-85.7928085327148,9.256497317431458,87.34469713489638,3362295377
iw,-67.3489685058593,-84.3009567260742,20.222249556741623,83.9732670840162,3362312044
iw,-67.8432693481445,-82.7900238037109,27.388618772677717,78.77063061391532,3362328711
iw,-68.605224609375,-81.3467407226562,31.107815340395046,71.19827792494321,3362345378
iw,-69.2626571655273,-80.1770477294921,32.36687546930941,60.960160397742904,3362362045
iw,-69.6539230346679,-79.3874816894531,32.517163975605726,48.058445025350764,3362378712
iw,-70.0499267578125,-79.016372680664,32.945311481646726,32.75995060229469,3362395379
iw,-70.7019348144531,-78.9560012817382,34.77480923520237,15.50499688929639,3362412046
iw,-71.493667602539,-79.0777130126953,38.66395780381751,-3.188721497908428,3362428713
iw,-72.3119277954101,-79.3315353393554,44.72693190458195,-22.78477694142388,3362445380
iw,-73.2514038085937,-79.8287353515625,52.568368116053804,-42.7408274956668,3362462047
iw,-74.3738861083984,-80.7915420532226,61.403120783687086,-62.50101860729252,3362478714
iw,-75.7727661132812,-82.371826171875,70.22947478092185,-81.50236302529535,3362495381
iw,-77.2741241455078,-84.1056213378906,78.02446248549676,-99.20929905353371,3362512048
iw,-78.7713851928711,-85.9146728515625,83.93028345575058,-115.160741488256,3362528715
iw,-80.2719268798828,-86.9779357910156,87.40573414760556,-128.99921541687505,3362545382
iw,-81.8875656127929,-85.6689453125,88.32528329395304,-140.4606520954478,3362562049
iw,-83.6219100952148,-83.2543640136718,87.01278806471686,-149.32734616179286,3362578716
iw,-85.2847900390625,-80.8571014404296,84.19519032341474,-155.3720316145461,3362595383
iw,-86.8712539672851,-78.6039886474609,80.86600266805132,-158.3350530633446,3362612050
iw,-88.3768310546875,-76.3368835449218,78.07131644036981,-157.9675418036551,3362628717
iw,-90.0,-74.0216598510742,76.6664492047909,-154.14034799209617,3362645384
iw,-88.902114868164,-71.6426239013671,77.11547360263286,-146.9775512411096,3362662051
iw,-87.2785415649414,-69.2708053588867,79.39796532123601,-136.9485169509589,3362678718
iw,-85.7130737304687,-66.9617080688476,83.0485204686924,-124.85853945228497,3362695385
iw,-84.1794052124023,-64.8486938476562,87.30680033936758,-111.71416388438742,3362712052
iw,-82.6775360107421,-63.1442604064941,91.32347051044295,-98.49230290044244,3362728719
iw,-81.0937957763671,-61.8219604492187,94.36031349088991,-85.8922960898549,3362745386
iw,-79.4229660034179,-60.6311950683593,95.9347114729421,-74.1733306197053,3362762053
iw,-77.725715637207,-59.3368110656738,95.87844813841976,-63.15642101461973,3362778720
iw,-76.1594924926757,-58.0259208679199,94.30298968464938,-52.400833869005695,3362795387
iw,-74.7656936645507,-57.0222473144531,91.48822192933422,-41.48110143873144,3362812054
iw,-73.4808197021484,-56.3899192810058,87.73597811147158,-30.2416595123782,3362828721
iw,-72.1926116943359,-56.0939826965332,83.24239005769124,-18.922043443299742,3362845388
iw,-70.7958297729492,-55.9110069274902,78.0321840801677,-8.113028048175815,3362862055
iw,-69.3508071899414,-55.9313316345214,71.96436846302461,1.4212601161691183,3362878722
iw,-68.0389862060546,-56.0755462646484,64.78105372598942,8.977103321053015,3362895389
iw,-67.1238861083984,-56.3471908569335,56.15528893017217,14.12096295278037,3362912056
iw,-66.6132507324218,-56.8665122985839,45.71287142155178,16.820678896578805,3362928723
iw,-66.3204269409179,-57.5117568969726,33.04380566575472,17.474422743590377,3362945390
iw,-66.0962982177734,-58.1171722412109,17.74836819847329,16.836994245502392,3362962057
iw,-66.0232238769531,-58.5278358459472,-0.44685488983308264,15.859750012470743,3362978724
iw,-66.0744552612304,-58.9539527893066,-21.51440595630838,15.478380719593199,3362995391
iw,-66.4638442993164,-59.2982559204101,-44.95796501260196,16.401187175869563,3363012058
iw,-67.4562911987304,-60.1742134094238,-69.7397900528945,18.95698591974408,3363028725
iw,-69.0282211303711,-61.1148796081543,-94.36742674708718,23.045994649513684,3363045392
iw,-71.1339721679687,-61.9089431762695,-117.13946559180982,28.20359102355868,3363062059
iw,-73.6298599243164,-62.8714485168457,-136.47964307186118,33.75205816263965,3363078726
iw,-76.2550430297851,-63.9156188964843,-151.24832777696824,38.993711193279175,3363095393
iw,-78.6887283325195,-65.0752029418945,-160.9305220538053,43.39374622399454,3363112060
iw,-81.0583343505859,-66.4417419433593,-165.65345204101808,46.70871555721483,3363128727
iw,-83.4190979003906,-67.7014617919921,-166.0554527024501,49.03194015223972,3363145394
iw,-85.5733184814453,-68.9242706298828,-163.07594964118118,50.74758526448991,3363162061
iw,-87.12744140625,-70.146125793457,-157.74448683819855,52.4081731479678,3363178728
iw,-86.8972015380859,-71.4184494018554,-151.02114913389713,54.57090911118832,3363195395
iw,-85.1470413208007,-72.7065963745117,-143.70267844221786,57.63882280742027,3363212062
iw,-83.0562973022461,-74.0261535644531,-136.37834970195502,61.74923071666719,3363228729
iw,-80.9086532592773,-75.3490142822265,-129.40869865233117,66.73710803014052,3363245396
iw,-78.8233871459961,-76.7568893432617,-122.90901728379885,72.18043680627386,3363262063
iw,-76.8873825073242,-78.2979736328125,-116.73888964294504,77.51311851821697,3363278730
iw,-75.1361007690429,-79.8842544555664,-110.51616810406756,82.17253509560166,3363295397
iw,-73.4845504760742,-81.4476013183593,-103.67904827248066,85.73856772594829,3363312064
iw,-71.9205093383789,-82.9835968017578,-95.60881229316396,88.02387702290143,3363328731
iw,-70.4108047485351,-84.4789123535156,-85.80014187112296,89.09160810804946,3363345398
iw,-68.9414138793945,-85.8970642089843,-74.03560927110571,89.19985656658224,3363362065
iw,-67.7006683349609,-87.1776351928711,-60.502398266454875,88.6934260053329,3363378732
iw,-66.8875427246093,-88.1814575195312,-45.797655983584114,87.87686991452209,3363395399
iw,-66.6263961791992,-88.4077529907226,-30.80759951014518,86.90655300336402,3363412066
iw,-66.4216918945312,-87.5867080688476,-16.498680231455566,85.73311598895205,3363428733
iw,-66.4471435546875,-86.3408813476562,-3.696317028487657,84.10987007881408,3363445400
iw,-66.4029083251953,-84.971694946289,7.075504147520645,81.66053355358366,3363462067
iw,-66.7376861572265,-83.5394058227539,15.657411787397972,77.97840387924073,3363478734
iw,-67.3489532470703,-82.1754989624023,22.226875159007363,72.71751177412058,3363495401
iw,-67.9020843505859,-81.0464096069336,27.208430836200396,65.64136738747321,3363512068
iw,-68.3167037963867,-80.1934051513671,31.153334724286836,56.61694079580074,3363528735
iw,-68.777099609375,-79.5348968505859,34.61860923992479,45.57149406353775,3363545402
iw,-69.3361129760742,-79.1157913208007,38.0765778788947,32.45171615066818,3363562069
iw,-70.3243103027343,-78.8987808227539,41.87794966899129,17.224599812866202,3363578736
iw,-71.8169784545898,-78.8109054565429,46.26420167309719,-0.06410533635106797,3363595403
iw,-73.0729293823242,-78.9135131835937,51.391455081837954,-19.1938952730423,3363612070
iw,-73.7386322021484,-79.3096237182617,57.319606730434764,-39.685627382677254,3363628737
iw,-74.589126586914,-80.3211288452148,63.954095230108486,-60.78474620764682,3363645404
iw,-75.9742355346679,-81.8983306884765,70.97881549005032,-81.5396978225102,3363662071
iw,-77.5543518066406,-83.6829528808593,77.84086035287477,-100.95591375944166,3363678738
iw,-79.0629806518554,-85.5437698364257,83.82303211206016,-118.16549702780384,3363695405
iw,-80.6017532348632,-86.6547317504882,88.19466698808398,-132.54519574915838,3363712072
iw,-82.2529602050781,-85.7866744995117,90.39880126734018,-143.74346198059357,3363728739
iw,-83.9895401000976,-83.6719741821289,90.22222262242308,-151.62327604949874,3363745406
iw,-85.7222671508789,-81.3729248046875,87.89628766263642,-156.16681726029114,3363762073
iw,-87.51904296875,-79.0963287353515,84.08843751641653,-157.40238787340593,3363778740
iw,-89.2274780273437,-76.7947463989257,79.77207275686817,-155.39634691628473,3363795407
iw,-90.0,-74.4746627807617,76.00350695616748,-150.3120518874427,3363812074
iw,-88.2389678955078,-72.1616744995117,73.67276870941888,-142.495502683799,3363828741
iw,-86.7683868408203,-69.8726501464843,73.30825896810386,-132.5257857662079,3363845408
iw,-85.3570022583007,-67.6636276245117,74.99277817938346,-121.17856008841505,3363862075
iw,-83.9883651733398,-65.6626968383789,78.40128797128324,-109.2890165674098,3363878742
iw,-82.5665588378906,-63.9853172302246,82.92549406489292,-97.55191208289223,3363895409
iw,-81.0375061035156,-62.5842590332031,87.82864242581591,-86.338356282071,3363912076
iw,-79.4734268188476,-61.2783126831054,92.3795434035237,-75.6186198543123,3363928743
iw,-77.9421310424804,-59.9605369567871,95.93808458196106,-65.04414420955425,3363945410
iw,-76.4550628662109,-58.7355232238769,97.99262688244765,-54.17063967353641,3363962077
iw,-74.9329833984375,-57.7769050598144,98.17078657274955,-42.73295549517259,3363978744
iw,-73.2653350830078,-57.1472625732421,96.24898684507072,-30.852039338863584,3363995411
iw,-71.5573806762695,-56.8826255798339,92.16986556542298,-19.08327061259165,3364012078
iw,-69.9266967773437,-56.9191436767578,86.05077724707141,-8.287279625235595,3364028745
iw,-68.5411758422851,-57.0015220642089,78.15171896922982,0.6203740033106051,3364045412
iw,-67.447998046875,-57.054874420166,68.78239529743402,6.9431669072116025,3364062079
iw,-66.6157073974609,-57.3828773498535,58.162786747150136,10.411246745227212,3364078746
iw,-66.0628585815429,-57.8154907226562,46.28936867281024,11.273278772871262,3364095413
iw,-65.7136306762695,-58.2580528259277,32.876579997223665,10.265024303866477,3364112080
iw,-65.4886093139648,-58.6814002990722,17.42708948225799,8.470774544412032,3364128747
iw,-65.3671112060546,-58.9553108215332,-0.5627220129710884,7.104149998976875,3364145414
iw,-65.3504333496093,-59.0216255187988,-21.31710672775848,7.247484556284448,3364162081
iw,-65.6946716308593,-59.3970184326171,-44.519478742245816,9.607117604165579,3364178748
iw,-66.6422119140625,-60.164321899414,-69.18959373153115,14.350648630831007,3364195415
iw,-68.2883377075195,-60.8821907043457,-93.77158636351476,21.075947142099608,3364212082
iw,-70.4570617675781,-61.6284370422363,-116.42367362110146,28.923373726700422,3364228749
iw,-72.9576110839843,-62.6859397888183,-135.41741359771893,36.80072278414516,3364245416
iw,-75.5612258911132,-63.8977813720703,-149.51131002796612,43.660217175270816,3364262083
iw,-77.9756851196289,-65.1773529052734,-158.18003867801804,48.75439956851063,3364278750
iw,-80.2798614501953,-66.5593109130859,-161.64440666111932,51.805453622196886,3364295417
iw,-82.5457077026367,-67.8446350097656,-160.723866249722,53.04886477993552,3364312084
iw,-84.6789932250976,-69.0854187011718,-156.58726130510811,53.14825431311642,3364328751
iw,-86.5317459106445,-70.3633804321289,-150.49060999343024,53.01127475992351,3364345418
iw,-87.4043731689453,-71.7060623168945,-143.5684066385956,53.557647590914186,3364362085
iw,-86.3487014770507,-73.0674438476562,-136.70584931173676,55.49632348223434,3364378752
iw,-84.5160598754882,-74.4004287719726,-130.48335263114262,59.161318305873145,3364395419
iw,-82.4645156860351,-75.7474899291992,-125.16582091969586,64.44021444263358,3364412086
iw,-80.4314575195312,-77.1962890625,-120.71149452968858,70.80942199222149,3364428753
iw,-78.5229339599609,-78.8101425170898,-116.79170192787396,77.46690024318355,3364445420
iw,-76.772964477539,-80.5143585205078,-112.8313452751969,83.5283927590868,3364462087
iw,-75.0952758789062,-82.2192916870117,-108.0895043461044,88.23485256804912,3364478754
iw,-73.4157104492187,-83.8708114624023,-101.79281368935057,91.11581682017051,3364495421
iw,-71.7758255004882,-85.468879699707,-93.3109169315412,92.06876499827948,3364512088
iw,-70.2532043457031,-87.0183029174804,-82.33427458070267,91.34098913634952,3364528755
iw,-68.9758605957031,-88.4747924804687,-68.99808265887869,89.42693967262191,3364545422
iw,-68.0198974609375,-89.6384658813476,-53.90479774173212,86.91256519654543,3364562089
iw,-67.4855651855468,-88.6436157226562,-38.0294107494262,84.3068551930522,3364578756
iw,-67.1546630859375,-87.3011474609375,-22.530459184506505,81.90052523044164,3364595423
iw,-66.9453048706054,-85.977912902832,-8.517227753537908,79.6837325002788,3364612090
iw,-67.0417861938476,-84.7025070190429,3.170086505983037,77.34046915237562,3364628757
iw,-67.3857955932617,-83.3917083740234,12.120936403043288,74.31917984585674,3364645424
iw,-67.9154357910156,-82.0282897949218,18.425182725939774,69.95976494041301,3364662091
iw,-68.4585189819336,-80.724983215332,22.639204743051526,63.64043579247973,3364678758
iw,-68.8954467773437,-79.7226486206054,25.65189552971261,54.90128466559238,3364695425
iw,-69.3232879638671,-79.09228515625,28.480072377984683,43.512614697672824,3364712092
iw,-69.8170700073242,-78.7508392333984,32.04467649405084,29.483559539491225,3364728759
iw,-70.5458984375,-78.6627120971679,36.98429938610129,13.034712048261106,3364745426
iw,-71.5059738159179,-78.7323303222656,43.54621261652839,-5.432480519302797,3364762093
iw,-72.5621643066406,-78.9317855834961,51.56659166169473,-25.353658972863162,3364778760
iw,-73.5705184936523,-79.4792556762695,60.52697326465425,-46.01973631735922,3364795427
iw,-74.9378204345703,-80.6887512207031,69.66259850790765,-66.6237170493816,3364812094
iw,-76.5020675659179,-82.4607925415039,78.09765246759329,-86.35032956162001,3364828761
iw,-78.0281753540039,-84.3199768066406,84.98613253363412,-104.48776873216212,3364845428
iw,-79.5915145874023,-86.1512222290039,89.64385376012639,-120.5149783701767,3364862095
iw,-81.192642211914,-87.0276412963867,91.66526998860527,-134.12377690880263,3364878762
iw,-82.9318161010742,-85.6159515380859,91.01899521991177,-145.1674232138889,3364895429
iw,-84.6917190551757,-83.2324447631836,88.10224056485208,-153.56272707294292,3364912096
iw,-86.3776092529296,-80.8126525878906,83.7194893609933,-159.19375671004275,3364928763
iw,-88.0249404907226,-78.4731292724609,78.95742609333399,-161.86586251002592,3364945430
iw,-89.7323913574218,-76.0560150146484,74.96456468392718,-161.33922469738278,3364962097
iw,-89.2736892700195,-73.5907211303711,72.6920742948512,-157.4364441600007,3364978764
iw,-87.8404312133789,-71.0950469970703,72.68060798731045,-150.18162330882907,3364995431
iw,-86.3010101318359,-68.5951843261718,74.96542374828095,-139.9061829441673,3365012098
iw,-84.7366790771484,-66.1836013793945,79.12306856873046,-127.2624223163297,3365028765
iw,-83.2009582519531,-64.0060577392578,84.4247334251431,-113.12138707681292,3365045432
iw,-81.6733856201171,-62.2658004760742,90.02624693608186,-98.38476249515791,3365062099
iw,-80.1514205932617,-60.8933448791503,95.12762139848583,-83.78679066471705,3365078766
iw,-78.5877914428711,-59.5998611450195,99.06635819948553,-69.77385896004,3365095433
iw,-76.9889221191406,-58.2823944091796,101.34555494877031,-56.512612948626504,3365112100
iw,-75.3429183959961,-57.1800880432128,101.62145290632822,-44.008265489151334,3365128767
iw,-73.6650009155273,-56.4776649475097,99.67885076360211,-32.255862080314145,3365145434
iw,-72.0372772216796,-56.1296806335449,95.41116445276478,-21.338717650320163,3365162101
iw,-70.4606781005859,-56.0515327453613,88.80502828949359,-11.4338834770768,3365178768
iw,-69.0017852783203,-56.0545043945312,79.91768141623635,-2.747409128645815,3365195435
iw,-67.8002471923828,-56.031265258789,68.83577718960308,4.5639655610065395,3365212102
iw,-66.9910125732421,-56.2837562561035,55.618097704693376,10.4411949461719,3365228769
iw,-66.53076171875,-56.7356185913085,40.246360480653074,14.936260793545108,3365245436
iw,-66.3780517578125,-57.3576545715332,22.62419729115253,18.210533069755286,3365262103
iw,-66.3428192138671,-58.0150337219238,2.6576725227359765,20.532139578942758,3365278770
iw,-66.3327026367187,-58.5341339111328,-19.585783195016003,22.264972455820413,3365295437
iw,-66.6234130859375,-59.2920722961425,-43.69540529737756,23.832570782883632,3365312104
iw,-67.6277618408203,-60.5843811035156,-68.80266984131582,25.650401346272346,3365328771
iw,-69.1752243041992,-61.7848587036132,-93.61264832727089,28.03695307838493,3365345438
iw,-71.2650985717773,-62.4691772460937,-116.59819879464708,31.12730677263735,3365362105
iw,-73.7922210693359,-63.2786293029785,-136.29759814982518,34.8231432516637,3365378772
iw,-76.4546966552734,-64.47216796875,-151.60846476602788,38.81447795044804,3365395439
iw,-78.9602279663086,-65.8475036621093,-161.9759754775946,42.68565742757115,3365412106
iw,-81.3723373413086,-67.294563293457,-167.42491132886144,46.074434220548916,3365428773
iw,-83.7471237182617,-68.6753768920898,-168.45296464232334,48.81871673386389,3365445440
iw,-85.9263381958007,-70.0461120605468,-165.85109630217462,51.02770336278006,3365462107
iw,-87.4117736816406,-71.4322204589843,-160.52517876679292,53.048814373062086,3365478774
iw,-86.8416671752929,-72.8504562377929,-153.36702239172956,55.34465674315992,3365495441
iw,-84.8619155883789,-74.2655410766601,-145.18340637663113,58.3249907709174,3365512108
iw,-82.6675949096679,-75.6409454345703,-136.66005973085137,62.19113941989194,3365528775
iw,-80.4824600219726,-77.0112686157226,-128.32665692695582,66.845515775119,3365545442
iw,-78.4277267456054,-78.4689788818359,-120.50137779886762,71.89838216378396,3365562109
iw,-76.5532684326171,-80.011116027832,-113.22132006025126,76.7715644218229,3365578776
iw,-74.8810272216796,-81.6037063598632,-106.19305946725905,80.86497680089795,3365595443
iw,-73.3034133911132,-83.1844482421875,-98.81035669263348,83.72995445458209,3365612110
iw,-71.7516403198242,-84.6829757690429,-90.2730939912755,85.19221285851054,3365628777
iw,-70.2719650268554,-86.1151657104492,-79.80385152695489,85.38592335934788,3365645444
iw,-68.9415969848632,-87.4780349731445,-66.91123121302438,84.69016829037304,3365662111
iw,-67.8700942993164,-88.6377182006836,-51.61551728967718,83.5887993533218,3365678778
iw,-67.0956649780273,-89.0308609008789,-34.550958230660385,82.49639734350659,3365695445
iw,-66.8727340698242,-88.1848983764648,-16.893326486972025,81.60289217582101,3365712112
iw,-66.9905548095703,-86.9650115966796,-0.1195222317854954,80.78535869214559,3365728779
iw,-67.5136947631836,-85.6181411743164,14.33420906681398,79.6161039885158,3365745446
iw,-68.0292053222656,-84.1747589111328,25.41217960537129,77.46433559186559,3365762113
iw,-68.7676010131836,-82.7308349609375,32.67669231212185,73.65508001657078,3365778780
iw,-69.6009674072265,-81.4450149536132,36.38116273776642,67.62879357939426,3365795447
iw,-70.2769546508789,-80.410400390625,37.371481700668646,59.049236089266515,3365812114
iw,-70.755386352539,-79.6567001342773,36.8569535290898,47.83442080596918,3365828781
iw,-71.2738037109375,-79.2182006835937,36.12358142235143,34.12171243233434,3365845448
iw,-71.9704284667968,-79.0306625366211,36.269954362658225,18.204492847824003,3365862115
iw,-72.8274459838867,-79.0481262207031,38.02630438256992,0.4813466329699211,3365878782
iw,-73.6992950439453,-79.2227630615234,41.67950398837481,-18.560975843190644,3365895449
iw,-74.4968643188476,-79.6482543945312,47.09214859632649,-38.340255359012396,3365912116
iw,-75.4601593017578,-80.5650177001953,53.78752921318224,-58.17878138735443,3365928783
iw,-76.7901611328125,-82.0395736694336,61.070223457103744,-77.34004518247936,3365945450
iw,-78.0962905883789,-83.7624435424804,68.15396116365304,-95.10549318661461,3365962117
iw,-79.4258651733398,-85.5662384033203,74.27577319795994,-110.8640256483423,3365978784
iw,-80.8065567016601,-86.8737564086914,78.79281875870015,-124.17480482237794,3365995451
iw,-82.282485961914,-86.2518997192382,81.27374623046973,-134.7776173020225,3366012118
iw,-83.8765029907226,-84.1750946044921,81.5899239913514,-142.55309376768395,3366028785
iw,-85.4654235839843,-81.8879241943359,79.9841065527851,-147.46052719545938,3366045452
iw,-87.0413742065429,-79.6933212280273,77.07171269613848,-149.4915991171347,3366062119
iw,-88.5920867919921,-77.4938507080078,73.73894363597418,-148.66862833241578,3366078786
iw,-90.0,-75.2423629760742,70.94329950670279,-145.08945578762172,3366095453
iw,-88.9556427001953,-72.9681777954101,69.47148675256742,-138.99126646098392,3366112120
iw,-87.5033111572265,-70.6835098266601,69.73693078919214,-130.78945611975112,3366128787
iw,-86.1368026733398,-68.4446945190429,71.68788239064344,-121.05466202346244,3366145454
iw,-84.8388977050781,-66.4118499755859,74.85406799713658,-110.41870106666335,3366162121
iw,-83.4791717529296,-64.6547622680664,78.50791346762885,-99.43647176032796,3366178788
iw,-81.999282836914,-63.1430854797363,81.8788976084746,-88.45941564499736,3366195455
iw,-80.4852676391601,-61.7493095397949,84.34826077195622,-77.58103433949077,3366212122
iw,-79.0391387939453,-60.3961448669433,85.56574174557502,-66.68877219711422,3366228789
iw,-77.6910018920898,-59.1372261047363,85.46292262241563,-55.607999150618745,3366245456
iw,-76.4009704589843,-58.2243995666503,84.17697429532194,-44.27723605739205,3366262123
iw,-75.1136474609375,-57.605052947998,81.9284874865425,-32.876032781902985,3366278790
iw,-73.8131332397461,-57.2008361816406,78.90492873041654,-21.848606835053463,3366295457
iw,-72.5068588256836,-57.0806083679199,75.18540548943655,-11.81394445614887,3366312124
iw,-71.1674575805664,-57.0278854370117,70.713669813271,-3.4002222245931293,3366328791
iw,-69.8965606689453,-56.9654121398925,65.30126759444019,2.93348258345194,3366345458
iw,-68.9184341430664,-57.1759376525878,58.63528160701312,7.0296402461029075,3366362125
iw,-68.2326431274414,-57.4988899230957,50.279700240341676,9.086010130336478,3366378792
iw,-67.7502975463867,-57.8733482360839,39.6869987814672,9.626777816935293,3366395459
iw,-67.462532043457,-58.2826957702636,26.256564393405156,9.40576502385386,3366412126
iw,-67.3485946655273,-58.5521736145019,9.469793154752143,9.264107560250029,3366428793
iw,-67.2728652954101,-58.8248062133789,-10.905168195694372,9.96859795201947,3366445460
iw,-67.4317779541015,-59.1954345703125,-34.59585026964266,12.060800907655963,3366462127
iw,-68.2296981811523,-59.9731941223144,-60.68549944264864,15.748710016801091,3366478794
