Label,Left_Hip_q,Right_Hip_q,Left_Hip_qd,Right_Hip_qd,SampleTimeFine
iw,-67.2413177490234,-86.976448059082,-36.032054901123,74.7814712524414,3164008078
iw,-67.0082321166992,-85.6258850097656,-12.554134807823477,77.81884366278481,3164024745
iw,-66.9673385620117,-84.2094573974609,-4.838056717467263,76.4370650161614,3164041412
iw,-67.0297927856445,-82.7883377075195,2.5196697312198677,73.94465100463219,3164058079
iw,-67.2281799316406,-81.4870147705078,9.247862729063892,69.45088340851454,3164074746
iw,-67.5903244018554,-80.4608001708984,15.245422011794316,62.27838726026104,3164091413
iw,-68.0711212158203,-79.7070007324218,20.613606604217548,52.00148834418586,3164108080
iw,-68.6257781982421,-79.1707687377929,25.631644657526152,38.45504902743146,3164124747
iw,-69.0096130371093,-78.8089294433593,30.67919197685433,21.736196292710908,3164141414
iw,-69.2865219116211,-78.6725387573242,36.12679119529417,2.212088444686852,3164158081
iw,-70.3792572021484,-78.8174896240234,42.228327148116264,-19.47576481865508,3164174748
iw,-71.6173706054687,-79.4370956420898,49.04540670222418,-42.43774799571819,3164191415
iw,-72.6494979858398,-80.6803817749023,56.4143438286728,-65.61638724555561,3164208082
iw,-73.5634460449218,-82.3203887939453,63.95263804993228,-87.91782594470814,3164224749
iw,-74.9474563598632,-84.2088394165039,71.10523276211498,-108.35948865265907,3164241416
iw,-76.5543365478515,-86.0218200683593,77.23427380214754,-126.1832120845239,3164258083
iw,-78.0900573730468,-86.6961898803711,81.74189649334782,-140.89547729591834,3164274750
iw,-79.6340942382812,-85.42919921875,84.19699207151278,-152.22965708271914,3164291417
iw,-81.1341552734375,-83.331672668457,84.43655043076302,-160.06103002734605,3164308084
iw,-82.7111053466796,-81.0575637817382,82.6259840058389,-164.32556961707027,3164324751
iw,-84.3321685791015,-78.6680679321289,79.26970400048666,-164.98811320767538,3164341418
iw,-85.95654296875,-76.1530685424804,75.15864880112107,-162.07680242868634,3164358085
iw,-87.4905624389648,-73.640754699707,71.24267671613264,-155.76287655559068,3164374752
iw,-88.6840362548828,-71.0999908447265,68.43788696790686,-146.436776916768,3164391419
iw,-88.8996200561523,-68.5912704467773,67.41554714370501,-134.72681772619893,3164408086
iw,-88.0190048217773,-66.3009262084961,68.44475171389477,-121.42868615624373,3164424753
iw,-86.7175903320312,-64.3290481567382,71.35069474353794,-107.35536716800065,3164441420
iw,-85.3563690185546,-62.7350349426269,75.60327893507345,-93.16097878033811,3164458087
iw,-84.0166015625,-61.3755416870117,80.49366782057349,-79.21591326969475,3164474754
iw,-82.6706237792968,-60.1055030822753,85.3242722399882,-65.5968478306863,3164491421
iw,-81.2368698120117,-58.8735885620117,89.54531215983641,-52.20434897948399,3164508088
iw,-79.734634399414,-57.9238243103027,92.80540890458033,-38.95701555573298,3164524755
iw,-78.2462005615234,-57.3438186645507,94.92135752256073,-25.97037110369462,3164541422
iw,-76.7879028320312,-57.0525779724121,95.79866446309369,-13.63584114261624,3164558089
iw,-75.2695846557617,-57.0981979370117,95.34529387943675,-2.565527412602035,3164574756
iw,-73.682144165039,-57.2365531921386,93.41540440951641,6.568565783386972,3164591423
iw,-72.1151657104492,-57.4455986022949,89.79956795500928,13.231421767524504,3164608090
iw,-70.5761413574218,-57.8030319213867,84.25198498269067,17.187066104415152,3164624757
iw,-69.1666564941406,-58.1914100646972,76.52762211111606,18.583890179821573,3164641424
iw,-68.0554580688476,-58.6997947692871,66.40346896591217,17.955308132245317,3164658091
iw,-67.3369674682617,-59.3070335388183,53.67818593585235,16.145293871028375,3164674758
iw,-66.9066085815429,-59.6523857116699,38.17165803424972,14.169616131930866,3164691425
iw,-66.704231262207,-59.8889694213867,19.761442410260997,13.026660466042816,3164708092
iw,-66.6729354858398,-60.3050308227539,-1.518937380229515,13.4891937282227,3164724759
iw,-66.7803115844726,-60.8927001953125,-25.33394745260123,15.930160047583271,3164741426
iw,-67.3388900756836,-61.4710884094238,-50.91140777650486,20.239805560178677,3164758093
iw,-68.4857559204101,-62.2509307861328,-76.99909865679929,25.868918602727163,3164774760
iw,-70.2103424072265,-63.4372406005859,-101.96952072884888,31.9924096007583,3164791427
iw,-72.4258270263671,-64.7247161865234,-124.0705561813482,37.745177519536604,3164808094
iw,-75.00439453125,-65.9964065551757,-141.75502376081528,42.45668239784253,3164824761
iw,-77.7192459106445,-67.3136978149414,-153.98538480019445,45.81518524139853,3164841428
iw,-80.2502899169921,-68.6619796752929,-160.4180744350504,47.9228040923606,3164858095
iw,-82.6547164916992,-69.9725189208984,-161.41918143384612,49.23862497771981,3164874762
iw,-84.9940719604492,-71.2587585449218,-157.92572615400834,50.4333696079332,3164891429
iw,-87.1385116577148,-72.5507125854492,-151.21502071523736,52.19421067418384,3164908096
iw,-88.4703063964843,-73.8564224243164,-142.65916329955547,55.02684491664204,3164924763
iw,-87.2834396362304,-75.1641464233398,-133.52331051436275,59.10408015139456,3164941430
iw,-85.3499221801757,-76.4867248535156,-124.83158555854851,64.20207486880989,3164958097
iw,-83.3759384155273,-77.9002914428711,-117.29351674146349,69.74503479531012,3164974764
iw,-81.4337005615234,-79.4585189819336,-111.26994881069282,74.9499079074446,3164991431
iw,-79.581802368164,-81.0807266235351,-106.76197865859268,79.03240862595955,3165008098
iw,-77.8687210083007,-82.6479034423828,-103.42181202174517,81.41515950053865,3165024765
iw,-76.2465591430664,-84.1251068115234,-100.59913061605235,81.87716290504548,3165041432
iw,-74.615852355957,-85.5469818115234,-97.44008091120662,80.60307383771632,3165058099
iw,-72.9701232910156,-86.8706893920898,-93.04270085877502,78.12251711078942,3165074766
iw,-71.4308166503906,-88.0893096923828,-86.64686766393862,75.16099740276867,3165091433
iw,-70.0467681884765,-89.3045120239257,-77.81327621985231,72.44541079156997,3165108100
iw,-68.8631744384765,-89.670166015625,-66.53985519526026,70.51523286454169,3165124767
iw,-67.992935180664,-88.3973388671875,-53.279973354859166,69.58505201764282,3165141434
iw,-67.4248046875,-87.2422485351562,-38.856550771469685,69.48806130849309,3165158101
iw,-67.0764923095703,-86.0742492675781,-24.295985605754982,69.70911831695722,3165174768
iw,-66.9720993041992,-84.8192672729492,-10.624578032919139,69.49530084350727,3165191435
iw,-67.0388031005859,-83.4693756103515,1.3261390541142584,68.01385136143075,3165208102
iw,-67.276985168457,-82.1774749755859,11.0669944665147,64.51455707238873,3165224769
iw,-67.804946899414,-81.1118469238281,18.526853198424053,58.45231614220879,3165241436
iw,-68.39990234375,-80.3604888916015,24.044308283644234,49.54188267629431,3165258103
iw,-68.8870086669921,-79.8885726928711,28.275576127688886,37.74691701890235,3165274770
iw,-69.3793182373046,-79.6184844970703,32.03480604724147,23.233674571983524,3165291437
iw,-69.7669525146484,-79.5031509399414,36.102768489343596,6.328002201313297,3165308104
iw,-70.5656356811523,-79.5713806152343,41.05304824280571,-12.502635855217877,3165324771
iw,-71.8379745483398,-79.9501266479492,47.13860953540018,-32.64980165943788,3165341438
iw,-72.9635925292968,-80.8915328979492,54.256541640015584,-53.3748652582747,3165358105
iw,-73.873062133789,-82.2937545776367,61.983385955718695,-73.8530089500082,3165374772
iw,-75.1674041748046,-83.8673248291015,69.66442140154489,-93.2498835168169,3165391439
iw,-76.7807464599609,-85.5353317260742,76.5413682842758,-110.80723926285275,3165408106
iw,-78.3151779174804,-86.647720336914,81.89777937760107,-125.90797953861465,3165424773
iw,-79.8539810180664,-85.9744033813476,85.19298855498677,-138.1030339735813,3165441440
iw,-81.3588943481445,-84.0669403076171,86.16016728396923,-147.10171174299472,3165458107
iw,-82.9451217651367,-81.9116821289062,84.86004958601441,-152.74358178698648,3165474774
iw,-84.5716934204101,-79.7281036376953,81.69000018910144,-154.97670127818313,3165491441
iw,-86.1720352172851,-77.475601196289,77.341797114825,-153.8603080743557,3165508108
iw,-87.729621887207,-75.1629791259765,72.69680080920864,-149.59206231471072,3165524775
iw,-88.9870223999023,-72.8621826171875,68.66141064314645,-142.54004554715965,3165541442
iw,-89.0130538940429,-70.5217208862304,65.9765697321665,-133.24923166439982,3165558109
iw,-87.9664535522461,-68.1775588989257,65.06116907165848,-122.39711272849013,3165574776
iw,-86.6688690185546,-66.0082473754882,65.94736102395478,-110.6927568587517,3165591443
iw,-85.3552703857421,-64.1931915283203,68.33043570136867,-98.74189678512002,3165608110
iw,-84.1354217529296,-62.746826171875,71.70591591501804,-86.92691628858887,3165624777
iw,-82.8912734985351,-61.4542732238769,75.5319196330653,-75.35913773718426,3165641444
iw,-81.6050415039062,-60.2007827758789,79.353225661728,-63.93852204012851,3165658111
iw,-80.2957229614257,-58.9722213745117,82.84954599435407,-52.50616271600856,3165674778
iw,-78.981201171875,-58.0817489624023,85.80685524756626,-41.02341075910749,3165691445
iw,-77.6666259765625,-57.5494956970214,88.04224889577823,-29.69190914855426,3165708112
iw,-76.3126678466796,-57.3032875061035,89.33017037429994,-18.957014292253778,3165724779
iw,-74.8776168823242,-57.3204040527343,89.37475617216177,-9.396125405315669,3165741446
iw,-73.3569259643554,-57.2950706481933,87.84890765171491,-1.5464329856926793,3165758113
iw,-71.8062667846679,-57.306167602539,84.4844698028858,4.255335908849521,3165774780
iw,-70.275405883789,-57.5152549743652,79.16633474608773,7.968131637875384,3165791447
iw,-68.8768692016601,-57.7456703186035,71.97305949410418,9.8604666145531,3165808114
iw,-67.8180694580078,-58.136863708496,63.12598860069071,10.455871106125274,3165824781
iw,-67.1675491333007,-58.5675354003906,52.85329492457143,10.43352002530318,3165841448
iw,-66.7947463989257,-58.8836402893066,41.22655092111703,10.505727789903283,3165858115
iw,-66.5620880126953,-59.186164855957,28.05818148178223,11.291239567246333,3165874782
iw,-66.4018173217773,-59.5268669128418,12.935526322557886,13.205159347954783,3165891449
iw,-66.2182235717773,-60.3312187194824,-4.590633674437313,16.388263824138754,3165908116
iw,-66.1761703491211,-61.352310180664,-24.723229493188523,20.692375632683298,3165924783
iw,-66.6795806884765,-62.1817779541015,-47.159334315201065,25.72433656017366,3165941450
iw,-67.7801513671875,-62.9770851135253,-70.97467000385183,30.937563274480024,3165958117
iw,-69.3951339721679,-63.9376068115234,-94.7164837678542,35.75318011707354,3165974784
iw,-71.585220336914,-65.0209808349609,-116.68121653389137,39.689504181295895,3165991451
iw,-74.1061859130859,-66.2773666381836,-135.27861561631107,42.4753586336632,3166008118
iw,-76.6526412963867,-67.579360961914,-149.35607120361686,44.12163747775193,3166024785
iw,-79.1026382446289,-68.7666015625,-158.3840526071375,44.93110686979739,3166041452
iw,-81.5833892822265,-69.9680252075195,-162.46776383781287,45.43891042803518,3166058119
iw,-84.0418548583984,-71.1990280151367,-162.21745947906044,46.29224780488545,3166074786
iw,-86.3629913330078,-72.4359359741211,-158.54899688904194,48.09307574651088,3166091453
iw,-88.2957916259765,-73.6945190429687,-152.48688208838547,51.239172854392,3166108120
iw,-87.7867126464843,-74.9351959228515,-145.0155320426266,55.804032398435055,3166124787
iw,-85.7769165039062,-76.2001800537109,-136.98963050804997,61.4920260000265,3166141454
iw,-83.6269836425781,-77.5592041015625,-129.0872226479951,67.68970100384365,3166158121
iw,-81.4850234985351,-79.0910568237304,-121.77897782790268,73.60794828347261,3166174788
iw,-79.4561309814453,-80.70263671875,-115.29485530770987,78.4797808524552,3166191455
iw,-77.6117324829101,-82.337532043457,-109.58885489881956,81.7560059455687,3166208122
iw,-75.9355087280273,-83.8813781738281,-104.32372317248438,83.2375463682431,3166224789
iw,-74.3401794433593,-85.3485717773437,-98.90896667896837,83.10266529624296,3166241456
iw,-72.7630920410156,-86.7349319458007,-92.6167796108084,81.82259620298946,3166258123
iw,-71.2252807617187,-88.0294036865234,-84.76951567638571,79.99549036167998,3166274790
iw,-69.7183074951171,-89.393814086914,-74.95192901816304,78.15290906439354,3166291457
iw,-68.4727020263671,-90.0,-63.1746300154805,76.59869121795394,3166308124
iw,-67.5938339233398,-88.4075012207031,-49.92124002129283,75.32684404075547,3166324791
iw,-67.1810073852539,-87.0661544799804,-36.05239883440586,74.03794772475189,3166341458
iw,-66.8829879760742,-85.6897888183593,-22.59597662183914,72.2409132168596,3166358125
iw,-66.8355712890625,-84.2786483764648,-10.495064569731129,69.39903191488563,3166374792
iw,-66.8319091796875,-82.9571685791015,-0.3931246897073848,65.06574081593699,3166391459
iw,-66.9528045654296,-81.8878784179687,7.488945460313077,58.96290852011252,3166408126
iw,-67.4132385253906,-81.126106262207,13.366205667584653,50.98222822413733,3166424793
iw,-67.8797149658203,-80.6048507690429,17.80522546600516,41.127391147036846,3166441460
iw,-68.1388702392578,-80.1879119873046,21.569295403965395,29.442066950986547,3166458127
iw,-68.4724349975586,-79.9346008300781,25.430734420879972,15.970545005812957,3166474794
iw,-68.7518234252929,-79.874282836914,29.996815000155344,0.7736489080009512,3166491461
iw,-69.4312133789062,-80.0341186523437,35.59557344277064,-16.012004331620098,3166508128
iw,-70.7598724365234,-80.4940948486328,42.24627288756648,-34.10769080712328,3166524795
iw,-72.0739669799804,-81.4755325317382,49.701367489162884,-53.057658855776594,3166541462
iw,-72.8163299560546,-82.8211593627929,57.519462937913794,-72.24556948217182,3166558129
iw,-73.8774185180664,-84.3379440307617,65.13639405710813,-90.95584685935205,3166574796
iw,-75.4230804443359,-85.9132385253906,71.93249434590426,-108.45496734584252,3166591463
iw,-76.93505859375,-86.7903289794921,77.31053161034248,-124.06519551256925,3166608130
iw,-78.4109191894531,-85.7434768676757,80.78698297888093,-137.21300378561605,3166624797
iw,-79.8540344238281,-83.5554885864257,82.08345485998427,-147.4482564363848,3166641464
iw,-81.3802185058593,-81.1716766357421,81.20327205777758,-154.44312888045152,3166658131
iw,-82.9690170288086,-78.8445053100586,78.4791358638187,-157.98810206234162,3166674798
iw,-84.5204238891601,-76.5373229980468,74.56979764215987,-158.00174220778337,3166691465
iw,-86.0555343627929,-74.203498840332,70.3792902616525,-154.55972495731936,3166708132
iw,-87.4171447753906,-71.9031295776367,66.8903578813417,-147.93158142530683,3166724799
iw,-88.3523025512695,-69.5726852416992,64.94354122111457,-138.599902323319,3166741466
iw,-88.6629486083984,-67.1900558471679,65.03169948818892,-127.23409283707922,3166758133
iw,-88.0411529541015,-64.991828918457,67.18838912779177,-114.60327493793476,3166774800
iw,-86.8167877197265,-63.1377716064453,71.01508379961548,-101.43980565236684,3166791467
iw,-85.460205078125,-61.6758918762207,75.83180724051938,-88.29721267323384,3166808134
iw,-84.0929641723632,-60.3941535949707,80.88349735305957,-75.46522487923086,3166824801
iw,-82.7260818481445,-59.1512756347656,85.51988455534713,-62.99051286348292,3166841468
iw,-81.3482131958007,-57.9467315673828,89.29229746830816,-50.80314884189638,3166858135
iw,-79.9760284423828,-57.049560546875,91.95559143850525,-38.890725322860995,3166874802
iw,-78.5710830688476,-56.5530090332031,93.40310658457076,-27.432112664797756,3166891469
iw,-77.1292953491211,-56.3228073120117,93.58310421964836,-16.822692871262486,3166908136
iw,-75.646743774414,-56.3501625061035,92.4427603003417,-7.58048953308903,3166924803
iw,-74.1181335449218,-56.40474319458,89.92396378005346,-0.18151212468868325,3166941470
iw,-72.5434341430664,-56.4671096801757,86.00320285902419,5.100524527636342,3166958137
iw,-70.9899749755859,-56.6601028442382,80.73925117139181,8.289363290489995,3166974804
iw,-69.573745727539,-56.9310035705566,74.2812189088761,9.714313347144222,3166991471
iw,-68.4586181640625,-57.3170509338378,66.80478972822733,9.944951499250397,3167008138
iw,-67.6922760009765,-57.703800201416,58.38383990778246,9.68129485615709,3167024805
iw,-67.181411743164,-57.9860725402832,48.851397977534475,9.626157872643033,3167041472
iw,-66.7876815795898,-58.3024253845214,37.73169344559753,10.360477858926542,3167058139
iw,-66.403823852539,-58.6622772216796,24.31184097155404,12.241144233847093,3167074806
iw,-66.0352401733398,-59.2944793701171,7.8657172377412055,15.341592074106272,3167091473
iw,-65.837776184082,-60.4141044616699,-12.032145644265519,19.450608890342764,3167108140
iw,-66.1173934936523,-61.3914222717285,-35.2194665405071,24.131667501759143,3167124807
iw,-67.0634002685546,-62.127628326416,-60.805673518361196,28.82937347893951,3167141474
iw,-68.5872573852539,-63.0318946838378,-87.24424121311857,32.99971647674991,3167158141
iw,-70.6343765258789,-64.1408538818359,-112.60089995384836,36.238227163055946,3167174808
iw,-73.0723800659179,-65.3684387207031,-134.92881101346464,38.38021148076062,3167191475
iw,-75.6830749511718,-66.7045364379882,-152.6323800228667,39.549319817833,3167208142
iw,-78.3463439941406,-67.9511032104492,-164.72037543783304,40.13931821076905,3167224809
iw,-81.0303573608398,-69.1561660766601,-170.9001181682662,40.72963142981813,3167241476
iw,-83.6317901611328,-70.4036712646484,-171.5217417572659,41.95201115320097,3167258143
iw,-86.0794372558593,-71.6583251953125,-167.42253865612338,44.33723529842086,3167274810
iw,-88.1235122680664,-72.9067459106445,-159.73568049137953,48.17527103906578,3167291477
iw,-87.8983001708984,-74.1469192504882,-149.71635515085464,53.42143315641331,3167308144
iw,-85.8548965454101,-75.3924179077148,-138.610206540095,59.675285707743065,3167324811
iw,-83.6772766113281,-76.7278823852539,-127.55749833839434,66.24606014479203,3167341478
iw,-81.6070709228515,-78.2042846679687,-117.50755075954986,72.29713067858425,3167358145
iw,-79.7101974487304,-79.7151489257812,-109.1222489691356,77.03742589936492,3167374812
iw,-78.0380020141601,-81.2370300292968,-102.67235483497609,79.90931448950175,3167391479
iw,-76.49853515625,-82.7045593261718,-97.960762537646,80.71953099931022,3167408146
iw,-74.9373474121093,-84.0992050170898,-94.3225287537574,79.67491114271273,3167424813
iw,-73.3610000610351,-85.3621520996093,-90.7386106313398,77.31307949868076,3167441480
iw,-71.8750228881836,-86.5141830444336,-86.06117187179767,74.34986320898052,3167458147
iw,-70.4490585327148,-87.6478195190429,-79.3019320149775,71.4894058888786,3167474814
iw,-69.1103820800781,-88.7747497558593,-69.90400211468848,69.25141745952197,3167491481
iw,-68.0145950317382,-89.5394515991211,-57.91470579278195,67.85996918824259,3167508148
iw,-67.3207321166992,-88.7079010009765,-44.00236543455529,67.21488375147955,3167524815
iw,-66.9692459106445,-87.5690841674804,-29.30626266247095,66.94075907351363,3167541482
iw,-66.9001159667968,-86.4082794189453,-15.161620073794111,66.48947111376462,3167558149
iw,-67.012451171875,-85.2320251464843,-2.780894316998583,65.26318665757252,3167574816
iw,-67.2213897705078,-84.0556488037109,7.0174703462907475,62.72525572681682,3167591483
iw,-67.4835739135742,-82.9558868408203,13.96416744892724,58.47356623377968,3167608150
iw,-67.8869934082031,-82.0397720336914,18.35132007290623,52.26369543602012,3167624817
iw,-68.3790283203125,-81.3793487548828,20.916817419477013,43.98615021359418,3167641484
iw,-68.7070846557617,-80.9264144897461,22.643242394724368,33.61919555066682,3167658151
iw,-69.0319137573242,-80.6645736694336,24.526550624790133,21.18866238428633,3167674818
iw,-69.3573303222656,-80.5748748779296,27.370991471805347,6.761374536294419,3167691485
iw,-70.0985641479492,-80.617202758789,31.655335407251798,-9.520988434740465,3167708152
iw,-71.0985412597656,-80.9177093505859,37.488813774699615,-27.386238968471687,3167724819
iw,-72.1286010742187,-81.6742858886718,44.64291383288323,-46.389062018739516,3167741486
iw,-72.7895584106445,-82.8067474365234,52.62736544786244,-65.91216353163068,3167758153
iw,-73.9561462402343,-84.257209777832,60.784332916613984,-85.2191637192148,3167774820
iw,-75.4458084106445,-85.8320007324218,68.38919152112129,-103.54008514557445,3167791487
iw,-76.8047332763671,-86.8556518554687,74.75068158427355,-120.15536873604626,3167808154
iw,-78.2094650268554,-86.1227340698242,79.30129760071152,-134.44890611095258,3167824821
iw,-79.6532440185546,-84.0489654541015,81.67459585791218,-145.92004003060103,3167841488
iw,-81.1760787963867,-81.702278137207,81.77415946856449,-154.16768328227465,3167858155
iw,-82.7572479248046,-79.3979873657226,79.83081292432028,-158.87487918477586,3167874822
iw,-84.2982788085937,-77.1210174560546,76.42199296014707,-159.821387388695,3167891489
iw,-85.8342590332031,-74.7880706787109,72.41526136244543,-156.93468200368025,3167908156
iw,-87.2991180419921,-72.389892578125,68.81670866984773,-150.36381101406982,3167924823
iw,-88.5789413452148,-69.928352355957,66.54877729801377,-140.53856377121687,3167941490
iw,-89.4622268676757,-67.4745483398437,66.22523549999674,-128.17052033922778,3167958157
iw,-88.6228561401367,-65.2588729858398,68.00598694705074,-114.16961148153914,3167974824
iw,-87.2216644287109,-63.4331016540527,71.58805162781034,-99.48663733391886,3167991491
iw,-85.7651062011718,-61.9585609436035,76.33264054777686,-84.93287591268736,3168008158
iw,-84.3204574584961,-60.6643676757812,81.47251120574789,-71.04865597196067,3168024825
iw,-82.8155899047851,-59.4250030517578,86.3179431016562,-58.076311601008406,3168041492
iw,-81.2726974487304,-58.2289276123046,90.39135500388164,-46.043432365644286,3168058159
iw,-79.7819213867187,-57.3824424743652,93.45667938315638,-34.90711039136676,3168074826
iw,-78.3387069702148,-56.9513320922851,95.45184418947107,-24.683184272142515,3168091493
iw,-76.8676300048828,-56.677505493164,96.36684653019505,-15.502202510261505,3168108160
iw,-75.3418884277343,-56.4677505493164,96.12506839009056,-7.580152823933076,3168124827
iw,-73.7436294555664,-56.2953948974609,94.51593803107193,-1.133376202254351,3168141494
iw,-72.1338500976562,-56.256908416748,91.19769437461544,3.718485378970114,3168158161
iw,-70.5374984741211,-56.5262985229492,85.75494973057472,7.026613946330821,3168174828
iw,-69.0731582641601,-56.8490829467773,77.7739140928681,9.044699896336132,3168191495
iw,-67.932258605957,-57.1591186523437,66.8989205450785,10.209914117087742,3168208162
iw,-67.2426681518554,-57.5114097595214,52.85698900868312,11.07383229373345,3168224829
iw,-66.9641494750976,-57.8305168151855,35.470283838611145,12.195480044293062,3168241496
iw,-66.9049377441406,-57.9787292480468,14.69738127462356,14.021933760443293,3168258163
iw,-66.8687133789062,-58.7537994384765,-9.267651343908744,16.790673430262366,3168274830
iw,-66.9768981933593,-60.0500144958496,-35.855859283265495,20.48375484706442,3168291497
iw,-67.7421264648437,-61.0187454223632,-64.01435820948171,24.844485062387776,3168308164
iw,-69.3008041381836,-61.7359161376953,-92.21538487029201,29.445755125226615,3168324831
iw,-71.4256515502929,-62.5938339233398,-118.6296355460007,33.79217178932744,3168341498
iw,-74.0210876464843,-63.7395858764648,-141.43148971816154,37.44159222404866,3168358165
iw,-76.8346328735351,-65.0781631469726,-159.1381205497136,40.12771521248647,3168374832
iw,-79.6388168334961,-66.3958206176757,-170.87007237060848,41.85269739635151,3168391499
iw,-82.4120101928711,-67.6350555419921,-176.4593623771529,42.91497232706427,3168408166
iw,-85.0768203735351,-68.8694381713867,-176.3950142837651,43.853086587934165,3168424833
iw,-87.391731262207,-70.1227645874023,-171.651094154417,45.31334358985131,3168441500
iw,-88.1859817504882,-71.3913192749023,-163.46737451160118,47.87336988336013,3168458167
iw,-86.3986434936523,-72.6863784790039,-153.14545669941154,51.86820700622377,3168474834
iw,-84.145263671875,-73.9766693115234,-141.89500154089225,57.269041667967834,3168491501
iw,-81.9286422729492,-75.2521133422851,-130.73232511767432,63.655860193783816,3168508168
iw,-79.8488998413086,-76.6282196044921,-120.41274557964937,70.30233721951859,3168524835
iw,-77.9417419433593,-78.1583938598632,-111.37749518635985,76.3573080171655,3168541502
iw,-76.230110168457,-79.8139495849609,-103.71288470921118,81.07274978989574,3168558169
iw,-74.6572189331054,-81.4673767089843,-97.14080692093832,84.00725648423989,3168574836
iw,-73.0873718261718,-83.0237731933593,-91.06971985438426,85.13730769995693,3168591503
iw,-71.5605316162109,-84.494873046875,-84.7238772678684,84.8377337169502,3168608170
iw,-70.1775665283203,-85.865119934082,-77.33856016131755,83.73741052425487,3168624837
iw,-68.9208068847656,-87.1376113891601,-68.37582573390185,82.4988103633753,3168641504
iw,-67.8265991210937,-88.417121887207,-57.69678753420025,81.594810299264,3168658171
iw,-66.9742660522461,-90.0,-45.63200221017856,81.15527879921092,3168674838
iw,-66.4976348876953,-89.0002517700195,-32.91971578095381,80.93021625485638,3168691505
iw,-66.3521423339843,-87.4642639160156,-20.524008065070223,80.37441614176076,3168708172
iw,-66.3466491699218,-85.9474029541015,-9.386915296864068,78.81618677771762,3168724839
iw,-66.4142761230468,-84.4845199584961,-0.1918600626048791,75.64621811202184,3168741506
iw,-66.5064468383789,-83.1626434326171,6.792586123462823,70.46178576478312,3168758173
iw,-66.8359451293945,-82.0588836669921,11.75409325498054,63.12442599513987,3168774840
iw,-67.2609405517578,-81.1929702758789,15.267903892021328,53.72508526382576,3168791507
iw,-67.6853408813476,-80.5667648315429,18.148231911972676,42.48517135578401,3168808174
iw,-68.0579681396484,-80.2180557250976,21.25971135652846,29.642776662933244,3168824841
iw,-68.3504562377929,-80.1038970947265,25.33191137868328,15.374313842220367,3168841508
iw,-69.0278854370117,-80.1090316772461,30.818021983970294,-0.2168897769522842,3168858175
iw,-69.9390792846679,-80.158332824707,37.82508690034317,-17.045635891075623,3168874842
iw,-71.0893020629882,-80.5702209472656,46.11768430834968,-34.95692199672783,3168891509
iw,-72.2074737548828,-81.5469284057617,55.1755650280351,-53.65435942141837,3168908176
iw,-73.0253829956054,-82.8415222167968,64.28411901738257,-72.68194610368239,3168924843
iw,-74.5068740844726,-84.3126602172851,72.64802466132659,-91.46311566150557,3168941510
iw,-76.3224639892578,-85.8548965454101,79.52015100186514,-109.37004149318615,3168958177
iw,-77.9077529907226,-86.5039749145507,84.3233710745362,-125.78557214532351,3168974844
iw,-79.2708129882812,-85.1931533813476,86.7357698542173,-140.1315445692563,3168991511
iw,-80.7103958129882,-83.0019912719726,86.72906497936572,-151.8620518827461,3169008178
iw,-82.3836441040039,-80.7203674316406,84.57676373182915,-160.44681853413485,3169024845
iw,-84.0867004394531,-78.4691314697265,80.84796697112056,-165.38325538729714,3169041512
iw,-85.6951599121093,-76.1497726440429,76.37427544496963,-166.2641633055859,3169058179
iw,-87.2177963256836,-73.7899932861328,72.15741598009112,-162.8948214452319,3169074846
iw,-88.4724884033203,-71.3407669067382,69.20249467464832,-155.4174731035082,3169091513
iw,-88.9151992797851,-68.8044509887695,68.30622197706626,-144.38343907812578,3169108180
iw,-88.0163421630859,-66.3653411865234,69.86631243719667,-130.72265203524157,3169124847
iw,-86.6677551269531,-64.2062149047851,73.78037405389304,-115.59518120885232,3169141514
iw,-85.3134155273437,-62.4786720275878,79.46917045638725,-100.15835287580333,3169158181
iw,-83.9626922607421,-61.1279067993164,86.01218017650895,-85.32646142009641,3169174848
iw,-82.5272979736328,-59.919147491455,92.34886429091696,-71.61378311681645,3169191515
iw,-80.9784698486328,-58.6418876647949,97.48846987565605,-59.12172547584365,3169208182
iw,-79.2980880737304,-57.5075492858886,100.67925889047527,-47.66720272003317,3169224849
iw,-77.6117935180664,-56.7778587341308,101.50485507955739,-36.985063954622206,3169241516
iw,-75.9746856689453,-56.3393821716308,99.89587046423868,-26.91062606986964,3169258183
iw,-74.4521942138671,-56.0137290954589,96.06691148036327,-17.473159954335525,3169274850
iw,-73.0089416503906,-55.7913856506347,90.4074878338966,-8.88541145922688,3169291517
iw,-71.6021194458007,-55.7109832763671,83.36264397695103,-1.4598532385592367,3169308184
iw,-70.2585754394531,-55.6789741516113,75.33131154763085,4.502815324630266,3169324851
iw,-69.0142364501953,-55.8841514587402,66.59259409100873,8.818523062744498,3169341518
iw,-68.0298309326171,-56.3174972534179,57.25508232300527,11.500829322267172,3169358185
iw,-67.2891311645507,-56.8304061889648,47.222933780881796,12.807640260363714,3169374852
iw,-66.7938156127929,-57.2756576538085,36.18493594994171,13.239377510605811,3169391519
iw,-66.5023040771484,-57.7327346801757,23.647135368959482,13.473708320482583,3169408186
iw,-66.4231567382812,-58.3891639709472,9.030804146175614,14.234948250506367,3169424853
iw,-66.4991760253906,-58.9665184020996,-8.161272819711375,16.119291205510166,3169441520
iw,-66.7412338256836,-59.6868438720703,-28.13982109544979,19.42079670575988,3169458187
iw,-67.3821487426757,-60.2046432495117,-50.64545271348011,24.019494377515464,3169474854
iw,-68.4871139526367,-61.0668830871582,-74.85620518692726,29.389492292383174,3169491521
iw,-70.1871490478515,-62.4354438781738,-99.4345565599296,34.74861254279532,3169508188
iw,-72.3708190917968,-63.8242454528808,-122.71557989688826,39.309767863740255,3169524855
iw,-74.8328552246093,-65.1320037841796,-142.98799414214747,42.5432168961742,3169541522
iw,-77.4632110595703,-66.4820098876953,-158.790996261287,44.35217486538678,3169558189
iw,-80.2162017822265,-67.8036270141601,-169.15262551470977,45.103409840314015,3169574856
iw,-82.9264068603515,-69.0743408203125,-173.72222717252532,45.511419850768135,3169591523
iw,-85.4576568603515,-70.3768310546875,-172.78387467531994,46.42131147559787,3169608190
iw,-87.5328063964843,-71.691780090332,-167.16706952507485,48.559830647205295,3169624857
iw,-87.9471969604492,-72.9636764526367,-158.09001622216272,52.32609803234059,3169641524
iw,-86.0588684082031,-74.2351837158203,-146.97542812793392,57.6777261013884,3169658191
iw,-83.8827209472656,-75.5669326782226,-135.26796409027293,64.14019483017769,3169674858
iw,-81.7537384033203,-77.0336151123046,-124.26379227861383,70.93381524127918,3169691525
iw,-79.7195816040039,-78.6307220458984,-114.95138058687323,77.17980921711096,3169708192
iw,-77.8732223510742,-80.2688369750976,-107.86823915055605,82.12379054774624,3169724859
iw,-76.2236938476562,-81.8409881591796,-102.9970418667599,85.31054881313051,3169741526
iw,-74.6389541625976,-83.3325042724609,-99.74157428138254,86.66192746485152,3169758193
iw,-72.9932861328125,-84.8036346435546,-97.02154525338477,86.44298555145014,3169774860
iw,-71.3895416259765,-86.2022323608398,-93.49707568089562,85.13676508522482,3169791527
iw,-69.8707427978515,-87.54345703125,-87.88700615397781,83.27246935109798,3169808194
iw,-68.4153823852539,-88.9277191162109,-79.30221628446378,81.2604028582926,3169824861
iw,-67.0681076049804,-90.0,-67.49717353622225,79.28012111328029,3169841528
iw,-66.0757446289062,-88.6354217529296,-52.958940808286954,77.24874285020861,3169858195
iw,-65.6574325561523,-87.2372817993164,-36.79970907539556,74.86963032056951,3169874862
iw,-65.6178436279296,-85.8882980346679,-20.482863730297684,71.73631256430708,3169891529
iw,-65.5243225097656,-84.5923843383789,-5.468546694890658,67.45149384853585,3169908196
iw,-65.8784637451171,-83.4171524047851,7.114241652274626,61.72080913782434,3169924863
iw,-66.180679321289,-82.4477310180664,16.68393271751489,54.39465584064409,3169941530
iw,-66.6370239257812,-81.7146835327148,23.27357255821826,45.45377086278264,3169958197
iw,-67.229736328125,-81.2090072631836,27.458325323539626,34.957130113046645,3169974864
iw,-67.7129898071289,-80.8911437988281,30.182628504789378,22.98492982141311,3169991531
iw,-68.2789535522461,-80.7706069946289,32.53659529054093,9.60818825431615,3170008198
iw,-68.8748474121093,-80.8150634765625,35.52809851239273,-5.099981240351931,3170024865
iw,-69.6795959472656,-81.0318298339843,39.88839926611902,-21.02011973785587,3170041532
iw,-70.4630661010742,-81.5494842529296,45.93982169288761,-37.93638528577127,3170058199
iw,-71.4691925048828,-82.6242446899414,53.54491911837788,-55.51036003000152,3170074866
iw,-72.473876953125,-84.0105056762695,62.1464024260091,-73.29260739511705,3170091533
iw,-74.0059127807617,-85.5753936767578,70.89188310734819,-90.76247084742445,3170108200
iw,-75.6425552368164,-87.2075424194336,78.81597977846309,-107.37224314480379,3170124867
iw,-77.1560287475586,-87.5397109985351,85.03446745728799,-122.57495016102916,3170141534
iw,-78.6204605102539,-85.5610275268554,88.9070162010244,-135.82976004918515,3170158201
iw,-80.1805725097656,-82.9989929199218,90.14743672544027,-146.59501178701015,3170174868
iw,-81.9276657104492,-80.5532760620117,88.8807182553075,-154.3299547908115,3170191535
iw,-83.6833801269531,-78.2190017700195,85.64458358505601,-158.52857533722758,3170208202
iw,-85.3738174438476,-75.9342498779296,81.31958784555462,-158.7983421454483,3170224869
iw,-86.8904571533203,-73.5521011352539,76.97428821185856,-154.9740795709704,3170241536
iw,-88.1904144287109,-71.1219787597656,73.6428993683843,-147.23133606198246,3170258203
iw,-89.0168228149414,-68.6408157348632,72.09329073028978,-136.1475007634734,3170274870
iw,-88.4134140014648,-66.2753295898437,72.66124379425902,-122.66341629329526,3170291537
iw,-86.9977569580078,-64.1860809326171,75.20573634104572,-107.92811797266474,3170308204
iw,-85.5476379394531,-62.5040855407714,79.19113475862116,-93.05882045528918,3170324871
iw,-84.1691818237304,-61.171215057373,83.85535062383026,-78.89708481687939,3170341538
iw,-82.7449111938476,-59.9732360839843,88.40240809093189,-65.86060418926259,3170358205
iw,-81.237678527832,-58.7267189025878,92.16518321025623,-53.95752977015697,3170374872
iw,-79.6931533813476,-57.515323638916,94.7044531845936,-42.9549901204855,3170391539
iw,-78.118423461914,-56.7374687194824,95.83106218909114,-32.615677931290215,3170408206
iw,-76.561767578125,-56.3085784912109,95.55650400965882,-22.885037161551296,3170424873
iw,-75.0870285034179,-56.1719322204589,93.99453930095292,-13.947621637539944,3170441540
iw,-73.6736831665039,-56.1407852172851,91.24962609919145,-6.148617702658817,3170458207
iw,-72.271240234375,-56.0962181091308,87.33053616464272,0.1577248982746876,3170474874
iw,-70.8394241333007,-55.9819145202636,82.11512234936953,4.754981645650382,3170491541
iw,-69.3869018554687,-56.1940460205078,75.36777059746682,7.659012112733858,3170508208
iw,-68.0746841430664,-56.6333427429199,66.78668806010685,9.151816736335189,3170524875
iw,-67.1769943237304,-57.1898574829101,56.04983844786234,9.76235209214655,3170541542
iw,-66.7214050292968,-57.6830024719238,42.844462276178675,10.194496728558848,3170558209
iw,-66.497802734375,-58.0216636657714,26.895769654678844,11.199573984778123,3170574876
iw,-66.4019393920898,-58.4431343078613,8.029400955833209,13.409614792247119,3170591543
iw,-66.4507217407226,-59.4034957885742,-13.712488103473765,17.173748427326448,3170608210
iw,-66.7915267944336,-60.4683227539062,-37.92579468162941,22.44904409182555,3170624877
iw,-67.6092453002929,-61.1913986206054,-63.73657942110744,28.783354121621144,3170641544
iw,-68.9984512329101,-62.0360527038574,-89.80531825482292,35.40432662064276,3170658211
iw,-71.0846328735351,-63.2048416137695,-114.48014949532262,41.40388738475623,3170674878
iw,-73.5519104003906,-64.5550155639648,-136.07165791183328,45.978611323888614,3170691545
iw,-76.2212295532226,-66.0034408569336,-153.16627514721517,48.6588773446071,3170708212
iw,-78.9720382690429,-67.3140258789062,-164.87845931924005,49.45236124545789,3170724879
iw,-81.6605682373046,-68.5614318847656,-170.96949096438863,48.852091771658024,3170741546
iw,-84.1271057128906,-69.7540969848632,-171.8145447087045,47.70563153378153,3170758213
iw,-86.2705459594726,-70.9649276733398,-168.25226920359057,46.987043576411025,3170774880
iw,-87.6534042358398,-72.2064971923828,-161.38183873285269,47.53976707968735,3170791547
iw,-86.9800109863281,-73.4467849731445,-152.3728463888649,49.861784045255376,3170808214
iw,-84.939224243164,-74.6782455444336,-142.3270952550311,53.988617342929956,3170824881
iw,-82.7956848144531,-75.9320297241211,-132.19374211289662,59.50132298646712,3170841548
iw,-80.7095336914062,-77.2891082763671,-122.71223765217808,65.6526520249485,3170858215
iw,-78.8072052001953,-78.8011932373046,-114.3562105669053,71.57268958368621,3170874882
iw,-77.0287857055664,-80.3757400512695,-107.27334912324511,76.49364140742483,3170891549
iw,-75.3393783569336,-81.9205169677734,-101.24413310156324,79.92904129490967,3170908216
iw,-73.7071304321289,-83.3801956176757,-95.6968569671483,81.75876357904164,3170924883
iw,-72.1591873168945,-84.7894744873046,-89.80803169388322,82.2034558849972,3170941550
iw,-70.7711486816406,-86.1358871459961,-82.68915826634696,81.70764809827568,3170958217
iw,-69.4936294555664,-87.4394454956054,-73.6255742086795,80.77552264686348,3170974884
iw,-68.3073806762695,-88.7790756225586,-62.30488573722406,79.80998775912744,3170991551
iw,-67.278564453125,-90.0,-48.96196635825719,78.9963488188466,3171008218
iw,-66.5896911621093,-88.6160583496093,-34.38114128038732,78.25346304471289,3171024885
iw,-66.3748092651367,-87.2897872924804,-19.73598095171601,77.25522623387273,3171041552
iw,-66.6393966674804,-85.9738159179687,-6.304529025044169,75.50900964651105,3171058219
iw,-66.8389205932617,-84.5975265502929,4.851265606671358,72.4669799799461,3171074886
iw,-67.114875793457,-83.2910995483398,13.138299882397261,67.6404076494439,3171091553
iw,-67.476448059082,-82.172378540039,18.545870953369334,60.68719129423355,3171108220
iw,-67.9111404418945,-81.2986602783203,21.606580532427472,51.45229756509294,3171124887
iw,-68.4382781982421,-80.7028045654296,23.2391636387445,39.95942677009362,3171141554
iw,-68.844482421875,-80.3548431396484,24.52765958909241,26.371953492189395,3171158221
iw,-69.1343841552734,-80.239990234375,26.490247840426907,10.950737801037462,3171174888
iw,-69.6025238037109,-80.2683181762695,29.883270389327613,-5.970197522618693,3171191555
iw,-70.367073059082,-80.5016250610351,35.07534090583391,-23.987673201607308,3171208222
iw,-71.2793197631836,-81.1876678466796,42.00929309210768,-42.62837009837479,3171224889
iw,-72.218017578125,-82.4097900390625,50.248023251514454,-61.361756814714944,3171241556
iw,-73.3576202392578,-83.8039398193359,59.08300652623975,-79.63238208500564,3171258223
iw,-74.7660903930664,-85.4050979614257,67.67579821037312,-96.89883850277883,3171274890
iw,-76.1101837158203,-86.8936080932617,75.20134089446529,-112.65985913760241,3171291557
iw,-77.5446853637695,-86.9156112670898,80.96902825121253,-126.456332251686,3171308224
iw,-79.0692291259765,-85.1715240478515,84.5143884515841,-137.85338438396602,3171324891
iw,-80.6647872924804,-82.9777526855468,85.66852322707874,-146.42070514010672,3171341558
iw,-82.3616485595703,-80.7653656005859,84.60737491213652,-151.73692898002906,3171358225
iw,-84.0319519042968,-78.5153884887695,81.86192649768466,-153.43964443362236,3171374892
iw,-85.6534652709961,-76.1654586791992,78.25791619386055,-151.32310280633712,3171391559
iw,-87.2095794677734,-73.8083114624023,74.76925644885402,-145.4568195867655,3171408226
iw,-88.5994644165039,-71.418586730957,72.30868941883934,-136.27471858674002,3171424893
iw,-89.3486862182617,-69.0125427246093,71.51787802471206,-124.58081418106157,3171441560
iw,-88.2783050537109,-66.7781066894531,72.63098954010808,-111.43987671965333,3171458227
iw,-86.7838745117187,-64.902961730957,75.46018833962417,-97.96574524915759,3171474894
iw,-85.2931442260742,-63.3915252685546,79.50027027863467,-85.07071121702239,3171491561
iw,-83.8289260864257,-62.065616607666,84.10115113496896,-73.27150625092884,3171508228
iw,-82.3606719970703,-60.7902679443359,88.6370599889089,-62.63633911152122,3171524895
iw,-80.8671569824218,-59.4690971374511,92.61607531863753,-52.89895142611968,3171541562
iw,-79.3137130737304,-58.3306427001953,95.70838963417701,-43.68659486074996,3171558229
iw,-77.7837829589843,-57.5694580078125,97.70634352358893,-34.753985926720084,3171574896
iw,-76.2548217773437,-57.1292381286621,98.45159993941701,-26.117994093531877,3171591563
iw,-74.6932830810546,-56.9279251098632,97.77112966224982,-18.045711962165573,3171608230
iw,-73.1037139892578,-56.7472343444824,95.45407268427466,-10.924395186958094,3171624897
iw,-71.506103515625,-56.5701522827148,91.27913712069997,-5.090149805044547,3171641564
iw,-69.9547042846679,-56.5051498413085,85.0750762001865,-0.6912539956406654,3171658231
iw,-68.4919281005859,-56.6333580017089,76.77689122530383,2.374864302979373,3171674898
iw,-67.2755737304687,-56.9114990234375,66.43851535214453,4.451180898063233,3171691565
iw,-66.4088363647461,-57.3981857299804,54.18310351717027,6.054786553395102,3171708232
iw,-65.9901504516601,-57.721206665039,40.10888695500206,7.771286240008787,3171724899
iw,-65.9181594848632,-57.8511505126953,24.20493466506564,10.126890682068705,3171741566
iw,-65.9659652709961,-58.3718223571777,6.3436796644177065,13.466415605266777,3171758233
iw,-66.0044860839843,-59.2272605895996,-13.61116222389567,17.873182654885127,3171774900
iw,-66.1231918334961,-60.5146026611328,-35.60567136655064,23.154419387182013,3171791567
iw,-66.7778625488281,-61.4609870910644,-59.194136041083794,28.890036179007936,3171808234
iw,-68.1247100830078,-62.1935997009277,-83.44421057059368,34.52602313325898,3171824901
iw,-70.0732345581054,-63.1971054077148,-107.01587706641665,39.49350472349763,3171841568
iw,-72.4637832641601,-64.4061203002929,-128.39810728747577,43.33652540861896,3171858235
iw,-75.0361175537109,-65.7093658447265,-146.21387956881162,45.82526166226492,3171874902
iw,-77.6251144409179,-67.0131759643554,-159.48176159775878,47.02538684048903,3171891569
iw,-80.2241058349609,-68.2401580810546,-167.75531661956603,47.301503724266,3171908236
iw,-82.8389739990234,-69.4813537597656,-171.12256498447,47.25052195898865,3171924903
iw,-85.2865753173828,-70.7631225585937,-170.10098049476505,47.57776491888933,3171941570
iw,-87.3065948486328,-72.0704116821289,-165.48783964720957,48.939320331927526,3171958237
iw,-87.7888412475586,-73.3761138916015,-158.22005375174376,51.78207962498731,3171974904
iw,-85.9680862426757,-74.6384887695312,-149.2718451161722,56.219771140453865,3171991571
iw,-83.7208023071289,-75.8803024291992,-139.5860454036836,61.983631297831316,3172008238
iw,-81.5132141113281,-77.2154083251953,-130.01139081147033,68.47273761130462,3172024905
iw,-79.4595108032226,-78.7632369995117,-121.21824877237002,74.90058614358773,3172041572
iw,-77.5834884643554,-80.4505844116211,-113.59015719990968,80.49997428608964,3172058239
iw,-75.8518295288086,-82.1326904296875,-107.12310021300608,84.72248806129578,3172074906
iw,-74.1612548828125,-83.73828125,-101.38637455062778,87.36568753820225,3172091573
iw,-72.5030975341796,-85.2761993408203,-95.59257167217777,88.58472509826062,3172108240
iw,-70.9391784667968,-86.7366790771484,-88.78871770216344,88.78626596055429,3172124907
iw,-69.4394454956054,-88.1464920043945,-80.13043956417158,88.44371657391854,3172141574
iw,-68.0341644287109,-89.7435989379882,-69.15867547618932,87.89870348873598,3172158241
iw,-66.8232803344726,-89.3851547241211,-55.983699138194915,87.21711466388275,3172174908
iw,-66.1253814697265,-87.7930068969726,-41.30387230519415,86.14839364167311,3172191575
iw,-65.9337615966796,-86.1902847290039,-26.24263256577996,84.19944265259363,3172208242
iw,-65.8094329833984,-84.5757369995117,-12.055886992268277,80.79131902661997,3172224909
iw,-65.9662017822265,-83.056411743164,0.18981712906587245,75.43513526871612,3172241576
iw,-66.1325073242187,-81.7626953125,9.86524526213059,67.85860723217641,3172258243
iw,-66.481689453125,-80.8134231567382,16.88904631618742,58.04039194047362,3172274910
iw,-67.0331420898437,-80.2104949951171,21.691831972701973,46.15388435458689,3172291577
iw,-67.5449676513671,-79.826187133789,25.06615734345489,32.4634164717757,3172308244
iw,-67.9735260009765,-79.6020278930664,27.954274626679616,17.233031886405143,3172324911
iw,-68.3964157104492,-79.5807418823242,31.22989984666102,0.6930670486518008,3172341578
iw,-68.9735107421875,-79.7348861694336,35.52575159627258,-16.92786195009534,3172358245
iw,-70.0170211791992,-80.1049270629882,41.141782235907904,-35.336578207139425,3172374912
iw,-71.4271926879882,-80.9424972534179,48.037706511731976,-54.124317190790116,3172391579
iw,-72.3954238891601,-82.415771484375,55.88245263388045,-72.76869536228496,3172408246
iw,-73.2821502685546,-84.0848999023437,64.12624232138619,-90.69169623408824,3172424913
iw,-74.7125854492187,-85.8626556396484,72.08106289344039,-107.34157317644637,3172441580
iw,-76.2999572753906,-87.2121047973632,79.01540673221967,-122.25399151136736,3172458247
iw,-77.8391799926757,-86.5474777221679,84.26660344877351,-135.06308970607867,3172474914
iw,-79.3624038696289,-84.3315124511718,87.35894495993354,-145.46331419463692,3172491581
iw,-80.9725189208984,-81.8770141601562,88.10865594081731,-153.15102386591548,3172508248
iw,-82.6443099975586,-79.4939727783203,86.69658012628736,-157.7893275760087,3172524915
iw,-84.3022003173828,-77.1218948364257,83.68502336308656,-159.03315885481652,3172541582
iw,-85.9716796875,-74.7006759643554,79.9519958881753,-156.62368743636213,3172558249
iw,-87.5957260131836,-72.293586730957,76.5310874945174,-150.52291378709995,3172574916
iw,-89.0653915405273,-69.8256301879882,74.38173009198533,-141.02986913662312,3172591583
iw,-89.7039260864257,-67.3960342407226,74.15407958616865,-128.8154746979934,3172608250
iw,-88.1780166625976,-65.21923828125,76.02881731028957,-114.83900362451512,3172624917
iw,-86.5917663574218,-63.4253768920898,79.69010171026106,-100.15771873153632,3172641584
iw,-84.9965667724609,-61.9483413696289,84.43792136068699,-85.69297130651302,3172658251
iw,-83.4109573364257,-60.6303176879882,89.39181230881759,-72.04384993334997,3172674918
iw,-81.8089294433593,-59.3883247375488,93.70972539576739,-59.423730495238175,3172691585
iw,-80.2085952758789,-58.2372741699218,96.75353791117007,-47.740170778411716,3172708252
iw,-78.6268081665039,-57.3760948181152,98.16481090783672,-36.77368788216399,3172724919
iw,-77.0420150756836,-56.7673683166503,97.85137763620494,-26.371117499262482,3172741586
iw,-75.4903793334961,-56.3885536193847,95.91256357220429,-16.572616998197347,3172758253
iw,-74.0272750854492,-56.2381210327148,92.54229323827586,-7.630341921703202,3172774920
iw,-72.5879287719726,-56.2198867797851,87.94545653947478,0.07297613317986275,3172791587
iw,-71.131965637207,-56.2406921386718,82.28724557531443,6.1610965770988715,3172808254
iw,-69.7149963378906,-56.3038215637207,75.67344415225551,10.404003617578166,3172824921
iw,-68.4000167846679,-56.7178077697753,68.14117517760047,12.822118269639844,3172841588
iw,-67.353271484375,-57.3478126525878,59.63602175889637,13.735668544273633,3172858255
iw,-66.6812362670898,-57.9516906738281,49.96913636432427,13.74751074751183,3172874922
iw,-66.318244934082,-58.3154258728027,38.779622608638086,13.650479681195046,3172891589
iw,-66.1064682006836,-58.7293968200683,25.551815921306734,14.26585639899942,3172908256
iw,-65.9234237670898,-59.1728515625,9.730754169653785,16.248117488302583,3172924923
iw,-65.7779769897461,-60.0676155090332,-9.064872172877166,19.912461708823844,3172941590
iw,-65.9200439453125,-60.8076248168945,-30.794706149177273,25.14036977842603,3172958257
iw,-66.5669403076171,-61.6709823608398,-54.8176740297336,31.397821568108636,3172974924
iw,-67.8018569946289,-62.8204612731933,-79.87679249224094,37.86962569302413,3172991591
iw,-69.7819366455078,-64.0415573120117,-104.28145353071818,43.677171519304274,3173008258
iw,-72.1484069824218,-65.305191040039,-126.23750695646625,48.116405952504905,3173024925
iw,-74.6923522949218,-66.7355194091796,-144.21357206700114,50.84444124704423,3173041592
iw,-77.2701187133789,-68.1287689208984,-157.2225644065923,51.96258069639003,3173058259
iw,-79.7834701538086,-69.4745635986328,-164.94125191621643,51.97824782632032,3173074926
iw,-82.1825408935546,-70.7719039916992,-167.66025718323095,51.66198801993804,3173091593
iw,-84.4786605834961,-72.0519180297851,-166.1166302502884,51.84058536810843,3173108260
iw,-86.6092758178711,-73.32861328125,-161.28790408666123,53.18126610949393,3173124927
iw,-87.9493865966796,-74.6099777221679,-154.21647796276318,56.023074852272664,3173141594
iw,-86.7244567871093,-75.9127578735351,-145.89689263639963,60.29868394433303,3173158261
iw,-84.6337432861328,-77.2570190429687,-137.2158923121798,65.56498000559925,3173174928
iw,-82.4857635498046,-78.7108383178711,-128.90874445812375,71.1298015542887,3173191595
iw,-80.4279022216796,-80.2581787109375,-121.49872121396282,76.23476825592643,3173208262
iw,-78.5188369750976,-81.8074874877929,-115.21488339140522,80.23984491349552,3173224929
iw,-76.7334365844726,-83.2941665649414,-109.91709152700022,82.7591313230342,3173241596
iw,-75.0001525878906,-84.7093505859375,-105.07653163266673,83.71706106604684,3173258263
iw,-73.2999801635742,-86.0736465454101,-99.85344727600871,83.32073098283072,3173274930
iw,-71.6993408203125,-87.3464965820312,-93.28169937101488,81.96654719419408,3173291597
iw,-70.2171173095703,-88.4158859252929,-84.52559886150691,80.11153556508307,3173308264
iw,-68.8421783447265,-88.8837356567382,-73.13850622774191,78.14230297845366,3173324931
iw,-67.6036376953125,-88.1856613159179,-59.24093326030268,76.2713041623452,3173341598
iw,-66.8065948486328,-87.0571594238281,-43.55364520952,74.48233336108754,3173358265
iw,-66.54736328125,-85.9020309448242,-27.264412421586297,72.53513278049316,3173374932
iw,-66.4369277954101,-84.71435546875,-11.762157847801559,70.02439388671208,3173391599
iw,-66.5895538330078,-83.4716644287109,1.683445351394444,66.4745158214402,3173408266
iw,-66.8824768066406,-82.29931640625,12.206106939326006,61.44159135501459,3173424933
iw,-67.2679977416992,-81.3143692016601,19.520787086150207,54.592176236052715,3173441600
iw,-67.8078002929687,-80.5771942138671,23.962730800427856,45.73845431728397,3173458267
iw,-68.39892578125,-80.1004409790039,26.3903059611857,34.83011293393594,3173474934
iw,-68.8255462646484,-79.8332214355468,27.979821270260075,21.92447423204428,3173491601
iw,-69.2672271728515,-79.7833099365234,29.95857839488498,7.164882514594977,3173508268
iw,-69.7344894409179,-79.8752288818359,33.334977437922596,-9.213354674112622,3173524935
iw,-70.3520584106445,-80.1218338012695,38.687060312536005,-26.854382109438415,3173541602
iw,-71.3849563598632,-80.7035827636718,46.05704862182231,-45.25815255545556,3173558269
iw,-72.4680633544921,-81.9062881469726,54.97038016670298,-63.79403336039849,3173574936
iw,-73.5728073120117,-83.3565979003906,64.56442136517022,-81.76442047275945,3173591603
iw,-74.9866409301757,-84.8252029418945,73.78709942203778,-98.49926997174182,3173608270
iw,-76.5788345336914,-86.0031585693359,81.61476673309875,-113.44149795593884,3173624937
iw,-78.1605834960937,-85.8610458374023,87.24133268954738,-126.18733705092446,3173641604
iw,-79.6935653686523,-84.2918853759765,90.20631430096535,-136.47004991048223,3173658271
iw,-81.2552642822265,-82.3262710571289,90.45312435725931,-144.10508919983184,3173674938
iw,-82.9309310913086,-80.3510055541992,88.32670603520675,-148.935641488039,3173691605
iw,-84.5936508178711,-78.3248748779296,84.51996934264606,-150.81811201538596,3173708272
iw,-86.2103881835937,-76.1367263793945,79.96837398982589,-149.66393073682178,3173724939
iw,-87.7643661499023,-73.9275894165039,75.69158983755264,-145.51848162815674,3173741606
iw,-89.1030044555664,-71.6926345825195,72.60060325711427,-138.6315254626645,3173758273
iw,-89.1707916259765,-69.4606246948242,71.31553693777299,-129.47224435081958,3173774940
iw,-87.8357238769531,-67.3039245605468,72.05020431218331,-118.66635165022045,3173791607
iw,-86.3692932128906,-65.3219604492187,74.60079219399917,-106.87014590287434,3173808274
iw,-84.9777755737304,-63.654312133789,78.43687799943577,-94.62999660910415,3173824941
iw,-83.642822265625,-62.2176704406738,82.85669888311155,-82.28972461712023,3173841608
iw,-82.2176818847656,-60.8773078918457,87.15363229264949,-69.99239807360968,3173858275
iw,-80.6670608520507,-59.6055030822753,90.74785215529059,-57.77929333653856,3173874942
iw,-79.0905532836914,-58.5619812011718,93.25526908885786,-45.73664751653755,3173891609
iw,-77.588882446289,-57.8878059387207,94.48705090812373,-34.110828261366606,3173908276
iw,-76.1404495239257,-57.5995941162109,94.39478928342423,-23.3266717778978,3173924943
iw,-74.7070693969726,-57.5840072631835,92.99401035245391,-13.896603336409491,3173941610
iw,-73.2141342163086,-57.4634399414062,90.30267005182449,-6.266840596957847,3173958277
iw,-71.6495971679687,-57.4826469421386,86.31576948750465,-0.6738934541124465,3173974944
iw,-70.0839233398437,-57.5678215026855,81.00928489211466,2.933504321828308,3173991611
iw,-68.7284469604492,-57.8051223754882,74.34443477159485,4.894210293988045,3174008278
iw,-67.6996154785156,-58.108600616455,66.24436652790104,5.775458459250295,3174024945
iw,-66.9525451660156,-58.4842796325683,56.542366114695106,6.27839111671496,3174041612
iw,-66.3791275024414,-58.7526473999023,44.93652791789297,7.120955358147992,3174058279
iw,-65.9871978759765,-58.901081085205,31.00389839386253,8.907476995084302,3174074946
iw,-65.7687835693359,-59.2695350646972,14.310876038226478,12.006791585623782,3174091613
iw,-65.6599731445312,-60.0364837646484,-5.3888563254500825,16.473329189230256,3174108280
iw,-65.7625732421875,-60.9648818969726,-27.93016465987933,22.039002950085216,3174124947
iw,-66.3509063720703,-61.8694801330566,-52.57975407104916,28.180113471470076,3174141614
iw,-67.6018829345703,-62.9411239624023,-78.03198074551318,34.240618118128765,3174158281
iw,-69.4681167602539,-64.0338745117187,-102.58939729490653,39.58161967507746,3174174948
iw,-71.7614822387695,-65.1392211914062,-124.48478735921168,43.724641598581826,3174191615
iw,-74.2631530761718,-66.5475692749023,-142.2414553169927,46.45955485949501,3174208282
iw,-76.7588653564453,-67.9428787231445,-154.95496787501574,47.89519382374991,3174224949
iw,-79.2281494140625,-69.2064590454101,-162.41629783769338,48.439775395122176,3174241616
iw,-81.628791809082,-70.4927062988281,-165.06027519997556,48.709993692045664,3174258283
iw,-83.9371261596679,-71.8110656738281,-163.78181653546565,49.38423603417213,3174274950
iw,-85.9672622680664,-73.1191177368164,-159.69326932666837,51.033148453809154,3174291617
iw,-87.3191299438476,-74.4275131225586,-153.89532417896862,53.97157947397288,3174308284
iw,-86.7133636474609,-75.7716903686523,-147.31012712509096,58.174158875065245,3174324951
iw,-84.9131164550781,-77.1552352905273,-140.59192382533803,63.281331399703795,3174341618
iw,-82.8209152221679,-78.6156158447265,-134.10210462930067,68.69648938478555,3174358285
iw,-80.6842193603515,-80.1422882080078,-127.92290499617238,73.74602583435743,3174374952
iw,-78.6130676269531,-81.6756973266601,-121.88867927372684,77.85369328452255,3174391619
iw,-76.6257400512695,-83.200210571289,-115.62767022629107,80.67663340326301,3174408286
iw,-74.7814254760742,-84.6536102294921,-108.62084697213348,82.16405689911929,3174424953
iw,-73.1392593383789,-86.0604019165039,-100.29109024565435,82.52544550369339,3174441620
iw,-71.7260818481445,-87.4246597290039,-90.13153659861968,82.12388362366528,3174458287
iw,-70.3462142944336,-88.7826080322265,-77.86399748060884,81.33187854988797,3174474954
iw,-68.9169540405273,-90.0,-63.5902050584,80.39534016636692,3174491621
iw,-67.8720550537109,-88.7164077758789,-47.87412438103865,79.34505843052682,3174508288
iw,-67.3655548095703,-87.3216094970703,-31.695700731698132,77.97739730948804,3174524955
iw,-67.438491821289,-85.9412689208984,-16.25935147817165,75.90323908740545,3174541622
iw,-67.5149993896484,-84.5867309570312,-2.707696350939917,72.64383628382215,3174558289
iw,-67.7126007080078,-83.2920913696289,8.160463562979213,67.74051852856577,3174574956
iw,-67.9834671020507,-82.1689529418945,16.072068985919064,60.84538658775766,3174591623
iw,-68.4574813842773,-81.2500610351562,21.313592482348763,51.77142660319081,3174608290
iw,-69.1406097412109,-80.6182022094726,24.624933891978802,40.49845882125926,3174624957
iw,-69.6204223632812,-80.268798828125,26.99765070126967,27.148997281638657,3174641624
iw,-69.9585494995117,-80.1416397094726,29.435505460707404,11.957740304736234,3174658291
iw,-70.3436508178711,-80.2003021240234,32.737527153924326,-4.745392139793396,3174674958
iw,-71.3164138793945,-80.4151153564453,37.35535721059377,-22.535104549040692,3174691625
iw,-72.3129272460937,-80.9546737670898,43.35051608020428,-40.888983955602626,3174708292
iw,-73.3102416992187,-82.1226196289062,50.4402642725314,-59.20690829523878,3174724959
iw,-74.2533569335937,-83.570571899414,58.096400095009294,-76.86185976114025,3174741626
iw,-75.5931930541992,-85.1561737060546,65.66210533348965,-93.2689397477627,3174758293
iw,-77.0102081298828,-86.6612930297851,72.46504689743702,-107.94409932186709,3174774960
iw,-78.4170303344726,-86.9513702392578,77.91496560290312,-120.52799279108362,3174791627
iw,-79.9303436279296,-85.3261413574218,81.5816646519768,-130.76814428108656,3174808294
iw,-81.4096374511718,-83.1479721069336,83.25725742725324,-138.4731537020979,3174824961
iw,-82.9321136474609,-81.0036163330078,83.00595227144217,-143.4681750037893,3174841628
iw,-84.5375442504882,-78.9228591918945,81.19015700208858,-145.58452217687622,3174858295
iw,-86.1333541870117,-76.7348098754882,78.4459189221699,-144.70198926868116,3174874962
iw,-87.7487564086914,-74.4743347167968,75.58340245019544,-140.8331505820048,3174891629
iw,-89.3941345214843,-72.1858215332031,73.4161334298329,-134.20930617319948,3174908296
iw,-89.7119674682617,-69.8818283081054,72.5629362723979,-125.31584161998047,3174924963
iw,-88.1246643066406,-67.682632446289,73.2935523836552,-114.84002612096837,3174941630
iw,-86.5986633300781,-65.730598449707,75.48181900386233,-103.53247936874183,3174958297
iw,-85.0276412963867,-64.1207656860351,78.68733099962436,-92.02865919006936,3174974964
iw,-83.490005493164,-62.7191085815429,82.32906569219662,-80.70603879484317,3174991631
iw,-81.9880294799804,-61.3269424438476,85.87459716210476,-69.6460565563502,3175008298
iw,-80.4826049804687,-59.9793357849121,88.96741295012154,-58.723804563385656,3175024965
iw,-78.9880981445312,-58.8431663513183,91.44941715290759,-47.78446267045117,3175041632
iw,-77.5630187988281,-58.1037979125976,93.28500580656537,-36.82118777876727,3175058299
iw,-76.1433563232421,-57.6274070739746,94.43424357593766,-26.071532331466237,3175074966
iw,-74.6880416870117,-57.3225936889648,94.74042019409325,-15.993992308527615,3175091633
iw,-73.103042602539,-57.2075271606445,93.88585827728262,-7.142663833400611,3175108300
iw,-71.4338836669921,-57.1299591064453,91.43420220344636,0.004094436788097233,3175124967
iw,-69.7805709838867,-57.1823120117187,86.93381453639178,5.197466709415821,3175141634
iw,-68.3033828735351,-57.3984298706054,80.02746689427511,8.507863680778545,3175158301
iw,-67.1147079467773,-57.7887840270996,70.51430359212402,10.330884684243582,3175174968
iw,-66.2310562133789,-58.3131294250488,58.34066939068732,11.312545540471515,3175191635
iw,-65.6817398071289,-58.6738052368164,43.539550318846906,12.210392370085133,3175208302
iw,-65.4565887451171,-58.9042892456054,26.17015529812536,13.718835826811945,3175224969
iw,-65.4402389526367,-59.2235527038574,6.311913105326692,16.30144458807137,3175241636
iw,-65.5218200683593,-60.0425338745117,-15.862576165759737,20.08009769027606,3175258303
iw,-65.8452835083007,-61.1242523193359,-39.96035481874705,24.817149885690103,3175274970
iw,-66.7325744628906,-61.9936599731445,-65.25371586776016,29.995216228848793,3175291637
iw,-68.209358215332,-63.0160293579101,-90.65312626168277,34.96857713957889,3175308304
iw,-70.2817611694336,-64.1312866210937,-114.80527917450152,39.14338931166023,3175324971
iw,-72.7803878784179,-65.3344497680664,-136.29325981460968,42.139270615346845,3175341638
iw,-75.4275741577148,-66.6354598999023,-153.8679392740271,43.88992301870886,3175358305
iw,-78.0628509521484,-67.9577026367187,-166.63239461978455,44.65809699766924,3175374972
iw,-80.731575012207,-69.2151947021484,-174.1344419015453,44.96697397472193,3175391639
iw,-83.3885955810546,-70.4398422241211,-176.37122975328808,45.47287358972744,3175408306
iw,-85.9761047363281,-71.6711959838867,-173.74324686913613,46.81332588501046,3175424973
iw,-88.2543792724609,-72.9094161987304,-166.99684362482876,49.46174697900844,3175441640
iw,-87.7307434082031,-74.1526718139648,-157.16989319238175,53.613269262492345,3175458307
iw,-85.3297424316406,-75.4184188842773,-145.52348309190182,59.12150538734943,3175474974
iw,-83.0626525878906,-76.7302322387695,-133.4248385274346,65.5022887005715,3175491641
iw,-81.0014953613281,-78.1324310302734,-122.15761041855406,72.01223158682058,3175508308
iw,-79.1734542846679,-79.6218795776367,-112.67433057468146,77.79415217647987,3175524975
iw,-77.5153656005859,-81.1437301635742,-105.3534327317792,82.06165418501175,3175541642
iw,-75.9161987304687,-82.6493988037109,-99.85291095374716,84.27923188449643,3175558309
iw,-74.2788848876953,-84.1135101318359,-95.14417295215546,84.2893088602276,3175574976
iw,-72.6095504760742,-85.4406967163086,-89.75880134552253,82.34730036568881,3175591643
iw,-70.9770965576171,-86.5831604003906,-82.20319819019272,79.0495218874398,3175608310
iw,-69.4437561035156,-87.4984512329101,-71.42286057778398,75.17073898568634,3175624977
iw,-68.1787338256836,-88.1248703002929,-57.163478803576226,71.45715603824227,3175641644
iw,-67.3477096557617,-88.2164459228515,-40.099912729679374,68.43370841925609,3175658311
iw,-67.0984115600586,-87.5616912841796,-21.681275647538342,66.27488358977672,3175674978
iw,-67.2391967773437,-86.5830459594726,-3.7418784472373776,64.76176542033211,3175691645
iw,-67.6691589355468,-85.6307678222656,11.988147169070736,63.32026708991385,3175708312
iw,-68.2416381835937,-84.7195510864257,24.308632703045554,61.12029238999397,3175724979
iw,-68.6699676513671,-83.7041854858398,32.78394365380005,57.21373477492538,3175741646
iw,-69.2909469604492,-82.701904296875,37.74141449144955,50.69097255705461,3175758313
iw,-70.107551574707,-81.9831085205078,40.07555014405239,40.833908025143465,3175774980
iw,-70.727912902832,-81.5858612060546,40.95190742460818,27.2426054814753,3175791647
iw,-71.2771530151367,-81.4753189086914,41.51001516422211,9.918606500667396,3175808314
iw,-72.0116119384765,-81.6314926147461,42.63853546929239,-10.70207653504182,3175824981
iw,-73.1632766723632,-82.035041809082,44.85774028725098,-33.768771522658824,3175841648
iw,-74.3688888549804,-82.7773818969726,48.3060578145896,-58.09363246234191,3175858315
iw,-75.3655395507812,-84.2227325439453,52.79977592862713,-82.2899189662253,3175874982
iw,-76.1760482788086,-86.1447143554687,57.92851640684137,-104.95673268515957,3175891649
iw,-77.4303894042968,-87.4562454223632,63.160662873259284,-124.86772687142395,3175908316
iw,-78.8546676635742,-86.4491806030273,67.94540954133134,-141.10632260415346,3175924983
iw,-80.301773071289,-84.1724700927734,71.80160615483419,-153.10900568464842,3175941650
iw,-81.6615753173828,-81.6418228149414,74.38591675362618,-160.62391528685524,3175958317
iw,-83.0708312988281,-79.0436630249023,75.5412448465558,-163.63209743432222,3175974984
iw,-84.497085571289,-76.5093383789062,75.33179662728344,-162.28694344736078,3175991651
iw,-85.9188919067382,-73.9590759277343,74.06221390933091,-156.9030031876118,3176008318
iw,-87.4021911621093,-71.451171875,72.26176568457016,-147.98693074019604,3176024985
iw,-89.0822982788086,-69.0568389892578,70.60991506579785,-136.27113839110888,3176041652
iw,-90.0,-66.8694458007812,69.79681075871248,-122.69940835902695,3176058319
iw,-88.2788772583007,-64.8852157592773,70.34417028318049,-108.32993438787513,3176074986
iw,-86.9662322998046,-63.1374893188476,72.44188380729322,-94.1600237137879,3176091653
iw,-85.6633377075195,-61.6486053466796,75.86591973665249,-80.92090281872233,3176108320
iw,-84.2885208129882,-60.4264450073242,80.02246161008199,-68.91949043024745,3176124987
iw,-82.7819137573242,-59.3601036071777,84.11567575231759,-58.001365060027084,3176141654
iw,-81.1250915527343,-58.366455078125,87.38366037378435,-47.67170243098827,3176158321
iw,-79.4346923828125,-57.4360237121582,89.31583821462051,-37.348545982022685,3176174988
iw,-77.8737716674804,-56.7286338806152,89.77110384391719,-26.65973043486013,3176191655
iw,-76.5147857666015,-56.3860740661621,88.95680581203051,-15.663930603708058,3176208322
iw,-75.2166595458984,-56.3511734008789,87.28554577357794,-4.900530125498267,3176224989
iw,-73.8927764892578,-56.5237236022949,85.17337602778353,4.755048032866611,3176241656
iw,-72.5500259399414,-56.8735809326171,82.85797135226835,12.371513542361928,3176258323
iw,-71.1503372192382,-57.2877311706543,80.29506333712952,17.267611181773763,3176274990
iw,-69.7533416748046,-57.6036109924316,77.15115946031065,19.235387163660484,3176291657
iw,-68.4450225830078,-57.9883880615234,72.87308523094208,18.617245310631173,3176308324
iw,-67.2789306640625,-58.4789543151855,66.79662109957897,16.232833353827946,3176324991
iw,-66.3378372192382,-58.8005104064941,58.26080869807726,13.196755661730604,3176341658
iw,-65.6689529418945,-59.0133666992187,46.712740731069154,10.686164636140688,3176358325
iw,-65.235969543457,-59.4345359802246,31.805207871743864,9.714245682437962,3176374992
iw,-64.9695739746093,-59.784080505371,13.493555157939472,10.951359430441205,3176391659
iw,-64.8720321655273,-60.5247459411621,-7.875593181223085,14.617746909733786,3176408326
iw,-65.1478881835937,-61.2531089782714,-31.5133666132254,20.457705123024976,3176424993
iw,-66.0406112670898,-62.0330619812011,-56.2167157637763,27.797709076281325,3176441660
iw,-67.3704833984375,-63.0420379638671,-80.50192976858467,35.683636055120985,3176458327
iw,-69.1261596679687,-64.1661224365234,-102.83108162651592,43.077782232748,3176474994
iw,-71.3551940917968,-65.3908386230468,-121.8765963512279,49.077608494173774,3176491661
iw,-73.7254257202148,-66.7612228393554,-136.74653016870363,53.10639442733566,3176508328
iw,-76.1344909667968,-68.1371994018554,-147.10165642140413,55.029303035688365,3176524995
iw,-78.4307403564453,-69.4038772583007,-153.13264369430806,55.16551465865996,3176541662
iw,-80.6965103149414,-70.641845703125,-155.41690661926708,54.192418379861245,3176558329
iw,-82.9770889282226,-71.8684310913086,-154.7172120508594,52.96575018010117,3176574996
iw,-85.1472015380859,-73.111083984375,-151.79787880833683,52.30278306416195,3176591663
iw,-87.1288070678711,-74.3472061157226,-147.31482038970742,52.78599890022332,3176608330
iw,-87.8935546875,-75.5667114257812,-141.79483454148743,54.638193071198266,3176624997
iw,-86.4764633178711,-76.7998809814453,-135.67725077333853,57.69913757195509,3176641664
iw,-84.4323272705078,-78.0924072265625,-129.36554051688398,61.50492674191657,3176658331
iw,-82.3388137817382,-79.4878540039062,-123.23821393481525,65.44150201806248,3176674998
iw,-80.3384704589843,-80.8747100830078,-117.59555088437368,68.92223146899143,3176691665
iw,-78.5255813598632,-82.2099914550781,-112.5581771166029,71.53428286491365,3176708332
iw,-76.8665008544921,-83.4697341918945,-107.96702135725378,73.11352086728546,3176724999
iw,-75.1813125610351,-84.7001724243164,-103.34575588581143,73.73675086546915,3176741666
iw,-73.4777145385742,-85.91845703125,-97.96828310403112,73.6494483145167,3176758333
iw,-71.8773727416992,-87.1321487426757,-91.03110644680642,73.1637943431943,3176775000
iw,-70.4134216308593,-88.327896118164,-81.88410614071542,72.56172218684674,3176791667
iw,-69.1016082763671,-89.3921966552734,-70.24651631992127,72.02550700166566,3176808334
iw,-68.0665664672851,-88.9258956909179,-56.33796866265463,71.602732757293,3176825001
iw,-67.3295974731445,-87.7529296875,-40.8815364553316,71.20058214454913,3176841668
iw,-66.9316177368164,-86.5714950561523,-24.974142168258744,70.59996521207009,3176858335
iw,-66.9454956054687,-85.4190979003906,-9.857780159343891,69.48216128044633,3176875002
iw,-67.0365524291992,-84.2582015991211,3.34724258831677,67.46470194425923,3176891669
iw,-67.2915954589843,-83.0349426269531,13.87711341272111,64.14396109467565,3176908336
iw,-67.6862335205078,-81.9174118041992,21.470808653184466,59.138472090513964,3176925003
iw,-68.2988128662109,-81.0499496459961,26.399389716210273,52.12460775804306,3176941670
iw,-68.9757843017578,-80.4247589111328,29.37930802182506,42.8611030911037,3176958337
iw,-69.4863510131836,-79.9902877807617,31.394310720002753,31.20952046391941,3176975004
iw,-69.9355239868164,-79.7368621826171,33.469183192264516,17.163772030294094,3176991671
iw,-70.5481643676757,-79.6581497192382,36.45050638287475,0.8939269178148963,3177008338
iw,-71.4616546630859,-79.7247467041015,40.84562745163803,-17.20975996066002,3177025005
iw,-72.0773544311523,-80.1794128417968,46.74842137472026,-36.523178617168284,3177041672
iw,-73.0221481323242,-81.2370300292968,53.85386568827078,-56.23347054321035,3177058339
iw,-74.1311569213867,-82.7711639404296,61.54856025676649,-75.44561214012263,3177075006
iw,-75.5956497192382,-84.4195251464843,69.05649428130498,-93.31800439035267,3177091673
iw,-77.1912002563476,-86.0966567993164,75.6065157456997,-109.17546197578504,3177108340
iw,-78.645881652832,-87.0379943847656,80.57744081654268,-122.55952405416903,3177125007
iw,-80.0241394042968,-86.0693588256836,83.58785801674205,-133.2087150953346,3177141674
iw,-81.4898300170898,-84.0403671264648,84.52902824728291,-140.99383354613545,3177158341
iw,-83.0998229980468,-81.902847290039,83.56305743150342,-145.85103294384479,3177175008
iw,-84.7226333618164,-79.7632293701171,81.10311057211077,-147.7535221101232,3177191675
iw,-86.2911834716796,-77.4989929199218,77.76889843992242,-146.74060504402934,3177208342
iw,-87.8317489624023,-75.183609008789,74.2990074719793,-142.9871292751806,3177225009
iw,-89.3685150146484,-72.8926162719726,71.41744694892141,-136.8652479861171,3177241676
iw,-89.749771118164,-70.6130981445312,69.68313821682496,-128.94452698470167,3177258343
iw,-88.1585693359375,-68.4259796142578,69.37290283416937,-119.90307083396223,3177275010
iw,-86.6718673706054,-66.4002609252929,70.44321223804755,-110.36867659471014,3177291677
iw,-85.242805480957,-64.6683120727539,72.58457136472002,-100.75083705639219,3177308344
iw,-83.8833618164062,-63.1093368530273,75.34337135629139,-91.13981569635706,3177325011
iw,-82.5593795776367,-61.643196105957,78.26200121843621,-81.32806687813016,3177341678
iw,-81.1634674072265,-60.1911239624023,80.98879305206218,-70.95843946795979,3177358345
iw,-79.7398071289062,-58.9692573547363,83.32764004179151,-59.74512088441844,3177375012
iw,-78.3428955078125,-58.0734176635742,85.22000863804975,-47.67680283004804,3177391679
iw,-76.9411849975586,-57.4439048767089,86.67244915065987,-35.117532169518114,3177408346
iw,-75.5629425048828,-57.1177940368652,87.65829184982368,-22.76558680097627,3177425013
iw,-74.170654296875,-57.039794921875,88.02998633567795,-11.489186735049685,3177441680
iw,-72.750373840332,-57.0099639892578,87.47481904270235,-2.101390345332932,3177458347
iw,-71.3162078857421,-57.1058769226074,85.53113352472049,4.850574191852625,3177475014
iw,-69.8392944335937,-57.235912322998,81.65948759872252,9.22328182421967,3177491681
iw,-68.4304656982421,-57.5348434448242,75.3421355217243,11.316880646617399,3177508348
iw,-67.2569503784179,-58.0267944335937,66.17452503800135,11.819838001072116,3177525015
iw,-66.3823928833007,-58.503677368164,53.92047307815354,11.67491007713534,3177541682
iw,-65.8830261230468,-58.8421630859375,38.526032101638535,11.886748244902655,3177558349
iw,-65.7188491821289,-59.0422325134277,20.112921710899883,13.302317744664617,3177575016
iw,-65.7662811279296,-59.4574584960937,-1.0166878563774668,16.41428098292295,3177591683
iw,-65.989517211914,-60.3960647583007,-24.346587920291597,21.24585865828521,3177608350
iw,-66.5021591186523,-61.3567733764648,-49.09980733265764,27.356358339855348,3177625017
iw,-67.5689926147461,-62.1985244750976,-74.22370402550331,33.967070022598634,3177641684
iw,-69.2085342407226,-63.2032661437988,-98.4525948911745,40.171297053816296,3177658351
iw,-71.3903350830078,-64.3524398803711,-120.45934310814516,45.1734278291007,3177675018
iw,-73.8021469116211,-65.671142578125,-139.0580363001028,48.49713200539257,3177691685
iw,-76.3595504760742,-67.1154327392578,-153.38852108729185,50.1082878947006,3177708352
iw,-78.8740615844726,-68.3957138061523,-163.02063684345606,50.41716433439284,3177725019
iw,-81.3061141967773,-69.6227035522461,-167.95554447738937,50.15749593924017,3177741686
iw,-83.7210235595703,-70.8925247192382,-168.54801233798034,50.178417428770025,3177758353
iw,-85.8850631713867,-72.1938323974609,-165.40036848421047,51.212870925736304,3177775020
iw,-87.2541961669921,-73.5213546752929,-159.27418176679188,53.69025831538759,3177791687
iw,-86.6484756469726,-74.8723602294921,-151.03681764581185,57.64142265705678,3177808354
iw,-84.8270645141601,-76.2102355957031,-141.62613505634783,62.71200762519794,3177825021
iw,-82.7082748413086,-77.6045532226562,-131.99713844973505,68.26956279979511,3177841688
iw,-80.6305313110351,-79.0758056640625,-123.01991186250014,73.56872298331804,3177858355
iw,-78.7611541748046,-80.5714797973632,-115.3271738318349,77.92968670920447,3177875022
iw,-77.0892868041992,-82.0666961669921,-109.14967184881642,80.88703849975614,3177891689
iw,-75.4705963134765,-83.5400161743164,-104.20793590630122,82.27645854362298,3177908356
iw,-73.7863464355468,-84.9730529785156,-99.72885473484148,82.24314013550583,3177925023
iw,-72.0736007690429,-86.3148574829101,-94.61690373739037,81.17437173344672,3177941690
iw,-70.4672775268554,-87.5785217285156,-87.74723727709214,79.57630064478114,3177958357
iw,-69.0215377807617,-88.7947235107421,-78.29309760468755,77.92794236223567,3177975024
iw,-67.8767700195312,-89.5738754272461,-65.98142514889851,76.55031748517608,3177991691
iw,-66.9633407592773,-88.48974609375,-51.19514095589019,75.52254841338976,3178008358
iw,-66.4681167602539,-87.1897201538086,-34.89368583172024,74.66106748377636,3178025025
iw,-66.3480072021484,-85.8948745727539,-18.382060131533613,73.55880817107285,3178041692
iw,-66.4759521484375,-84.6291809082031,-3.0028804069727504,71.66614521426048,3178058359
iw,-66.6551208496093,-83.4016494750976,10.157729309393403,68.38914568013854,3178075026
iw,-67.076431274414,-82.2718048095703,20.475515198011284,63.18298782248224,3178091693
iw,-67.6612777709961,-81.3264007568359,27.867806773197263,55.62587272579851,3178108360
iw,-68.2942733764648,-80.6087875366211,32.750495729764296,45.46815700266787,3178125027
iw,-68.9297485351562,-80.0951995849609,35.90209662470162,32.659756345164354,3178141694
iw,-69.5813598632812,-79.8130798339843,38.27661511711248,17.362424822395838,3178158361
iw,-70.2223129272461,-79.769302368164,40.807835094532756,-0.05005724144550913,3178175028
iw,-71.1980667114257,-79.9532623291015,44.24017768067226,-19.009008579289617,3178191695
iw,-72.3427352905273,-80.4974670410156,49.00801808811934,-38.79604729352597,3178208362
iw,-73.2435607910156,-81.6336059570312,55.172309930179054,-58.62212675264854,3178225029
iw,-74.0463104248046,-83.1278228759765,62.41763129967713,-77.7293245753461,3178241696
iw,-75.4639053344726,-84.728759765625,70.11231241407948,-95.48547475026062,3178258363
iw,-77.1248245239257,-86.3643417358398,77.42649424709994,-111.4364929604602,3178275030
iw,-78.7059478759765,-87.1179885864257,83.48458384975767,-125.29635009879426,3178291697
iw,-80.2078857421875,-85.8044128417968,87.5182505139749,-136.88151944386163,3178308364
iw,-81.6994552612304,-83.5792388916015,88.99852927481537,-146.0213859910544,3178325031
iw,-83.3387374877929,-81.2576751708984,87.74412802655242,-152.4891797152291,3178341698
iw,-85.0513381958007,-78.9958267211914,84.00011833447023,-155.99357725406014,3178358365
iw,-86.6883163452148,-76.6836471557617,78.45835438327704,-156.2465967931364,3178375032
iw,-88.2963638305664,-74.3550796508789,72.1795902094019,-153.08622441479932,3178391699
iw,-90.0,-72.0115585327148,66.40210758980619,-146.6006254634843,3178408366
iw,-89.2994689941406,-69.6094512939453,62.27418784804396,-137.19248765811997,3178425033
iw,-87.9058532714843,-67.2536163330078,60.593646153281476,-125.5422259271826,3178441700
iw,-86.5977478027343,-65.0875701904296,61.64438036037527,-112.46911910048756,3178458367
iw,-85.3676071166992,-63.2594490051269,65.18045322781268,-98.7345133844042,3178475034
iw,-84.1691131591796,-61.7844924926757,70.54598886167756,-84.86351728280856,3178491701
iw,-82.86279296875,-60.5549125671386,76.86999124783388,-71.06479788973982,3178508368
iw,-81.4144592285156,-59.3904838562011,83.26088453859516,-57.29377336954293,3178525035
iw,-79.9534912109375,-58.2345085144043,88.94378793550918,-43.441185700312886,3178541702
iw,-78.5504379272461,-57.3922958374023,93.31915711793488,-29.56464836724847,3178558369
iw,-77.1255111694336,-56.9548454284668,95.95867438868328,-16.051386441754016,3178575036
iw,-75.6170654296875,-56.888572692871,96.578269341587,-3.627343294983227,3178591703
iw,-73.9911499023437,-57.1294326782226,95.02702876743334,6.800825594455711,3178608370
iw,-72.3041610717773,-57.3559761047363,91.30459307756574,14.408567972145828,3178625037
iw,-70.7171783447265,-57.740234375,85.58481169740537,18.718769631109744,3178641704
iw,-69.2553176879882,-58.1702346801757,78.20322080898866,19.77707181864815,3178658371
iw,-68.0398864746093,-58.5740509033203,69.57475626920905,18.18750299299577,3178675038
iw,-67.1645965576171,-59.0456809997558,60.0431304215397,15.006011429850227,3178691705
iw,-66.5712966918945,-59.3157730102539,49.70743368580468,11.523243588872601,3178708372
iw,-66.1571960449218,-59.3696594238281,38.30241954270787,8.988587874305674,3178725039
iw,-65.916519165039,-59.4845962524414,25.208038481235942,8.341643539123307,3178741706
iw,-65.7660369873046,-59.6816062927246,9.624753313006572,10.021619471453036,3178758373
iw,-65.5704879760742,-60.2776489257812,-9.115314932339517,13.908215174886234,3178775040
iw,-65.554328918457,-61.3119773864746,-31.19960687674193,19.40726767922975,3178791707
iw,-66.1685409545898,-62.2197723388671,-56.08385203355472,25.64679447836311,3178808374
iw,-67.5556640625,-63.1446266174316,-82.45239992095026,31.716772343462456,3178825041
iw,-69.6054000854492,-64.209487915039,-108.42475362530855,36.8830012738742,3178841708
iw,-72.1255874633789,-65.4266052246093,-131.94094979628397,40.72840105888593,3178858375
iw,-74.7938537597656,-66.7808380126953,-151.18821525764923,43.20612778092676,3178875042
iw,-77.4005279541015,-68.0544738769531,-164.92873881640176,44.61052481350948,3178891709
iw,-79.9246749877929,-69.2336120605468,-172.6482842005318,45.48165938126398,3178908376
iw,-82.4938888549804,-70.4519729614257,-174.5286935796514,46.4657337463393,3178925043
iw,-85.0912857055664,-71.7230758666992,-171.3081087521554,48.16110975681163,3178941710
iw,-87.4912719726562,-73.0302658081054,-164.10556072757626,50.98267462371268,3178958377
iw,-88.1400680541992,-74.3528976440429,-154.25789617164364,55.07124141509525,3178975044
iw,-86.1930694580078,-75.6753311157226,-143.17491532122693,60.26313113258136,3178991711
iw,-84.0901107788086,-77.0479202270507,-132.1923829643593,66.12399824588289,3179008378
iw,-82.0965957641601,-78.5485916137695,-122.40678861112765,72.0411819456801,3179025045
iw,-80.2670974731445,-80.1120452880859,-114.50436358525685,77.35752494782574,3179041712
iw,-78.5681457519531,-81.6774444580078,-108.62878935527338,81.51706002130013,3179058379
iw,-76.8839645385742,-83.199234008789,-104.34494199854417,84.1852788748123,3179075046
iw,-75.1324920654296,-84.6699447631836,-100.73868385119111,85.3104675943181,3179091713
iw,-73.3568801879882,-86.0507736206054,-96.649293607596,85.10875954287573,3179108380
iw,-71.6743621826171,-87.3055725097656,-90.97972431711652,83.9786873248055,3179125047
iw,-70.1066360473632,-88.3852920532226,-82.99501761477885,82.37255164765669,3179141714
iw,-68.7469940185546,-88.7453994750976,-72.51805229349826,80.66351982798618,3179158381
iw,-67.6427841186523,-87.9296264648437,-59.96428434795372,79.0443892686314,3179175048
iw,-66.9966125488281,-86.7445449829101,-46.20902986623322,77.47879357087078,3179191715
iw,-66.5894927978515,-85.502815246582,-32.333718644719106,75.7068435476364,3179208382
iw,-66.3650741577148,-84.2388381958007,-19.334503678931636,73.29341505956303,3179225049
iw,-66.3814315795898,-83.026252746582,-7.884748169683594,69.7017514674255,3179241716
iw,-66.2557678222656,-81.8908996582031,1.7815899667092083,64.37601228525722,3179258383
iw,-66.4643630981445,-80.9416275024414,9.845896585597895,56.82111885681512,3179275050
iw,-66.6769027709961,-80.2091293334961,16.76955050603728,46.67454764780958,3179291717
iw,-67.019172668457,-79.6641998291015,23.10718706604778,33.769576515833194,3179308384
iw,-67.4338912963867,-79.3139343261718,29.332676681878613,18.188948564794615,3179325051
iw,-67.6737213134765,-79.2383193969726,35.72717875051647,0.3007044157657188,3179341718
iw,-68.4085311889648,-79.4368896484375,42.35474601327674,-19.241126810345985,3179358385
iw,-70.1900558471679,-79.9702072143554,49.11854443879386,-39.55026211309468,3179375052
iw,-71.8388137817382,-81.0191802978515,55.85199394299739,-59.62381725968966,3179391719
iw,-72.4836883544921,-82.5527038574218,62.379152261080954,-78.50271114113345,3179408386
iw,-73.1098098754882,-84.2674560546875,68.50940615796421,-95.43256713582943,3179425053
iw,-74.5103302001953,-85.7836074829101,73.99784363365227,-109.96830719181456,3179441720
iw,-76.2221450805664,-86.4175643920898,78.53867862450096,-121.98064946862971,3179458387
iw,-77.849494934082,-85.5569686889648,81.82705733614472,-131.562521493663,3179475054
iw,-79.3082809448242,-83.7690505981445,83.66397200489283,-138.8785465571788,3179491721
iw,-80.8391723632812,-81.6775588989257,84.05017456646429,-144.0267535918543,3179508388
iw,-82.4049530029296,-79.5032653808593,83.22837982057041,-146.97329140462986,3179525055
iw,-83.9547729492187,-77.2157135009765,81.65924928715127,-147.5817868410991,3179541722
iw,-85.5479888916015,-74.958023071289,79.93582794606625,-145.71111250420012,3179558389
iw,-87.0980224609375,-72.7688522338867,78.655870754079,-141.32578419763178,3179575056
iw,-88.4060287475586,-70.5636367797851,78.28603608691317,-134.5654189808572,3179591723
iw,-89.1148605346679,-68.3479919433593,79.05992650465524,-125.74598117100246,3179608390
iw,-88.0971069335937,-66.1848449707031,80.9440560591905,-115.29744983596105,3179625057
iw,-86.5778350830078,-64.2290802001953,83.68066082746024,-103.66660578807829,3179641724
iw,-85.0651702880859,-62.5751762390136,86.88451450312049,-91.22609686451976,3179658391
iw,-83.5972442626953,-61.1725463867187,90.15007380842691,-78.2305283612466,3179675058
iw,-82.0761032104492,-59.8727340698242,93.12714853949856,-64.84353919311857,3179691725
iw,-80.5236511230468,-58.717041015625,95.5445034178256,-51.22720159344112,3179708392
iw,-78.9725189208984,-57.875129699707,97.18716216263999,-37.64982167260587,3179725059
iw,-77.4380645751953,-57.3368644714355,97.85199425018119,-24.552401337336697,3179741726
iw,-75.883804321289,-57.1122436523437,97.3120474300939,-12.531103218397504,3179758393
iw,-74.2759399414062,-57.0418014526367,95.31246135430635,-2.234002119038429,3179775060
iw,-72.6889572143554,-57.1313247680664,91.60216341982238,5.790309224444407,3179791727
iw,-71.1199035644531,-57.3430709838867,85.98327425285765,11.238790001674962,3179808394
iw,-69.6056289672851,-57.7810440063476,78.34571919036453,14.151404464121576,3179825061
iw,-68.4044418334961,-58.3936233520507,68.6581052169871,14.93826292959254,3179841728
iw,-67.6318969726562,-59.0059432983398,56.91022739446898,14.33140920106213,3179858395
iw,-67.1952743530273,-59.4421005249023,43.03873161272606,13.26503203690892,3179875062
iw,-66.9688262939453,-59.7579460144043,26.894734729699156,12.698530244291153,3179891729
iw,-66.8677444458007,-60.037254333496,8.307490592989259,13.41548547287437,3179908396
iw,-66.8203964233398,-60.6957397460937,-12.746189810111579,15.849583801430988,3179925063
iw,-66.9823989868164,-61.3265686035156,-35.9224119762802,19.99075021282723,3179941730
iw,-67.6503295898437,-62.0529174804687,-60.34532418699686,25.40556778102042,3179958397
iw,-68.9373016357421,-63.1990432739257,-84.60096155322836,31.372015900522033,3179975064
iw,-70.8458938598632,-64.4532699584961,-106.9357938710186,37.09065529332077,3179991731
iw,-73.157470703125,-65.6173477172851,-125.61655295872774,41.90653389299918,3180008398
iw,-75.7289657592773,-66.889404296875,-139.33264659763935,45.47364463198167,3180025065
iw,-78.0691757202148,-68.2097091674804,-147.4995381319827,47.81933578196673,3180041732
iw,-80.0984115600586,-69.4882888793945,-150.36144433046965,49.30274897594703,3180058399
iw,-82.0061340332031,-70.7462387084961,-148.87332981704003,50.49005372633767,3180075066
iw,-83.877212524414,-72.0606536865234,-144.42382931211247,51.98482748488289,3180091733
iw,-85.5289306640625,-73.3957595825195,-138.50394397856925,54.2577819368534,3180108400
iw,-86.6192245483398,-74.7183609008789,-132.41880556870728,57.51780737383694,3180125067
iw,-86.4452133178711,-76.0710906982421,-127.09843523928052,61.655676744017725,3180141734
iw,-85.1852111816406,-77.4657287597656,-123.01666641274404,66.27365791574097,3180158401
iw,-83.4643325805664,-78.9416427612304,-120.19640534843442,70.7918980306222,3180175068
iw,-81.5948944091796,-80.4748382568359,-118.27122072229196,74.60134051262557,3180191735
iw,-79.7522430419921,-81.9921264648437,-116.58229890724445,77.22001059149734,3180208402
iw,-77.9466476440429,-83.4696197509765,-114.30310157909528,78.40976941096714,3180225069
iw,-76.1241455078125,-84.8817825317382,-110.58897299674697,78.22397656661117,3180241736
iw,-74.3037109375,-86.2448577880859,-104.74034806498469,76.97732499720888,3180258403
iw,-72.6315460205078,-87.5461654663086,-96.35196058915938,75.14980414011002,3180275070
iw,-71.1668930053711,-88.8053207397461,-85.4102297055304,73.25203336307182,3180291737
iw,-69.9501342773437,-90.0,-72.30816186715249,71.68713019925589,3180308404
iw,-69.0299453735351,-89.1224060058593,-57.77089976352132,70.64394313444062,3180325071
iw,-68.3248062133789,-87.8349075317382,-42.71300921726796,70.04706789952239,3180341738
iw,-67.8352355957031,-86.5682983398437,-28.06655638013351,69.57196557176913,3180358405
iw,-67.6777725219726,-85.3008880615234,-14.621168974129553,68.71407653323307,3180375072
iw,-67.6859664916992,-84.0795059204101,-2.9077274944534897,66.8865534884604,3180391739
iw,-67.7509765625,-82.9581756591796,6.8569430262967455,63.51753547736755,3180408406
iw,-68.037727355957,-81.9401473999023,14.762218411058399,58.125054512308466,3180425073
iw,-68.6082229614257,-81.0774688720703,21.143251339805023,50.36095173241858,3180441740
iw,-69.2845840454101,-80.4171752929687,26.4842387127323,40.02792491065004,3180458407
iw,-69.7823181152343,-79.9859237670898,31.302170983757275,27.081369056749335,3180475074
iw,-70.2354660034179,-79.8462524414062,36.032521238014816,11.628730171996642,3180491741
iw,-70.9552688598632,-79.9763488769531,40.94708836257199,-6.06554349501696,3180508408
iw,-71.9668731689453,-80.349136352539,46.13072984656516,-25.570108171518765,3180525075
iw,-73.1210098266601,-80.9875564575195,51.51796772824902,-46.28238231266437,3180541742
iw,-74.3467025756836,-82.1704025268554,56.9591852909883,-67.44559615554898,3180558409
iw,-75.4652023315429,-83.7340927124023,62.27627260800344,-88.19788706396922,3180575076
iw,-76.5641708374023,-85.4563217163086,67.28463850674723,-107.64849124504508,3180591743
iw,-77.8460006713867,-86.5446472167968,71.78461167628814,-124.96008041916792,3180608410
iw,-79.2153015136718,-85.7167358398437,75.54354058003688,-139.41293336453475,3180625077
iw,-80.7277450561523,-83.7743301391601,78.29662336831122,-150.4402108554322,3180641744
iw,-82.1747665405273,-81.6541900634765,79.78926458200411,-157.64499892914785,3180658411
iw,-83.6631546020507,-79.5100860595703,79.86393629777812,-160.82222557002075,3180675078
iw,-85.1733474731445,-77.1942672729492,78.56467912753729,-159.99974167214793,3180691745
iw,-86.6786956787109,-74.6852264404296,76.20931615909404,-155.48596588887833,3180708412
iw,-88.2370834350586,-72.1605834960937,73.38091237147944,-147.88546572754728,3180725079
iw,-90.0,-69.7500762939453,70.81982738074406,-138.04061617599646,3180741746
iw,-89.2454147338867,-67.5796508789062,69.24205669945665,-126.88548507790482,3180758413
iw,-87.8239974975586,-65.6536560058593,69.14538203794964,-115.2447029177473,3180775080
iw,-86.4956359863281,-63.9018783569335,70.67341215677817,-103.64863564360283,3180791747
iw,-85.1832275390625,-62.2423133850097,73.58489983358885,-92.24257068248203,3180808414
iw,-83.8311233520507,-60.6526184082031,77.33394844503512,-80.83489316484714,3180825081
iw,-82.3653488159179,-59.177749633789,81.22590738315544,-69.07176031053126,3180841748
iw,-80.8234329223632,-57.925235748291,84.59031040790381,-56.67135194411807,3180858415
iw,-79.2999420166015,-57.0105361938476,86.91304225991482,-43.62546585548725,3180875082
iw,-77.9009246826171,-56.4248428344726,87.89296837253944,-30.29099152139484,3180891749
iw,-76.6042709350586,-56.100242614746,87.42381784120515,-17.339941484857572,3180908416
iw,-75.3117446899414,-56.035415649414,85.53387245910469,-5.592217718727575,3180925083
iw,-73.9139938354492,-56.0585250854492,82.32684533357452,4.20314861912749,3180941750
iw,-72.4354019165039,-56.1712074279785,77.9503677896133,11.560188235821988,3180958417
iw,-71.0266494750976,-56.2284431457519,72.58495832642323,16.363563376232456,3180975084
iw,-69.7736358642578,-56.5793190002441,66.42028765638231,18.87428360648828,3180991751
iw,-68.7264099121093,-57.1227569580078,59.587224367820525,19.653734654366378,3181008418
iw,-68.0053024291992,-57.6343460083007,52.04542651672227,19.440163047502963,3181025085
iw,-67.5649490356445,-57.8491401672363,43.46970392301045,19.006258078765743,3181041752
iw,-67.2858352661132,-58.0332908630371,33.20779060195056,19.02219255772875,3181058419
iw,-67.0529479980468,-58.4608993530273,20.375596008280123,19.952001975519916,3181075086
iw,-66.7972946166992,-59.1179504394531,4.107147388514092,22.006446989665054,3181091753
iw,-66.5673904418945,-60.2720565795898,-16.09823779212334,25.15279785154321,3181108420
iw,-66.7970123291015,-61.1792068481445,-40.05333409132265,29.15809070820727,3181125087
iw,-67.7598190307617,-61.8421249389648,-66.72172154197779,33.64078551576081,3181141754
iw,-69.4161758422851,-62.8055419921875,-94.30325477952472,38.12675722976504,3181158421
iw,-71.6951065063476,-63.9360885620117,-120.55512219101972,42.1250490919755,3181175088
iw,-74.2652053833007,-65.3048400878906,-143.2450624545138,45.23385899065742,3181191755
iw,-77.0152511596679,-66.7886505126953,-160.59118394792898,47.25937722581294,3181208422
iw,-79.6779861450195,-68.1718826293945,-171.56468553793417,48.30285141486229,3181225089
iw,-82.3113174438476,-69.5119171142578,-175.99647930614407,48.7678855088505,3181241756
iw,-84.7980575561523,-70.7944564819336,-174.49909546834678,49.2659622821789,3181258423
iw,-86.7627563476562,-72.048957824707,-168.2616752937654,50.440218397858764,3181275090
iw,-87.3039093017578,-73.2887954711914,-158.78937268281513,52.76415448318599,3181291757
iw,-85.9381790161132,-74.5287780761718,-147.64743746520216,56.386098370344335,3181308424
iw,-84.0053482055664,-75.8402938842773,-136.2479203022791,61.075948019047615,3181325091
iw,-82.0173645019531,-77.2526473999023,-125.69394061066698,66.29386989257641,3181341758
iw,-80.0546798706054,-78.7689895629882,-116.68039410429611,71.35602969964974,3181358425
iw,-78.1777725219726,-80.3208847045898,-109.44476761065702,75.63813330675589,3181375092
iw,-76.4329299926757,-81.8626480102539,-103.76584032439438,78.74681709776593,3181391759
iw,-74.7898712158203,-83.2918548583984,-99.01556178986476,80.6043310127824,3181408426
iw,-73.2133102416992,-84.6684417724609,-94.27277306172384,81.42539002966116,3181425093
iw,-71.7304458618164,-85.9644470214843,-88.50040149506567,81.6024580878503,3181441760
iw,-70.3280944824218,-87.173957824707,-80.7690656340376,81.54344778849831,3181458427
iw,-68.9955062866211,-88.2483367919921,-70.48587977942155,81.5160220044029,3181475094
iw,-67.837532043457,-88.7179336547851,-57.56957169949941,81.54502146200718,3181491761
iw,-67.1392440795898,-87.9846267700195,-42.5146049810384,81.389187603948,3181508428
iw,-66.7772750854492,-86.7718353271484,-26.314151442444988,80.59788372035352,3181525095
iw,-66.564224243164,-85.4201202392578,-10.256459064974102,78.6252786353843,3181541762
iw,-66.8528671264648,-84.0208969116211,4.349800291404629,74.96380241234101,3181558429
iw,-67.072509765625,-82.6937103271484,16.44793782420855,69.25412037495695,3181575096
iw,-67.4600830078125,-81.5970687866211,25.44014037097005,61.33800756540093,3181591763
iw,-68.110725402832,-80.8120956420898,31.292073322676583,51.24332058164346,3181608430
iw,-68.8974685668945,-80.3307800292968,34.524414159474915,39.119909259974776,3181625097
iw,-69.546028137207,-80.0109024047851,36.096644149377525,25.167540430149778,3181641764
iw,-70.080940246582,-79.8335342407226,37.20064196439029,9.59756611019735,3181658431
iw,-70.6942291259765,-79.826301574707,38.999998720552554,-7.353679566101248,3181675098
iw,-71.4387893676757,-80.0534744262695,42.37121621886288,-25.376595326311957,3181691765
iw,-72.0144729614257,-80.6744308471679,47.70973514137469,-44.04572786760574,3181708432
iw,-72.9722137451171,-81.9077453613281,54.85010424085184,-62.82006677428814,3181725099
iw,-74.2708053588867,-83.4332580566406,63.12090727557581,-81.09483174510729,3181741766
iw,-75.7773056030273,-85.0812759399414,71.51819069629506,-98.279931628928,3181758433
iw,-77.3470230102539,-86.7262496948242,78.94526863244275,-113.86556609175308,3181775100
iw,-78.8725967407226,-87.0327835083007,84.44993105613753,-127.44659011251848,3181791767
iw,-80.3094329833984,-85.1942138671875,87.40511516393623,-138.70198868447568,3181808434
iw,-81.8798904418945,-82.8600158691406,87.61305620501817,-147.34867595429233,3181825101
iw,-83.5611190795898,-80.6512374877929,85.33607495594306,-153.10234564732858,3181841768
iw,-85.1312408447265,-78.5014190673828,81.25612501493539,-155.67820193798102,3181858435
iw,-86.6107177734375,-76.2309188842773,76.3573940580311,-154.8477466647526,3181875102
iw,-88.0305938720703,-73.8596572875976,71.7365838662753,-150.53841148771255,3181891769
iw,-89.5297775268554,-71.4308319091796,68.37551856219258,-142.93451645170492,3181908436
iw,-90.0,-69.0156097412109,66.93696794302836,-132.5265048386824,3181925103
iw,-88.1196594238281,-66.7577362060546,67.64401898304374,-120.06910939177706,3181941770
iw,-86.6790466308593,-64.8013076782226,70.27411927319513,-106.44540114403297,3181958437
iw,-85.2900238037109,-63.2156677246093,74.25832879602159,-92.47864122565946,3181975104
iw,-83.9058074951171,-61.8937797546386,78.84499886817608,-78.76559583008041,3181991771
iw,-82.4568862915039,-60.6425132751464,83.27564889825258,-65.60321206129115,3182008438
iw,-80.9718704223632,-59.4365997314453,86.92737786744907,-53.040394352697625,3182025105
iw,-79.473876953125,-58.4197921752929,89.39313121024485,-41.026355074151994,3182041772
iw,-77.9908142089843,-57.7921905517578,90.49191701730453,-29.58019203097432,3182058439
iw,-76.5233383178711,-57.3783912658691,90.22065680639527,-18.89958215674967,3182075106
iw,-75.0680999755859,-57.07470703125,88.67258044095658,-9.35996961823472,3182091773
iw,-73.6071624755859,-56.9470481872558,85.94983843858972,-1.4061594107239361,3182108440
iw,-72.198257446289,-57.0742492675781,82.09082065854693,4.618844312831214,3182125107
iw,-70.8666229248046,-57.306770324707,77.02133142377302,8.639579812538162,3182141774
iw,-69.6708297729492,-57.559097290039,70.53061643453081,10.940790348176137,3182158441
iw,-68.6409912109375,-57.7960014343261,62.272250974293144,12.145088076899611,3182175108
iw,-67.8330841064453,-58.02587890625,51.794552959612936,13.07680663246789,3182191775
iw,-67.2838363647461,-58.3090324401855,38.60989851132127,14.554941870242054,3182208442
iw,-67.0131530761718,-58.4058227539062,22.310505969263566,17.181171565268414,3182225109
iw,-66.9433135986328,-58.8891944885253,2.725136850347444,21.188546686802592,3182241776
iw,-67.0050277709961,-60.0096549987793,-19.913198617838884,26.395932446006398,3182258443
iw,-67.3685302734375,-61.1251106262207,-44.84527286975302,32.27786689834275,3182275110
iw,-68.304573059082,-62.2850303649902,-70.7770394360423,38.121133952564584,3182291777
iw,-69.9877166748046,-63.3278427124023,-96.02820696476238,43.21680622502185,3182308444
iw,-72.1811904907226,-64.4246673583984,-118.8225455873931,47.03809600824657,3182325111
iw,-74.6444091796875,-65.820816040039,-137.63737851373878,49.36845529666099,3182341778
iw,-77.153694152832,-67.2539672851562,-151.495646542444,50.356317928490675,3182358445
iw,-79.5422286987304,-68.5901565551757,-160.10584075188592,50.482673844214595,3182375112
iw,-81.8558959960937,-69.9275588989257,-163.82006791417814,50.444086449969525,3182391779
iw,-84.1048889160156,-71.2511444091796,-163.4510959267437,50.97734495943593,3182408446
iw,-86.0470581054687,-72.6026840209961,-160.0304902072369,52.67145186628403,3182425113
iw,-87.1266326904296,-73.9793395996093,-154.58912210290077,55.81731034812617,3182441780
iw,-86.2597427368164,-75.358772277832,-148.00898810892656,60.33433936282088,3182458447
iw,-84.3917846679687,-76.7271957397461,-140.95350928295105,65.79199066942274,3182475114
iw,-82.2935791015625,-78.1755905151367,-133.8529850760059,71.5189755401044,3182491781
iw,-80.1909561157226,-79.750617980957,-126.91363670230633,76.76954831707027,3182508448
iw,-78.1727218627929,-81.3455810546875,-120.13046839211903,80.90039361825346,3182525115
iw,-76.2994613647461,-82.9073791503906,-113.30407308232384,83.50909907407213,3182541782
iw,-74.5406723022461,-84.3715896606445,-106.07635582328369,84.49835911941945,3182558449
iw,-72.8864212036132,-85.7639083862304,-98.00160106466446,84.05503327442487,3182575116
iw,-71.3469009399414,-87.0976867675781,-88.65595914547255,82.5596563815368,3182591783
iw,-69.9530487060546,-88.2669830322265,-77.76661105551935,80.4590468819518,3182608450
iw,-68.6678848266601,-88.9354095458984,-65.3232455659516,78.13789389365725,3182625117
iw,-67.61572265625,-88.4262924194336,-51.62979513790378,75.8181751217484,3182641784
iw,-66.9737091064453,-87.3846130371093,-37.2686458652935,73.50431805128697,3182658451
iw,-66.821533203125,-86.2235336303711,-22.980297111122926,70.98078574007272,3182675118
iw,-66.7002792358398,-85.0121002197265,-9.496767350478613,67.85752763590551,3182691785
iw,-66.8182601928711,-83.8264465332031,2.612734392086583,63.64787224743453,3182708452
iw,-67.0547180175781,-82.7337493896484,13.03443182535718,57.85616986602317,3182725119
iw,-67.5368881225586,-81.8573913574218,21.723612098490747,50.05341953349294,3182741786
iw,-68.2012710571289,-81.2448272705078,28.854662376567436,39.92962387530084,3182758453
iw,-68.7372131347656,-80.8948898315429,34.73865392195117,27.32664474085305,3182775120
iw,-69.3873138427734,-80.7408905029296,39.73894904425027,12.265071675733639,3182791787
iw,-69.9886016845703,-80.7470016479492,44.207900733169595,-5.025065558295617,3182808454
iw,-71.2629928588867,-80.9632568359375,48.45625850063488,-24.076240996123545,3182825121
iw,-73.0175857543945,-81.5603637695312,52.746897244922785,-44.181748621451355,3182841788
iw,-74.0375823974609,-82.7294616699218,57.28300715282647,-64.44635030659357,3182858455
iw,-74.5456619262695,-84.2966232299804,62.163328621189315,-83.89543962807703,3182875122
iw,-75.6112365722656,-86.0459213256836,67.31480444288565,-101.61720035156253,3182891789
iw,-77.154556274414,-87.300064086914,72.45227655139877,-116.88991541912971,3182908456
iw,-78.7121047973632,-86.6049499511718,77.11030758818315,-129.24959063039483,3182925123
iw,-80.1864471435546,-84.418228149414,80.74853036103642,-138.48035557645082,3182941790
iw,-81.6309738159179,-81.9614944458007,82.89502388166414,-144.5461726367876,3182958457
iw,-83.0926971435546,-79.5786819458007,83.28573718695226,-147.50779839477235,3182975124
iw,-84.6058807373046,-77.2718887329101,81.96534683887279,-147.47039693346383,3182991791
iw,-86.1848449707031,-74.9860076904296,79.31883655739244,-144.58425421450443,3183008458
iw,-87.8191452026367,-72.7472686767578,76.01022034097225,-139.08685250748024,3183025125
iw,-89.4202117919921,-70.5624008178711,72.8289625419741,-131.34821362469367,3183041792
iw,-90.0,-68.4288787841796,70.48339391904572,-121.87662466245312,3183058459
iw,-88.3791275024414,-66.4553680419921,69.41285939264381,-111.26074344531392,3183075126
iw,-86.9791717529296,-64.7070007324218,69.69201308337327,-100.05801624882874,3183091793
iw,-85.5546798706054,-63.2114334106445,71.06325013478528,-88.67262061082434,3183108460
iw,-84.1715621948242,-61.8514900207519,73.0750148587437,-77.28101824423743,3183125127
iw,-82.8272628784179,-60.5803489685058,75.25885294287833,-65.84826868108046,3183141794
iw,-81.5276870727539,-59.4292182922363,77.27063138616062,-54.237496010634636,3183158461
iw,-80.2482452392578,-58.5861740112304,78.94885103225893,-42.36894286797524,3183175128
iw,-78.9307174682617,-58.0753860473632,80.28401339213573,-30.359807195188754,3183191795
iw,-77.6046981811523,-57.8075370788574,81.32622102364903,-18.585164215002283,3183208462
iw,-76.2999038696289,-57.8442840576171,82.07377457108295,-7.636150660515,3183225129
iw,-74.9736175537109,-58.0577354431152,82.38438611460677,1.8066680876577017,3183241796
iw,-73.6378021240234,-58.3043136596679,81.93784537864595,9.13865446382246,3183258463
iw,-72.2635726928711,-58.5683059692382,80.25930815956333,13.983967066747226,3183275130
iw,-70.8188858032226,-58.9289321899414,76.79051690487707,16.299541978767362,3183291797
iw,-69.4523239135742,-59.5931816101074,70.97903788921002,16.414071697252837,3183308464
iw,-68.3814163208007,-60.2468872070312,62.351799586424434,14.997079330711431,3183325131
iw,-67.652587890625,-60.6055755615234,50.554528436001846,12.956392444371623,3183341798
iw,-67.2854080200195,-60.8602218627929,35.36767488282381,11.272242783338184,3183358465
iw,-67.2142944335937,-61.2679100036621,16.733401273016415,10.798509542120032,3183375132
iw,-67.2104263305664,-61.7253494262695,-5.174066494928639,12.08162976985964,3183391799
iw,-67.3463134765625,-62.1212730407714,-29.837159482536244,15.249085301596937,3183408466
iw,-67.9419860839843,-63.0705223083496,-56.29379971088605,20.00170473923424,3183425133
iw,-69.0962829589843,-64.2611999511718,-83.1247241958152,25.715123773437153,3183441800
iw,-70.9940872192382,-65.3193664550781,-108.58673659661491,31.622922861637417,3183458467
iw,-73.4891891479492,-66.4907455444336,-130.8846438592251,37.0282504323732,3183475134
iw,-76.1493530273437,-67.7837905883789,-148.50304078908414,41.48336172098018,3183491801
iw,-78.726806640625,-69.0460128784179,-160.48522169310579,44.88813081784436,3183508468
iw,-81.2201385498046,-70.2776794433593,-166.571224604911,47.48252227028755,3183525135
iw,-83.6985168457031,-71.5134506225586,-167.1725312659036,49.738741548515065,3183541802
iw,-86.0152816772461,-72.7189483642578,-163.22524180741416,52.18965872729048,3183558469
iw,-87.8174362182617,-73.9546966552734,-155.99239665869132,55.25042703628247,3183575136
iw,-87.4608688354492,-75.2923278808593,-146.87340331792825,59.0911861166459,3183591803
iw,-85.4376907348632,-76.7256774902343,-137.24201029027265,63.59904877318247,3183608470
iw,-83.2250671386718,-78.2675323486328,-128.30032579773714,68.43395946583101,3183625137
iw,-81.1209106445312,-79.9066162109375,-120.92693590918607,73.14868569081318,3183641804
iw,-79.2978286743164,-81.4995651245117,-115.51949062129893,77.32313516297712,3183658471
iw,-77.760498046875,-83.0397338867187,-111.8727517182966,80.66601510390181,3183675138
iw,-76.1419448852539,-84.5150985717773,-109.1623240562855,83.05890378446621,3183691805
iw,-74.3072814941406,-86.0248260498046,-106.09287655803405,84.54477586602646,3183708472
iw,-72.379768371582,-87.6028213500976,-101.21107156270503,85.27947007272051,3183725139
iw,-70.5577697753906,-89.325080871582,-93.30522751490109,85.46512005919831,3183741806
iw,-68.9461441040039,-90.0,-81.76228463270544,85.27693311977922,3183758473
iw,-67.7203521728515,-88.1838302612304,-66.75973149485715,84.791083409529,3183775140
iw,-67.0684738159179,-86.7574386596679,-49.23206139354438,83.92615954258542,3183791807
iw,-66.7637405395507,-85.3391494750976,-30.635292330446596,82.41636684913222,3183808474
iw,-66.6090011596679,-83.9395141601562,-12.598783122717945,79.83140656779776,3183825141
iw,-66.6302413940429,-82.5728683471679,3.425458229147899,75.64361587218038,3183841808
iw,-67.0277481079101,-81.3124694824218,16.428717339676233,69.32571302957426,3183858475
iw,-67.6586685180664,-80.2584152221679,25.98277358993507,60.4531258964861,3183875142
iw,-68.278694152832,-79.4346160888671,32.244024106300266,48.788058651099234,3183891809
iw,-68.9760208129882,-78.8848800659179,35.84836166026583,34.33394359610867,3183908476
iw,-69.5313415527343,-78.5816802978515,37.738360150100306,17.35948651177425,3183925143
iw,-70.2215957641601,-78.5271301269531,38.968943757532195,-1.6059321442444026,3183941810
iw,-71.0300140380859,-78.7809448242187,40.526705365465325,-21.808478917740807,3183958477
iw,-72.0465393066406,-79.4111785888671,43.179314893636196,-42.34438517694023,3183975144
iw,-73.059211730957,-80.5715026855468,47.360091776938866,-62.272772392900876,3183991811
iw,-73.7880172729492,-82.2182312011718,53.09684933021822,-80.74850290660234,3184008478
iw,-74.6789779663086,-84.0027923583984,60.005630362656596,-97.1377276418453,3184025145
iw,-76.0451354980468,-85.6877975463867,67.37013531556299,-111.07550946098847,3184041812
iw,-77.6027755737304,-86.7813186645507,74.3044941127076,-122.4449287128625,3184058479
iw,-79.1638793945312,-86.0779418945312,79.96152951674672,-131.2903300665954,3184075146
iw,-80.6501007080078,-84.0750045776367,83.72747570126556,-137.7045014994638,3184091813
iw,-82.1200256347656,-81.8639526367187,85.35185709047148,-141.73793770346774,3184108480
iw,-83.6171875,-79.7522811889648,84.98720122007892,-143.3670290706331,3184125147
iw,-85.1505050659179,-77.5729370117187,83.13833656045185,-142.5322534389087,3184141814
iw,-86.7853317260742,-75.3282775878906,80.53780413140812,-139.22559429512137,3184158481
iw,-88.4182357788086,-73.1460647583007,77.97628654296913,-133.58133355227844,3184175148
iw,-90.0,-71.0205993652343,76.1279163604234,-125.91991278835964,3184191815
iw,-88.8632354736328,-68.981704711914,75.41553316742802,-116.71566189869168,3184208482
iw,-87.3209533691406,-67.0619049072265,75.95243121104583,-106.49611951862524,3184225149
iw,-85.7773361206054,-65.3115158081054,77.57224415593086,-95.71475984772327,3184241816
iw,-84.3166961669921,-63.763011932373,79.92670602372479,-84.65390833379834,3184258483
iw,-82.8607864379882,-62.3974456787109,82.60902872152147,-73.40380869343134,3184275150
iw,-81.4006118774414,-61.1999969482421,85.25907679199793,-61.93162874837886,3184291817
iw,-79.9358901977539,-60.1930084228515,87.62163709124272,-50.21419495610056,3184308484
iw,-78.4467468261718,-59.4571304321289,89.54970193183658,-38.37812836460001,3184325151
iw,-76.9710998535156,-58.9976844787597,90.96280443056662,-26.785081557690663,3184341818
iw,-75.5283966064453,-58.7555274963378,91.78322062784137,-16.02118482408037,3184358485
iw,-74.0625,-58.7260627746582,91.87857122349722,-6.7883998115053075,3184375152
iw,-72.5843200683593,-58.8168067932128,91.03554789165742,0.26674030224136913,3184391819
iw,-71.0769119262695,-58.9018516540527,88.97528137933419,4.730717074780418,3184408486
iw,-69.5079650878906,-59.0801277160644,85.40016466563183,6.553617783020918,3184425153
iw,-67.9538497924804,-59.3180351257324,80.04375221874892,6.100194838385614,3184441820
iw,-66.6236190795898,-59.6790046691894,72.69073473650174,4.11247635545913,3184458487
iw,-65.701187133789,-59.9005622863769,63.15054599601361,1.5903962594457217,3184475154
iw,-65.1481399536132,-59.7823982238769,51.20253279649124,-0.3925151120802463,3184491821
iw,-64.7789611816406,-59.6952514648437,36.563899713193216,-0.9056327721135452,3184508488
iw,-64.5087738037109,-59.5600891113281,18.937308360284575,0.6416489658314158,3184525155
iw,-64.2980880737304,-59.880500793457,-1.8407208833934194,4.379509816378249,3184541822
iw,-64.2937316894531,-60.6101417541503,-25.59186883468182,9.971972722517016,3184558489
iw,-64.8920059204101,-61.1334571838378,-51.62125891827358,16.726101611711027,3184575156
iw,-66.1427841186523,-61.8819465637207,-78.67346645349993,23.77991422104284,3184591823
iw,-67.9375457763671,-63.1201095581054,-105.06744282433472,30.313106136836677,3184608490
iw,-70.2420654296875,-64.3295822143554,-128.98148958308715,35.724772461075275,3184625157
iw,-72.8639678955078,-65.5112152099609,-148.79681539949928,39.73910686236308,3184641824
iw,-75.5603256225586,-66.7695007324218,-163.38946529528897,42.428231448365665,3184658491
iw,-78.1329345703125,-68.1073684692382,-172.28925924031512,44.1673310899721,3184675158
iw,-80.7097854614257,-69.4626235961914,-175.68260558095994,45.545408535960526,3184691825
iw,-83.4030227661132,-70.822036743164,-174.29350572988764,47.24617654537251,3184708492
iw,-85.9893188476562,-72.1989288330078,-169.2058852130582,49.90588499644517,3184725159
iw,-87.8633804321289,-73.5682296752929,-161.68174669529614,53.961656120080974,3184741826
iw,-87.1112060546875,-74.8946456909179,-152.9989400261929,59.52030267232319,3184758493
iw,-85.0677108764648,-76.2346496582031,-144.30540515798012,66.28814283783584,3184775160
iw,-82.8822479248046,-77.6848983764648,-136.48062546837946,73.59551410053265,3184791827
iw,-80.7742309570312,-79.2909393310546,-130.00947932499008,80.52508882604101,3184808494
iw,-78.7717208862304,-81.0297698974609,-124.8950085071539,86.1195810719631,3184825161
iw,-76.7945251464843,-82.8310317993164,-120.6477000172545,89.61514955654535,3184841828
iw,-74.7759323120117,-84.5296936035156,-116.37886295376693,90.63407276589118,3184858495
iw,-72.7832260131836,-86.0931930541992,-110.99575907003305,89.28048020571414,3184875162
iw,-70.9783477783203,-87.57763671875,-103.45977800602819,86.1124006555528,3184891829
iw,-69.3652420043945,-89.0150375366211,-93.04448425655742,81.99928897702979,3184908496
iw,-67.9169006347656,-89.8208694458007,-79.52833360320004,77.90243249924757,3184925163
iw,-66.6998138427734,-88.4870300292968,-63.274088089736246,74.6300383593123,3184941830
iw,-65.9197311401367,-87.3783416748046,-45.17461418855641,72.62193229489183,3184958497
iw,-65.6832504272461,-86.2501754760742,-26.47792218050231,71.81398394233854,3184975164
iw,-65.6829986572265,-84.9766006469726,-8.538366416227092,71.61772625819151,3184991831
iw,-65.8427963256836,-83.6504135131836,7.437082861153597,71.02370138759055,3185008498
iw,-66.1611633300781,-82.398811340332,20.583685651143224,68.80397967401079,3185025165
iw,-66.5713806152343,-81.2978439331054,30.482391132441215,63.76419667006076,3185041832
iw,-67.3809432983398,-80.2606811523437,37.17550029092001,54.9881452407058,3185058499
iw,-68.3718795776367,-79.3722915649414,41.115555569063,42.02562107847736,3185075166
iw,-69.1804580688476,-78.857795715332,43.064253327181724,24.9883958867745,3185091833
iw,-69.8526229858398,-78.8301391601562,43.95106111485089,4.5371043003605385,3185108500
iw,-70.6671981811523,-79.1969299316406,44.70767680087466,-18.23493147704741,3185125167
iw,-71.681770324707,-79.9164962768554,46.10764766634006,-41.99024134259197,3185141834
iw,-72.443862915039,-81.1298065185546,48.64282489137346,-65.36121556599345,3185158501
iw,-73.2525558471679,-82.7488555908203,52.45853441412447,-87.1409932461237,3185175168
iw,-74.2292098999023,-84.6108627319336,57.35885505017993,-106.41332035734077,3185191835
iw,-75.5154190063476,-86.6419982910156,62.88222278583329,-122.60154241571534,3185208502
iw,-77.0080795288086,-87.5122604370117,68.4275801418399,-135.43816941112686,3185225169
iw,-78.4067764282226,-85.8735580444336,73.3912885565317,-144.8767950152289,3185241836
iw,-79.7488632202148,-83.5200805664062,77.27714512657397,-150.98377453113523,3185258503
iw,-81.1108703613281,-81.13330078125,79.76851035289106,-153.85357030424004,3185275170
iw,-82.6395034790039,-78.7539520263671,80.77554617249953,-153.58250221230796,3185291837
iw,-84.299446105957,-76.2707443237304,80.46640754038528,-150.3079555624417,3185308504
iw,-85.984146118164,-73.7793502807617,79.2660975234884,-144.28395164999753,3185325171
iw,-87.6117324829101,-71.3610229492187,77.79237413016354,-135.9401027188079,3185341838
iw,-89.1221847534179,-69.1067733764648,76.71660554351782,-125.87584825921196,3185358505
iw,-89.4276809692382,-67.0826568603515,76.57945231891411,-114.77452393072137,3185375172
iw,-87.9890899658203,-65.2643356323242,77.62580544070963,-103.26423181340527,3185391839
iw,-86.5836791992187,-63.6142501831054,79.72528561603016,-91.78186622014645,3185408506
iw,-85.1689300537109,-62.0604400634765,82.41250930149413,-80.49836956651298,3185425173
iw,-83.709732055664,-60.5757598876953,85.03416183483318,-69.33710208560707,3185441840
iw,-82.1947555541992,-59.2546310424804,86.95037569223196,-58.076699324320245,3185458507
iw,-80.6200332641601,-58.2872085571289,87.72033194171678,-46.495991592941536,3185475174
iw,-79.1050491333007,-57.6518249511718,87.21020360169263,-34.5083740345659,3185491841
iw,-77.7307891845703,-57.2041282653808,85.59105943024358,-22.24792635892664,3185508508
iw,-76.4692153930664,-56.94087600708,83.23425921866487,-10.094823341881412,3185525175
iw,-75.2287902832031,-56.8425064086914,80.54705944304871,1.3546914766342182,3185541842
iw,-73.9518890380859,-56.855224609375,77.80730311664048,11.3646679761307,3185558509
iw,-72.6902084350586,-57.1157417297363,75.04748574126435,19.17672931557521,3185575176
iw,-71.4356613159179,-57.6957550048828,72.01242931105877,24.16345774343358,3185591843
iw,-70.206298828125,-58.426887512207,68.18660210238589,26.002917364993987,3185608510
iw,-69.0890274047851,-59.2988624572753,62.86994579015135,24.837934459049116,3185625177
iw,-68.2135009765625,-60.2117309570312,55.279551670026684,21.36138073647614,3185641844
iw,-67.5914535522461,-60.90279006958,44.66479679221391,16.764830096795865,3185658511
iw,-67.1537475585937,-61.2574119567871,30.435512955801602,12.519933398629583,3185675178
iw,-66.960578918457,-61.4549407958984,12.304352558091901,10.027618285046248,3185691845
iw,-66.9442367553711,-61.5829734802246,-9.570250028209491,10.240171192767907,3185708512
iw,-67.2123641967773,-61.9530601501464,-34.47826289794404,13.393758289581804,3185725179
iw,-68.0492477416992,-62.6835098266601,-61.14254994795723,18.959154301308523,3185741846
iw,-69.5525360107421,-63.8266563415527,-87.83566490232502,25.83504526898697,3185758513
iw,-71.4771652221679,-65.1951065063476,-112.62997561352314,32.7100547258044,3185775180
iw,-73.8251419067382,-66.4424972534179,-133.72911223514149,38.456700138684646,3185791847
iw,-76.5090026855468,-67.6148376464843,-149.79134700303422,42.4237838824013,3185808514
iw,-79.1388778686523,-68.8460083007812,-160.15243289744993,44.55261251495664,3185825181
iw,-81.5109176635742,-70.0595703125,-164.88788823028537,45.315495426341556,3185841848
iw,-83.7312774658203,-71.1985931396484,-164.7097884022325,45.52565599119645,3185858515
iw,-85.7358016967773,-72.3628845214843,-160.7478452589743,46.08718833269326,3185875182
iw,-87.1072082519531,-73.5607604980468,-154.29387824161196,47.75254872997534,3185891849
iw,-86.7703857421875,-74.7493133544921,-146.58099136482747,50.94309230315614,3185908516
iw,-85.0613250732421,-75.9584732055664,-138.63399402956676,55.667941355517236,3185925183
iw,-83.0179595947265,-77.2382507324218,-131.18912822270133,61.549967824909956,3185941850
iw,-80.9485092163086,-78.6471939086914,-124.6593227942812,67.94059962882702,3185958517
iw,-78.9733428955078,-80.128547668457,-119.1227279395889,74.0847150003281,3185975184
iw,-77.0972900390625,-81.6274795532226,-114.32938117010617,79.28882784260247,3185991851
iw,-75.2790832519531,-83.1177520751953,-109.7383134818939,83.05246303384592,3186008518
iw,-73.4967727661132,-84.611587524414,-104.60239185252377,85.1404578018656,3186025185
iw,-71.8336181640625,-86.0996704101562,-98.10704326650092,85.59346809933213,3186041852
iw,-70.380630493164,-87.5932006835937,-89.54812438717035,84.68613251072517,3186058519
iw,-69.0639343261718,-88.9522705078125,-78.51433069006102,82.84547203608703,3186075186
iw,-67.7998733520507,-89.2796401977539,-65.02799371886948,80.54214232395366,3186091853
iw,-66.7863616943359,-88.1685943603515,-49.59778880755616,78.17076898544377,3186108520
iw,-66.2508544921875,-86.9495697021484,-33.151685223860405,75.94281651290792,3186125187
iw,-66.2700576782226,-85.7279510498046,-16.852447781281466,73.81914731784263,3186141854
iw,-66.4446716308593,-84.4785614013671,-1.843465234056909,71.50229152303184,3186158521
iw,-66.7890396118164,-83.1887435913086,10.99499856471121,68.49034613344944,3186175188
iw,-67.0226440429687,-81.9439468383789,21.20424851310526,64.17363467548422,3186191855
iw,-67.5399551391601,-80.890151977539,28.78724963676135,57.94341988107118,3186208522
iw,-68.3090133666992,-80.1178588867187,34.14654073943415,49.28640812589338,3186225189
iw,-69.2654876708984,-79.591552734375,37.960826879853954,37.85627282346806,3186241856
iw,-69.9753875732421,-79.2571334838867,41.03548565298865,23.530348584182757,3186258523
iw,-70.6335296630859,-79.0859680175781,44.14788223979522,6.461500206882821,3186275190
iw,-71.496711730957,-79.0956573486328,47.90580640425258,-12.880901441861402,3186291857
iw,-72.5384140014648,-79.4454650878906,52.64277688525857,-33.7078226847573,3186308524
iw,-73.7249221801757,-80.3391189575195,58.37094913849226,-54.97725855768537,3186325191
iw,-74.8399429321289,-81.8597564697265,64.797681470007,-75.54010146723752,3186341858
iw,-76.0005798339843,-83.7251510620117,71.39695853714139,-94.33283995727348,3186358525
iw,-77.5281829833984,-85.7122116088867,77.51877837268782,-110.55140512164941,3186375192
iw,-79.1064453125,-87.1938323974609,82.51499323544031,-123.74125252655573,3186391859
iw,-80.5929565429687,-86.7787628173828,85.85824260552486,-133.77590842956516,3186408526
iw,-82.1496963500976,-84.8080062866211,87.23643076938248,-140.74699965517064,3186425193
iw,-83.7309341430664,-82.5955657958984,86.61589859493243,-144.8248739513607,3186441860
iw,-85.3399887084961,-80.3637771606445,84.26980575163017,-146.15457817633933,3186458527
iw,-86.9400863647461,-78.029067993164,80.76068842568273,-144.82790674279104,3186475194
iw,-88.5477447509765,-75.6479110717773,76.86097610307462,-140.93147325616587,3186491861
iw,-90.0,-73.383430480957,73.40701698016215,-134.63334439666556,3186508528
iw,-88.8221435546875,-71.2515335083007,71.11003249603816,-126.25499596020461,3186525195
iw,-87.4352493286132,-69.165901184082,70.37571624913296,-116.28674643624062,3186541862
iw,-86.0736465454101,-67.1559143066406,71.19440656644123,-105.33348853012419,3186558529
iw,-84.6871032714843,-65.3696136474609,73.14637174319098,-94.00801762768488,3186575196
iw,-83.2916259765625,-63.8909301757812,75.5270631925442,-82.81137027588245,3186591863
iw,-81.857681274414,-62.6273155212402,77.55295754191056,-72.04833754042807,3186608530
iw,-80.4666748046875,-61.4295387268066,78.58016146318434,-61.81666471271157,3186625197
iw,-79.127082824707,-60.2969055175781,78.26698891933331,-52.07830904167845,3186641864
iw,-77.8693389892578,-59.3734436035156,76.63600416131331,-42.7807850092625,3186658531
iw,-76.6694259643554,-58.7302894592285,74.02731209374076,-33.96855242866114,3186675198
iw,-75.5203781127929,-58.3042182922363,70.96710798704768,-25.827471737502748,3186691865
iw,-74.4067306518554,-58.0899810791015,67.9931345548948,-18.638795410524406,3186708532
iw,-73.300048828125,-57.9518661499023,65.4804134122007,-12.663657076048716,3186725199
