Label,Left_Hip_q,Right_Hip_q,Left_Hip_qd,Right_Hip_qd,SampleTimeFine
fw,-59.2901420593261,-80.3378219604492,-120.623153686523,70.9638290405273,238701508
fw,-58.2652244567871,-81.821060180664,-92.48593463938676,80.6675022686037,238718175
fw,-57.5233345031738,-83.3377380371093,-76.9373463916909,80.8738755487782,238734842
fw,-56.9253158569335,-84.7286071777343,-60.848401568716,80.27163174187262,238751509
fw,-56.4316329956054,-85.8402328491211,-43.89968510715867,78.29725920681338,238768176
fw,-56.1375694274902,-86.5137329101562,-26.09979315417227,74.76021358373858,238784843
fw,-56.2153968811035,-86.7175903320312,-7.902560495178487,69.86217299130612,238801510
fw,-56.6277160644531,-86.6051788330078,9.74787876809176,64.09502921528514,238818177
fw,-57.3025817871093,-86.2034149169921,25.490309214992347,58.07159599606141,238834844
fw,-58.3155059814453,-85.5235900878906,37.766588427807996,52.35718143177407,238851511
fw,-59.8644294738769,-84.6846694946289,45.17146570054498,47.350390315145894,238868178
fw,-61.2638816833496,-83.897834777832,46.85013687298397,43.225457312577426,238884845
fw,-62.2731590270996,-83.2585525512695,42.811565730529466,39.921030834941845,238901512
fw,-63.3117370605468,-82.6144561767578,34.03060017780784,37.15417273240465,238918179
fw,-63.7648658752441,-81.978401184082,22.281393302638747,34.44626858200869,238934846
fw,-63.5431213378906,-81.4841537475586,9.745470583076223,31.155901674876457,238951513
fw,-63.0288925170898,-81.3130340576171,-1.476162799222302,26.518699002985393,238968180
fw,-62.4454231262207,-81.4466400146484,-9.779861563120777,19.700562691758474,238984847
fw,-62.148567199707,-81.7452239990234,-14.26803325692588,9.878509048226157,239001514
fw,-62.5442199707031,-82.2249221801757,-14.707167815500117,-3.6364105767944768,239018181
fw,-63.2469291687011,-83.0423583984375,-11.312011322915334,-21.233972567439718,239034848
fw,-63.1929855346679,-84.0861282348632,-4.507810295708084,-42.822533160757004,239051515
fw,-62.7852973937988,-84.9013061523437,5.201328848068789,-67.68029891981695,239068182
fw,-62.7510986328125,-84.8146514892578,17.238780275643627,-94.40527942417691,239084849
fw,-63.8456649780273,-83.4137344360351,30.92057811865342,-121.02018445364061,239101516
fw,-65.5256881713867,-81.0464782714843,45.47249900061215,-145.2457808123818,239118183
fw,-66.9353790283203,-78.6641006469726,60.1133550862128,-164.88809730433863,239134850
fw,-68.5268325805664,-76.4751586914062,74.14407277964095,-178.2285814813138,239151517
fw,-70.3526229858398,-74.1301116943359,86.980989004106,-184.30187123309167,239168184
fw,-72.2581558227539,-71.6746368408203,98.12588720444253,-182.99481280208695,239184851
fw,-74.2677612304687,-69.3899993896484,107.11218064032546,-174.96608390810903,239201518
fw,-76.2819747924804,-67.2603607177734,113.47314980183393,-161.4353655734504,239218185
fw,-78.2562255859375,-65.2420806884765,116.75605767954404,-143.9163415722824,239234852
fw,-80.1859817504882,-63.3137702941894,116.58135878272027,-123.96831211661006,239251519
fw,-81.84765625,-61.509780883789,112.73291836291924,-103.01546012025915,239268186
fw,-83.1001663208007,-59.9909782409668,105.26047675232508,-82.24261409037362,239284853
fw,-83.8390350341796,-58.9232711791992,94.57020478212182,-62.547104201399804,239301520
fw,-84.064224243164,-58.3314361572265,81.47055795287322,-44.524477721541196,239318187
fw,-84.0799407958984,-57.9740447998046,67.13873473343793,-28.48380276441142,239334854
fw,-84.0501098632812,-57.8308563232421,52.9904377514003,-14.50343857041372,239351521
fw,-83.9942016601562,-57.7756423950195,40.4700186482047,-2.5331051947389014,239368188
fw,-83.9109573364257,-57.9561042785644,30.809466154047758,7.476796175639073,239384855
fw,-83.8395767211914,-58.4676895141601,24.813967877219937,15.46520189564787,239401522
fw,-83.7795639038086,-59.4794616699218,22.718311160337244,21.22328171981255,239418189
fw,-83.6806564331054,-60.6582221984863,24.1361575576982,24.457555879284627,239434856
fw,-83.3796997070312,-61.845703125,28.105213442857952,24.932905469763423,239451523
fw,-82.9784774780273,-62.5677986145019,33.217234393206574,22.636035142255956,239468190
fw,-82.4829788208007,-63.2792930603027,37.80945277994297,17.89256453171911,239484857
fw,-81.8135299682617,-63.9580688476562,40.18340777583297,11.392778962903522,239501524
fw,-81.1002883911132,-64.2669982910156,38.81294845667331,4.112823080587611,239518191
fw,-80.5001602172851,-64.0689849853515,32.51072908153904,-2.8524404307791915,239534858
fw,-80.0049743652343,-63.6124687194824,20.542299841185745,-8.499624176596951,239551525
fw,-79.550666809082,-63.1987228393554,2.699898614242681,-12.099182189755194,239568192
fw,-79.0691757202148,-63.2055740356445,-20.641587456104443,-13.279181834575452,239584859
fw,-78.2425231933593,-63.563133239746,-48.476818039762136,-11.985259403116771,239601526
fw,-76.9379959106445,-63.7565994262695,-79.15171919703712,-8.363213172904487,239618193
fw,-75.2567596435546,-63.8531990051269,-110.42679303702086,-2.6525905384442083,239634860
fw,-73.494270324707,-64.2066345214843,-139.6806171771431,4.847419899510154,239651527
fw,-71.9890823364257,-64.9983749389648,-164.27600841483132,13.750727422513972,239668194
fw,-71.1354141235351,-66.3620223999023,-182.0350305875021,23.558649827443404,239684861
fw,-70.4075012207031,-67.7706527709961,-191.68723499479063,33.6905363287621,239701528
fw,-69.2758483886718,-69.2210540771484,-193.1222119505364,43.57545473811211,239718195
fw,-68.0152359008789,-70.8568649291992,-187.33009184968756,52.76336316085118,239734862
fw,-66.8269882202148,-72.528938293457,-176.03979769121264,60.99966109878053,239751529
fw,-65.4617462158203,-74.0962448120117,-161.1987084594851,68.22513587316604,239768196
fw,-63.8444023132324,-75.6157608032226,-144.4970325795931,74.50089784491246,239784863
fw,-62.1690101623535,-77.1980438232421,-127.08991674954851,79.89616534482913,239801530
fw,-60.7471313476562,-78.9081878662109,-109.55274973405287,84.39483977026788,239818197
fw,-59.6005592346191,-80.7098236083984,-92.00369258899579,87.86292030626,239834864
fw,-58.65234375,-82.4279098510742,-74.29526327608045,90.08253756073736,239851531
fw,-57.9058799743652,-83.9029159545898,-56.204898779946944,90.82573958867196,239868198
fw,-57.4651947021484,-85.0953598022461,-37.599555773666715,89.93276933696876,239884865
fw,-57.3616714477539,-86.1559524536132,-18.576312533271462,87.37347209589547,239901532
fw,-57.4377250671386,-86.9468078613281,0.4214189564896713,83.28678389847617,239918199
fw,-57.7003860473632,-87.0158767700195,18.53601916411649,77.99576800007978,239934866
fw,-58.4117393493652,-86.4152145385742,34.52324833223538,71.98778519521507,239951533
fw,-59.5623168945312,-85.5375747680664,46.917277475752854,65.84739717589713,239968200
fw,-60.8018684387207,-84.6448211669921,54.32892913656652,60.14245403991106,239984867
fw,-61.8678321838378,-83.8228988647461,55.808017534781925,55.28369635919237,240001534
fw,-62.9888534545898,-83.0016174316406,51.15952623796317,51.390480193362265,240018201
fw,-64.3298568725586,-82.2864227294921,41.10813786619891,48.193516345713746,240034868
fw,-64.9145355224609,-81.7782211303711,27.246818595862234,44.996108501252436,240051535
fw,-64.7372055053711,-81.4430160522461,11.768375499084762,40.70857370590987,240068202
fw,-64.2344207763671,-81.2330780029296,-2.945261671645651,33.968376919453334,240084869
fw,-63.782657623291,-81.2553787231445,-14.742458173375782,23.352596762542795,240101536
fw,-63.8697280883789,-81.4865951538086,-22.002683696281284,7.670951119012975,240118203
fw,-64.2591094970703,-81.8707122802734,-23.773354634518892,-13.702760798473994,240134870
fw,-63.9605026245117,-82.2178497314453,-19.792602132409026,-40.53587673077407,240151537
fw,-63.0785331726074,-82.0596771240234,-10.471710587820372,-71.57474354688203,240168204
fw,-62.7979354858398,-81.2261428833007,3.152240559043048,-104.60215636609209,240184871
fw,-63.783203125,-80.087043762207,19.55333499392933,-136.7479121001414,240201538
fw,-65.3121337890625,-79.0648193359375,36.98855256196251,-164.9957521961364,240218205
fw,-66.6412811279296,-77.9335632324218,53.853629055855095,-186.74397037840544,240234872
fw,-68.1127548217773,-76.1636352539062,68.99220501114509,-200.24878247213945,240251539
fw,-69.7754287719726,-73.9132537841796,81.8392379081736,-204.8289761029223,240268206
fw,-71.6024703979492,-71.6825180053711,92.36369117980313,-200.8062164476259,240284873
fw,-73.5682678222656,-69.4509735107421,100.86005535913885,-189.24817281607164,240301540
fw,-75.5537414550781,-67.172004699707,107.67966106542475,-171.63736883227676,240318207
fw,-77.51806640625,-65.1501846313476,112.99392457289844,-149.59114013929107,240334874
fw,-79.451919555664,-63.2177848815918,116.66073833193443,-124.707033680665,240351541
fw,-81.3208541870117,-61.4644546508789,118.23197121954941,-98.52810179622595,240368208
fw,-82.9859161376953,-59.9761238098144,117.09783350586854,-72.55749083758938,240384875
fw,-84.2606582641601,-59.0262222290039,112.72015761484892,-48.23654156663577,240401542
fw,-84.9534530639648,-58.5750885009765,104.87622667806829,-26.839717987379753,240418209
fw,-85.0667190551757,-58.4670066833496,93.83158355420451,-9.30702927145387,240434876
fw,-84.7376480102539,-58.6773147583007,80.38546250738713,3.9100402718872482,240451543
fw,-84.1949844360351,-58.8842163085937,65.77236881058175,12.902636897069335,240468210
fw,-83.6450424194336,-59.3544998168945,51.440672179125,18.21391050244245,240484877
fw,-83.2020263671875,-60.2399864196777,38.755359036829816,20.62822668817061,240501544
fw,-82.9426116943359,-61.2315864562988,28.687777758676493,20.92046913507067,240518211
fw,-82.7808303833007,-62.2713966369628,21.562122761900284,19.65938280089437,240534878
fw,-82.7013626098632,-62.9884567260742,16.92469313792077,17.132288319401074,240551545
fw,-82.5684814453125,-63.8854103088378,13.582909933209384,13.410288565776666,240568212
fw,-82.2412185668945,-64.7862701416015,9.823813973021789,8.519379623673343,240584879
fw,-81.712646484375,-65.2928771972656,3.7717604116749093,2.6383311914465732,240601546
fw,-81.0982131958007,-65.2463226318359,-6.200278961013258,-3.7689679808434833,240618213
fw,-80.3974151611328,-64.8792877197265,-21.10872930914746,-9.944671164346058,240634880
fw,-79.4556808471679,-64.6782608032226,-41.127015322159366,-14.945077246510635,240651547
fw,-78.0531616210937,-64.9191284179687,-65.51412297593234,-17.811231006820137,240668214
fw,-76.1816101074218,-64.8881072998046,-92.69288027980727,-17.746853831597253,240684881
fw,-74.1651611328125,-64.2978439331054,-120.45374431028834,-14.27476890419164,240701548
fw,-72.3975830078125,-64.1128845214843,-146.26759515094426,-7.352967718056338,240718215
fw,-71.3363418579101,-64.7272796630859,-167.68657605189992,2.583044737910088,240734882
fw,-70.5155258178711,-66.2102737426757,-182.77455864432864,14.687134119814987,240751549
fw,-69.0861358642578,-67.6752624511718,-190.45756433149282,27.877032793747944,240768216
fw,-67.4124908447265,-69.0298995971679,-190.66871019773959,41.06219819527384,240784883
fw,-66.0217590332031,-70.631118774414,-184.21969442627633,53.347190288883894,240801550
fw,-64.6706848144531,-72.3661727905273,-172.44695617602056,64.15126128035219,240818217
fw,-63.0525093078613,-74.1307144165039,-156.7850896149488,73.22294191054048,240834884
fw,-61.1546936035156,-75.8131790161132,-138.43785274177586,80.56324628186036,240851551
fw,-59.4747009277343,-77.5308227539062,-118.23815972691129,86.29735190543093,240868218
fw,-58.3339614868164,-79.4138488769531,-96.68040387985471,90.54913922520815,240884885
fw,-57.5294685363769,-81.4046325683593,-74.05045760108416,93.36538579189519,240901552
fw,-56.9701042175293,-83.2151107788086,-50.58923202224759,94.70545667931512,240918219
fw,-56.5922088623046,-84.7816543579101,-26.66120680697753,94.47841048422032,240934886
fw,-56.2901000976562,-86.2289810180664,-2.9111999058145988,92.59692917619711,240951553
fw,-56.5999107360839,-87.4858093261718,19.62740547396648,89.02868531676161,240968220
fw,-57.3443298339843,-88.2586364746093,39.53233584037672,83.84149661126725,240984887
fw,-58.4621658325195,-87.8670501708984,55.15034314432518,77.2418867269847,241001554
fw,-59.8132781982421,-86.822021484375,64.91376524234221,69.5977661720265,241018221
fw,-61.1895065307617,-85.5710144042968,67.74675459055321,61.42610878291296,241034888
fw,-62.4796829223632,-84.4515838623046,63.43843713849383,53.32558437300768,241051555
fw,-64.0744094848632,-83.7928771972656,52.848103987546985,45.846654017721775,241068222
fw,-64.8987960815429,-83.4845809936523,37.84447519665281,39.31719443983277,241084889
fw,-64.9016723632812,-83.3294982910156,20.961733697598625,33.67164656674468,241101556
fw,-64.3952560424804,-83.0962753295898,4.862052577568956,28.34886048850514,241118223
fw,-63.7895431518554,-82.8856430053711,-8.214551049286642,22.31398726981737,241134890
fw,-63.4111213684082,-82.9044494628906,-16.817455497543357,14.224794113786663,241151557
fw,-63.7259941101074,-83.0743408203125,-20.364775443968416,2.7191718737787514,241168224
fw,-64.2178268432617,-83.350112915039,-18.979035355284633,-13.234842200503296,241184891
fw,-64.0290069580078,-83.4654693603515,-13.231255650421094,-34.005627946310184,241201558
fw,-63.6714973449707,-82.952407836914,-3.9386169359570027,-59.06560438702958,241218225
fw,-63.6448631286621,-81.7533111572265,7.940430535303524,-86.9333523962669,241234892
fw,-64.4099884033203,-80.1594161987304,21.367882585497387,-115.33174285039179,241251559
fw,-65.7868576049804,-78.3363571166992,35.314352421309245,-141.5497281970025,241268226
fw,-67.1355590820312,-76.553237915039,48.88626576802327,-162.93197880132612,241284893
fw,-68.5266647338867,-74.6697769165039,61.44616721021298,-177.37377064405933,241301560
fw,-70.0571365356445,-72.6005249023437,72.67045124743385,-183.69187345295506,241318227
fw,-71.7290649414062,-70.6526489257812,82.520288801703,-181.7779133542321,241334894
fw,-73.4944152832031,-69.0281982421875,91.13812070964069,-172.50461822409315,241351561
fw,-75.2728958129882,-67.404182434082,98.70227347632542,-157.4309458229783,241368228
fw,-77.0854110717773,-65.8808670043945,105.27954064655276,-138.4163099645542,241384895
fw,-78.931640625,-64.3410339355468,110.71850313604132,-117.2741802199962,241401562
fw,-80.7415466308593,-63.0030860900878,114.62187909649073,-95.55489176452969,241418229
fw,-82.4800567626953,-61.8706130981445,116.4161391442168,-74.47195638336943,241434896
fw,-83.9768981933593,-61.0991973876953,115.50310886341899,-54.92458485889805,241451563
fw,-84.9578018188476,-60.6340751647949,111.44655065547788,-37.551908612380316,241468230
fw,-85.2791442871093,-60.393699645996,104.13385163965057,-22.77480493596275,241484897
fw,-85.0147323608398,-60.1256217956543,93.8648777738774,-10.81260941387557,241501564
fw,-84.431655883789,-60.0437889099121,81.3476948690102,-1.6843321948343748,241518231
fw,-83.7601470947265,-60.4478797912597,67.60816379636982,4.786478085659885,241534898
fw,-83.1277694702148,-61.1074905395507,53.83671672894975,8.944039429503825,241551565
fw,-82.5957565307617,-61.9418182373046,41.20049187209176,11.239149569224141,241568232
fw,-82.2057037353515,-62.7950057983398,30.648158326951098,12.140268408335087,241584899
fw,-81.9449005126953,-63.5425567626953,22.734004627566662,12.041135517566344,241601566
fw,-81.790054321289,-64.0934371948242,17.489026129267774,11.20018541391247,241618233
fw,-81.6203536987304,-64.816650390625,14.366459684935847,9.741620796047727,241634900
fw,-81.4336776733398,-65.5308609008789,12.282062126373889,7.722190422668828,241651567
fw,-81.1811599731445,-65.9188461303711,9.753627958264634,5.230792807978188,241668234
fw,-80.7853317260742,-65.8155975341796,5.124051442967203,2.466384131178172,241684901
fw,-80.403335571289,-65.5439071655273,-3.165048488837565,-0.2433735063547966,241701568
fw,-80.0811996459961,-65.3076400756836,-16.290589066384943,-2.475654704547629,241718235
fw,-79.7411575317382,-65.6758499145507,-34.79578938457215,-3.7617465747775554,241734902
fw,-79.136848449707,-66.3294219970703,-58.4013441079081,-3.630803835054791,241751569
fw,-78.0517654418945,-66.2687606811523,-85.91189650224867,-1.6644139491073793,241768236
fw,-76.4989776611328,-66.0601730346679,-115.25884497980283,2.414438825420944,241784903
fw,-74.7646713256836,-66.5935287475586,-143.7249602989468,8.635987386466846,241801570
fw,-73.5569534301757,-68.097412109375,-168.36748383568343,16.72430961748742,241818237
fw,-72.876968383789,-69.8128280639648,-186.5819949789972,26.135897049593506,241834904
fw,-71.8045501708984,-71.1479110717773,-196.65931256749104,36.1855662072774,241851571
fw,-70.2103652954101,-72.4604949951171,-198.14340862089293,46.19443098007754,241868238
fw,-68.5878601074218,-74.0444183349609,-191.8478455804142,55.59332858788662,241884905
fw,-67.0222396850586,-75.6785736083984,-179.52231697171695,63.95551386947822,241901572
fw,-65.2279968261718,-77.226089477539,-163.3067986068466,70.97453404659373,241918239
fw,-63.2720031738281,-78.7863998413086,-145.18069370947364,76.42426911424491,241934906
fw,-61.4687118530273,-80.4366836547851,-126.57539661514407,80.13809657344382,241951573
fw,-60.0287780761718,-82.1714630126953,-108.2172983864048,82.02647943600199,241968240
fw,-58.8119659423828,-83.7993850708007,-90.18000112617834,82.12225147982194,241984907
fw,-57.7447204589843,-85.2152938842773,-72.08665257072913,80.61710691682671,242001574
fw,-56.8811607360839,-86.3611145019531,-53.40064719727358,77.85146605509127,242018241
fw,-56.3352394104003,-87.2847366333007,-33.74525352614676,74.24653891196667,242034908
fw,-56.1483306884765,-87.9029541015625,-13.18805499863094,70.20364490391738,242051575
fw,-56.2301445007324,-88.0147628784179,7.579091468672124,66.01723969992517,242068242
fw,-56.6225051879882,-87.5490417480468,27.22800652248994,61.842334153045925,242084909
fw,-57.5813560485839,-86.615982055664,43.985613045502866,57.7281654679926,242101576
fw,-58.8943977355957,-85.4505004882812,56.008872223008495,53.69236833680257,242118243
fw,-60.2916030883789,-84.354133605957,61.8528105438787,49.78188157353232,242134910
fw,-61.4828300476074,-83.6163482666015,60.891108768829774,46.06623368638474,242151577
fw,-62.883674621582,-83.2654800415039,53.55192692516884,42.54329074930294,242168244
fw,-63.9722747802734,-83.0190277099609,41.28830246111989,38.9927845281666,242184911
fw,-64.3691253662109,-82.7607727050781,26.285329598460482,34.855444916337326,242201578
fw,-64.1673431396484,-82.4387512207031,10.989951667987327,29.21619455363559,242218245
fw,-63.7467422485351,-82.1754379272461,-2.386478757710916,20.927995254872364,242234912
fw,-63.56538772583,-82.1632843017578,-12.229628185363254,8.855223016915364,242251579
fw,-64.1398239135742,-82.4153823852539,-17.650558616033592,-7.827490458564353,242268246
fw,-64.6158752441406,-82.7084655761718,-18.406125124386648,-29.359027332134765,242284913
fw,-64.1618728637695,-82.4820098876953,-14.731979046275907,-55.206337743238585,242301580
fw,-63.5675888061523,-81.4397583007812,-7.204406821758574,-84.01695555018883,242318247
fw,-63.4660911560058,-79.9057235717773,3.3417866668719642,-113.73194630240151,242334914
fw,-64.2645721435546,-78.192398071289,15.891949690581551,-141.85194052784428,242351581
fw,-65.573989868164,-76.4113693237304,29.37769334999193,-165.81292965270538,242368248
fw,-66.8399429321289,-74.4162826538086,42.838820897983524,-183.3954663719345,242384915
fw,-68.1494674682617,-72.3367614746093,55.5605541484452,-193.0760856177505,242401582
fw,-69.5652084350586,-70.1661758422851,67.1324384665053,-194.24094476489392,242418249
fw,-71.1422576904296,-68.3262786865234,77.41869205414977,-187.21581011589768,242434916
fw,-72.834716796875,-66.751106262207,86.46642225325807,-173.1175353060556,242451583
fw,-74.5888595581054,-65.1684188842773,94.3869343589355,-153.58800000034904,242468250
fw,-76.4229888916015,-63.5865211486816,101.23675863729325,-130.5045071603324,242484917
fw,-78.2547073364257,-62.165283203125,106.91827257935236,-105.74505373360877,242501584
fw,-79.9966125488281,-61.103343963623,111.12151674435599,-81.03308229478712,242518251
fw,-81.6590118408203,-60.4510955810546,113.33210137501734,-57.838835413806194,242534918
fw,-83.2479705810546,-60.3148956298828,112.92405402531499,-37.30694557695859,242551585
fw,-84.6141738891601,-60.328685760498,109.33386139183452,-20.203882929269046,242568252
fw,-85.4495620727539,-60.0299797058105,102.27622707505918,-6.900411154240661,242584919
fw,-85.5839004516601,-59.8278541564941,91.93047592649746,2.5983820637014587,242601586
fw,-85.2316589355468,-60.0761108398437,79.02104603371855,8.582190754520756,242618253
fw,-84.7666244506836,-60.626609802246,64.7455503915423,11.544717861048808,242634920
fw,-84.3742294311523,-61.4035301208496,50.5576338574985,12.092235950907156,242651587
fw,-84.0922317504882,-62.1333999633789,37.863692231573154,10.860627699044205,242668254
fw,-83.8727645874023,-62.9112205505371,27.719347530164786,8.44497747832988,242684921
fw,-83.7096710205078,-63.4379158020019,20.605657441267248,5.348969725815466,242701588
fw,-83.5879135131836,-63.8806762695312,16.335232732964307,1.9646788554589991,242718255
fw,-83.3978500366211,-64.3316574096679,14.100322662464032,-1.412801615290001,242734922
fw,-83.1140823364257,-64.7162246704101,12.640173308130242,-4.54791846917834,242751589
fw,-82.7282180786132,-64.7923736572265,10.479582629512297,-7.231507167051282,242768256
fw,-82.3707733154296,-64.5261459350586,6.179517052620937,-9.275622238543251,242784923
fw,-82.0985794067382,-64.2922058105468,-1.4514608871529548,-10.533745949771347,242801590
fw,-81.7644653320312,-64.0203247070312,-13.210817660598346,-10.914694978464864,242818257
fw,-81.2954559326171,-64.2071228027343,-29.415114385050387,-10.357187968989866,242834924
fw,-80.3757781982421,-64.832893371582,-49.84627937910096,-8.767994809502696,242851591
fw,-78.7460403442382,-64.9643936157226,-73.70890129251185,-5.972250638060707,242868258
fw,-76.4791870117187,-64.8898620605468,-99.60807205764954,-1.7338853484395234,242884925
fw,-74.0744934082031,-65.232307434082,-125.60064416865406,4.142331635314072,242901592
fw,-72.3563079833984,-66.2577819824218,-149.39079943300644,11.681802814925973,242918259
fw,-71.6388854980468,-67.6547393798828,-168.69816456322482,20.663759605891237,242934926
fw,-70.6878967285156,-69.0294036865234,-181.72861106478993,30.640152686155407,242951593
fw,-69.0744171142578,-70.3405380249023,-187.58364816977547,41.03145980834268,242968260
fw,-67.6073455810546,-71.8455505371093,-186.4297244334042,51.24551697285099,242984927
fw,-66.2865295410156,-73.547737121582,-179.34370033943162,60.76902119566058,243001594
fw,-64.7316284179687,-75.2376327514648,-167.90432045447312,69.2056155068967,243018261
fw,-62.936424255371,-76.8782119750976,-153.71078416347083,76.26038256180135,243034928
fw,-61.1030044555664,-78.4899291992187,-138.0100481314349,81.69319908502199,243051595
fw,-59.5450897216796,-80.1399688720703,-121.52484385338326,85.27994844467088,243068262
fw,-58.2515678405761,-81.82177734375,-104.4735519223487,86.8201162072966,243084929
fw,-57.0892639160156,-83.535285949707,-86.72059079029361,86.20382864268353,243101596
fw,-56.0808181762695,-85.1246795654296,-67.99350908917995,83.51163260675602,243118263
fw,-55.3027534484863,-86.4566879272461,-48.11838983772947,79.09181132154883,243134930
fw,-54.8967819213867,-87.5077819824218,-27.233116216119065,73.56240566310628,243151597
fw,-54.8646011352539,-88.1008148193359,-5.935210250958013,67.71684058374454,243168264
fw,-55.0468101501464,-88.1431198120117,14.682360931961858,62.35476137142158,243184931
fw,-55.7339668273925,-87.7512741088867,33.14412490500498,58.09285515804592,243201598
fw,-56.9178657531738,-86.8664321899414,47.85583680252177,55.22007709617857,243218265
fw,-58.2439193725585,-85.745735168457,57.46366403302774,53.64251604147173,243234932
fw,-59.41259765625,-84.5954971313476,61.201300769220076,52.92307256373912,243251599
fw,-60.313117980957,-83.6919860839843,59.109662496935364,52.38276274552736,243268266
fw,-61.4255104064941,-83.1192932128906,52.06075978836176,51.21745886956224,243284933
fw,-62.4182434082031,-82.6749572753906,41.586386588029676,48.600301690329914,243301600
fw,-62.9370536804199,-81.9748077392578,29.564587578053093,43.76509930677652,243318267
fw,-62.9724578857421,-81.3294601440429,17.84607982718079,36.07464904700617,243334934
fw,-62.8100051879882,-81.0002517700195,7.921425150330756,25.068451092130484,243351601
fw,-62.915283203125,-81.1880722045898,0.7302408179196536,10.479849313164664,243368268
fw,-63.5985145568847,-81.8394241333007,-3.331038072087546,-7.769669577690718,243384935
fw,-64.5066375732421,-82.4977340698242,-4.237673193444494,-29.56475135477723,243401602
fw,-64.7387542724609,-82.5131301879882,-2.1219054321454305,-54.54023338202397,243418269
fw,-64.4825820922851,-81.4994277954101,2.853294173561798,-81.96947096673192,243434936
fw,-64.2369155883789,-79.8509216308593,10.479223634683105,-110.64604237945075,243451603
fw,-64.5176849365234,-78.0311126708984,20.401136085285035,-138.8460024537915,243468270
fw,-65.6316299438476,-76.0187759399414,32.04442387333821,-164.44686311522196,243484937
fw,-67.126220703125,-73.8737030029296,44.648373501753696,-185.21638487661724,243501604
fw,-68.5348052978515,-71.767837524414,57.40508623071028,-199.20075452341607,243518271
fw,-70.0298614501953,-69.7806854248046,69.62972625194233,-205.0853835738697,243534938
fw,-71.6614303588867,-68.1615219116211,80.87341559646009,-202.4061162016656,243551605
fw,-73.4003753662109,-66.5560913085937,90.92876517040942,-191.5550667185625,243568272
fw,-75.2341842651367,-64.8325729370117,99.73390308642884,-173.61918120651396,243584939
fw,-77.0814895629882,-63.0695114135742,107.22151695112456,-150.15429833994645,243601606
fw,-78.8982162475586,-61.5013732910156,113.17563764672408,-122.99110216067542,243618273
fw,-80.684097290039,-60.3057212829589,117.15542164288925,-94.10354633436322,243634940
fw,-82.3892135620117,-59.4335823059082,118.52665422738893,-65.50228482910597,243651607
fw,-83.9147186279296,-59.1135864257812,116.60990769318826,-39.096326932169866,243668274
fw,-84.9833145141601,-59.3093185424804,110.91310885883904,-16.50211636796785,243684941
fw,-85.2353210449218,-59.6197929382324,101.37593331327163,1.1624921227925693,243701608
fw,-84.7435684204101,-59.8138198852539,88.53072419578383,13.42549138710165,243718275
fw,-84.1501846313476,-60.410545349121,73.49709216335685,20.486036605640507,243734942
fw,-83.7719116210937,-61.3335227966308,57.78106496030338,23.101502181373853,243751609
fw,-83.5533599853515,-62.297061920166,42.927197926433074,22.369026327172417,243768276
fw,-83.4050750732421,-63.2282180786132,30.13562142000984,19.46223877332112,243784943
fw,-83.294807434082,-64.0197296142578,19.97093807517634,15.391644298528457,243801610
fw,-83.2314376831054,-64.6296997070312,12.250032252188287,10.851229837012314,243818277
fw,-83.2074813842773,-65.3351898193359,6.126185195063932,6.190981788372262,243834944
fw,-83.0823898315429,-65.7772979736328,0.322776306091019,1.5125511748737528,243851611
fw,-82.8910217285156,-65.8798675537109,-6.565159226562674,-3.162043690075529,243868278
fw,-82.7472610473632,-65.6519165039062,-15.78387452119022,-7.722968141837808,243884945
fw,-82.4656066894531,-65.3797760009765,-28.20393304734388,-11.865698392555334,243901612
fw,-81.707275390625,-65.2069320678711,-44.1886370104354,-15.066115055385715,243918279
fw,-80.207290649414,-65.4659729003906,-63.52913779536255,-16.632235858712722,243934946
fw,-77.9214248657226,-65.6184768676757,-85.41996084988143,-15.825182602034616,243951613
fw,-75.3010559082031,-65.2209777832031,-108.4752824454657,-12.040554432441821,243968280
fw,-73.0740356445312,-65.0442123413086,-130.82768504262216,-5.012503677217679,243984947
fw,-71.8896713256836,-65.7746353149414,-150.36428569081787,5.038716091478167,244001614
fw,-71.0138778686523,-67.2236938476562,-165.10663136546972,17.398032450540224,244018281
fw,-69.4057006835937,-68.626838684082,-173.6456701348003,31.008521512392882,244034948
fw,-67.3542175292968,-70.1097030639648,-175.46654365302433,44.72652003788514,244051615
fw,-65.9966735839843,-71.8192749023437,-171.01007024504653,57.575106682803785,244068282
fw,-64.7093048095703,-73.7766036987304,-161.4338217434385,68.90671291382453,244084949
fw,-63.342300415039,-75.7132492065429,-148.18774900698142,78.4336572013858,244101616
fw,-61.625129699707,-77.6126708984375,-132.60041524599032,86.13601869632474,244118283
fw,-59.9701461791992,-79.4876022338867,-115.62988834924889,92.09690256857373,244134950
fw,-58.8113632202148,-81.3599166870117,-97.81747568302397,96.33983919102847,244151617
fw,-57.8542556762695,-83.3363265991211,-79.38754722320779,98.74018435791288,244168284
fw,-57.0031814575195,-85.3268890380859,-60.41243837188804,99.0464319825578,244184951
fw,-56.3655357360839,-87.0550994873046,-40.98631576687982,96.99457005462185,244201618
fw,-56.0510063171386,-88.4920806884765,-21.37957456596129,92.45942646999778,244218285
fw,-56.0377006530761,-88.9789428710937,-2.153285285140082,85.58086553734276,244234952
fw,-56.3373184204101,-88.1395416259765,15.79304201089504,76.82401555062758,244251619
fw,-56.985553741455,-87.0867767333984,31.272429608622417,66.9607455276515,244268286
fw,-58.0032920837402,-85.9109802246093,42.9815189607917,56.97793280495036,244284953
fw,-59.2311058044433,-84.6819763183593,49.77762514776549,47.923590983969206,244301620
fw,-60.4192581176757,-83.849739074707,50.99698388713702,40.70364357139285,244318287
fw,-61.2660255432128,-83.4364852905273,46.71350027335974,35.85397583252959,244334954
fw,-62.44038772583,-83.2292327880859,37.84227197370131,33.33859114921732,244351621
fw,-63.2170982360839,-82.9761352539062,26.036116335503202,32.44770119096171,244368288
fw,-63.3278884887695,-82.5662384033203,13.384829841469674,31.860818653368927,244384955
fw,-63.1226768493652,-81.8635711669921,1.9899134133916065,29.888243477873814,244401622
fw,-62.7519187927246,-81.1952972412109,-6.460446782690401,24.831504676637632,244418289
fw,-62.4478797912597,-80.9126892089843,-10.976667554102885,15.351068339234704,244434956
fw,-62.7237510681152,-81.1312713623046,-11.323201265752735,0.7307843171136098,244451623
fw,-63.522705078125,-81.6175155639648,-7.8566182519268395,-19.01720569672148,244468290
fw,-63.7504386901855,-81.8992080688476,-1.256836790547258,-43.191362220406205,244484957
fw,-63.6627197265625,-81.5417251586914,7.710624524147362,-70.52244498584979,244501624
fw,-63.6392021179199,-80.4989166259765,18.32274832064056,-99.31938082367553,244518291
fw,-64.2338714599609,-79.1638031005859,29.931074889561497,-127.61675100912902,244534958
fw,-65.6786193847656,-77.5840530395507,41.96207192074395,-153.33744456800108,244551625
fw,-67.2652587890625,-75.6513519287109,53.933172892096174,-174.49118526269987,244568292
fw,-68.7516326904296,-73.5185775756836,65.48280787540973,-189.40270671491393,244584959
fw,-70.3146362304687,-71.4519653320312,76.38335579863977,-196.92447015813897,244601626
fw,-72.0287475585937,-69.631965637207,86.5150044592819,-196.5709639563099,244618293
fw,-73.8776626586914,-68.0018844604492,95.80517864649865,-188.5338801246486,244634960
fw,-75.8530044555664,-66.3234329223632,104.15358506216661,-173.59019387742907,244651627
fw,-77.8185424804687,-64.5680770874023,111.360841210418,-152.96287549490307,244668294
fw,-79.7237396240234,-62.8257675170898,117.0739569749861,-128.19856258984265,244684961
fw,-81.5159149169921,-61.3331108093261,120.76656810052835,-101.08167830527874,244701628
fw,-83.1545639038086,-60.1674995422363,121.78026860680812,-73.5473453433524,244718295
fw,-84.5480270385742,-59.5012550354003,119.4493593289292,-47.53575658644732,244734962
fw,-85.2982635498046,-59.3658866882324,113.30385509481964,-24.76719280401067,244751629
fw,-85.0599746704101,-59.4920692443847,103.30077681962678,-6.483705661551946,244768296
fw,-84.267593383789,-59.5303039550781,89.99541442294394,6.748220185213357,244784963
fw,-83.5003128051757,-59.5475769042968,74.56112051010189,15.08611928747904,244801630
fw,-82.9670639038086,-60.0936317443847,58.611017219749584,19.28159647092092,244818297
fw,-82.6902999877929,-60.8873863220214,43.85125770279953,20.414401064277765,244834964
fw,-82.4951782226562,-61.6872901916503,31.665358947283142,19.578299084379577,244851631
fw,-82.2768630981445,-62.7449989318847,22.757811253149463,17.613535916580386,244868298
fw,-82.1003952026367,-63.3489265441894,16.962491077200337,14.960357324290761,244884965
fw,-81.9927139282226,-63.9639701843261,13.265043226289684,11.671582758684302,244901632
fw,-81.8792648315429,-64.6822433471679,10.027838463394167,7.575102353673644,244918299
fw,-81.6385040283203,-65.0467224121093,5.361243471840246,2.52767808170715,244934966
fw,-81.2428131103515,-65.1329269409179,-2.4418628005808647,-3.3338981357983104,244951633
fw,-80.793228149414,-65.0089721679687,-14.504601371256319,-9.440626656800278,244968300
fw,-80.4117584228515,-64.5389938354492,-31.0910569135147,-14.799634774539475,244984967
fw,-80.0345077514648,-64.2595748901367,-51.52380937934537,-18.170493921542793,245001634
fw,-79.3913803100586,-64.0761566162109,-74.30892813507926,-18.365897486471646,245018301
fw,-78.1140823364257,-63.5727500915527,-97.42756239589379,-14.591796794637549,245034968
fw,-76.3113174438476,-63.6091003417968,-118.71954075840694,-6.712961521544069,245051635
fw,-74.5682678222656,-64.4235687255859,-136.28095144498283,4.6662061803022326,245068302
fw,-73.5502471923828,-65.8827133178711,-148.80644379449257,18.353604124671833,245084969
fw,-72.7671508789062,-67.3457870483398,-155.8087729672045,32.89764727851148,245101636
fw,-71.5630493164062,-68.8488159179687,-157.6505804753767,46.95344276040545,245118303
fw,-70.3660354614257,-70.4336853027343,-155.3548987124792,59.545697406387745,245134970
fw,-69.3070526123046,-72.3338317871093,-150.2354780641207,70.15707530117416,245151637
fw,-68.049087524414,-74.455451965332,-143.47644807717535,78.65814622208849,245168304
fw,-66.4259262084961,-76.6486053466796,-135.8292042015405,85.1501572784671,245184971
fw,-64.6072616577148,-78.7978134155273,-127.53871688385158,89.80192679180082,245201638
fw,-62.8713188171386,-80.835693359375,-118.48964426880707,92.7409951423054,245218305
fw,-61.2997741699218,-82.9866943359375,-108.4575189815095,94.02415308184943,245234972
fw,-59.8765602111816,-85.115852355957,-97.3248531086692,93.67592398694427,245251639
fw,-58.5782966613769,-86.9593429565429,-85.17323378618073,91.75652445965248,245268306
fw,-57.5483894348144,-88.4347686767578,-72.2439425187215,88.41460305844254,245284973
fw,-56.8569984436035,-89.3559341430664,-58.82665761656804,83.89815962582244,245301640
fw,-56.4849052429199,-88.5606002807617,-45.163683992458274,78.52659214758422,245318307
fw,-56.0463829040527,-87.3665618896484,-31.43688318577035,72.6461999587979,245334974
fw,-55.617691040039,-86.1853561401367,-17.84387807766262,66.59005989171006,245351641
fw,-55.8150901794433,-84.9822616577148,-4.703232060531429,60.6486597791732,245368308
fw,-56.4120635986328,-83.8499679565429,7.495417167443129,55.04399917225866,245384975
fw,-57.1486892700195,-82.8940048217773,18.13962862201757,49.895158606031956,245401642
fw,-57.8023567199707,-82.1659927368164,26.61616759236578,45.16904716795613,245418309
fw,-58.4130897521972,-81.5493621826171,32.447130557430405,40.623359187136145,245434976
fw,-59.0579566955566,-81.0914840698242,35.39803064568213,35.76296088243792,245451643
fw,-59.813232421875,-80.8299484252929,35.55141751052401,29.838169665931606,245468310
fw,-60.7125205993652,-80.6686630249023,33.35299250083774,21.909656376266735,245484977
fw,-61.5011558532714,-80.6744766235351,29.621958835255537,10.990533616540219,245501644
fw,-62.1723022460937,-80.8742218017578,25.49726428845208,-3.745789530300435,245518311
fw,-62.7317848205566,-81.0807266235351,22.29173963262777,-22.72897256500279,245534978
fw,-63.0607185363769,-81.0275802612304,21.255096005907888,-45.78505979556343,245551645
fw,-62.8449668884277,-80.4471664428711,23.295256180475757,-72.02557680249367,245568312
fw,-62.8823013305664,-79.2121047973632,28.75295600601035,-99.88062426603726,245584979
fw,-63.9857711791992,-77.9327163696289,37.33248818016362,-127.28259228541384,245601646
fw,-65.6219635009765,-76.9729614257812,48.23531497388879,-151.95993254714176,245618313
fw,-67.2232589721679,-75.9101867675781,60.442492395700576,-171.77260863132577,245634980
fw,-68.8317031860351,-74.3784103393554,73.01458298927867,-185.0210465650348,245651647
fw,-70.5473175048828,-72.4479675292968,85.2806929108627,-190.6755049282736,245668314
fw,-72.4263076782226,-70.5971527099609,96.86127051739324,-188.48958633271386,245684981
fw,-74.4332275390625,-68.8261795043945,107.55390081295648,-178.98372381176839,245701648
fw,-76.4915237426757,-67.0812072753906,117.16065728700563,-163.31704940038634,245718315
fw,-78.6019515991211,-65.4148178100586,125.3417105359628,-143.0945537308651,245734982
fw,-80.7326583862304,-64.0684204101562,131.55685312654987,-120.15927680296619,245751649
fw,-82.794921875,-62.7663116455078,135.11840778640294,-96.397385314921,245768316
fw,-84.5140991210937,-61.7358055114746,135.33684735857935,-73.56095605633496,245784983
fw,-85.4540328979492,-61.1329002380371,131.7079462722523,-53.10779029675572,245801650
fw,-85.3805999755859,-60.7640151977539,124.07981206194009,-36.06748072120163,245818317
fw,-84.4310989379882,-60.2310066223144,112.7510182367625,-22.95351110525379,245834984
fw,-83.1775207519531,-59.69673538208,98.47563643363402,-13.74161640101097,245851651
fw,-82.0531539916992,-59.8501281738281,82.37377742730295,-7.926706548547626,245868318
fw,-81.140022277832,-60.0624237060546,65.7631730048875,-4.660941721959505,245884985
fw,-80.432014465332,-60.4800491333007,49.94123443554042,-2.9618732441430833,245901652
fw,-79.9228057861328,-60.950511932373,35.95809343180715,-1.9551323755294034,245918319
fw,-79.5591049194336,-61.4238662719726,24.42522473282814,-1.0883882311506605,245934986
fw,-79.3308944702148,-61.8453063964843,15.399028032794115,-0.24476436425853795,245951653
fw,-79.2194061279296,-62.2180671691894,8.366314412247709,0.2914793235506586,245968320
fw,-79.1705780029296,-62.553482055664,2.342324233676352,0.016253377953093135,245984987
fw,-79.1432800292968,-62.9316902160644,-3.927049097156258,-1.5161817977613503,246001654
fw,-78.9781646728515,-63.2578239440918,-11.68952723651796,-4.403413240799989,246018321
fw,-78.5641021728515,-63.5129890441894,-21.892893553502077,-8.193622175442435,246034988
fw,-78.1536178588867,-63.2649154663085,-34.94890840169293,-11.862665216272926,246051655
fw,-77.8309860229492,-62.6511459350585,-50.62786062776288,-14.014484369057458,246068322
fw,-77.3224411010742,-61.9100036621093,-68.12030857075182,-13.268381846871128,246084989
fw,-76.1989517211914,-61.5324172973632,-86.24170727162247,-8.703101555456259,246101656
fw,-74.5646514892578,-62.3271446228027,-103.70512281070792,-0.17668726092391301,246118323
fw,-72.9454727172851,-63.6584701538085,-119.37674974527687,11.617295187520941,246134990
fw,-71.9469757080078,-64.9504699707031,-132.4545851971213,25.3711182514134,246151657
fw,-71.8169326782226,-66.4443359375,-142.54457133647352,39.544605572858934,246168324
fw,-71.8030624389648,-67.8208618164062,-149.63238097658046,52.73836428453525,246184991
fw,-71.3134384155273,-69.4719543457031,-153.96653364552944,63.936399145693855,246201658
fw,-70.3997650146484,-71.5205841064453,-155.88925112230098,72.58811606023707,246218325
fw,-69.1670761108398,-73.691650390625,-155.6724505195702,78.57098791875714,246234992
fw,-67.7153701782226,-75.7284545898437,-153.42110607778986,82.09698608829768,246251659
fw,-66.1699447631836,-77.7755966186523,-149.08082958077432,83.61007213283003,246268326
fw,-64.5658721923828,-79.8419342041015,-142.53766990947838,83.69320252150803,246284993
fw,-62.9175109863281,-81.7484970092773,-133.75323349104426,82.97947631606058,246301660
fw,-61.3620910644531,-83.4120025634765,-122.86373150775984,82.05379946471143,246318327
fw,-59.9430923461914,-84.8662643432617,-110.19387431631634,81.34269125376457,246334994
fw,-58.7188148498535,-86.1514739990234,-96.1825185480909,81.01329735156584,246351661
fw,-57.7622756958007,-87.2549057006836,-81.26455380552437,80.92074132473687,246368328
fw,-57.0880470275878,-87.9943618774414,-65.78015435271907,80.63998040961259,246384995
fw,-56.6119575500488,-88.0331802368164,-49.97227367973904,79.59232229665075,246401662
fw,-56.2075805664062,-87.2871856689453,-34.085218377270984,77.23935229046782,246418329
fw,-55.9360618591308,-86.0059051513671,-18.5119667768784,73.28453704454846,246434996
fw,-56.1777458190918,-84.6250991821289,-3.8942094214995078,67.80845196802495,246451663
fw,-56.9759979248046,-83.4921188354492,8.908086511945564,61.27514859967352,246468330
fw,-57.9987640380859,-82.6415557861328,18.99142140976386,54.38521515010479,246484997
fw,-58.9158477783203,-81.9973907470703,25.66094117018658,47.805673362837794,246501664
fw,-59.6332740783691,-81.5800247192382,28.657422246448004,41.85854426686459,246518331
fw,-60.2642631530761,-81.3870544433593,28.28199585052636,36.27835358009999,246534998
fw,-60.9443092346191,-81.2566146850586,25.394011963448012,30.141295937242603,246551665
fw,-61.7067718505859,-81.0173416137695,21.29327077336309,22.022662933052942,246568332
fw,-62.184715270996,-80.7545928955078,17.50735268196899,10.36398613323238,246584999
fw,-62.5423431396484,-80.6723251342773,15.510247501617384,-6.048362052260527,246601666
fw,-62.6567802429199,-80.726089477539,16.419347814776685,-27.642296811018095,246618333
fw,-62.656379699707,-80.6761169433593,20.747057962909686,-53.80353732521647,246635000
fw,-62.8688201904296,-80.0794906616211,28.294342316020174,-82.89230390857674,246651667
fw,-63.8349609375,-78.8178176879882,38.242834225775404,-112.52959088311215,246668334
fw,-65.3682708740234,-77.4389266967773,49.428664827331446,-140.05789060764744,246685001
fw,-66.9616470336914,-76.2941818237304,60.69747353817156,-163.02991898721174,246701668
fw,-68.4579238891601,-74.921875,71.19969472576355,-179.59168676982196,246718335
fw,-70.0085906982421,-73.144546508789,80.52076326720126,-188.690380274115,246735002
fw,-71.7443618774414,-71.0859985351562,88.62868846770942,-190.10839699924202,246751669
fw,-73.6045913696289,-69.0998840332031,95.7001599114794,-184.36458717769293,246768336
fw,-75.5233840942382,-67.2672729492187,101.91412618345869,-172.53149432797778,246785003
fw,-77.4832916259765,-65.5550460815429,107.2852594839792,-156.0154824456969,246801670
fw,-79.4719696044921,-64.0702667236328,111.5788176384777,-136.34590329664564,246818337
fw,-81.3953170776367,-62.7340850830078,114.32104538279992,-115.01147509378079,246835004
fw,-83.2071990966796,-61.447898864746,114.89653938956756,-93.36002244310457,246851671
fw,-84.769775390625,-60.3930854797363,112.70485794969822,-72.55060681501834,246868338
fw,-85.8733673095703,-59.7607612609863,107.33640757937208,-53.53096227856002,246885005
fw,-86.3067321777343,-59.3431167602539,98.72526073387803,-37.0155660161335,246901672
fw,-86.0601577758789,-58.9593620300293,87.2425030298728,-23.454728044010526,246918339
fw,-85.408203125,-58.6716194152832,73.70402270745284,-13.002277230594188,246935006
fw,-84.6504211425781,-58.9001998901367,59.279653108763185,-5.50304091718352,246951673
fw,-84.0069732666015,-59.3042984008789,45.30772495867388,-0.5277368005784027,246968340
fw,-83.5406265258789,-59.8358573913574,33.04088802361076,2.525568350806219,246985007
fw,-83.2978515625,-60.5109977722168,23.371556888393147,4.272056408486557,247001674
fw,-83.2091293334961,-61.201358795166,16.60118200299852,5.1669016846369,247018341
fw,-83.1413040161132,-61.7361679077148,12.319131784370352,5.382715347559697,247035008
fw,-83.0131530761718,-62.27730178833,9.438918824347788,4.793902232517838,247051675
fw,-82.7951354980468,-62.7729568481445,6.401889458206722,3.0905231965794866,247068342
fw,-82.3825607299804,-63.3420143127441,1.510102331331993,-0.0025058729633593846,247085009
fw,-81.8375473022461,-63.7429046630859,-6.692396188198689,-4.470891602159636,247101676
fw,-81.2513885498046,-64.0204086303711,-19.088878270773268,-9.818867142032826,247118343
fw,-80.5674972534179,-64.0098114013671,-35.79145704076418,-15.030418245019268,247135010
fw,-79.3084106445312,-63.7971305847168,-56.10933571667887,-18.729040442004468,247151677
fw,-77.2791442871093,-63.4390716552734,-78.66684171829884,-19.50995522630466,247168344
fw,-74.9544143676757,-62.6428756713867,-101.62794971728673,-16.34524578530963,247185011
fw,-72.8423614501953,-62.5579681396484,-122.98838887339788,-8.91440323241934,247201678
fw,-71.5239639282226,-63.3738212585449,-140.90554067335498,2.2781526178548037,247218345
fw,-70.9389572143554,-64.7126159667968,-154.02221072412684,16.054459178707475,247235012
fw,-70.1966552734375,-66.0473098754882,-161.7087376931783,30.91661351930797,247251679
fw,-69.0636367797851,-67.3520584106445,-164.1356525892536,45.449802915975724,247268346
fw,-67.8613739013671,-68.8339385986328,-162.12766049298762,58.62517513034674,247285013
fw,-66.7462463378906,-70.6387176513671,-156.834074958806,69.92553470160107,247301680
fw,-65.5599136352539,-72.6119384765625,-149.33718646792403,79.296754117607,247318347
fw,-64.16943359375,-74.5948486328125,-140.35237805913974,86.97539009863482,247335014
fw,-62.6349792480468,-76.5102310180664,-130.12624334902597,93.26151056732765,247351681
fw,-61.1314086914062,-78.4502868652343,-118.54018019905867,98.31114551498106,247368348
fw,-59.8186416625976,-80.5162277221679,-105.33822067130818,102.01553832687996,247385015
fw,-58.6391296386718,-82.6661300659179,-90.36480530842441,104.0057185999929,247401682
fw,-57.62109375,-84.6893539428711,-73.7238361487795,103.77513989854933,247418349
fw,-56.9007682800293,-86.4818649291992,-55.82654120488455,100.87206469188078,247435016
fw,-56.6037559509277,-88.1674194335937,-37.34914184154035,95.09727485990352,247451683
fw,-56.5285911560058,-90.0,-19.14860068201562,86.65174826789057,247468350
fw,-56.5207023620605,-89.1528167724609,-2.1762005067956265,76.1974135710563,247485017
fw,-56.7952766418457,-87.7860107421875,12.606058727237805,64.80982205366372,247501684
fw,-57.575382232666,-86.6922760009765,24.330532185895294,53.816465013760066,247518351
fw,-58.6412162780761,-85.8230819702148,32.36528246682824,44.53625983664843,247535018
fw,-59.6351814270019,-85.1635360717773,36.46123385178897,37.96510921459662,247551685
fw,-60.264175415039,-84.6626663208007,36.8391863204299,34.48001300090374,247568352
fw,-60.7134170532226,-84.2409515380859,34.16643042351232,33.64656481123132,247585019
fw,-61.26753616333,-83.8341979980468,29.42914977220586,34.20195109208711,247601686
fw,-61.7672386169433,-83.4020385742187,23.754910317499643,34.24651876579565,247618353
fw,-62.1393737792968,-82.8935089111328,18.245949683908307,31.620006869727288,247635020
fw,-62.3316650390625,-82.2207489013671,13.857902383900482,24.37956328866629,247651687
fw,-62.6435470581054,-81.7804489135742,11.328171049113818,11.255964174312606,247668354
fw,-63.1487388610839,-81.7570266723632,11.13918367899471,-8.038162328559324,247685021
fw,-63.5112037658691,-81.9425582885742,13.496467924204536,-32.73019964208542,247701688
fw,-63.6123924255371,-81.6660995483398,18.311689036552956,-61.145430028972555,247718355
fw,-63.9644889831543,-80.3390579223632,25.204342997935765,-91.03390775268574,247735022
fw,-64.8853454589843,-78.3216018676757,33.55390973431605,-119.9622836071107,247751689
fw,-66.2778854370117,-76.2187805175781,42.62223500294776,-145.67306478797815,247768356
fw,-67.7062149047851,-74.3849182128906,51.72308048260334,-166.34702278266636,247785023
fw,-68.9961929321289,-72.5967330932617,60.37513502094817,-180.74373444338303,247801690
fw,-70.3388671875,-70.7180099487304,68.37315420474253,-188.22912194922154,247818357
fw,-71.8862991333007,-68.8337860107421,75.75161180467501,-188.72095629885726,247835024
fw,-73.5776214599609,-67.031623840332,82.66297483942573,-182.59011134525062,247851691
fw,-75.3162612915039,-65.0890502929687,89.21740965916989,-170.5517495464323,247868358
fw,-77.0251846313476,-63.230354309082,95.3316593867976,-153.5739708250196,247885025
fw,-78.7262954711914,-61.6527366638183,100.62851776961993,-132.8197821667304,247901692
fw,-80.3798065185546,-60.2686958312988,104.42181780274171,-109.61678038074531,247918359
fw,-81.9459762573242,-59.0405921936035,105.80891205547141,-85.42530334764365,247935026
fw,-83.4342193603515,-58.1383056640625,103.86808570364576,-61.76692174244534,247951693
fw,-84.7150650024414,-57.7128601074218,97.92601940530682,-40.09141198636058,247968360
fw,-85.5959396362304,-57.60445022583,87.82939592797582,-21.596492454804427,247985027
fw,-85.9498672485351,-57.695743560791,74.13581671748781,-7.050954463974087,248001694
fw,-85.8949737548828,-57.6756744384765,58.14431763988559,3.314627247738792,248018361
fw,-85.7613677978515,-58.0479202270507,41.72292927339429,9.804159290902435,248035028
fw,-85.6946105957031,-58.7333450317382,26.95385668058981,13.133554072146834,248051695
fw,-85.7334594726562,-59.6299209594726,15.682083581530463,14.223085943830917,248068362
fw,-85.7794723510742,-60.695255279541,9.090011611806474,13.96159920147295,248085029
fw,-85.7534713745117,-61.495807647705,7.411651313236972,13.00404789910777,248101696
fw,-85.6025238037109,-62.0959968566894,9.852085295884024,11.653918328126826,248118363
fw,-85.3796234130859,-62.7679176330566,14.717191411875298,9.86234299617896,248135030
fw,-85.0246887207031,-63.3838539123535,19.71136732666378,7.346855549050813,248151697
fw,-84.4869766235351,-63.7897071838378,22.338413503002343,3.7970062516760925,248168364
fw,-83.6362533569336,-63.9625778198242,20.336083343313486,-0.8968836264939553,248185031
fw,-82.52685546875,-64.0464477539062,12.075765214620928,-6.4655971717556735,248201698
fw,-81.3897933959961,-63.9718856811523,-3.1374220567739193,-12.19103693386869,248218365
fw,-80.044692993164,-64.0699310302734,-24.91453601537393,-16.97051367215797,248235032
fw,-78.4019088745117,-64.2065963745117,-51.805541134555774,-19.510831999708582,248251699
fw,-76.5390701293945,-63.8480834960937,-81.48869633159794,-18.62064105205765,248268366
fw,-74.7115707397461,-63.19970703125,-111.10327650232573,-13.535727994775979,248285033
fw,-73.3896331787109,-63.3240585327148,-137.6910118078237,-4.174996930583905,248301700
fw,-72.7445220947265,-64.428352355957,-158.68674752204743,8.779892409836226,248318367
fw,-71.8901290893554,-65.8058090209961,-172.35831701066792,24.0286941746305,248335034
fw,-70.4780807495117,-67.2710189819336,-178.07037897712803,39.96834581141668,248351701
fw,-69.1681213378906,-68.7736663818359,-176.2771506434445,55.05774630922629,248368368
fw,-67.9675140380859,-70.5060806274414,-168.24302842113093,68.11082145120002,248385035
fw,-66.6207885742187,-72.5475387573242,-155.60410394071477,78.45037145338694,248401702
fw,-64.958267211914,-74.6664428710937,-139.94453868926104,85.91250550550811,248418369
fw,-63.1361503601074,-76.7218704223632,-122.52678905392362,90.73006380335985,248435036
fw,-61.6968116760253,-78.7031097412109,-104.21343655003612,93.34836449840233,248451703
fw,-60.6095352172851,-80.7152862548828,-85.52740146414645,94.24109101155088,248468370
fw,-59.6585693359375,-82.7793045043945,-66.76967648421835,93.78699878807939,248485037
fw,-58.8647994995117,-84.786994934082,-48.14053601782021,92.23328864137605,248501704
fw,-58.296588897705,-86.5745239257812,-29.84732388554192,89.7265332852329,248518371
fw,-58.0926437377929,-88.1885757446289,-12.198387717475017,86.36672152842522,248535038
fw,-58.1612396240234,-90.0,4.323075463116502,82.24779835243646,248551705
fw,-58.4355010986328,-89.640640258789,19.026449613370712,77.47477726165393,248568372
fw,-59.1180419921875,-88.1412200927734,31.052282399912173,72.16785352472894,248585039
fw,-60.0409851074218,-86.9090194702148,39.50003358488197,66.46500840532629,248601706
fw,-60.9062461853027,-85.6486892700195,43.628470425855376,60.52140822092072,248618373
fw,-61.4734916687011,-84.3498001098632,43.07553073182396,54.489606757485525,248635040
fw,-62.3733215332031,-83.3942642211914,38.032091719862635,48.46165559425977,248651707
fw,-63.2507438659668,-82.953498840332,29.31858331765622,42.37092333785618,248668374
fw,-63.6565628051757,-82.7512969970703,18.337036886373806,35.884995832241344,248685041
fw,-63.6401710510253,-82.4964523315429,6.896300793766223,28.351441467936823,248701708
fw,-63.4384078979492,-82.2302474975586,-3.060170431684138,18.858036515882663,248718375
fw,-63.3421630859375,-82.0670928955078,-9.765050107594151,6.4284651510970665,248735042
fw,-63.452220916748,-81.9502639770507,-11.911675234830005,-9.686329902911645,248751709
fw,-63.4644660949707,-81.7269210815429,-8.865657330026545,-29.708832491745905,248768376
fw,-62.9189720153808,-80.9752883911132,-0.7710324763402946,-53.12882367152424,248785043
fw,-62.8581619262695,-79.4053421020507,11.484759937560575,-78.6683093015605,248801710
fw,-63.7020111083984,-77.5225524902343,26.47463992896778,-104.44436560585103,248818377
fw,-65.1531753540039,-75.8249435424804,42.578412726520405,-128.29272431337847,248835044
fw,-66.6203689575195,-74.5677413940429,58.36604384002897,-148.16009688886018,248851711
fw,-68.0918502807617,-73.3959274291992,72.87267476355048,-162.45434570696074,248868378
fw,-69.6289978027343,-71.8943328857421,85.66720575684313,-170.26977343382197,248885045
fw,-71.430191040039,-69.9568481445312,96.719628816127,-171.45825336116184,248901712
fw,-73.4510803222656,-68.0610122680664,106.15860802422536,-166.5600123937391,248918379
fw,-75.5509643554687,-66.5076675415039,114.03318075970269,-156.6285401272778,248935046
fw,-77.6368026733398,-65.1857147216796,120.1615560049179,-142.9958125806686,248951713
fw,-79.730110168457,-64.0113525390625,124.10363363098797,-127.03392547548708,248968380
fw,-81.7562179565429,-62.9290466308593,125.25512194040759,-109.96643647337076,248985047
fw,-83.5856475830078,-61.7411880493164,123.03088881642876,-92.75981973114622,249001714
fw,-84.9305953979492,-60.7307624816894,117.08122640935555,-76.0937712621904,249018381
fw,-85.5246429443359,-60.049991607666,107.47357285616654,-60.38751851650126,249035048
fw,-85.467414855957,-59.6295471191406,94.78217989671084,-45.85597822913686,249051715
fw,-85.0093154907226,-59.3159980773925,80.05738688328452,-32.577633467766006,249068382
fw,-84.4388427734375,-58.9984245300293,64.68100268506647,-20.563718637378123,249085049
fw,-83.8551864624023,-59.0904541015625,50.139622195738006,-9.821314037957729,249101716
fw,-83.3178100585937,-59.686107635498,37.75783780929733,-0.4042263846396298,249118383
fw,-82.9454193115234,-60.675609588623,28.433678101116598,7.552774933493713,249135050
fw,-82.7452926635742,-61.5661430358886,22.418389336124918,13.820680207297869,249151717
fw,-82.6823577880859,-62.466453552246,19.186123303467447,18.091583698885394,249168384
fw,-82.6654891967773,-63.0524559020996,17.441063703401134,20.03364671977348,249185051
fw,-82.5744552612304,-63.6999702453613,15.298121315965904,19.391617375103007,249201718
fw,-82.2944412231445,-64.4302368164062,10.63913114968085,16.120386911693387,249218385
fw,-81.7962570190429,-64.8114700317382,1.5921083854709266,10.514379269602847,249235052
fw,-81.2808227539062,-64.8476791381836,-12.975564418767753,3.282055793710085,249251719
fw,-80.8369140625,-64.6867294311523,-33.090815703757265,-4.474808154598999,249268386
fw,-80.4844207763671,-64.388931274414,-57.55991524853722,-11.389066430751985,249285053
fw,-79.8799362182617,-64.32177734375,-84.16190422294626,-16.047211197075214,249301720
fw,-78.4610290527343,-64.0771560668945,-110.11165440776793,-17.262888137102077,249318387
fw,-76.2419204711914,-63.4766159057617,-132.66821613587166,-14.345975925981053,249335054
fw,-73.7869033813476,-63.6767082214355,-149.722163009373,-7.282967865578911,249351721
fw,-71.996223449707,-64.6560668945312,-160.20768887098544,3.254684121509835,249368388
fw,-70.8293914794921,-65.9183044433593,-164.2381487572755,16.100058067667632,249385055
fw,-69.8035278320312,-67.2497329711914,-162.93663221579723,29.910377116984836,249401722
fw,-68.5873947143554,-68.5326156616211,-158.0114052570478,43.48760305605089,249418389
fw,-67.5487823486328,-69.8609313964843,-151.19940298151025,55.988098463136375,249435056
fw,-66.511116027832,-71.4494934082031,-143.75111390926912,66.98296112190894,249451723
fw,-65.1873245239257,-73.3056488037109,-136.12804594156844,76.39813502047456,249468390
fw,-63.6767082214355,-75.2551498413086,-128.01040155908393,84.38520673943914,249485057
fw,-62.0490951538085,-77.110610961914,-118.58870330681384,91.16061440606603,249501724
fw,-60.5954246520996,-78.8915786743164,-107.00046632374887,96.8398197424071,249518391
fw,-59.4041862487793,-80.6315383911132,-92.73102978218385,101.3033801349152,249535058
fw,-58.4817314147949,-82.3748168945312,-75.83996652308345,104.1474522715512,249551725
fw,-57.8133850097656,-84.1368255615234,-56.96703410917046,104.7619526710013,249568392
fw,-57.4362030029296,-85.8937759399414,-37.163685367056516,102.53535889462796,249585059
fw,-57.3677444458007,-87.4607849121093,-17.649702654344754,97.12568199827865,249601726
fw,-57.5206146240234,-88.1476593017578,0.40457813151060756,88.69552539748327,249618393
fw,-57.6884002685546,-87.6984558105468,16.013262621634684,78.01013907892258,249635060
fw,-58.1226844787597,-86.9508514404296,28.43017339102791,66.34392112642567,249651727
fw,-58.986328125,-86.1685638427734,37.16741750127094,55.21166962068582,249668394
fw,-59.9576072692871,-85.4173889160156,42.01543506268045,46.00225661612928,249685061
fw,-60.7232322692871,-84.6748352050781,43.066331209326194,39.61930079370916,249701728
fw,-61.2063179016113,-84.1261672973632,40.71628294400851,36.22371295016158,249718395
fw,-61.8763236999511,-83.6181945800781,35.63211867881856,35.14140425590059,249735062
fw,-62.5019950866699,-83.1304168701171,28.692751226730216,34.96062571316356,249751729
fw,-62.9073257446289,-82.578254699707,20.924408480981402,33.80299650239561,249768396
fw,-63.1562614440918,-81.8900527954101,13.43430782371755,29.71191617631301,249785063
fw,-63.2449760437011,-81.2896347045898,7.332237930620604,21.0685890360583,249801730
fw,-63.4062309265136,-81.1031799316406,3.6291379903183056,6.933685282281093,249818397
fw,-63.8628959655761,-81.3640975952148,3.112429963838587,-12.765392103892577,249835064
fw,-64.1359329223632,-81.6764297485351,6.212028563762249,-37.22938200165911,249851731
fw,-63.9705085754394,-81.5091857910156,12.889309549556003,-64.93508442821997,249868398
fw,-64.3682250976562,-80.501708984375,22.60027692253155,-93.87641778910039,249885065
fw,-65.555679321289,-78.8733367919921,34.38164634904152,-121.84268904572455,249901732
fw,-67.0992431640625,-76.9688568115234,47.06366609765247,-146.69701309365777,249918399
fw,-68.5758895874023,-75.0391464233398,59.54434513974029,-166.6263722211501,249935066
fw,-69.982177734375,-73.0406723022461,71.01963282025253,-180.33070913299147,249951733
fw,-71.529426574707,-71.0886154174804,81.08732941516635,-187.12031875239208,249968400
fw,-73.300048828125,-69.2995529174804,89.70782391159656,-186.91045608399023,249985067
fw,-75.2354660034179,-67.7330627441406,97.0618761094615,-180.13116142674426,250001734
fw,-77.2478713989257,-65.8765640258789,103.36640629234687,-167.59357660504048,250018401
fw,-79.2516784667968,-64.0027084350586,108.70247723827374,-150.36066706871728,250035068
fw,-81.1906280517578,-62.4392471313476,112.896525544232,-129.65486017096845,250051735
fw,-82.9984893798828,-61.0989875793457,115.48574919270496,-106.80350398065546,250068402
fw,-84.6946640014648,-59.8147735595703,115.78715220856367,-83.19435173154574,250085069
fw,-86.1843795776367,-58.8664588928222,113.06934077309305,-60.205608090945816,250101736
fw,-86.9287185668945,-58.4103507995605,106.79441670186965,-39.09255938820574,250118403
fw,-86.5509948730468,-58.2477989196777,96.86296571626791,-20.846027205111817,250135070
fw,-85.6689453125,-58.2969169616699,83.777028077696,-6.068061490626854,250151737
fw,-84.8291854858398,-58.3305549621582,68.65067533759195,5.082819080194421,250168404
fw,-84.1732177734375,-58.7789840698242,53.04444339064941,12.8474848702651,250185071
fw,-83.6873550415039,-59.6196823120117,38.657959201148714,17.732463516912453,250201738
fw,-83.34033203125,-60.7053146362304,26.95896066664618,20.32821358710362,250218405
fw,-83.1046524047851,-61.8962669372558,18.84202969159989,21.134850512857234,250235072
fw,-83.0370254516601,-62.7712135314941,14.39879767925789,20.447781899728493,250251739
fw,-83.0202331542968,-63.510684967041,12.854395870749896,18.340412115213688,250268406
fw,-82.8622970581054,-64.4133834838867,12.691103627051266,14.752633559406952,250285073
fw,-82.4621200561523,-65.1835098266601,11.941069720089617,9.653074643059428,250301740
fw,-81.9387130737304,-65.3748779296875,8.587973544608804,3.2069773961792007,250318407
fw,-81.415542602539,-65.1397094726562,0.9849246408913693,-4.1213657165613045,250335074
fw,-80.8537216186523,-64.7504730224609,-11.809353914622841,-11.563615776127948,250351741
fw,-80.3291091918945,-64.3837661743164,-29.845160091188664,-18.121750779587394,250368408
fw,-79.6147155761718,-64.1704330444336,-52.26721203918676,-22.686834448195224,250385075
fw,-78.3058700561523,-64.1417770385742,-77.44741734383793,-24.191567089063543,250401742
fw,-76.3413009643554,-63.3021392822265,-103.22485211899684,-21.808659962212335,250418409
fw,-74.1096954345703,-62.5632209777832,-127.22223545239329,-15.179113928868032,250435076
fw,-72.2242431640625,-63.1833343505859,-147.21844086329153,-4.587184804549904,250451743
fw,-71.3521728515625,-64.8487777709961,-161.53791244668525,9.029730083247209,250468410
fw,-70.621353149414,-66.2597885131836,-169.37227012408442,24.280280957115323,250485077
fw,-69.5566635131836,-67.6318130493164,-170.92000429935874,39.652555893176704,250501744
fw,-68.2738876342773,-68.9176254272461,-167.26282091722902,53.8407345631186,250518411
fw,-67.0763854980468,-70.6442565917968,-159.99350493334038,65.95504748943253,250535078
fw,-65.8717575073242,-72.5986785888671,-150.72011028033313,75.58356061277486,250551745
fw,-64.5679550170898,-74.6351470947265,-140.6281885640394,82.73296867079482,250568412
fw,-63.136547088623,-76.6636810302734,-130.25074456973076,87.69638605110025,250585079
fw,-61.6305313110351,-78.6258773803711,-119.49520498673442,90.89769949061825,250601746
fw,-60.2523727416992,-80.5988693237304,-107.86825531754025,92.75666358498638,250618413
fw,-59.1439552307128,-82.5561370849609,-94.77886257897477,93.60294489330352,250635080
fw,-58.2000770568847,-84.3919601440429,-79.80555197065327,93.64112740775677,250651747
fw,-57.4512481689453,-85.9992370605468,-62.86515803741058,92.94694877941205,250668414
fw,-56.9736442565918,-87.394058227539,-44.277633617895525,91.47383773259311,250685081
fw,-56.7895545959472,-88.4611282348632,-24.753854737355333,89.06772875019742,250701748
fw,-56.8939628601074,-88.5535507202148,-5.33314444274529,85.50802715238544,250718415
fw,-57.2161178588867,-87.5291519165039,12.721366285707914,80.59187988996493,250735082
fw,-58.1155548095703,-86.1755142211914,28.074899675699406,74.25209923559783,250751749
fw,-59.2298316955566,-84.7046508789062,39.51690727723703,66.66168394896954,250768416
fw,-60.1898345947265,-83.2676391601562,46.169406275919044,58.256161778858065,250785083
fw,-60.8206443786621,-82.3078308105468,47.65836407031144,49.620722680200124,250801750
fw,-61.6376991271972,-82.035041809082,44.21164315714409,41.24684797438404,250818417
fw,-62.6971359252929,-82.0420379638671,36.67612209383029,33.24159987271068,250835084
fw,-63.3630905151367,-82.0101852416992,26.457604794277955,25.12729288488751,250851751
fw,-63.4782409667968,-81.7555465698242,15.375914253927483,15.85626021128574,250868418
fw,-63.2203750610351,-81.3291854858398,5.426874732371834,4.07823047800318,250885085
fw,-63.1893806457519,-81.1090545654296,-1.5277963661048104,-11.419964825562928,250901752
fw,-63.2872848510742,-81.2234497070312,-4.0844814369308216,-31.264804990799636,250918419
fw,-62.6512031555175,-81.4060974121093,-1.5600333116028426,-55.20199253365248,250935086
fw,-62.2972831726074,-81.1309127807617,5.880838618146354,-82.05206347724838,250951753
fw,-63.0231475830078,-80.0407485961914,17.288787912361286,-109.9090365047559,250968420
fw,-64.4441833496093,-78.3563385009765,31.189627464923962,-136.49544070642,250985087
fw,-65.9627227783203,-76.344985961914,45.966179493414664,-159.5560258317215,251001754
fw,-67.3651580810546,-74.3589324951171,60.226881693197505,-177.19053106653078,251018421
fw,-68.8061904907226,-72.299690246582,73.03827048831717,-188.0741286443296,251035088
fw,-70.4493713378906,-69.9667587280273,83.97588323896906,-191.5627232859839,251051755
fw,-72.2970657348632,-67.8878021240234,93.02967312857511,-187.70259283746574,251068422
fw,-74.2713165283203,-66.1914978027343,100.43569012046429,-177.15999116262103,251085089
fw,-76.2906112670898,-64.4516448974609,106.49437020167298,-161.08279978463233,251101756
fw,-78.2891693115234,-62.8008384704589,111.40880216013221,-140.91887854993374,251118423
fw,-80.1660690307617,-61.4679412841796,115.16157601492348,-118.22888373310906,251135090
fw,-81.8840026855468,-60.2628021240234,117.45106142517525,-94.52622990763273,251151757
fw,-83.4422302246093,-59.2634887695312,117.71345515930471,-71.1585648681426,251168424
fw,-84.7084274291992,-58.6970672607421,115.24845514065301,-49.230337504231514,251185091
fw,-85.3558654785156,-58.3735618591308,109.43711881141874,-29.562187171969185,251201758
fw,-85.2091598510742,-58.1223220825195,99.99991134735586,-12.685192276413368,251218425
fw,-84.5973510742187,-57.8708534240722,87.2122739913783,1.132934161172008,251235092
fw,-83.852668762207,-58.0374412536621,71.99347545699831,11.840773543949211,251251759
fw,-83.2044219970703,-58.7619819641113,55.816562937638025,19.55377045268693,251268426
fw,-82.7398529052734,-59.7555923461914,40.44052464559058,24.51643977588211,251285093
fw,-82.4697570800781,-60.8830642700195,27.520291172107743,27.07523856710744,251301760
fw,-82.580581665039,-61.9974517822265,18.189851164102546,27.65002396256366,251318427
fw,-82.8627624511718,-62.7242012023925,12.730728111847029,26.694983867471226,251335094
fw,-82.9809112548828,-63.4583396911621,10.42819735523433,24.65276379761658,251351761
fw,-82.7762680053711,-64.1092681884765,9.676122598576809,21.91587590776306,251368428
fw,-82.3390655517578,-64.5059661865234,8.320242786305394,18.808576375307315,251385095
fw,-81.7587890625,-64.6866760253906,4.150543901782945,15.592537828287732,251401762
fw,-81.301643371582,-64.699104309082,-4.5975166951466,12.491825071611622,251418429
fw,-81.1611328125,-64.7357025146484,-18.86819673331334,9.73269537130248,251435096
fw,-81.1002655029296,-65.2211227416992,-38.61432168694553,7.592137283808941,251451763
fw,-80.5774230957031,-65.82666015625,-62.829346896915354,6.434498490013166,251468430
fw,-79.2113037109375,-66.1441040039062,-89.72821083901619,6.699470131976138,251485097
fw,-77.0675964355468,-66.5353927612304,-117.0163793279791,8.81635700757797,251501764
fw,-74.7890472412109,-67.421630859375,-142.21370121768115,13.065192954487246,251518431
fw,-73.3616409301757,-68.7925033569336,-163.01867278109845,19.448733052363686,251535098
fw,-72.8007354736328,-70.3644027709961,-177.6785588216077,27.64078452549838,251551765
fw,-71.747688293457,-71.8735046386718,-185.28386842370796,37.03645364221648,251568432
fw,-70.2416763305664,-73.4652862548828,-185.8813516718394,46.882098916870554,251585099
fw,-68.882209777832,-75.1928024291992,-180.3413307162559,56.43480970031773,251601766
fw,-67.5470962524414,-76.9606018066406,-170.01587636973798,65.09723614206735,251618433
fw,-65.8631439208984,-78.6548843383789,-156.32169593887014,72.48576921250988,251635100
fw,-63.9261398315429,-80.2425689697265,-140.40521126560307,78.4145721131055,251651767
fw,-62.2401618957519,-81.7851333618164,-122.98350304643442,82.81343601969648,251668434
fw,-60.990550994873,-83.3989486694336,-104.36062010110909,85.6312342678101,251685101
fw,-59.9742240905761,-84.9975128173828,-84.56311756084747,86.78514755457248,251701768
fw,-59.120548248291,-86.5724029541015,-63.53754327417241,86.18663857425817,251718435
fw,-58.4420356750488,-88.1018371582031,-41.370695507939566,83.82547399506021,251735102
fw,-58.0924263000488,-89.2294998168945,-18.496052452810616,79.85706480395757,251751769
fw,-58.1204986572265,-88.8765640258789,4.1649129230809585,74.63863040396744,251768436
fw,-58.4007415771484,-88.0804138183593,25.188955867038857,68.69222909045774,251785103
fw,-59.2222709655761,-87.1566925048828,42.81379707019421,62.613003399468354,251801770
fw,-60.6052474975585,-85.9643936157226,55.27772003969264,56.961062703839346,251818437
fw,-62.1958541870117,-84.6629257202148,61.26068205561725,52.163699904856074,251835104
fw,-63.4428939819335,-83.5931167602539,60.284763255348174,48.42707463777965,251851771
fw,-64.5638580322265,-82.9865036010742,52.92256217359928,45.644427348711616,251868438
fw,-65.4388885498046,-82.5634613037109,40.72891701817117,43.307869072067305,251885105
fw,-65.6438522338867,-82.2065887451171,25.91946902416342,40.4661758081693,251901772
fw,-65.3791732788086,-81.7352523803711,10.911996170154543,35.78674299465774,251918439
fw,-64.9631881713867,-81.2005386352539,-2.1146678761982214,27.755208578016237,251935106
fw,-64.8104629516601,-80.7760620117187,-11.515208552765378,14.9918483330348,251951773
fw,-65.248306274414,-80.5393829345703,-16.278446109403664,-3.3895117123625944,251968440
fw,-65.5962753295898,-80.3477935791015,-15.984928108607143,-27.479077019430914,251985107
fw,-65.1271438598632,-79.717056274414,-10.724080329103295,-56.412018158503024,252001774
fw,-64.5267944335937,-78.3583526611328,-1.0384950472523788,-88.40139034575574,252018441
fw,-64.82763671875,-76.7529830932617,12.123475435510677,-120.96433404904226,252035108
fw,-66.0860214233398,-75.3377838134765,27.515650765541448,-151.29735455595704,252051775
fw,-67.7250747680664,-74.2520523071289,43.794901938327705,-176.7194697872945,252068442
fw,-69.3228683471679,-72.9405059814453,59.76470737974224,-195.0839343034298,252085109
fw,-70.8998184204101,-71.2395553588867,74.5632318658729,-205.06930015499256,252101776
fw,-72.5774307250976,-69.2254943847656,87.72237867209901,-206.29449021546094,252118443
fw,-74.4635314941406,-67.5940475463867,99.09105637506364,-199.24834537510344,252135110
fw,-76.4924697875976,-65.9140548706054,108.67106944009322,-185.0750098043849,252151777
fw,-78.5788650512695,-64.1245574951171,116.43212793702753,-165.30072078482746,252168444
fw,-80.6734313964843,-62.5917587280273,122.1645910420147,-141.59747842912046,252185111
fw,-82.6852569580078,-61.293113708496,125.41447568478294,-115.63845276646052,252201778
fw,-84.6158828735351,-60.1487083435058,125.5306446647227,-89.03392643115862,252218445
fw,-86.384048461914,-59.2595901489257,121.83205542725007,-63.2919845126065,252235112
fw,-87.441665649414,-58.9039878845214,113.8671151168144,-39.750990228768785,252251779
fw,-86.8762664794921,-58.91015625,101.69279090062983,-19.4718093898968,252268446
fw,-85.6764984130859,-59.033763885498,86.06898453225533,-3.125502421831218,252285113
fw,-84.6781463623046,-59.0934867858886,68.47009636862188,9.066308368883004,252301780
fw,-84.0982055664062,-59.6865653991699,50.870474021698726,17.2992985927665,252318447
fw,-83.8029327392578,-60.6255264282226,35.34321528228937,22.06510239633458,252335114
fw,-83.6237869262695,-61.6969413757324,23.582845614374854,23.980501710434687,252351781
fw,-83.4471969604492,-62.938678741455,16.488948903337747,23.62423331739572,252368448
fw,-83.3540344238281,-63.9109001159668,13.923786363249457,21.435521065469274,252385115
fw,-83.2718276977539,-64.7032852172851,14.701772901885253,17.70668125539521,252401782
fw,-83.0226516723632,-65.6704025268554,16.808707272305625,12.664530355931191,252418449
fw,-82.5519485473632,-66.0784378051757,17.798865894179585,6.594921651747746,252435116
fw,-81.9796829223632,-65.8960876464843,15.281823152949773,-0.05526687022749009,252451783
fw,-81.5235137939453,-65.4520263671875,7.392391650396362,-6.646748011875956,252468450
fw,-81.1941375732421,-65.1002655029296,-6.854600085351361,-12.3906051104709,252485117
fw,-81.0329666137695,-65.1725997924804,-27.38572558898284,-16.43565405719153,252501784
fw,-80.7985000610351,-65.4489288330078,-53.07633930000409,-17.976953777128237,252518451
fw,-79.9411468505859,-65.1860580444336,-81.9140397649074,-16.38804723534908,252535118
fw,-78.2807464599609,-64.4831466674804,-111.27839015735968,-11.37595314310311,252551785
fw,-76.2622833251953,-64.8277053833007,-138.31055786675668,-3.1102797381572795,252568452
fw,-74.7118301391601,-66.4348526000976,-160.35289358880007,7.759837345083075,252585119
fw,-73.8003005981445,-68.214614868164,-175.4093333176097,20.250080156874926,252601786
fw,-72.5497207641601,-69.5486831665039,-182.52199435524375,33.29659061506382,252618453
fw,-70.9539108276367,-70.9161911010742,-181.92841736070415,45.99985070550659,252635120
fw,-69.548095703125,-72.6003341674804,-174.909489389317,57.75048158752717,252651787
fw,-68.2011184692382,-74.3916244506836,-163.35921792193548,68.21183640137566,252668454
fw,-66.640869140625,-76.2343826293945,-149.23505433494995,77.20885519612065,252685121
fw,-64.8754425048828,-78.1457901000976,-134.09331523352623,84.6002335304208,252701788
fw,-63.1388893127441,-80.0104598999023,-118.84873176950667,90.19804300541632,252718455
fw,-61.7222747802734,-82.0216445922851,-103.7753543277286,93.76653207604821,252735122
fw,-60.5443534851074,-84.073745727539,-88.67319100336566,95.09383011551506,252751789
fw,-59.5012397766113,-85.8997421264648,-73.10260526793657,94.0973448364233,252768456
fw,-58.6676368713378,-87.5254364013671,-56.617015918010146,90.90881206756525,252785123
fw,-58.1446685791015,-88.9637298583984,-38.962156597805055,85.8965057260598,252801790
fw,-57.9872817993164,-89.5974960327148,-20.231775067379278,79.6134030058061,252818457
fw,-58.055419921875,-88.5606002807617,-0.9707486081101286,72.69286969294025,252835124
fw,-58.3214836120605,-87.5798187255859,17.797279084769652,65.73207771238428,252851791
fw,-58.9284744262695,-86.5055389404296,34.655136735235395,59.20231074358073,252868458
fw,-60.2182731628418,-85.3485717773437,48.018698926621525,53.40644994739461,252885125
fw,-61.7598876953125,-84.2843017578125,56.48465896833805,48.47601504713875,252901792
fw,-63.0955276489257,-83.4642181396484,59.2098244271936,44.37933344283246,252918459
fw,-64.1297836303711,-82.7879486083984,56.191686748697755,40.91306409268334,252935126
fw,-65.5738067626953,-82.1688003540039,48.343301983716515,37.670513941575855,252951793
fw,-66.3475799560546,-81.7798995971679,37.32816602882255,34.006533727388074,252968460
fw,-66.4310455322265,-81.5273361206054,25.20313522294575,29.035029335814837,252985127
fw,-66.2144317626953,-81.2847061157226,13.983400561449375,21.69503265150602,253001794
fw,-66.1777267456054,-81.0889282226562,5.273950086950712,10.904194009914583,253018461
fw,-66.783950805664,-81.0199661254882,0.08018001562052776,-4.212320630998427,253035128
fw,-67.5596466064453,-81.0142135620117,-1.184502873737851,-24.063618375152437,253051795
fw,-67.5074615478515,-80.7258682250976,1.4245625765245165,-48.37407767075007,253068462
fw,-66.9940032958984,-79.8853225708007,7.514871233624669,-76.07380727729836,253085129
fw,-66.9784317016601,-78.5458908081054,16.450389570936387,-105.34943477570174,253101796
fw,-68.0829544067382,-77.0970764160156,27.437323105775548,-133.86834276556309,253118463
fw,-69.7823257446289,-75.6886367797851,39.64317612706117,-159.13897049738512,253135130
fw,-71.3026504516601,-74.2320709228515,52.33473483939633,-178.9222431039256,253151797
fw,-72.7605285644531,-72.4866104125976,64.96970749718525,-191.58803074911853,253168464
fw,-74.3505325317382,-70.4450988769531,77.18779186933557,-196.32852959243658,253185131
fw,-76.0786514282226,-68.386604309082,88.7067756842525,-193.18798259529171,253201798
fw,-77.9084396362304,-66.6548385620117,99.18258609986384,-182.92534086952554,253218465
fw,-79.8215026855468,-64.9049224853515,108.10275839158322,-166.776919425638,253235132
fw,-81.7328567504882,-63.1879539489746,114.75751361901374,-146.21224860044816,253251799
fw,-83.6023635864257,-61.6319885253906,118.29942670609974,-122.75960463680933,253268466
fw,-85.2662506103515,-60.2304534912109,117.88084232441469,-97.92107310149152,253285133
fw,-86.4404754638671,-59.057388305664,112.84889454677845,-73.13637053661473,253301800
fw,-86.7405166625976,-58.4186973571777,102.97048805122024,-49.732516823611896,253318467
fw,-86.0326690673828,-58.1954040527343,88.64273152968086,-28.826078627739562,253335134
fw,-84.8376007080078,-58.2829971313476,71.01909071304351,-11.201040396881925,253351801
fw,-83.9396133422851,-58.1419792175293,51.96829215968198,2.775560731637096,253368468
fw,-83.7156295776367,-58.0358772277832,33.81089675791807,13.146451549006947,253385135
fw,-83.9296569824218,-58.6094322204589,18.85636278869067,20.259003026285058,253401802
fw,-84.196304321289,-59.6256866455078,8.858203190390395,24.60351127249185,253418469
fw,-84.3684539794921,-60.6567306518554,4.5584552027686955,26.653689080084668,253435136
fw,-84.3628540039062,-61.8331909179687,5.469522461887695,26.757900474592756,253451803
fw,-84.2254180908203,-62.5416374206543,9.956885482689408,25.110133252781267,253468470
fw,-83.8583145141601,-63.3585357666015,15.58779349877384,21.807594235595555,253485137
fw,-83.2852478027343,-64.2786254882812,19.63961534551214,16.972910665586227,253501804
fw,-82.6138229370117,-64.6323852539062,19.632584424620138,10.888218277611573,253518471
fw,-82.0601959228515,-64.4271774291992,13.763629862130813,4.07726592611429,253535138
fw,-81.6891784667968,-64.1255416870117,1.1634345974402365,-2.7023309918966905,253551805
fw,-81.3737716674804,-63.9980278015136,-18.03647237412668,-8.546197480283398,253568472
fw,-80.7770614624023,-64.2001037597656,-42.78172651070029,-12.529780300092394,253585139
fw,-79.5862197875976,-64.4366302490234,-71.25143753264291,-13.845222470500653,253601806
fw,-77.6370162963867,-64.1998748779296,-101.05253210636374,-11.942691180115814,253618473
fw,-75.2538223266601,-63.9549217224121,-129.4650307018471,-6.663921964588121,253635140
fw,-73.3937301635742,-64.5311126708984,-153.7808654137947,1.68039980289406,253651807
fw,-72.7112426757812,-65.8236846923828,-171.74251545400617,12.353746713184574,253668474
fw,-71.7998428344726,-67.2890167236328,-181.9941035181036,24.37633480056494,253685141
fw,-70.1744308471679,-68.5765075683593,-184.37437211627392,36.78423232261863,253701808
fw,-68.6494369506836,-69.9470138549804,-179.88792880414695,48.85428172820534,253718475
fw,-67.6940765380859,-71.442153930664,-170.31424545608857,60.21043678951607,253735142
fw,-66.6855010986328,-73.1244125366211,-157.59286872242447,70.79600042153722,253751809
fw,-65.1956329345703,-74.9240570068359,-143.24257036716605,80.74694695644502,253768476
fw,-63.4052276611328,-76.7026443481445,-128.04597800362623,90.21047644378277,253785143
fw,-61.7063217163085,-78.4731140136718,-112.07874358547792,99.14596419813758,253801810
fw,-60.41206741333,-80.2681121826171,-94.99331950705484,107.15401844130739,253818477
fw,-59.3645095825195,-82.0111236572265,-76.3858926243991,113.40111066966881,253835144
fw,-58.4930839538574,-83.6972732543945,-56.1009669843836,116.71058012049902,253851811
fw,-57.8997268676757,-85.414306640625,-34.40752795132652,115.84874227738203,253868478
fw,-57.6948013305664,-86.8590087890625,-12.049574000116912,109.95133893048008,253885145
fw,-57.8128509521484,-86.7964324951171,9.798060292279212,98.94765199735873,253901812
fw,-58.1973648071289,-85.9396743774414,29.646008550581286,83.800510144534,253918479
fw,-58.8161888122558,-85.5274963378906,45.87847603141035,66.42910932509874,253935146
fw,-60.004093170166,-85.2390213012695,57.019427986803926,49.307392557397975,253951813
fw,-61.4320831298828,-84.7794113159179,62.05335887978239,34.865981085509915,253968480
fw,-62.5763511657714,-84.2984848022461,60.72247678753199,24.89249080610134,253985147
fw,-63.4931526184082,-84.0507736206054,53.68815703399357,20.100327531425847,254001814
fw,-64.5500259399414,-83.8774032592773,42.470669877076254,19.960953063514346,254018481
fw,-64.8371887207031,-83.6264038085937,29.159619035336398,22.82080398545261,254035148
fw,-64.6135940551757,-83.1194076538086,15.974461554189634,26.26722627260594,254051815
fw,-64.1587905883789,-82.3162536621093,4.8121063376038915,27.65791768474687,254068482
fw,-63.8171768188476,-81.5837097167968,-3.0721316277484148,24.68552699759942,254085149
fw,-64.0054321289062,-81.042610168457,-7.153411549939435,15.834137787052503,254101816
fw,-64.838508605957,-80.8466796875,-7.499095206474062,0.6178851011129011,254118483
fw,-65.3952560424804,-81.043716430664,-4.510336667952666,-20.430758787681743,254135150
fw,-65.3337173461914,-81.0641174316406,1.3082412428690777,-45.968285036157276,254151817
fw,-65.1450881958007,-80.4972229003906,9.456216788727714,-74.13520533673511,254168484
fw,-65.333251953125,-79.1819915771484,19.433253054695783,-102.83786198706754,254185151
fw,-66.1456832885742,-77.3753356933593,30.70500177946153,-129.97022550405816,254201818
fw,-67.5333633422851,-75.2952423095703,42.710421178442076,-153.58624303928426,254218485
fw,-69.0121994018554,-73.2167053222656,54.92085300650398,-172.05298108321415,254235152
fw,-70.6289520263671,-71.327163696289,66.91126554364898,-184.19364385755787,254251819
fw,-72.3202362060546,-69.3970260620117,78.39623065792217,-189.3976995195704,254268486
fw,-74.0993423461914,-67.6140518188476,89.20745801302975,-187.66190183260466,254285153
fw,-76.0015869140625,-66.1387405395507,99.22093220802381,-179.53876053206452,254301820
fw,-78.0097885131836,-64.6393737792968,108.26142093899279,-166.00118590073222,254318487
fw,-80.0589523315429,-63.1085929870605,116.01569295876604,-148.2675526223521,254335154
fw,-82.0597991943359,-61.789566040039,121.97968584199833,-127.64595782714386,254351821
fw,-83.8739166259765,-60.5918159484863,125.45860984763097,-105.43548854224586,254368488
fw,-85.3827667236328,-59.5409317016601,125.63668261866194,-82.88023735451864,254385155
fw,-86.3250198364257,-58.9872817993164,121.72904052341822,-61.14046127890693,254401822
fw,-86.1954345703125,-58.7944450378418,113.20991980081908,-41.24522046151755,254418489
fw,-85.0277557373046,-58.7992973327636,100.07248703568476,-24.01706709721711,254435156
fw,-83.5976409912109,-58.6121215820312,83.03148375704369,-9.98910965798005,254451823
fw,-82.663101196289,-58.697452545166,63.563733667406936,0.6523265960812201,254468490
fw,-82.3167114257812,-59.3760910034179,43.72114053357337,8.072389396420554,254485157
fw,-82.2747802734375,-60.2500495910644,25.73779869951386,12.726874862392004,254501824
fw,-82.2814407348632,-61.1617088317871,11.540126822088737,15.239064199841533,254518491
fw,-82.341552734375,-62.1928329467773,2.3056956387366463,16.238289258297964,254535158
fw,-82.4920120239257,-62.7337036132812,-1.8106763423509888,16.20776539589904,254551825
fw,-82.6014785766601,-63.2647514343261,-1.727700236071518,15.399718058301332,254568492
fw,-82.5660552978515,-64.0738296508789,0.7292773452742819,13.856428713710578,254585159
fw,-82.3132400512695,-64.6789245605468,3.164747343747947,11.52777605044216,254601826
fw,-81.9441452026367,-64.6651000976562,3.0463318060474314,8.427593282174197,254618493
fw,-81.653579711914,-64.3476104736328,-1.8466760568829317,4.7597189084684475,254635160
fw,-81.4206237792968,-64.1441955566406,-13.032330691058645,0.9753599933297571,254651827
fw,-81.0193939208984,-64.2936248779296,-31.04225392465014,-2.2414084257226743,254668494
fw,-80.2097549438476,-64.6448211669921,-55.270970635303456,-4.058030838942308,254685161
fw,-78.8321685791015,-64.5375289916992,-83.97525239774217,-3.654624493297219,254701828
fw,-76.7411880493164,-63.8955879211425,-114.44629751640575,-0.4466731213708422,254718495
fw,-74.5384063720703,-64.0848617553711,-143.37792065318962,5.70478783569714,254735162
fw,-73.3055801391601,-65.2473068237304,-167.42125663839977,14.407355468636126,254751829
fw,-72.7630615234375,-66.7605667114257,-183.8427221355238,24.844193927439957,254768496
fw,-71.4904861450195,-68.0666122436523,-191.11727667006332,36.03305574481661,254785163
fw,-69.7570877075195,-69.2125625610351,-189.25280768862902,47.10929727576925,254801830
fw,-68.2573547363281,-70.6092910766601,-179.70290428727264,57.507700554177106,254818497
fw,-67.071533203125,-72.3113784790039,-164.87781652774558,66.99353720566141,254835164
fw,-65.8891448974609,-74.1146697998046,-147.43193330160312,75.56987258625232,254851831
fw,-64.4567108154296,-75.9037857055664,-129.59067098886956,83.32089005097144,254868498
fw,-62.9119987487793,-77.604507446289,-112.73123920915205,90.2507426719807,254885165
fw,-61.6274299621582,-79.3791046142578,-97.29230755336154,96.16999162960781,254901832
fw,-60.6317825317382,-81.3214874267578,-82.95158496504615,100.66990823085538,254918499
fw,-59.79585647583,-83.3409805297851,-68.94637713407101,103.19772527841364,254935166
fw,-59.0904273986816,-85.2591857910156,-54.42210419760846,103.20667106567588,254951833
fw,-58.6252098083496,-86.9926071166992,-38.73632841541071,100.32531762532757,254968500
fw,-58.4970054626464,-88.510627746582,-21.68350989892427,94.49000793586757,254985167
fw,-58.5893287658691,-89.2975158691406,-3.6245911417386183,86.00861424112558,255001834
fw,-58.8276062011718,-88.5660552978515,14.492725313548014,75.55350506741779,255018501
fw,-59.3303146362304,-87.5460891723632,31.242585252976163,64.09773359429428,255035168
fw,-60.4351806640625,-86.3985900878906,44.97118982469603,52.805940791051164,255051835
fw,-61.9588203430175,-85.3964920043945,54.163051910482785,42.87942804881045,255068502
fw,-63.395206451416,-84.7578353881836,57.83584652140624,35.35103130904377,255085169
fw,-64.2874755859375,-84.3875198364257,55.83446942321392,30.844005467691463,255101836
fw,-65.3473129272461,-84.1489791870117,48.915734344369845,29.345832222895734,255118503
fw,-66.2976379394531,-83.9228515625,38.59277940864668,30.07797662590955,255135170
fw,-66.5994873046875,-83.6043853759765,26.793829214378544,31.53914476892882,255151837
fw,-66.4003372192382,-83.0691909790039,15.444699071638393,31.754211753156962,255168504
fw,-66.0830383300781,-82.2362594604492,6.10296432887453,28.68871041005453,255185171
fw,-66.1008834838867,-81.4222030639648,-0.24650182169489795,20.719531336579116,255201838
fw,-66.8542404174804,-80.9410400390625,-3.189662060622418,7.019971130752113,255218505
fw,-67.5684585571289,-80.8144836425781,-2.7278333348538246,-12.25640419630196,255235172
fw,-67.403823852539,-80.591926574707,0.9065032411456213,-36.03129328413542,255251839
fw,-67.088623046875,-79.7542419433593,7.351918467894134,-62.547160079892926,255268506
fw,-67.1229553222656,-78.2228775024414,16.12135384831735,-89.70251258104877,255285173
fw,-68.0948028564453,-76.3055877685546,26.579808930354123,-115.38084707068829,255301840
fw,-69.5581283569336,-74.4201354980468,37.978268511552336,-137.71535751548626,255318507
fw,-70.8702316284179,-72.9412841796875,49.55934248038409,-155.2702413247692,255335174
fw,-72.1768646240234,-71.5496978759765,60.68208401117459,-167.14162586679944,255351841
fw,-73.6975555419921,-70.0116424560546,70.90080865010077,-172.9877962503744,255368508
fw,-75.3101425170898,-68.3955612182617,79.96940953189636,-172.99447565466912,255385175
fw,-77.0270385742187,-67.1970443725586,87.78567626972499,-167.77574012426368,255401842
fw,-78.8380355834961,-65.977798461914,94.30922217673512,-158.22054771592536,255418509
fw,-80.7197265625,-64.5836639404296,99.48262042877538,-145.31969616347786,255435176
fw,-82.6011428833007,-63.2950210571289,103.1739714780115,-130.02222828529614,255451843
fw,-84.3406448364257,-62.3489112854003,105.15158671118145,-113.15352612353483,255468510
fw,-85.8955001831054,-61.447395324707,105.09924365820807,-95.39573322940954,255485177
fw,-87.2068405151367,-60.8154869079589,102.6781163184831,-77.31393594076653,255501844
fw,-87.7537994384765,-60.3323097229003,97.63175443843846,-59.41190247029159,255518511
fw,-87.196907043457,-59.7627983093261,89.91209751550802,-42.200296766981324,255535178
fw,-86.2104339599609,-59.1241950988769,79.78703946061113,-26.24936466156918,255551845
fw,-85.2805862426757,-58.8599891662597,67.88735554121851,-12.19089550472543,255568512
fw,-84.492805480957,-59.1746978759765,55.16757203221035,-0.6492919558739013,255585179
fw,-83.7886505126953,-59.8499298095703,42.78199973912311,7.882110932361609,255601846
fw,-83.2201385498046,-60.9327316284179,31.898753326242392,13.169017754870108,255618513
fw,-82.7793884277343,-61.9512100219726,23.48417278675346,15.309723284595208,255635180
fw,-82.5431213378906,-62.9221611022949,18.092529993297173,14.71841116689529,255651847
fw,-82.4754562377929,-63.4645538330078,15.699280116254256,12.02321712360732,255668514
fw,-82.4063034057617,-63.7351036071777,15.620120750864784,7.922519544213441,255685181
fw,-82.1142959594726,-64.3665466308593,16.55239625112075,3.059470451523895,255701848
fw,-81.6324310302734,-64.9220123291015,16.750565523587937,-2.0410724282039077,255718515
fw,-81.1803131103515,-64.9720458984375,14.308899780898155,-6.967531415119907,255735182
fw,-80.8905792236328,-64.6705245971679,7.49281894389398,-11.374594604431397,255751849
fw,-80.6844940185546,-64.3931274414062,-4.946233874190977,-14.923835872798257,255768516
fw,-80.6011886596679,-64.3402252197265,-23.519925212910604,-17.23026795594976,255785183
fw,-80.3696365356445,-64.4091262817382,-47.84088225995719,-17.836166920052612,255801850
fw,-79.5185394287109,-64.2190856933593,-76.56467161206609,-16.248838478266396,255818517
fw,-77.870979309082,-63.6872520446777,-107.46001932343415,-12.067824412098176,255835184
fw,-75.8393249511718,-63.6652374267578,-137.64352029334836,-5.167827791143965,255851851
fw,-74.4129867553711,-64.900634765625,-164.00162106134857,4.162801685333399,255868518
fw,-73.9662399291992,-66.5411758422851,-183.76115518457078,15.22973079498797,255885185
fw,-72.9483871459961,-67.8838958740234,-195.0753493740266,27.104583743222936,255901852
fw,-71.2207946777343,-69.1169128417968,-197.42547661310346,38.87636819494518,255918519
fw,-69.612922668457,-70.5222778320312,-191.66640247276538,49.86027155789065,255935186
fw,-68.2621231079101,-72.1726531982421,-179.6799205018343,59.68607953272237,255951853
fw,-66.7610473632812,-74.0637588500976,-163.7731960206385,68.26049864613279,255968520
fw,-64.9451141357421,-75.9448165893554,-146.06160605779021,75.64463365200594,255985187
fw,-63.038459777832,-77.7192001342773,-128.04502718908654,81.9029133741856,256001854
fw,-61.5090370178222,-79.5166397094726,-110.46186929893624,86.98079406847124,256018521
fw,-60.2782707214355,-81.4254531860351,-93.38137443260136,90.66110570670658,256035188
fw,-59.2095909118652,-83.4535140991211,-76.43856673900109,92.62256328209475,256051855
fw,-58.3055419921875,-85.4303131103515,-59.123568988354506,92.57781226163137,256068522
fw,-57.6148948669433,-87.1738128662109,-41.06453856118419,90.42613211565735,256085189
fw,-57.2921180725097,-88.7693328857421,-22.260575875747733,86.34812033406637,256101856
fw,-57.3145713806152,-90.0,-3.225391340373398,80.8029665944669,256118523
fw,-57.54048538208,-88.9304580688476,14.9950541866768,74.43912314675836,256135190
fw,-58.2194061279296,-87.8200378417968,30.95613092632013,67.96393605441685,256151857
fw,-59.4186630249023,-86.6163787841796,43.09360688675447,62.020775194300654,256168524
fw,-60.6792640686035,-85.2907333374023,50.09172110910736,57.09818269718628,256185191
fw,-61.6816291809082,-84.0406951904296,51.23650110241809,53.46350110965516,256201858
fw,-62.5629615783691,-83.1026153564453,46.64262302848956,51.09716610584187,256218525
fw,-63.6090393066406,-82.4886398315429,37.28474618966426,49.61821045171346,256235192
fw,-64.0796585083007,-82.018440246582,24.830368818182144,48.22823223641128,256251859
fw,-64.0795288085937,-81.5071945190429,11.327858809753833,45.73036281249407,256268526
fw,-63.7304725646972,-80.7953414916992,-1.1602431096359684,40.672414789639,256285193
fw,-63.380630493164,-80.0504837036132,-10.875521019545786,31.615395379603488,256301860
fw,-63.5687370300293,-79.5921096801757,-16.555750986719914,17.46685582562849,256318527
fw,-64.2956237792968,-79.4978713989257,-17.491138686228712,-2.2182205553948706,256335194
fw,-64.2125930786132,-79.5167694091796,-13.506961245316964,-27.05732024044077,256351861
fw,-63.469139099121,-79.1616592407226,-4.945374986712752,-55.82624134139999,256368528
fw,-63.1496810913085,-78.2593078613281,7.348841199227856,-86.60800581183886,256385195
fw,-63.8580017089843,-77.2440490722656,22.109365800797644,-117.06873330782709,256401862
fw,-65.4301376342773,-76.4196014404296,37.8591753712255,-144.80491424506562,256418529
fw,-67.0950546264648,-75.607795715332,53.220290925477535,-167.69352866795262,256435196
fw,-68.6758651733398,-74.3993606567382,67.20249921018797,-184.17296701437647,256451863
fw,-70.2946701049804,-72.8032913208007,79.3474876400635,-193.39831772803444,256468530
fw,-72.0265350341796,-70.8736953735351,89.68090704749723,-195.2496100128267,256485197
fw,-73.9450225830078,-69.0989456176757,98.51406238004864,-190.21362308035557,256501864
fw,-75.9839324951171,-67.4104080200195,106.18380378093184,-179.1941648582453,256518531
fw,-78.05517578125,-65.6900863647461,112.81715754390709,-163.3208423776074,256535198
fw,-80.1506271362304,-64.0287017822265,118.18219636547929,-143.81327909016207,256551865
fw,-82.1896057128906,-62.5201377868652,121.66138342487284,-121.9174190973255,256568532
fw,-84.1071166992187,-61.0382461547851,122.36157179154624,-98.88382995632892,256585199
fw,-85.8844833374023,-59.8347854614257,119.34843194856535,-75.93566845683523,256601866
fw,-87.087043762207,-59.0752983093261,111.95812804244447,-54.1918805891173,256618533
fw,-87.0116806030273,-58.7613677978515,100.10315998516751,-34.555952892501026,256635200
fw,-86.1842803955078,-58.4737014770507,84.4714328839975,-17.619033490389384,256651867
fw,-85.4190979003906,-58.1553039550781,66.53593309419435,-3.6301073613329122,256668534
fw,-84.8931274414062,-58.5591812133789,48.34661959220197,7.445696036318704,256685201
fw,-84.5205993652343,-59.3316764831543,32.1436489769458,15.801166197837517,256701868
fw,-84.2916793823242,-60.2442169189453,19.882766532457772,21.64059911635645,256718535
fw,-84.1192016601562,-61.3210487365722,12.783767814577839,25.06666000169493,256735202
fw,-84.1250076293945,-62.4389381408691,11.004608465295137,26.045237829617715,256751869
fw,-84.2525024414062,-63.2262954711914,13.519583736622293,24.468246719378502,256768536
fw,-84.1310806274414,-64.1905059814453,18.247099344004567,20.29604280688102,256785203
fw,-83.6736145019531,-65.0231246948242,22.42677977255624,13.723518146790964,256801870
fw,-82.8857498168945,-65.1745910644531,23.182982024037248,5.297246594569773,256818537
fw,-81.8999862670898,-64.8847503662109,18.14630053715337,-4.071032598064781,256835204
fw,-81.0630798339843,-64.5078353881836,5.969853164277363,-13.201620486429066,256851871
fw,-80.5983657836914,-64.1434020996093,-13.397371853950787,-20.813128429492906,256868538
fw,-80.1987762451171,-64.0196762084961,-38.73431296955869,-25.70169711573405,256885205
fw,-79.3024978637695,-64.0452880859375,-67.82253754518406,-26.90311502903836,256901872
fw,-77.7040023803711,-63.4594917297363,-97.86384959319946,-23.838900286347865,256918539
fw,-75.8515090942382,-63.2068710327148,-125.9369811017137,-16.440905374209496,256935206
fw,-74.2907562255859,-63.8644676208496,-149.43330744210922,-5.2098142031017,256951873
fw,-73.5656509399414,-65.2379989624023,-166.43944007362916,8.851806366579925,256968540
fw,-72.8516235351562,-66.6262512207031,-176.01877190652456,24.442281189262957,256985207
fw,-71.4947967529296,-68.0338363647461,-178.31336925769304,40.23342340473108,257001874
fw,-70.1138763427734,-69.5785369873046,-174.39814231364545,55.11290763747227,257018541
fw,-68.9617004394531,-71.4124526977539,-165.89792054991912,68.32532943263013,257035208
fw,-67.7330856323242,-73.4122467041015,-154.48900499856413,79.49373088819995,257051875
fw,-66.1210708618164,-75.4567718505859,-141.47085666695043,88.539756092441,257068542
fw,-64.2976608276367,-77.4182357788086,-127.55517777305597,95.53768366944563,257085209
fw,-62.6890068054199,-79.3381271362304,-112.90258005923722,100.55174498176176,257101876
fw,-61.3978157043457,-81.3245239257812,-97.32580732423287,103.51815994278417,257118543
fw,-60.2742080688476,-83.3368835449218,-80.54027333508422,104.22488466424156,257135210
fw,-59.3183708190918,-85.2004165649414,-62.37594935817096,102.40291657736059,257151877
fw,-58.6292915344238,-86.6808166503906,-42.92093531210546,97.89079185546976,257168544
fw,-58.3304710388183,-87.6725845336914,-22.60403863722533,90.80076231827027,257185211
fw,-58.3407363891601,-87.8248977661132,-2.229259574490349,81.61802196913062,257201878
fw,-58.5527114868164,-87.3216094970703,17.042190021141323,71.19410787176884,257218545
fw,-59.0580101013183,-86.6217727661132,33.788721601552126,60.631571843644835,257235212
fw,-60.257266998291,-85.786392211914,46.531996261792486,51.08453259424539,257251879
fw,-61.6465682983398,-84.9745330810546,54.03727886948186,43.51489493802954,257268546
fw,-62.8171424865722,-84.3988418579101,55.63656435873452,38.45100901618649,257285213
fw,-63.7272453308105,-83.9780349731445,51.45945782415154,35.80083258807226,257301880
fw,-64.8050460815429,-83.5786209106445,42.478059182169396,34.77482884712668,257318547
fw,-65.1297225952148,-83.1353912353515,30.344133710972642,33.96376479191323,257335214
fw,-65.0944137573242,-82.5458068847656,17.07405752751699,31.582569747810467,257351881
fw,-64.7615585327148,-81.7974700927734,4.684973171697822,25.838414368870055,257368548
fw,-64.56884765625,-81.2851486206054,-5.1090305489812495,15.331833487586977,257385215
fw,-65.0079879760742,-81.0873336791992,-11.07361931559033,-0.61845878952984,257401882
fw,-65.577880859375,-81.0409088134765,-12.510446182539706,-21.810067273914733,257418549
fw,-65.2619018554687,-80.69775390625,-9.256190398815697,-47.17641283959408,257435216
fw,-64.3979263305664,-79.6185073852539,-1.6759322980056894,-74.96159667761886,257451883
fw,-64.3568725585937,-77.9675827026367,9.36810029606504,-102.99389339330925,257468550
fw,-65.3849487304687,-76.2728118896484,22.640477835677274,-129.00142288647703,257485217
fw,-66.8486557006836,-74.840087890625,36.7780410949215,-150.92113991309267,257501884
fw,-68.1706848144531,-73.5524749755859,50.58879747113043,-167.15505591074523,257518551
fw,-69.5377578735351,-72.1413879394531,63.27807850771107,-176.73386349207527,257535218
fw,-71.0494766235351,-70.3117904663086,74.51021633428633,-179.36764869437573,257551885
fw,-72.7131576538086,-68.3808822631836,84.3041934453473,-175.3890833822324,257568552
fw,-74.521484375,-66.770637512207,92.8345330677209,-165.6149144982568,257585219
fw,-76.3884506225586,-65.3069152832031,100.22594993791154,-151.16641360699057,257601886
fw,-78.2614593505859,-63.9421844482421,106.40505620270807,-133.29782833458296,257618553
fw,-80.1324157714843,-62.7521743774414,111.03766522328043,-113.27226822183795,257635220
fw,-81.9165802001953,-61.5249862670898,113.55639494106288,-92.29341237442866,257651887
fw,-83.4992904663086,-60.4690780639648,113.27124076707956,-71.46844527763629,257668554
fw,-84.8203659057617,-59.65966796875,109.54731984457013,-51.76791130926258,257685221
fw,-85.6821670532226,-59.230125427246,102.02188079816911,-33.967607317463724,257701888
fw,-85.8517379760742,-59.0315856933593,90.81511037044696,-18.588609143782943,257718555
fw,-85.4461135864257,-58.7039527893066,76.67208527048972,-5.868460624455645,257735222
fw,-84.820930480957,-58.5239448547363,60.96964161524654,4.213261661705263,257751889
fw,-84.3241195678711,-58.8597908020019,45.545059198884395,11.85831499501063,257768556
fw,-84.0762634277343,-59.5826301574707,32.354343097986266,17.346999834947137,257785223
fw,-84.041389465332,-60.6125946044921,23.030033513968647,20.938674726831998,257801890
fw,-84.0911712646484,-61.7031860351562,18.454969387105518,22.79816166670174,257818557
fw,-84.1052856445312,-62.6845893859863,18.47726950964814,22.964653626951126,257835224
fw,-83.9794998168945,-63.264404296875,21.858036171938142,21.378205061129457,257851891
fw,-83.5306701660156,-64.0971755981445,26.479246276522527,17.971996968619766,257868558
fw,-82.8241958618164,-64.7624359130859,29.76569152338773,12.814204688955526,257885225
fw,-81.969970703125,-64.9300765991211,29.21345958190214,6.247620325165171,257901892
fw,-81.2333221435546,-64.7260513305664,22.888446567776743,-1.0413365382302573,257918559
fw,-80.8061065673828,-64.3872604370117,9.77490340638351,-8.065326837772185,257935226
fw,-80.75048828125,-64.1937484741211,-10.087754320212227,-13.678244081673324,257951893
fw,-80.7751235961914,-64.2959594726562,-35.66709224455549,-16.7713529351208,257968560
fw,-80.3532943725586,-64.0442428588867,-65.13201181648431,-16.484232768268008,257985227
fw,-79.262710571289,-63.4763565063476,-96.10552451769473,-12.404589680650304,258001894
fw,-77.4571456909179,-63.2641639709472,-125.93795040398273,-4.712696125609348,258018561
fw,-75.6492919921875,-64.3306884765625,-152.00615379630761,5.805297553257349,258035228
fw,-74.6487197875976,-66.1185531616211,-172.05381501844133,17.93156018552727,258051895
fw,-73.8546142578125,-67.5536651611328,-184.54681187026213,30.342793471668674,258068562
fw,-72.3372650146484,-68.7613372802734,-188.9537648731158,41.956970626064646,258085229
fw,-70.4781951904296,-70.1821670532226,-185.83077280921088,52.156054399866974,258101896
fw,-68.827896118164,-71.8940811157226,-176.63417435726763,60.81685621790212,258118563
fw,-67.2067031860351,-73.8030548095703,-163.29487116215054,68.17768345972611,258135230
fw,-65.4604263305664,-75.7061691284179,-147.6968765171034,74.61934822648435,258151897
fw,-63.6365852355957,-77.4894027709961,-131.2403978723802,80.44123853330473,258168564
fw,-62.0193481445312,-79.2465515136718,-114.61809407092002,85.69553375172282,258185231
fw,-60.738182067871,-81.0962524414062,-97.83734564946394,90.12279982975824,258201898
fw,-59.688190460205,-83.0480270385742,-80.44212965783856,93.20656193829888,258218565
fw,-58.7930870056152,-84.9742202758789,-61.85139870069128,94.32849538256092,258235232
fw,-58.0809440612793,-86.7632369995117,-41.724137763015136,92.97057802100204,258251899
fw,-57.6679153442382,-88.3474426269531,-20.264132575712928,88.89597735065466,258268566
fw,-57.7116165161132,-89.7833023071289,1.615055659409504,82.25563511248649,258285233
fw,-58.1537475585937,-88.9222640991211,22.32419312783947,73.60070445263014,258301900
fw,-59.049819946289,-87.8391571044921,39.850208505655765,63.810517080792444,258318567
fw,-60.5100860595703,-86.7129440307617,52.185012587022015,53.957829165822716,258335234
fw,-61.9801483154296,-85.6413497924804,57.82664322503244,45.12960149728281,258351901
fw,-63.1864967346191,-84.8958892822265,56.20675368360642,38.21605010247332,258368568
fw,-64.30322265625,-84.4169311523437,47.907404097495395,33.68795155235687,258385235
fw,-65.3018569946289,-84.16259765625,34.59341036028722,31.404862815668817,258401902
fw,-65.2689132690429,-83.9259414672851,18.67765591124194,30.518775398858235,258418569
fw,-64.7307739257812,-83.4977798461914,2.821444304070362,29.534662918340036,258435236
fw,-64.1495285034179,-82.9676208496093,-10.57535747075724,26.550798001120125,258451903
fw,-63.8702278137207,-82.5299530029296,-19.742234786741317,19.64149490784626,258468570
fw,-64.3483505249023,-82.1042022705078,-23.682662170100233,7.292557993299178,258485237
fw,-65.0920639038086,-81.7732849121093,-22.124774615821945,-11.220048457775423,258501904
fw,-64.8276977539062,-81.167984008789,-15.386998922434127,-35.59991911393424,258518571
fw,-63.9864883422851,-79.9075088500976,-4.25652895589316,-64.49834671949313,258535238
fw,-63.8316001892089,-78.0910568237304,10.108280461649368,-95.68547188222878,258551905
fw,-64.923957824707,-75.9891281127929,26.31308657732644,-126.39114267053472,258568572
fw,-66.5201110839843,-73.8979721069336,42.941969082342744,-153.75115074518845,258585239
fw,-68.0355911254882,-72.145523071289,58.803601276983976,-175.26974206301324,258601906
fw,-69.6234130859375,-70.4325485229492,73.10181920212162,-189.20146565607942,258618573
fw,-71.3070907592773,-68.5172882080078,85.45391805565644,-194.77484748343795,258635240
fw,-73.1152191162109,-66.4950103759765,95.76867264845818,-192.21955991226662,258651907
fw,-75.1251525878906,-64.8279113769531,104.06666229423435,-182.60214892948935,258668574
fw,-77.2499618530273,-63.3336143493652,110.33388037422333,-167.5186926479572,258685241
fw,-79.4226303100586,-61.9875793457031,114.45754958347807,-148.7326799900561,258701908
fw,-81.579231262207,-60.8306541442871,116.24125892548872,-127.86247800874624,258718575
fw,-83.5382614135742,-59.7855758666992,115.46748687875905,-106.19557243224313,258735242
fw,-85.2516250610351,-58.7952804565429,111.97626083482366,-84.64844910635877,258751909
fw,-86.7537612915039,-58.2150764465332,105.74519161903483,-63.837858751740335,258768576
fw,-87.7438888549804,-58.1347122192382,96.96728547848882,-44.20673455673547,258785243
fw,-87.5627288818359,-58.0336532592773,86.11579405900656,-26.152840052485956,258801910
fw,-86.7148513793945,-57.6761054992675,73.96679278729573,-10.121158474638339,258818577
fw,-85.9485092163086,-57.8736953735351,61.54318452482918,3.368369558499971,258835244
fw,-85.4050521850586,-58.5456924438476,49.96562222262171,13.77117698004681,258851911
fw,-84.9979400634765,-59.4467086791992,40.23849710093282,20.633492701278882,258868578
fw,-84.6117706298828,-60.5094604492187,33.03474359235384,23.731989323382308,258885245
fw,-84.170425415039,-61.5729064941406,28.547958381740163,23.18541888006035,258901912
fw,-83.6901245117187,-62.4307098388671,26.452645702043093,19.497103147168907,258918579
fw,-83.2060165405273,-62.9745826721191,25.971623931140254,13.51209725066896,258935246
fw,-82.6820602416992,-63.5945663452148,26.015829802582143,6.299133816683533,258951913
fw,-82.0985336303711,-63.9933052062988,25.347755750923408,-1.0148019061287783,258968580
fw,-81.539077758789,-63.922565460205,22.72536856621439,-7.422709559387359,258985247
fw,-81.1763076782226,-63.5114631652832,17.00362278835505,-12.190274356434728,259001914
fw,-81.1100769042968,-63.2121315002441,7.20045635036162,-14.937967303339455,259018581
fw,-81.1446533203125,-63.1161994934082,-7.435800156911581,-15.612986845091438,259035248
fw,-80.8899917602539,-63.5836029052734,-27.3081168073992,-14.35245301148571,259051915
fw,-79.8622817993164,-64.3149795532226,-52.276298438774226,-11.306304286107771,259068582
fw,-78.1720657348632,-64.5125732421875,-81.42480882629036,-6.528069443000924,259085249
fw,-76.0031051635742,-64.4080047607421,-112.9063657493745,-0.00420092262493052,259101916
fw,-74.240982055664,-64.8809967041015,-144.00838509486084,8.207515378839213,259118583
fw,-73.7873229980468,-66.3053512573242,-171.53546191901836,17.84285315078098,259135250
fw,-73.6710205078125,-67.9440765380859,-192.4608526431748,28.406131600493197,259151917
fw,-72.3664169311523,-69.5488357543945,-204.64029941279995,39.27691581561514,259168584
fw,-70.6806640625,-71.171760559082,-207.30581230446347,49.88005745084335,259185251
fw,-69.1610260009765,-72.9330902099609,-201.1333659957225,59.8198925086046,259201918
fw,-67.5065231323242,-74.8527374267578,-187.87561276609145,68.91221284081492,259218585
fw,-65.6196823120117,-76.7767333984375,-169.74621836479875,77.10624636073429,259235252
fw,-63.607681274414,-78.6071701049804,-148.81637187825018,84.33832297097345,259251919
fw,-61.8920669555664,-80.4450302124023,-126.61605132657814,90.38722493493955,259268586
fw,-60.5104827880859,-82.3263778686523,-104.00226689503931,94.80645894131703,259285253
fw,-59.3454513549804,-84.2459259033203,-81.25526012563452,96.98528069666824,259301920
fw,-58.396629333496,-86.2881698608398,-58.32283945602125,96.33770005658636,259318587
fw,-57.6971282958984,-88.2923507690429,-35.12984764059594,92.55568604987525,259335254
fw,-57.362449645996,-90.0,-11.874606935562618,85.8224204709769,259351921
fw,-57.4460983276367,-88.9885787963867,10.761809975426404,76.88854622640987,259368588
fw,-57.9221496582031,-87.8894653320312,31.55773653691451,66.96729288285317,259385255
fw,-58.7897834777832,-87.047134399414,48.88370466164443,57.47556206315666,259401922
fw,-60.1567001342773,-86.0710067749023,61.01958071180923,49.70136455904514,259418589
fw,-61.7755699157714,-85.1388931274414,66.58825926615732,44.49129208073482,259435256
fw,-63.2078399658203,-84.4227981567382,64.98239197434478,42.03017083843714,259451923
fw,-64.4132614135742,-83.7771072387695,56.643532041727575,41.75297007927093,259468590
fw,-65.6090621948242,-83.1565628051757,43.0922290753568,42.40487371606025,259485257
fw,-66.0218429565429,-82.5083389282226,26.687346015779756,42.246877412663224,259501924
fw,-65.7957229614257,-81.8917007446289,10.180070976914987,39.38003709837869,259518591
fw,-65.3612365722656,-81.2487564086914,-3.805417494876082,32.130706582831635,259535258
fw,-65.2281265258789,-80.7917098999023,-13.212371063095583,19.414317536534885,259551925
fw,-65.8387908935546,-80.7506561279296,-16.80689215724379,0.9916975488123007,259568592
fw,-66.0854568481445,-80.9391555786132,-14.237206940350804,-22.44350267276758,259585259
fw,-65.4178161621093,-80.9908676147461,-5.961353389829094,-49.3629940238107,259601926
fw,-64.6532974243164,-80.4725952148437,6.895801511708435,-77.65966075628425,259618593
fw,-65.4812850952148,-79.4244842529296,22.755040052192218,-105.00451314558187,259635260
fw,-67.2248611450195,-78.219009399414,39.88686546282176,-129.23408634935618,259651927
fw,-69.0140914916992,-77.1052322387695,56.76645994879093,-148.68734450261863,259668594
fw,-70.4992980957031,-75.9923706054687,72.35484109126651,-162.4102272127585,259685261
fw,-72.1908874511718,-74.5448913574218,86.17998735326478,-170.17547420285084,259701928
fw,-74.0750656127929,-72.6454010009765,98.18946140235835,-172.32929790720374,259718595
fw,-76.0905456542968,-70.290901184082,108.46251164761003,-169.54230866930567,259735262
fw,-78.2106628417968,-68.2361602783203,116.92335171446527,-162.56851463122203,259751929
fw,-80.3111114501953,-66.4530410766601,123.17457818378767,-152.09286694294684,259768596
fw,-82.4795303344726,-64.7519607543945,126.50648615060582,-138.69689656505778,259785263
fw,-84.5769729614257,-63.1264190673828,126.07193151790385,-122.92030939750634,259801930
fw,-86.1905975341796,-61.5234565734863,121.16606820521044,-105.36000881817908,259818597
fw,-86.7016525268554,-60.0654373168945,111.5218937417289,-86.73707477890073,259835264
fw,-86.036018371582,-59.157917022705,97.5280949070254,-67.88283085781606,259851931
fw,-85.1151275634765,-58.7074356079101,80.295379642061,-49.641224079030096,259868598
fw,-84.4763946533203,-58.6616821289062,61.53860606838077,-32.73444363523758,259885265
fw,-84.0908737182617,-58.8605270385742,43.29536339521296,-17.663384265894095,259901932
fw,-83.8321685791015,-59.0876121520996,27.549384838817634,-4.696883524816705,259918599
fw,-83.6396179199218,-59.6758193969726,15.850085762248147,6.047647134805435,259935266
fw,-83.5065002441406,-60.6924476623535,9.010864376193485,14.482541951158828,259951933
fw,-83.4313507080078,-61.8580741882324,6.939678081702115,20.45922403956753,259968600
fw,-83.3570175170898,-62.924015045166,8.624493136153497,23.761741178875933,259985267
fw,-83.2604064941406,-63.7197837829589,12.274249840443598,24.195197347220954,260001934
fw,-83.0561904907226,-64.8415756225586,15.600053891982686,21.737131964499078,260018601
fw,-82.7304000854492,-65.6647262573242,16.20208465337128,16.690402991490313,260035268
fw,-82.241470336914,-65.849250793457,12.001644037018533,9.768288604278682,260051935
fw,-81.6923446655273,-65.6620864868164,1.63403072759765,2.0655748609989644,260068602
fw,-81.3530044555664,-65.4897384643554,-15.285417898112907,-5.082425883777555,260085269
fw,-81.0857543945312,-65.7821807861328,-38.08006541981983,-10.30924177516976,260101936
fw,-80.4750518798828,-65.7633666992187,-65.11926375682347,-12.444859555088652,260118603
fw,-79.2150573730468,-65.2949829101562,-94.06971676169957,-10.7283960530593,260135270
fw,-77.2973556518554,-64.5896682739257,-122.23251310064342,-4.974069985825836,260151937
fw,-75.4329376220703,-65.0504150390625,-146.92443550988048,4.363232813201479,260168604
fw,-74.4578475952148,-66.4498519897461,-165.87534736740844,16.278907102293,260185271
fw,-73.5943756103515,-67.863784790039,-177.59345226610185,29.467820181208122,260201938
fw,-71.9464797973632,-69.318374633789,-181.60896955372291,42.64938603149484,260218605
fw,-70.314956665039,-70.9205322265625,-178.494442336947,54.84104347960204,260235272
fw,-68.9193344116211,-72.769058227539,-169.62005149323033,65.48338293120612,260251939
fw,-67.4066925048828,-74.7680435180664,-156.71890800020628,74.39941026530413,260268606
fw,-65.6498336791992,-76.8001937866211,-141.43059064110443,81.64230563836672,260285273
fw,-63.8620491027832,-78.8141021728515,-124.98726461984256,87.31639734115596,260301940
fw,-62.2667999267578,-80.7755050659179,-108.11255281950689,91.44590025730861,260318607
fw,-60.9890556335449,-82.8116302490234,-91.09637290989548,93.93191887488685,260335274
fw,-59.985782623291,-84.8621826171875,-73.95765190411346,94.59607281722522,260351941
fw,-59.2211570739746,-86.6910400390625,-56.619117367105034,93.27391242438406,260368608
fw,-58.7086715698242,-88.3288345336914,-39.058356321823666,89.9080290783226,260385275
fw,-58.4980850219726,-90.0,-21.429598543336883,84.60459652830708,260401942
fw,-58.5509033203125,-89.521125793457,-4.1552101459655875,77.64573169622423,260418609
fw,-58.6981811523437,-88.1904144287109,12.03008086678343,69.47246811501948,260435276
fw,-59.2431907653808,-87.0871810913086,26.116650586591604,60.65621754834899,260451943
fw,-60.2581634521484,-85.9241790771484,36.9685767696943,51.86232560687223,260468610
fw,-61.4800567626953,-84.868293762207,43.573638167837345,43.79019932670244,260485277
fw,-62.432273864746,-84.1187057495117,45.33022003794982,37.066754258703554,260501944
fw,-63.3020591735839,-83.7022552490234,42.27566296364686,32.085792312898,260518611
fw,-64.5269165039062,-83.4685974121093,35.17477556209188,28.822928042718438,260535278
fw,-65.270523071289,-83.3168411254882,25.431801357405465,26.69291144877144,260551945
fw,-65.3286666870117,-83.1061401367187,14.841413314432522,24.526804726187688,260568612
fw,-65.0172271728515,-82.7224197387695,5.246443473575972,20.717652771463857,260585279
fw,-64.9507598876953,-82.3619537353515,-1.7920299832508342,13.525678742690896,260601946
fw,-65.4100112915039,-82.1220169067382,-5.21543622462249,1.4747157420129715,260618613
fw,-66.0293655395507,-81.872932434082,-4.547191707002369,-16.2625442941786,260635280
fw,-65.6609802246093,-81.3012771606445,0.1302966955473046,-39.59077939173449,260651947
fw,-64.8753890991211,-80.1325531005859,8.249526410177971,-67.39980660528434,260668614
fw,-65.2711486816406,-78.4144897460937,18.875595529654586,-97.6812301121767,260685281
fw,-66.3974838256836,-76.5351867675781,30.89123189455807,-127.83550948408008,260701948
fw,-67.8645248413086,-74.8039321899414,43.23710983830969,-155.1052959753326,260718615
fw,-69.077033996582,-73.2522811889648,55.12927874875393,-177.03412302488843,260735282
fw,-70.3454513549804,-71.5667495727539,66.15819446506416,-191.8401299339857,260751949
fw,-71.751953125,-69.6852493286132,76.23241250530351,-198.62367811135607,260768616
fw,-73.4306182861328,-67.6905059814453,85.41439514353428,-197.3825508429582,260785283
fw,-75.2992401123046,-65.9856491088867,93.739717698554,-188.8626403206355,260801950
fw,-77.2362594604492,-64.3022079467773,101.09387792859847,-174.30949219228833,260818617
fw,-79.2200775146484,-62.7636070251464,107.17227074878733,-155.20225395153028,260835284
fw,-81.2156448364257,-61.4718551635742,111.50902314770438,-133.04156369480697,260851951
fw,-83.0715713500976,-60.1851615905761,113.54805722596653,-109.22614649870742,260868618
fw,-84.7678604125976,-58.9882926940918,112.73877185869394,-85.00565703998458,260885285
fw,-86.2740631103515,-58.2415771484375,108.65161852032585,-61.4671099430376,260901952
fw,-87.3028945922851,-58.0308227539062,101.11017930687842,-39.517225397686516,260918619
fw,-87.4123077392578,-58.3413581848144,90.32162761256063,-19.856012299514624,260935286
fw,-86.7556915283203,-58.3298034667968,76.96652910021118,-2.9669932124944687,260951953
fw,-85.9514617919921,-58.1971817016601,62.19970450686372,10.853383779624552,260968620
fw,-85.2484130859375,-58.7155838012695,47.52830319903664,21.438044865836243,260985287
fw,-84.7306137084961,-59.840347290039,34.568035342056874,28.702181895619127,261001954
fw,-84.423110961914,-60.9900932312011,24.718674315701442,32.637976921165475,261018621
fw,-84.2839279174804,-62.1615180969238,18.830313170250395,33.34946087287206,261035288
fw,-84.2715606689453,-63.1139755249023,16.94471288051015,31.10140345346362,261051955
fw,-84.2496032714843,-63.8742370605468,18.189082005612562,26.354814763138485,261068622
fw,-83.9686660766601,-64.772964477539,20.87081329895234,19.770136906020536,261085289
fw,-83.3735122680664,-65.1060943603515,22.77142405576214,12.16513599255803,261101956
fw,-82.6592025756836,-64.8873138427734,21.577540375557884,4.425061129640726,261118623
fw,-82.0665512084961,-64.4937057495117,15.341316748760027,-2.611808320079718,261135290
fw,-81.7646560668945,-64.2891769409179,2.8573742419655996,-8.243872780751529,261151957
fw,-81.6591262817382,-64.458137512207,-16.117846655929544,-11.929414215726478,261168624
fw,-81.5383758544921,-64.7533264160156,-40.81947880165848,-13.253225805255523,261185291
fw,-80.9746780395507,-64.7539749145507,-69.57155483332721,-11.89955481111879,261201958
fw,-79.6643905639648,-64.7159576416015,-99.99097927487348,-7.689901476687651,261218625
fw,-77.6849975585937,-65.1883239746093,-129.27994902511182,-0.6777230853011001,261235292
fw,-75.7219848632812,-66.4731521606445,-154.6050474158861,8.773688981052267,261251959
fw,-74.4551849365234,-68.1858444213867,-173.54452787791124,20.004149865532117,261268626
fw,-73.2210922241211,-69.6824188232421,-184.53129098620488,32.17061009205017,261285293
fw,-71.4870986938476,-71.1107559204101,-187.1626290682946,44.405372900740744,261301960
fw,-69.7623443603515,-72.7566986083984,-182.24470409037312,55.94505727839943,261318627
fw,-68.2485885620117,-74.6235198974609,-171.52042503649662,66.19121534006388,261335294
fw,-66.6915664672851,-76.5395889282226,-157.1609426908187,74.70882776652682,261351961
fw,-64.9280395507812,-78.4230804443359,-141.20148807601046,81.19321298773023,261368628
fw,-63.1278038024902,-80.3174133300781,-125.10736052248116,85.43859629451514,261385295
fw,-61.6128616333007,-82.2723388671875,-109.57413157353537,87.33421858597995,261401962
fw,-60.4001541137695,-84.2314300537109,-94.5646921039951,86.89850100191839,261418629
fw,-59.3928184509277,-86.1042404174804,-79.52419741015856,84.33715420339887,261435296
fw,-58.5122108459472,-87.7460632324218,-63.69998157703607,80.08734263722612,261451963
fw,-57.8087196350097,-89.3421096801757,-46.49805938057797,74.80484210182772,261468630
fw,-57.4314765930175,-90.0,-27.806148965271614,69.27216890442146,261485297
fw,-57.1724700927734,-88.8904113769531,-8.204853612156127,64.24198367674137,261501964
fw,-57.5852966308593,-87.9497756958007,11.008651625089916,60.2617686868141,261518631
fw,-58.6563262939453,-86.9317779541015,28.02524244758894,57.53743114819386,261535298
fw,-60.1840095520019,-85.8432922363281,40.924974077519465,55.87986094449701,261551965
fw,-61.342658996582,-84.7463760375976,48.161701521983154,54.745749892540935,261568632
fw,-62.2112083435058,-83.6480712890625,48.980951105158816,53.34859298976204,261585299
