Label,Left_Hip_q,Right_Hip_q,Left_Hip_qd,Right_Hip_qd,SampleTimeFine
fw,-55.5172004699707,-69.0823745727539,-111.922164916992,136.851333618164,212682417
fw,-54.0736503601074,-71.4603652954101,-87.9770965576171,140.807571411132,212699084
fw,-52.9644432067871,-74.0220031738281,-68.4853134155273,151.538223266601,212715751
fw,-52.2195167541503,-76.7831192016601,-47.1389350891113,163.27375793457,212732418
fw,-51.7971496582031,-79.6991500854492,-27.8437461853027,171.988586425781,212749085
fw,-51.4692268371582,-82.8453063964843,-22.4506664276123,184.660003662109,212765752
fw,-51.8161392211914,-85.7617797851562,16.9578647613525,170.384033203125,212782419
fw,-52.9010314941406,-87.6751861572265,60.8281097412109,114.06282043457,212799086
fw,-53.714859008789,-89.0689620971679,42.055606842041,86.4620971679687,212815753
fw,-54.5906295776367,-89.7160720825195,45.5861473083496,59.2474250793457,212832420
fw,-55.9580268859863,-89.1424789428711,74.0810470581054,40.987735748291,212849087
fw,-57.1745414733886,-88.0375595092773,70.5026168823242,61.6944274902343,212865754
fw,-57.8587570190429,-86.768440246582,39.1516304016113,73.7129364013671,212882421
fw,-57.8921508789062,-85.4392395019531,-1.89036846160888,79.3611450195312,212899088
fw,-57.5425872802734,-84.2438125610351,-23.5991096496582,69.3274307250976,212915755
fw,-57.109764099121,-83.3476409912109,-29.1904258728027,50.431900024414,212932422
fw,-56.6202278137207,-82.8414688110351,-33.3482208251953,26.8147277832031,212949089
fw,-56.4199180603027,-82.7244644165039,-17.9446353912353,4.05322790145874,212965756
fw,-56.4983673095703,-82.6449661254882,2.41463589668273,3.47574806213378,212982423
fw,-56.1928939819335,-82.6789779663086,-20.8622341156005,-3.06503582000732,212999090
fw,-55.7771530151367,-83.0134887695312,-33.5299339294433,-22.0360832214355,213015757
fw,-55.5762405395507,-83.5822525024414,-19.5461254119873,-37.5079498291015,213032424
fw,-55.4143104553222,-84.5470962524414,-16.0388374328613,-64.7455749511718,213049091
fw,-55.2566528320312,-85.9373626708984,-12.2949228286743,-99.5272979736328,213065758
fw,-55.68989944458,-87.3717727661132,22.1711025238037,-140.376983642578,213082425
fw,-56.8898048400878,-86.9500198364257,65.6397399902343,-165.848068237304,213099092
fw,-58.3697319030761,-84.6651992797851,83.1737213134765,-170.055877685546,213115759
fw,-60.0715026855468,-82.0654373168945,98.3050689697265,-154.934936523437,213132426
fw,-61.6155204772949,-79.4027709960937,89.8835220336914,-150.748779296875,213149093
fw,-63.2207984924316,-76.6917724609375,93.609016418457,-165.689834594726,213165760
fw,-64.8542327880859,-74.3542022705078,95.2265090942382,-152.486495971679,213182427
fw,-66.5119400024414,-71.8545608520507,97.2516098022461,-162.522338867187,213199094
fw,-68.1893081665039,-69.1076431274414,99.6025238037109,-174.36897277832,213215761
fw,-69.8898010253906,-66.2860031127929,101.906036376953,-176.563034057617,213232428
fw,-71.6098098754882,-63.4330520629882,103.409141540527,-177.356338500976,213249095
fw,-73.3369064331054,-60.9124488830566,104.131790161132,-157.472686767578,213265762
fw,-75.1106262207031,-58.7204627990722,107.986083984375,-138.29978942871,213282429
fw,-77.0401916503906,-56.8144493103027,119.490898132324,-120.512977600097,213299096
fw,-79.2284774780273,-55.1275177001953,137.65673828125,-106.68977355957,213315763
fw,-81.2439346313476,-53.4735870361328,131.219314575195,-104.474220275878,213332430
fw,-82.6191635131836,-51.8811454772949,99.5412216186523,-100.8310546875,213349097
fw,-83.5643463134765,-50.3864212036132,91.408950805664,-94.6381225585937,213365764
fw,-84.0887222290039,-49.3893127441406,84.7550888061523,-64.7915954589843,213382431
fw,-84.1824340820312,-48.5464324951171,83.3582077026367,-56.2258720397949,213399098
fw,-83.7603073120117,-47.756004333496,94.4630889892578,-54.525634765625,213415765
fw,-82.88671875,-47.6109390258789,86.2335052490234,-15.9904527664184,213432432
fw,-81.945198059082,-48.298110961914,74.2698974609375,34.5429420471191,213449099
fw,-81.2661743164062,-50.0367088317871,59.5376815795898,98.2614212036132,213465766
fw,-80.8924331665039,-52.3723411560058,45.3147964477539,130.963760375976,213482433
fw,-80.6832733154296,-54.553050994873,36.8894920349121,122.641197204589,213499100
fw,-80.3745498657226,-55.9975204467773,39.9562072753906,82.2162628173828,213515767
fw,-79.9981918334961,-56.8157653808593,37.9875831604003,44.5640449523925,213532434
fw,-79.7513809204101,-56.9474754333496,19.3868618011474,1.9706711769104,213549101
fw,-79.5370178222656,-56.8694686889648,10.827332496643,-8.84956645965576,213565768
fw,-79.3430709838867,-56.5621376037597,6.26099681854248,-21.3613586425781,213582435
fw,-79.2660446166992,-56.0979576110839,-3.00461363792419,-31.3952407836914,213599102
fw,-79.366584777832,-56.1693572998046,-11.6578950881958,2.49654150009155,213615769
fw,-79.8983917236328,-56.3848800659179,-37.2574615478515,8.55691719055175,213632436
fw,-81.1436157226562,-56.1259384155273,-80.0179977416992,-22.209602355957,213649103
fw,-82.9872817993164,-55.8445358276367,-119.274230957031,-24.7291297912597,213665770
fw,-84.8685913085937,-55.556411743164,-129.21028137207,-28.9391403198242,213682437
fw,-86.3769073486328,-54.9409599304199,-146.319305419921,-50.4314918518066,213699104
fw,-86.3372955322265,-54.8289222717285,-149.575073242187,-14.6743202209472,213715771
fw,-84.6690597534179,-55.1551704406738,-152.079010009765,17.2913703918457,213732438
fw,-81.6772994995117,-56.3026847839355,-199.126098632812,67.6148529052734,213749105
fw,-78.5376434326171,-57.663516998291,-194.73681640625,79.6576080322265,213765772
fw,-75.6647567749023,-58.9878158569335,-174.423889160156,77.453140258789,213782439
fw,-72.5070571899414,-60.4089202880859,-190.089080810546,82.1412963867187,213799106
fw,-69.3673248291015,-61.8640174865722,-188.772354125976,84.0853958129882,213815773
fw,-66.4586791992187,-63.3286323547363,-175.091430664062,84.8568649291992,213832440
fw,-63.6732368469238,-65.2144775390625,-167.695022583007,110.798957824707,213849107
fw,-61.0658378601074,-67.4553070068359,-156.815887451171,133.029144287109,213865774
fw,-58.8223686218261,-69.8736572265625,-134.829162597656,144.139328002929,213882441
fw,-56.9316864013671,-72.3731918334961,-113.529876708984,148.740036010742,213899108
fw,-55.2888793945312,-75.1295700073242,-98.8294296264648,163.705978393554,213915775
fw,-53.9769172668457,-78.1703720092773,-79.7566833496093,180.393936157226,213932442
fw,-52.8860397338867,-81.3955459594726,-67.578987121582,191.1796875,213949109
fw,-52.0692253112793,-84.8025436401367,-52.0281639099121,201.687133789062,213965776
fw,-51.428237915039,-87.4396820068359,-42.4691734313964,159.682632446289,213982443
fw,-51.167797088623,-88.823974609375,-21.3729743957519,99.3357925415039,213999110
fw,-51.9256057739257,-89.2886581420898,38.7950820922851,67.1058731079101,214015777
fw,-52.7074890136718,-89.3893051147461,40.0332527160644,14.7263383865356,214032444
fw,-53.2558555603027,-89.074234008789,27.5829010009765,17.6716327667236,214049111
fw,-54.2753829956054,-88.0358657836914,57.9620704650878,55.7613105773925,214065778
fw,-55.8688049316406,-86.669807434082,93.8589477539062,79.3401565551757,214082445
fw,-56.6400833129882,-85.0925598144531,44.8309288024902,94.3321456909179,214099112
fw,-57.0411300659179,-83.7102584838867,19.8703517913818,82.8130264282226,214115779
fw,-57.0465469360351,-82.6256790161132,-4.68528032302856,63.3347053527832,214132446
fw,-56.9711418151855,-81.9141082763671,-8.12385940551757,39.8540878295898,214149113
fw,-56.8456993103027,-81.4862976074218,-11.3281440734863,23.4080142974853,214165780
fw,-56.7227478027343,-81.148208618164,-12.6285066604614,19.0078735351562,214182447
fw,-56.9204483032226,-81.0696105957031,6.78217411041259,3.80556201934814,214199114
fw,-57.1051597595214,-81.2166748046875,9.62704277038574,-9.74720191955566,214215781
fw,-56.562271118164,-81.5536193847656,-35.8499908447265,-21.6947994232177,214232448
fw,-55.8926277160644,-82.1813735961914,-44.6164588928222,-40.5447044372558,214249115
fw,-55.5200767517089,-83.1660842895507,-27.8348064422607,-64.3640518188476,214265782
fw,-55.0774688720703,-84.5869903564453,-31.5149536132812,-95.9495239257812,214282449
fw,-54.783836364746,-86.2891311645507,-21.7731819152832,-134.65525817871,214299116
fw,-55.5241394042968,-87.0456085205078,39.8327407836914,-167.209854125976,214315783
fw,-56.9122619628906,-85.5039520263671,79.1379165649414,-176.462921142578,214332450
fw,-58.4975852966308,-83.0777740478515,92.3010025024414,-165.433670043945,214349117
fw,-60.0282669067382,-80.5407791137695,89.8740310668945,-162.654022216796,214365784
fw,-61.5844764709472,-77.8945693969726,91.7408370971679,-176.082626342773,214382451
fw,-63.1640586853027,-75.114990234375,93.9316940307617,-184.188217163085,214399118
fw,-64.8258209228515,-72.2015380859375,100.555618286132,-187.389358520507,214415785
fw,-66.6352157592773,-69.2071838378906,111.131622314453,-186.981475830078,214432452
fw,-68.4451599121093,-66.1301116943359,111.213455200195,-189.911315917968,214449119
fw,-70.1524505615234,-63.0849647521972,104.768898010253,-188.59439086914,214465786
fw,-71.8185729980468,-60.3412933349609,104.009941101074,-171.338012695312,214482453
fw,-73.6226654052734,-57.826602935791,115.655158996582,-157.843276977539,214499120
fw,-75.7063903808593,-55.7309303283691,136.452087402343,-132.026809692382,214515787
fw,-77.8676834106445,-53.9774627685546,142.357604980468,-111.514572143554,214532454
fw,-79.6387100219726,-52.3878059387207,123.762550354003,-101.85481262207,214549121
fw,-80.8508911132812,-50.8306846618652,106.821952819824,-99.7966842651367,214565788
fw,-81.4479293823242,-49.6373748779296,88.3397369384765,-78.6937103271484,214582455
fw,-81.5829391479492,-48.6133728027343,73.5284881591796,-69.7298965454101,214599122
fw,-81.4826583862304,-47.7353820800781,80.7739181518554,-61.398208618164,214615789
fw,-81.0921020507812,-47.3052024841308,86.611831665039,-32.5339469909668,214632456
fw,-80.4649047851562,-47.7956619262695,79.3094100952148,23.457124710083,214649123
fw,-79.836669921875,-49.2684860229492,71.4361190795898,82.4846954345703,214665790
fw,-79.3528823852539,-51.4258956909179,66.6664581298828,122.330192565917,214682457
fw,-79.1197204589843,-54.0138854980468,54.8814468383789,145.945999145507,214699124
fw,-78.8732147216796,-55.5318222045898,51.2165794372558,82.9309921264648,214715791
fw,-78.5158309936523,-56.3883247375488,46.8202743530273,45.0929412841796,214732458
fw,-78.2004089355468,-56.4966430664062,28.5420475006103,0.577881157398223,214749125
fw,-77.9670028686523,-56.3546752929687,14.0596170425415,-12.5485115051269,214765792
fw,-77.8481140136718,-56.0951271057128,2.98847293853759,-18.5729503631591,214782459
fw,-77.8630676269531,-55.5566444396972,-10.1629257202148,-37.4140739440918,214799126
fw,-78.0806655883789,-55.4875106811523,-21.9476585388183,-7.37091588973999,214815793
fw,-78.9017562866211,-55.6427001953125,-58.6202774047851,5.15617752075195,214832460
fw,-80.5742568969726,-55.0006103515625,-110.0122756958,-49.4062576293945,214849127
fw,-82.7686920166015,-54.2778358459472,-143.134155273437,-54.3849563598632,214865794
fw,-84.8556289672851,-53.950080871582,-154.806488037109,-33.906997680664,214882461
fw,-85.8103485107421,-53.2761039733886,-174.961929321289,-57.5616989135742,214899128
fw,-84.7232589721679,-52.8253288269043,-157.053390502929,-38.3961524963378,214915795
fw,-82.2405624389648,-52.8008193969726,-177.309143066406,-7.74707889556884,214932462
fw,-78.6848983764648,-53.4525566101074,-223.414581298828,35.24853515625,214949129
fw,-75.3626327514648,-54.3121948242187,-202.416473388671,48.6841392517089,214965796
fw,-71.9410324096679,-55.4744606018066,-206.485519409179,67.9969177246093,214982463
fw,-68.4541091918945,-56.9455947875976,-210.179397583007,85.3426513671875,214999130
fw,-65.335578918457,-58.3783645629882,-188.080688476562,82.144660949707,215015797
fw,-62.2565727233886,-59.8875083923339,-185.338241577148,86.8020706176757,215032464
fw,-59.4200706481933,-61.7702102661132,-170.382675170898,109.696517944335,215049131
fw,-56.8753700256347,-63.8844490051269,-152.373397827148,124.724128723144,215065798
fw,-54.8072357177734,-66.1196670532226,-123.407165527343,132.698150634765,215082465
fw,-53.244529724121,-68.4343948364257,-92.9730911254882,137.440490722656,215099132
fw,-52.1005134582519,-70.9639358520507,-68.3717346191406,149.962997436523,215115799
fw,-51.3379592895507,-73.6390838623046,-46.4996147155761,158.491958618164,215132466
fw,-50.9903106689453,-76.3201522827148,-22.6772079467773,158.577987670898,215149133
fw,-50.8211936950683,-79.0155944824218,-12.7736511230468,158.912384033203,215165800
fw,-50.8922157287597,-81.8464279174804,0.442060559988021,166.26951599121,215182467
fw,-51.5647315979003,-84.3283996582031,34.8865165710449,143.819458007812,215199134
fw,-52.6386108398437,-86.2559280395507,58.212474822998,110.9521484375,215215801
fw,-53.4607734680175,-87.9493865966796,43.4428749084472,98.6047210693359,215232468
fw,-54.0852508544921,-89.3886642456054,29.0238170623779,83.5432662963867,215249135
fw,-56.0063514709472,-89.1128692626953,104.668151855468,87.8030090332031,215265802
fw,-57.2342071533203,-87.5535202026367,63.7044372558593,89.3118438720703,215282469
fw,-57.6220436096191,-86.0991668701171,12.7588081359863,85.7053909301757,215299136
fw,-57.3875083923339,-84.9562454223632,-22.3464374542236,69.0888137817382,215315803
fw,-57.0118064880371,-84.0732498168945,-25.3458576202392,51.9684562683105,215332470
fw,-56.5009880065918,-83.5052032470703,-31.8921165466308,32.2429122924804,215349137
fw,-55.9799461364746,-83.0914993286132,-34.0486984252929,22.7849349975585,215365804
fw,-55.7498435974121,-82.7339630126953,-19.9820804595947,19.4087715148925,215382471
fw,-55.7902755737304,-82.6010818481445,0.593607664108276,6.25739240646362,215399138
fw,-55.4829330444335,-82.7992248535156,-20.76025390625,-13.582085609436,215415805
fw,-55.3716049194335,-83.3718795776367,-15.2934408187866,-36.411392211914,215432472
fw,-55.2454261779785,-84.4187545776367,-17.5651550292968,-65.7476425170898,215449139
fw,-55.0303993225097,-86.0691604614257,-19.6715145111084,-105.961631774902,215465806
fw,-54.9898529052734,-87.9215240478515,-7.12044382095336,-142.161209106445,215482473
fw,-55.760326385498,-87.4367752075195,39.4892196655273,-171.833755493164,215499140
fw,-57.0420608520507,-84.7965850830078,67.7735595703125,-173.341278076171,215515807
fw,-58.5765571594238,-82.1153411865234,84.0852355957031,-154.12693786621,215532474
fw,-60.0922775268554,-79.3588562011718,85.5365600585937,-155.582138061523,215549141
fw,-61.4373474121093,-76.5618743896484,77.2145767211914,-171.669189453125,215565808
fw,-62.8510932922363,-74.0708923339843,81.8214111328125,-163.654495239257,215582475
fw,-64.3043746948242,-71.3132171630859,84.6242065429687,-181.052062988281,215599142
fw,-65.8250503540039,-68.51904296875,89.8118438720703,-178.835357666015,215615809
fw,-67.4331817626953,-65.7583618164062,96.2586898803711,-173.896774291992,215632476
fw,-69.174934387207,-63.0822143554687,104.688438415527,-167.444534301757,215649143
fw,-71.0650558471679,-60.4974861145019,113.829513549804,-161.785461425781,215665810
fw,-73.1713714599609,-58.0506744384765,129.154190063476,-153.060943603515,215682477
fw,-75.4973602294921,-55.9066009521484,145.244705200195,-134.088302612304,215699144
fw,-77.7546157836914,-54.104434967041,140.111999511718,-112.920852661132,215715811
fw,-79.5841445922851,-52.562156677246,115.83723449707,-97.0589981079101,215732478
fw,-80.8614654541015,-51.0311622619628,94.6287307739257,-96.4757614135742,215749145
fw,-81.6169281005859,-49.6818046569824,78.7424774169921,-85.8450698852539,215765812
fw,-82.0381469726562,-48.4452781677246,75.0334777832031,-80.9288101196289,215782479
fw,-82.2369689941406,-47.4469833374023,81.0650558471679,-69.1270675659179,215799146
fw,-82.0569610595703,-46.8043327331543,77.1775970458984,-46.2324256896972,215815813
fw,-81.5971603393554,-46.7479209899902,73.7486877441406,-9.3556203842163,215832480
fw,-81.1366958618164,-47.9747886657714,71.7901992797851,68.9910736083984,215849147
fw,-80.8475341796875,-49.8302345275878,58.5110092163085,104.684394836425,215865814
fw,-80.7235870361328,-52.0464820861816,40.9795036315918,123.939872741699,215882481
fw,-80.5523452758789,-53.9048347473144,35.4390754699707,103.736557006835,215899148
fw,-80.2204818725586,-55.112247467041,38.0660400390625,66.0054016113281,215915815
fw,-79.8828353881836,-55.7877578735351,25.9594535827636,36.2712936401367,215932482
fw,-79.5351409912109,-56.0254173278808,18.2216987609863,10.0989160537719,215949149
fw,-79.1786422729492,-56.0199127197265,17.9084720611572,-2.43306636810302,215965816
fw,-78.8377838134765,-55.7866058349609,17.2865390777587,-15.879690170288,215982483
fw,-78.5849914550781,-55.4943504333496,11.5642929077148,-20.7960128784179,215999150
fw,-78.5898208618164,-55.7117271423339,-1.71200883388519,10.181224822998,216015817
fw,-79.1425399780273,-56.3408203125,-33.3156509399414,32.3967895507812,216032484
fw,-80.4652709960937,-56.4638328552246,-83.12744140625,-1.91060054302215,216049151
fw,-82.3147201538086,-56.3789634704589,-131.282455444335,-14.351803779602,216065818
fw,-84.0499801635742,-56.3953895568847,-142.798858642578,-10.093542098999,216082485
fw,-85.1315994262695,-56.2789421081543,-158.100509643554,-19.9352684020996,216099152
fw,-84.5377578735351,-56.3093070983886,-167.703308105468,-7.42853260040283,216115819
fw,-82.5821685791015,-56.5413436889648,-163.359268188476,8.8261137008667,216132486
fw,-79.599380493164,-57.2738151550293,-195.086074829101,40.9895057678222,216149153
fw,-76.2141342163086,-58.3618278503418,-207.95994567871,62.4918251037597,216165820
fw,-72.8590927124023,-59.5254821777343,-202.557846069335,66.3151168823242,216182487
fw,-69.4980926513671,-60.7882080078125,-202.655364990234,71.9609375,216199154
fw,-66.2096328735351,-62.0973777770996,-198.193893432617,75.0606613159179,216215821
fw,-63.1703147888183,-63.5392150878906,-183.301727294921,83.8021240234375,216232488
fw,-60.2167854309082,-65.257209777832,-178.061157226562,101.028984069824,216249155
fw,-57.4992942810058,-67.1855316162109,-163.700302124023,114.077400207519,216265822
fw,-55.2527198791503,-69.1840667724609,-135.291793823242,118.383644104003,216282489
fw,-53.662425994873,-71.266242980957,-96.0845184326171,123.214851379394,216299156
fw,-52.5517501831054,-73.5297546386718,-67.7695541381836,133.922668457031,216315823
fw,-51.7928199768066,-75.9584732055664,-47.5397338867187,143.611190795898,216332490
fw,-51.3004188537597,-78.4314727783203,-32.3326568603515,145.842254638671,216349157
fw,-50.9288711547851,-80.9758529663086,-25.6689376831054,149.87629699707,216365824
fw,-50.6582450866699,-83.4504852294921,-21.0795917510986,145.777236938476,216382491
fw,-51.0108947753906,-85.6549453735351,14.5396184921264,129.725677490234,216399158
fw,-51.9959487915039,-87.5576782226562,52.186107635498,111.446601867675,216415825
fw,-52.7916069030761,-89.1553573608398,41.524314880371,93.5223999023437,216432492
fw,-53.4346084594726,-89.3175811767578,31.6470947265625,88.0160293579101,216449159
fw,-55.0465354919433,-87.8082199096679,88.4908218383789,87.7309265136718,216465826
fw,-56.1930427551269,-86.4226989746093,62.4967575073242,79.9699249267578,216482493
fw,-56.8740730285644,-85.2032318115234,34.5454139709472,71.6904602050781,216499160
fw,-56.9872894287109,-84.2281417846679,0.850834786891937,58.060188293457,216515827
fw,-56.8633499145507,-83.4085845947265,-11.2860517501831,47.7925262451171,216532494
fw,-56.6645469665527,-82.8133163452148,-15.8031349182128,33.7088012695312,216549161
fw,-56.4614028930664,-82.3188095092773,-17.0690689086914,27.3592090606689,216565828
fw,-56.4740715026855,-82.014533996582,-5.82173109054565,15.957763671875,216582495
fw,-56.586124420166,-81.8030319213867,3.6599223613739,11.1071281433105,216599162
fw,-56.1814575195312,-81.761245727539,-27.6717185974121,1.24918067455291,216615829
fw,-55.8011856079101,-82.0782623291015,-30.500295639038,-20.7373237609863,216632496
fw,-55.599365234375,-82.8071823120117,-20.9925365447998,-46.1660614013671,216649163
fw,-55.3195495605468,-84.2021865844726,-23.301076889038,-88.0895538330078,216665830
fw,-54.9656944274902,-86.2056884765625,-24.6327648162841,-133.483078002929,216682497
fw,-55.2731399536132,-87.861099243164,13.9789514541625,-167.474456787109,216699164
fw,-56.3805122375488,-86.6755218505859,60.6627616882324,-169.316513061523,216715831
fw,-57.7813377380371,-84.2767944335937,79.3043746948242,-156.294647216796,216732498
fw,-59.1852226257324,-81.7507705688476,80.7939910888671,-147.30223083496,216749165
fw,-60.5027503967285,-78.9186630249023,76.5613708496093,-172.616821289062,216765832
fw,-61.9467277526855,-76.166748046875,84.4057312011718,-177.249694824218,216782499
fw,-63.4316062927246,-73.4935913085937,87.3086929321289,-174.347869873046,216799166
fw,-65.1134872436523,-70.7340011596679,100.106620788574,-176.045928955078,216815833
fw,-66.8475570678711,-67.7414627075195,104.309478759765,-187.178451538085,216832500
fw,-68.4837493896484,-64.7439880371093,98.9883651733398,-186.054794311523,216849167
fw,-70.1082534790039,-61.9026184082031,98.4860687255859,-176.519897460937,216865834
fw,-71.8136291503906,-59.2365798950195,103.877578735351,-166.144989013671,216882501
fw,-73.8129272460937,-56.9617691040039,123.307929992675,-142.374328613281,216899168
fw,-76.0220031738281,-55.1530456542968,137.669784545898,-113.763793945312,216915835
fw,-78.1266326904296,-53.6603851318359,132.826843261718,-94.2858657836914,216932502
fw,-79.719970703125,-52.2059669494628,107.619956970214,-91.652961730957,216949169
fw,-80.7387237548828,-50.7214889526367,86.496597290039,-93.3359146118164,216965836
fw,-81.3148345947265,-49.7683296203613,71.8977737426757,-61.8725662231445,216982503
fw,-81.6232833862304,-49.1583251953125,64.4570159912109,-42.7111282348632,216999170
fw,-81.7300109863281,-48.3800163269043,69.8680648803711,-54.559715270996,217015837
fw,-81.5955734252929,-47.8368415832519,80.3099899291992,-39.5989303588867,217032504
fw,-81.2433929443359,-48.1233406066894,78.3630752563476,12.6702127456665,217049171
fw,-80.8449020385742,-49.5139656066894,76.8390274047851,78.0659027099609,217065838
fw,-80.5229873657226,-51.3873558044433,69.7858123779296,105.737739562988,217082505
fw,-80.3170394897461,-53.481346130371,53.1445808410644,118.177192687988,217099172
fw,-80.0841674804687,-55.1516227722168,48.6597938537597,92.9254150390625,217115839
fw,-79.7339477539062,-56.3467559814453,45.1508178710937,65.6612548828125,217132506
fw,-79.3067550659179,-56.7861328125,35.8365821838378,21.4695568084716,217149173
fw,-78.9736633300781,-56.7111663818359,20.4815330505371,-8.48411655426025,217165840
fw,-78.7427825927734,-56.5493049621582,10.5758666992187,-12.4328107833862,217182507
fw,-78.5624465942382,-56.1649475097656,2.5015685558319,-26.2892532348632,217199174
fw,-78.524673461914,-55.95796585083,-9.36497020721435,-14.2841997146606,217215841
fw,-78.8785400390625,-56.2847557067871,-32.7680702209472,17.1135234832763,217232508
fw,-79.9523391723632,-56.2499694824218,-75.9782333374023,-10.3381929397583,217249175
fw,-81.6690902709961,-56.0265769958496,-127.97444152832,-22.2330799102783,217265842
fw,-83.3894805908203,-56.1811943054199,-143.344665527343,0.226024359464645,217282509
fw,-84.6339263916015,-56.1332168579101,-159.545623779296,-14.7482585906982,217299176
fw,-84.4318389892578,-56.18892288208,-170.280364990234,-6.74355316162109,217315843
fw,-82.7811279296875,-56.43994140625,-159.671188354492,7.50796842575073,217332510
fw,-79.9117965698242,-57.0469512939453,-193.564712524414,31.5175666809082,217349177
fw,-76.5662231445312,-58.119083404541,-207.183135986328,61.0367965698242,217365844
fw,-73.2823638916015,-59.2170295715332,-198.414306640625,62.9333305358886,217382511
fw,-69.822998046875,-60.4404067993164,-208.218231201171,70.6551818847656,217399178
fw,-66.5249328613281,-61.8412437438964,-198.672470092773,80.870864868164,217415845
fw,-63.484504699707,-63.3689537048339,-183.296066284179,88.735725402832,217432512
fw,-60.5171165466308,-65.1331558227539,-178.445175170898,103.763458251953,217449179
fw,-57.8448982238769,-67.1668167114257,-160.27505493164,120.769905090332,217465846
fw,-55.5476150512695,-69.3037872314453,-137.265243530273,127.277282714843,217482513
fw,-53.7904167175293,-71.4800949096679,-104.556213378906,129.513977050781,217499180
fw,-52.5136489868164,-73.7277450561523,-76.1213455200195,133.369903564453,217515847
fw,-51.6036720275878,-76.0543746948242,-55.2370376586914,137.839370727539,217532514
fw,-50.9079818725585,-78.365364074707,-43.6536331176757,136.70149230957,217549181
fw,-50.3644714355468,-80.6759719848632,-35.3230819702148,136.498275756835,217565848
fw,-49.9622268676757,-83.002212524414,-27.8449192047119,137.42300415039,217582515
fw,-50.203369140625,-85.2652130126953,9.29032325744628,133.639175415039,217599182
fw,-51.1018676757812,-87.2221603393554,47.698802947998,115.421783447265,217615849
fw,-52.1783828735351,-88.7885665893554,57.412254333496,92.1843795776367,217632516
fw,-53.0032691955566,-90.0,42.3769416809082,77.1322021484375,217649183
fw,-54.3914184570312,-88.609146118164,74.6944274902343,76.964614868164,217665850
fw,-55.8675384521484,-87.1983108520507,81.5913543701171,81.5200653076171,217682517
fw,-56.3890228271484,-85.8866806030273,23.2370166778564,76.0395812988281,217699184
fw,-56.4735603332519,-84.6752014160156,-2.63482165336608,71.4001235961914,217715851
fw,-56.2155609130859,-83.5862884521484,-19.1720676422119,63.8107070922851,217732518
fw,-55.8530464172363,-82.8137893676757,-23.3576259613037,44.5310440063476,217749185
fw,-55.422752380371,-82.2300109863281,-29.0375518798828,33.1086845397949,217765852
fw,-55.0827598571777,-81.8934249877929,-26.4056301116943,18.0309543609619,217782519
fw,-55.0721893310546,-81.6461029052734,-6.7728681564331,12.9901580810546,217799186
fw,-54.7930603027343,-81.5347824096679,-17.4590797424316,5.24837017059326,217815853
fw,-54.3198776245117,-81.8147735595703,-34.3539848327636,-18.5793724060058,217832520
fw,-54.2301597595214,-82.5107498168945,-14.9105100631713,-44.510383605957,217849187
fw,-53.994815826416,-83.6629638671875,-22.4360389709472,-73.4421920776367,217865854
fw,-53.5621376037597,-85.3688278198242,-30.0724620819091,-110.975875854492,217882521
fw,-53.8093795776367,-87.3510055541992,10.2806310653686,-149.906295776367,217899188
fw,-54.9672660827636,-87.4470291137695,61.9513206481933,-176.451843261718,217915855
fw,-56.3546676635742,-85.0431518554687,75.7200393676757,-176.772109985351,217932522
fw,-57.86519241333,-82.3854522705078,85.4351577758789,-157.952835083007,217949189
fw,-59.2399673461914,-79.6245498657226,79.4608001708984,-161.485092163085,217965856
fw,-60.7265968322753,-76.8697738647461,86.8162841796875,-174.510681152343,217982523
fw,-62.2996788024902,-74.2832870483398,91.9629135131836,-170.287567138671,217999190
fw,-63.9895782470703,-71.4541244506836,99.6816940307617,-182.653274536132,218015857
fw,-65.7550506591796,-68.4733963012695,105.595329284667,-187.169860839843,218032524
fw,-67.5074462890625,-65.3841094970703,106.112663269042,-191.810302734375,218049191
fw,-69.3431243896484,-62.4486999511718,111.825233459472,-181.756103515625,218065858
fw,-71.2806549072265,-59.8524894714355,118.807723999023,-161.300384521484,218082525
fw,-73.4687271118164,-57.4339065551757,136.151779174804,-150.986663818359,218099192
fw,-75.8919525146484,-55.3250160217285,152.197265625,-131.604095458984,218115859
fw,-78.0817565917968,-53.6268081665039,137.275924682617,-106.072227478027,218132526
fw,-79.8055877685546,-52.1723861694335,114.838973999023,-90.970832824707,218149193
fw,-80.9552993774414,-50.7030715942382,96.0666351318359,-91.883430480957,218165860
fw,-81.5856246948242,-49.8452262878418,85.2338714599609,-55.7755889892578,218182527
fw,-81.8415374755859,-48.956443786621,78.6833114624023,-59.0381813049316,218199194
fw,-81.8249282836914,-47.8826026916503,78.1442260742187,-71.0902252197265,218215861
fw,-81.5720520019531,-47.3628463745117,85.7118301391601,-37.0575942993164,218232528
fw,-81.1506958007812,-47.749885559082,83.3937301635742,18.4681072235107,218249195
fw,-80.7499313354492,-49.1941909790039,77.2010269165039,79.6692962646484,218265862
fw,-80.5080642700195,-51.2089805603027,59.1755561828613,112.092514038085,218282529
fw,-80.2761764526367,-53.2687149047851,52.1874809265136,115.882850646972,218299196
fw,-79.9202651977539,-54.9365501403808,49.316234588623,91.1023635864257,218315863
fw,-79.4394378662109,-56.0154151916503,43.7301177978515,56.6747550964355,218332530
fw,-78.9836120605468,-56.5593643188476,30.1566791534423,27.2159061431884,218349197
fw,-78.6208572387695,-56.7077522277832,22.4675273895263,6.86547756195068,218365864
fw,-78.3051452636718,-56.6149864196777,19.9593486785888,-5.46584892272949,218382531
fw,-78.0670852661132,-56.3066940307617,11.9611320495605,-20.157356262207,218399198
fw,-78.0378112792968,-56.3188972473144,-4.90671205520629,-2.32075476646423,218415865
fw,-78.5244979858398,-56.8309440612793,-35.6822433471679,27.4356212615966,218432532
fw,-79.8810272216796,-56.7049140930175,-88.7442321777343,-15.9562950134277,218449199
fw,-81.9785537719726,-56.2712440490722,-141.345397949218,-34.6500129699707,218465866
fw,-84.1729431152343,-56.3045616149902,-152.745788574218,-6.79494333267211,218482533
fw,-85.8539581298828,-56.3575630187988,-165.533508300781,-9.57779312133789,218499200
fw,-85.4689712524414,-56.54439163208,-169.947723388671,-0.184402361512184,218515867
fw,-83.5767288208007,-57.0135993957519,-151.511764526367,20.7521705627441,218532534
fw,-80.5341110229492,-57.928424835205,-192.972839355468,49.9091644287109,218549201
fw,-77.0845184326171,-59.1699295043945,-209.774002075195,71.1009140014648,218565868
fw,-73.6774978637695,-60.4350700378418,-204.628433227539,72.701545715332,218582535
fw,-70.0984954833984,-61.8633117675781,-214.862548828125,82.6477355957031,218599202
fw,-66.7763214111328,-63.4798126220703,-199.854125976562,93.9328308105468,218615869
fw,-63.667308807373,-65.2911376953125,-187.223068237304,106.176033020019,218632536
fw,-60.7270469665527,-67.4444885253906,-176.767303466796,127.556594848632,218649203
fw,-58.0899047851562,-69.8627166748046,-158.176864624023,143.87271118164,218665870
fw,-55.8046951293945,-72.3537902832031,-136.466232299804,148.229766845703,218682537
fw,-54.0287780761718,-74.8247146606445,-105.536178588867,146.724075317382,218699204
fw,-52.6730613708496,-77.397102355957,-80.7425155639648,152.488571166992,218715871
fw,-51.5432929992675,-79.9902420043945,-68.2010955810546,153.55517578125,218732538
fw,-50.7938652038574,-82.4308166503906,-46.7885513305664,144.119140625,218749205
fw,-50.4800834655761,-84.5590438842773,-21.8071403503417,125.01651763916,218765872
fw,-50.3146820068359,-86.3453292846679,-13.9139814376831,105.088050842285,218782539
fw,-50.5328903198242,-87.7763061523437,7.57641124725341,83.8793106079101,218799206
fw,-51.5219078063964,-88.6572494506836,53.3023834228515,50.5554962158203,218815873
fw,-52.5876846313476,-89.7451248168945,56.6821327209472,61.8471450805664,218832540
fw,-53.5440101623535,-88.8809280395507,51.1583175659179,82.7266693115234,218849207
fw,-54.9073905944824,-87.482925415039,76.199966430664,81.8543701171875,218865874
fw,-56.737922668457,-86.1277389526367,105.743324279785,79.5104370117187,218882541
fw,-57.6035766601562,-85.0708541870117,47.0855293273925,61.8281097412109,218899208
fw,-57.9234008789062,-84.2310562133789,12.3689432144165,48.9024238586425,218915875
fw,-57.5373039245605,-83.4267272949218,-28.4765930175781,46.5251502990722,218932542
fw,-57.0626907348632,-82.6006622314453,-30.7646446228027,47.7396125793457,218949209
fw,-56.5642929077148,-81.8194961547851,-32.1035919189453,45.0664558410644,218965876
fw,-56.2234535217285,-81.5053482055664,-23.8543148040771,16.7230052947998,218982543
fw,-56.2044372558593,-81.5404663085937,-3.12504506111145,-4.19197940826416,218999210
fw,-55.8974571228027,-81.7306976318359,-19.9164962768554,-13.0591878890991,219015877
fw,-55.1588020324707,-82.1919708251953,-49.8466567993164,-29.2672958374023,219032544
fw,-54.8056983947753,-83.020767211914,-26.4315490722656,-52.2107620239257,219049211
fw,-54.5544853210449,-84.438735961914,-20.6098957061767,-90.8651046752929,219065878
fw,-54.2064743041992,-86.3541717529296,-25.9765377044677,-134.494308471679,219082545
fw,-54.3876304626464,-87.5396347045898,5.94802665710449,-171.021026611328,219099212
fw,-55.3064079284668,-85.8434829711914,49.3854370117187,-179.717239379882,219115879
fw,-56.48193359375,-83.2488708496093,66.3805770874023,-163.013702392578,219132546
fw,-57.9919624328613,-80.6387176513671,87.9486465454101,-150.677536010742,219149213
fw,-59.4908180236816,-77.9289474487304,87.9950180053711,-169.526977539062,219165880
fw,-61.0673904418945,-75.3260116577148,92.907485961914,-174.184585571289,219182547
fw,-62.5874481201171,-72.5739135742187,90.4852905273437,-183.066329956054,219199214
fw,-64.2593078613281,-69.7178497314453,101.295600891113,-183.746719360351,219215881
fw,-66.081428527832,-66.7450256347656,111.522415161132,-188.036163330078,219232548
fw,-67.8517303466796,-63.780418395996,108.40901184082,-186.64663696289,219249215
fw,-69.6676483154296,-61.0293998718261,109.906204223632,-173.134872436523,219265882
fw,-71.5167388916015,-58.4232788085937,112.084205627441,-164.696548461914,219282549
fw,-73.3605651855468,-56.023509979248,115.529838562011,-152.362060546875,219299216
fw,-75.2314300537109,-53.9578781127929,123.87255859375,-132.170379638671,219315883
fw,-77.1068115234375,-52.4060478210449,128.695770263671,-100.772415161132,219332550
fw,-78.8661499023437,-51.089126586914,125.544807434082,-86.1636734008789,219349217
fw,-80.2133102416992,-49.8025321960449,107.212944030761,-84.2735900878906,219365884
fw,-81.0796508789062,-49.0283699035644,91.7058868408203,-54.3091316223144,219382551
fw,-81.4833679199218,-48.4259490966796,81.0944213867187,-44.982437133789,219399218
fw,-81.5429306030273,-47.9238739013671,85.6612167358398,-39.158634185791,219415885
fw,-81.2583465576171,-47.5373229980468,88.8297500610351,-30.0805320739746,219432552
fw,-80.7401428222656,-47.9371223449707,75.9366607666015,18.7964153289794,219449219
fw,-80.192886352539,-49.6192092895507,65.773941040039,96.47265625,219465886
fw,-79.861099243164,-51.8297233581543,51.0823402404785,126.793464660644,219482553
fw,-79.736343383789,-54.2560653686523,44.762638092041,140.063888549804,219499220
fw,-79.5336074829101,-55.661277770996,48.0336952209472,79.3017654418945,219515887
fw,-79.1531066894531,-56.7983436584472,47.8123893737793,63.3932189941406,219532554
fw,-78.7522735595703,-56.8777313232421,36.0628776550293,0.0844390615820884,219549221
fw,-78.4845581054687,-56.5869979858398,17.8751964569091,-20.7777042388916,219565888
fw,-78.2553482055664,-56.3868980407714,10.2172393798828,-14.7621116638183,219582555
fw,-78.0096435546875,-55.9733161926269,9.24586200714111,-28.3876609802246,219599222
fw,-77.8739547729492,-56.0537414550781,0.505460739135742,1.6757572889328,219615889
fw,-78.2052536010742,-56.6299171447753,-27.0600204467773,30.93062210083,219632556
fw,-79.3207702636718,-56.7359886169433,-75.389045715332,-0.220732674002647,219649223
fw,-81.1372528076171,-56.460391998291,-129.252258300781,-22.7738227844238,219665890
fw,-83.0827331542968,-56.3689422607421,-146.545684814453,-12.698501586914,219682557
fw,-84.6982879638671,-56.2052154541015,-161.12319946289,-21.3249702453613,219699224
fw,-84.9224853515625,-56.2357673645019,-168.0478515625,-8.62758827209472,219715891
fw,-83.5952835083007,-56.4414978027343,-149.141082763671,6.51770687103271,219732558
fw,-80.9378280639648,-56.9812088012695,-186.3408203125,28.8594150543212,219749225
fw,-77.5701751708984,-58.0425453186035,-212.032455444335,60.8695335388183,219765892
fw,-74.3328094482421,-59.1363716125488,-197.292938232421,63.2915267944335,219782559
fw,-70.9070739746093,-60.357494354248,-206.807693481445,71.0691146850586,219799226
fw,-67.4667739868164,-61.6486740112304,-207.261734008789,75.0347824096679,219815893
fw,-64.2967910766601,-62.9197158813476,-191.000198364257,73.9253463745117,219832560
fw,-61.1505050659179,-64.4318389892578,-189.097579956054,88.7213363647461,219849227
fw,-58.2571372985839,-66.2481918334961,-173.476440429687,107.180351257324,219865894
fw,-55.798728942871,-68.2670974731445,-146.955947875976,119.399314880371,219882561
fw,-53.9827575683593,-70.3148727416992,-108.404647827148,120.916381835937,219899228
fw,-52.6613731384277,-72.4579620361328,-79.17431640625,126.326278686523,219915895
fw,-51.6938667297363,-74.6876373291015,-58.9208183288574,131.388931274414,219932562
fw,-50.9805488586425,-76.9956893920898,-44.6868476867675,136.291931152343,219949229
fw,-50.5245780944824,-79.3599853515625,-29.9504585266113,140.003952026367,219965896
fw,-50.1429748535156,-81.896369934082,-26.1658401489257,149.924880981445,219982563
fw,-50.1209602355957,-84.2958068847656,-5.88585567474365,140.638580322265,219999230
fw,-50.9059143066406,-86.1337051391601,41.7918128967285,106.500564575195,220015897
fw,-52.1603088378906,-87.6941223144531,69.4470443725586,92.1221923828125,220032564
fw,-53.1345329284668,-88.9720687866211,52.2975234985351,84.4355773925781,220049231
fw,-54.2378501892089,-89.004165649414,58.7422294616699,80.5296630859375,220065898
fw,-55.925968170166,-87.5447311401367,94.5457916259765,95.0882568359375,220082565
fw,-56.693790435791,-86.0534057617187,38.3910255432128,88.1943664550781,220099232
fw,-56.876293182373,-84.6953353881836,3.13011956214904,83.3983154296875,220115899
fw,-56.6256370544433,-83.6255111694336,-20.1300449371337,66.127212524414,220132566
fw,-56.2325782775878,-82.8054656982421,-26.0684051513671,48.7949028015136,220149233
fw,-55.6875381469726,-82.1978759765625,-35.3717079162597,35.0262336730957,220165900
fw,-55.2369422912597,-81.8371810913086,-31.462682723999,19.831636428833,220182567
fw,-55.1685905456543,-81.556037902832,-9.53698825836181,15.0062141418457,220199234
fw,-55.0214576721191,-81.4804611206054,-10.1124534606933,2.84979796409606,220215901
fw,-54.4185600280761,-81.8330535888671,-41.840965270996,-22.9486446380615,220232568
fw,-54.3208541870117,-82.6439819335937,-14.3913965225219,-50.9926681518554,220249235
fw,-54.1038360595703,-83.9814147949218,-21.253116607666,-83.7745513916015,220265902
fw,-53.8298568725585,-85.8534851074218,-22.3137073516845,-120.481887817382,220282569
fw,-54.038215637207,-87.7594680786132,6.99946308135986,-152.423110961914,220299236
fw,-55.1624908447265,-87.2075424194336,61.214183807373,-178.022354125976,220315903
fw,-56.6766738891601,-84.5109481811523,85.3822326660156,-180.232864379882,220332570
fw,-58.4943962097168,-81.7204513549804,105.512641906738,-160.272720336914,220349237
fw,-60.1933631896972,-78.738899230957,99.5762939453125,-173.647705078125,220365904
fw,-61.8996086120605,-76.1036834716796,100.228393554687,-167.958389282226,220382571
fw,-63.6905784606933,-73.5305252075195,105.780479431152,-171.520523071289,220399238
fw,-65.4999694824218,-70.65576171875,108.585945129394,-186.630966186523,220415905
fw,-67.3779220581054,-67.6948623657226,114.279350280761,-187.311767578125,220432572
fw,-69.2899856567382,-64.6913146972656,116.7007522583,-187.849731445312,220449239
fw,-71.2293472290039,-61.8486671447753,117.918312072753,-177.491943359375,220465906
fw,-73.3051986694336,-59.1308326721191,126.893318176269,-169.390106201171,220482573
fw,-75.6376647949218,-56.6515274047851,147.326995849609,-154.315780639648,220499240
fw,-77.9229888916015,-54.5824012756347,148.982788085937,-129.101333618164,220515907
fw,-79.6014251708984,-52.755874633789,114.245086669921,-114.488388061523,220532574
fw,-80.8157958984375,-51.2517280578613,95.0227584838867,-95.0605773925781,220549241
fw,-81.4846572875976,-49.9126319885253,72.7285995483398,-85.2982864379882,220565908
fw,-81.7085494995117,-49.0541839599609,57.1690139770507,-57.4116554260253,220582575
fw,-81.7133407592773,-48.2939682006835,60.4943923950195,-53.414493560791,220599242
fw,-81.5612258911132,-47.7044296264648,71.5197372436523,-45.1840209960937,220615909
fw,-81.1951599121093,-47.3213386535644,66.9836883544921,-30.9595775604248,220632576
fw,-80.7449645996093,-47.6981964111328,61.018798828125,17.580171585083,220649243
fw,-80.36279296875,-49.3869476318359,59.3958396911621,97.6724166870117,220665910
fw,-80.1560516357421,-51.6158561706543,46.1231842041015,129.844207763671,220682577
fw,-79.9704971313476,-53.8903884887695,43.7489166259765,133.228912353515,220699244
fw,-79.6438903808593,-55.225112915039,40.8277893066406,77.3160629272461,220715911
fw,-79.2132720947265,-56.3556861877441,34.877830505371,62.8592147827148,220732578
fw,-78.8782196044921,-56.7790489196777,20.8538150787353,19.6486663818359,220749245
fw,-78.6781005859375,-56.6575698852539,4.94196653366088,-11.7733564376831,220765912
fw,-78.5141296386718,-56.5381622314453,-0.852406501770019,-9.8071584701538,220782579
fw,-78.3731689453125,-56.1937713623046,-3.89547300338745,-23.9789447784423,220799246
fw,-78.4230270385742,-56.2226982116699,-13.8327989578247,-0.40450170636177,220815913
fw,-79.0107955932617,-56.6404914855957,-42.6503715515136,20.7540073394775,220832580
fw,-80.3187103271484,-56.4778327941894,-90.1892166137695,-16.8043403625488,220849247
fw,-82.0891952514648,-56.0679779052734,-127.691108703613,-31.0930023193359,220865914
fw,-83.7450561523437,-55.8203620910644,-140.5478515625,-22.9533157348632,220882581
fw,-84.4584350585937,-55.53950881958,-162.958618164062,-28.411958694458,220899248
fw,-83.4511413574218,-55.5747566223144,-165.605758666992,-6.74106359481811,220915915
fw,-81.3659439086914,-56.0053749084472,-162.413604736328,20.6609306335449,220932582
fw,-78.173583984375,-57.0236511230468,-205.15184020996,57.2010498046875,220949249
fw,-74.8220596313476,-58.4382781982421,-204.407119750976,82.154067993164,220965916
fw,-71.3619766235351,-59.8031005859375,-207.718795776367,79.639892578125,220982583
fw,-67.8252258300781,-61.2839736938476,-211.841491699218,86.306411743164,220999250
fw,-64.6381454467773,-62.7868614196777,-191.342529296875,87.1487731933593,221015917
fw,-61.4935111999511,-64.3332138061523,-188.923355102539,90.0968856811523,221032584
fw,-58.4662017822265,-66.1526184082031,-181.717803955078,107.207962036132,221049251
fw,-55.7970504760742,-68.2765197753906,-159.82112121582,125.857040405273,221065918
fw,-53.6462249755859,-70.5641098022461,-128.247207641601,135.705139160156,221082585
fw,-52.0661468505859,-72.9293975830078,-93.8492660522461,140.11734008789,221099252
fw,-50.9237785339355,-75.3350372314453,-68.0949325561523,142.183944702148,221115919
fw,-50.1443290710449,-77.8522720336914,-47.4015235900878,148.689483642578,221132586
fw,-49.8149490356445,-80.44677734375,-21.6258945465087,153.067977905273,221149253
fw,-49.6396751403808,-82.933120727539,-13.2470397949218,146.201095581054,221165920
fw,-49.6325378417968,-85.0922470092773,-4.42276716232299,126.1685256958,221182587
fw,-50.2891998291015,-86.8465728759765,33.6673278808593,102.977249145507,221199254
fw,-51.5695457458496,-88.3770751953125,70.182144165039,90.3944625854492,221215921
fw,-52.7377166748046,-89.6556549072265,63.4502792358398,74.4384384155273,221232588
fw,-53.8030357360839,-89.049819946289,55.6052894592285,77.9700927734375,221249255
fw,-55.8248558044433,-87.6054306030273,114.717796325683,83.4839935302734,221265922
fw,-57.135887145996,-86.2836456298828,71.8326263427734,75.9990768432617,221282589
fw,-57.619571685791,-85.2244338989257,19.155101776123,61.9078521728515,221299256
fw,-57.373291015625,-84.2188110351562,-23.1589107513427,59.4539222717285,221315923
fw,-56.823875427246,-83.4009170532226,-35.9983940124511,47.1438827514648,221332590
fw,-56.1185722351074,-82.7789306640625,-42.3997840881347,34.9130477905273,221349257
fw,-55.4958801269531,-82.4429779052734,-36.9283218383789,17.5591487884521,221365924
fw,-55.1877670288085,-82.4197769165039,-21.9763393402099,-0.889420270919799,221382591
fw,-54.9350395202636,-82.6042709350586,-15.5397958755493,-12.5879888534545,221399258
fw,-54.1372146606445,-83.1452560424804,-54.6429367065429,-34.0572509765625,221415925
fw,-53.904052734375,-84.0486297607421,-22.8226814270019,-56.8554382324218,221432592
fw,-53.6154708862304,-85.285530090332,-23.7397117614746,-80.4937973022461,221449259
fw,-53.5188789367675,-86.8720016479492,-11.5350303649902,-114.68667602539,221465926
fw,-53.9558029174804,-87.7411193847656,21.4601745605468,-151.892669677734,221482593
fw,-55.3497276306152,-85.8474884033203,77.6762313842773,-180.779830932617,221499260
fw,-56.9257736206054,-83.0129623413086,87.4452896118164,-177.60659790039,221515927
fw,-58.7658500671386,-80.2323989868164,104.439468383789,-158.08430480957,221532594
fw,-60.5035934448242,-77.0815048217773,100.30411529541,-185.131759643554,221549261
fw,-62.0770683288574,-74.4360046386718,91.5001220703125,-166.995086669921,221565928
fw,-63.6578559875488,-71.9399719238281,92.7858047485351,-165.108779907226,221582595
fw,-65.250244140625,-69.2215499877929,95.0024719238281,-176.232376098632,221599262
fw,-66.8839797973632,-66.3117904663086,98.9949569702148,-183.696624755859,221615929
fw,-68.6118621826171,-63.4592056274414,104.96524810791,-179.05076599121,221632596
fw,-70.3873825073242,-60.6638145446777,107.15803527832,-174.725463867187,221649263
fw,-72.2402725219726,-58.1055870056152,111.719787597656,-159.494812011718,221665930
fw,-74.098274230957,-55.871726989746,114.90372467041,-139.071182250976,221682597
fw,-76.0260162353515,-53.7596702575683,124.796844482421,-131.46206665039,221699264
fw,-77.8210067749023,-51.9013290405273,121.166885375976,-116.362571716308,221715931
fw,-79.3650360107421,-50.4788513183593,109.316146850585,-90.1398010253906,221732598
fw,-80.5876235961914,-49.2959327697753,98.3068542480468,-75.9268035888671,221749265
fw,-81.3397521972656,-48.6064300537109,81.1778793334961,-46.9908180236816,221765932
fw,-81.6917266845703,-48.182991027832,70.426528930664,-32.8468437194824,221782599
fw,-81.7793045043945,-47.9997367858886,74.716194152832,-19.8796310424804,221799266
fw,-81.5263442993164,-47.7728881835937,77.9356155395507,-21.763479232788,221815933
fw,-81.0323791503906,-47.880630493164,71.5141372680664,-0.989112913608551,221832600
fw,-80.6084060668945,-49.1563377380371,69.9388427734375,72.2456359863281,221849267
fw,-80.3442916870117,-51.3836669921875,59.5043563842773,128.569686889648,221865934
fw,-80.1866683959961,-53.9240188598632,44.888069152832,145.91812133789,221882601
fw,-79.9229202270507,-55.5094718933105,44.4526596069335,91.0530548095703,221899268
fw,-79.4715499877929,-56.6653900146484,47.2612190246582,64.9395370483398,221915935
fw,-79.0142059326171,-57.0535011291503,36.5992088317871,17.5518550872802,221932602
fw,-78.6279907226562,-56.8935928344726,25.1623477935791,-13.989402770996,221949269
fw,-78.3015441894531,-56.6663551330566,17.8732166290283,-16.9614753723144,221965936
fw,-78.0220413208007,-56.3725280761718,14.7058429718017,-21.1824264526367,221982603
fw,-77.8643722534179,-56.1610412597656,4.22450256347656,-16.211612701416,221999270
fw,-78.0141448974609,-56.6636543273925,-16.1726970672607,27.2534313201904,222015937
fw,-78.7884674072265,-57.1112747192382,-52.9935188293457,21.6064491271972,222032604
fw,-80.4163436889648,-56.852855682373,-109.872993469238,-21.6866798400878,222049271
fw,-82.5612487792968,-56.7739143371582,-147.322052001953,-10.1962213516235,222065938
fw,-84.6072311401367,-56.9119110107421,-155.263137817382,1.22790491580963,222082605
fw,-85.4834747314453,-56.8264617919921,-170.68113708496,-14.7567977905273,222099272
fw,-84.4185409545898,-56.9608535766601,-151.03189086914,0.884174227714538,222115939
fw,-82.3498840332031,-57.2975769042968,-147.508560180664,16.1781158447265,222132606
fw,-79.0304107666015,-58.194408416748,-208.118560791015,51.1629905700683,222149273
fw,-75.6195755004882,-59.3957557678222,-207.98159790039,69.7053985595703,222165940
fw,-72.1422805786132,-60.6256942749023,-210.080368041992,71.6427764892578,222182607
fw,-68.5537719726562,-62.0386276245117,-215.831008911132,82.7694931030273,222199274
fw,-65.2504653930664,-63.5605812072753,-198.54832458496,89.2275466918945,222215941
fw,-62.0193748474121,-65.2116470336914,-194.005508422851,97.1756134033203,222232608
fw,-59.0118789672851,-67.1440658569336,-180.560546875,114.17332458496,222249275
fw,-56.3016853332519,-69.3971557617187,-162.349166870117,133.21955871582,222265942
fw,-54.2671890258789,-71.7295227050781,-121.898826599121,137.413696289062,222282609
fw,-52.8438911437988,-74.0250244140625,-85.7997817993164,134.73989868164,222299276
fw,-51.6992378234863,-76.3266525268554,-69.7816009521484,135.106369018554,222315943
fw,-50.7490081787109,-78.7056350708007,-58.900089263916,140.588790893554,222332610
fw,-50.1274948120117,-81.1060714721679,-39.8460617065429,142.591552734375,222349277
fw,-49.8504905700683,-83.4171295166015,-19.7377281188964,136.521728515625,222365944
fw,-49.652603149414,-85.4324951171875,-15.9016437530517,117.071083068847,222382611
fw,-49.8499298095703,-87.116226196289,5.84724617004394,99.0376358032226,222399278
fw,-50.9444503784179,-88.4231872558593,59.4289855957031,82.9831619262695,222415945
fw,-52.0150527954101,-89.1188507080078,57.5312767028808,72.7903366088867,222432612
fw,-52.8660888671875,-88.437026977539,44.3159294128418,75.7656021118164,222449279
fw,-54.3928489685058,-87.1619338989257,86.3241348266601,82.0993957519531,222465946
fw,-56.0395011901855,-85.9757690429687,96.245491027832,72.5224533081054,222482613
fw,-56.6691093444824,-84.9311752319336,33.26607131958,63.196361541748,222499280
fw,-56.5936317443847,-83.9949188232421,-10.6538677215576,56.6292610168457,222515947
fw,-56.3087348937988,-83.1903228759765,-20.472578048706,47.9525489807128,222532614
fw,-55.9656982421875,-82.4731674194336,-23.5399723052978,41.7687187194824,222549281
fw,-55.5032272338867,-81.989990234375,-31.8402595520019,27.3951892852783,222565948
fw,-55.2555274963378,-81.8410110473632,-21.1586017608642,7.1721487045288,222582615
fw,-55.3852958679199,-81.7605056762695,4.47470188140869,3.25039076805114,222599282
fw,-55.1326370239257,-81.892593383789,-17.6762981414794,-9.38000774383545,222615949
fw,-54.5880889892578,-82.3048477172851,-39.8983993530273,-26.4269409179687,222632616
fw,-54.4462509155273,-83.0504531860351,-14.0947952270507,-47.134910583496,222649283
fw,-54.3647575378418,-84.3526763916015,-9.43326473236084,-82.4918212890625,222665950
fw,-54.216453552246,-86.1827392578125,-13.6563835144042,-123.101814270019,222682617
fw,-54.7150535583496,-87.8026885986328,24.7822475433349,-160.122848510742,222699284
fw,-55.8351135253906,-86.6112365722656,62.0651931762695,-180.552444458007,222715951
fw,-57.3004570007324,-83.9294967651367,84.1677474975586,-170.138488769531,222732618
fw,-59.075828552246,-81.2495193481445,104.053726196289,-149.194137573242,222749285
fw,-60.6714172363281,-78.5589828491211,93.6604843139648,-160.546035766601,222765952
fw,-62.245994567871,-76.1866149902343,92.6085433959961,-157.371612548828,222782619
fw,-63.8042488098144,-73.7019729614257,92.8446731567382,-166.995834350585,222799286
fw,-65.3758087158203,-70.9001083374023,95.6780319213867,-181.339416503906,222815953
fw,-67.0216751098632,-67.9363632202148,101.493125915527,-187.31069946289,222832620
fw,-68.7572937011718,-64.9448547363281,106.368667602539,-187.13313293457,222849287
fw,-70.5193252563476,-62.0868835449218,107.050071716308,-178.672271728515,222865954
fw,-72.3111190795898,-59.3068466186523,109.76707458496,-173.866806030273,222882621
fw,-74.0776977539062,-56.6585960388183,112.769058227539,-165.719055175781,222899288
fw,-75.8854827880859,-54.2918167114257,121.470710754394,-148.324661254882,222915955
fw,-77.6961135864257,-52.5401725769043,128.652709960937,-110.871696472167,222932622
fw,-79.2261123657226,-51.1159019470214,118.2866897583,-90.9560623168945,222949289
fw,-80.4051818847656,-49.6789016723632,105.091323852539,-91.9753646850586,222965956
fw,-81.1852111816406,-48.6068840026855,91.2670364379882,-70.8866500854492,222982623
fw,-81.5188598632812,-47.8240127563476,72.3020782470703,-54.6311492919921,222999290
fw,-81.5619964599609,-47.5337829589843,73.7294235229492,-25.4373626708984,223015957
fw,-81.2602996826171,-47.3084259033203,70.0487823486328,-20.1038379669189,223032624
fw,-80.7858276367187,-47.5317840576171,68.1867599487304,7.73041152954101,223049291
fw,-80.3662185668945,-48.8681526184082,61.0291061401367,76.1560974121093,223065958
fw,-80.0986557006836,-50.9050483703613,50.3801383972168,118.367042541503,223082625
fw,-80.0093002319336,-53.4184379577636,36.4255104064941,145.325958251953,223099292
fw,-79.9208526611328,-55.0284461975097,33.6573448181152,93.5952835083007,223115959
fw,-79.6624069213867,-56.3632278442382,36.733787536621,76.8516540527343,223132626
fw,-79.3908996582031,-56.8740348815918,25.7016735076904,26.2190704345703,223149293
fw,-79.174201965332,-56.6689987182617,10.9080390930175,-16.121482849121,223165960
fw,-79.0346145629882,-56.429386138916,-0.292369782924652,-17.4924354553222,223182627
fw,-78.9753494262695,-56.0701522827148,-6.92737197875976,-25.4370403289794,223199294
fw,-79.0106506347656,-56.0082130432128,-11.5637435913085,-6.97734212875366,223215961
fw,-79.3344192504882,-56.567527770996,-28.0029144287109,31.4940338134765,223232628
fw,-80.2784576416015,-56.6311416625976,-69.9773788452148,-0.801129937171936,223249295
fw,-81.8310089111328,-56.1394309997558,-116.152038574218,-34.2660522460937,223265962
fw,-83.4753799438476,-55.7912635803222,-136.701568603515,-26.7520065307617,223282629
fw,-84.5860824584961,-55.5325012207031,-153.430419921875,-25.2011013031005,223299296
fw,-84.2250442504882,-55.2932167053222,-165.136734008789,-24.3533058166503,223315963
fw,-82.6357955932617,-55.3905372619628,-149.071701049804,-0.225815877318382,223332630
fw,-79.8808898925781,-55.8948287963867,-185.631256103515,26.7920379638671,223349297
fw,-76.5689926147461,-57.044376373291,-205.239776611328,66.1893768310546,223365964
fw,-73.4247665405273,-58.299331665039,-189.455108642578,73.032974243164,223382631
fw,-70.0797500610351,-59.654369354248,-200.536727905273,79.3770751953125,223399298
fw,-66.8397750854492,-61.1084747314453,-194.322219848632,85.0763092041015,223415965
fw,-63.7902183532714,-62.6403617858886,-183.143585205078,89.4660415649414,223432632
fw,-60.8460083007812,-64.3056335449218,-176.695587158203,97.7270126342773,223449299
fw,-58.1673736572265,-66.2922286987304,-160.444305419921,117.382003784179,223465966
fw,-55.8229370117187,-68.5630874633789,-139.796173095703,134.375839233398,223482633
fw,-54.0807571411132,-70.8993225097656,-103.35789489746,137.846954345703,223499300
fw,-52.8555908203125,-73.3816375732421,-72.791145324707,145.967514038085,223515967
fw,-51.9463920593261,-75.9687881469726,-54.7391014099121,151.997833251953,223532634
fw,-51.3081626892089,-78.6537780761718,-39.6934661865234,158.060256958007,223549301
fw,-50.9736366271972,-81.3616943359375,-22.4603672027587,159.563415527343,223565968
fw,-50.7839317321777,-84.0577621459961,-14.6522893905639,157.666381835937,223582635
fw,-50.7116622924804,-86.1623229980468,-8.92206573486328,120.068084716796,223599302
fw,-51.4162368774414,-87.7071456909179,36.5039024353027,88.5873031616211,223615969
fw,-52.6904106140136,-89.0992965698242,70.3351898193359,80.6595764160156,223632636
fw,-53.6993751525878,-89.9515533447265,54.2147178649902,54.5162773132324,223649303
fw,-54.4085159301757,-88.7491455078125,35.7198905944824,67.881721496582,223665970
fw,-56.0131721496582,-87.5386047363281,91.6087265014648,68.2036743164062,223682637
fw,-57.1490173339843,-86.3141098022461,64.4913330078125,71.8816452026367,223699304
fw,-57.540901184082,-85.1984939575195,18.7706069946289,67.56640625,223715971
fw,-57.2108879089355,-84.3011016845703,-25.0002040863037,54.40913772583,223732638
fw,-56.7702865600585,-83.4273834228515,-29.3327808380126,51.4343185424804,223749305
fw,-56.1794929504394,-82.7310485839843,-38.4141960144043,39.8756866455078,223765972
fw,-55.5975456237793,-82.1641387939453,-38.2593688964843,31.7552947998046,223782639
fw,-55.4507827758789,-81.8637084960937,-12.1202898025512,15.9003019332885,223799306
fw,-55.2805519104003,-81.8618545532226,-10.0943670272827,-1.53535735607147,223815973
fw,-54.5212135314941,-82.1249618530273,-48.1022491455078,-17.0864124298095,223832640
fw,-54.0341796875,-82.7107315063476,-35.722110748291,-36.751651763916,223849307
fw,-53.6882095336914,-83.6881713867187,-27.317024230957,-61.4755897521972,223865974
fw,-53.4495658874511,-85.2025833129882,-18.6705532073974,-97.5742263793945,223882641
fw,-53.3515739440918,-87.1337203979492,-9.412278175354,-139.561645507812,223899308
fw,-54.1953430175781,-87.7602615356445,45.0293922424316,-169.690338134765,223915975
fw,-55.4383850097656,-85.6430206298828,68.7900238037109,-175.449996948242,223932642
fw,-56.8652305603027,-83.0122528076171,81.5397033691406,-160.123794555664,223949309
fw,-58.3765678405761,-80.3969192504882,88.2028350830078,-148.34765625,223965976
fw,-59.8897895812988,-77.5839385986328,88.8827972412109,-171.379455566406,223982643
fw,-61.425926208496,-75.1499633789062,90.3839874267578,-159.905014038085,223999310
fw,-62.9646606445312,-72.5558471679687,91.6193084716796,-170.908157348632,224015977
fw,-64.6507797241211,-69.8097457885742,102.006782531738,-175.699935913085,224032644
fw,-66.3847427368164,-66.8359146118164,105.652854919433,-186.440734863281,224049311
fw,-68.1043167114257,-63.9368476867675,104.250389099121,-180.551681518554,224065978
fw,-69.8933563232421,-61.2258720397949,107.606643676757,-169.183624267578,224082645
fw,-71.8205871582031,-58.6434669494628,117.451171875,-161.418594360351,224099312
fw,-73.8612442016601,-56.4161491394043,130.012298583984,-139.536804199218,224115979
fw,-75.9060821533203,-54.5443305969238,135.532974243164,-118.022117614746,224132646
fw,-77.7562255859375,-52.8707656860351,124.034294128417,-106.192886352539,224149313
fw,-79.1275177001953,-51.4120788574218,98.6651000976562,-93.2653045654296,224165980
fw,-79.9685363769531,-49.8796844482421,77.9698181152343,-98.1461334228515,224182647
fw,-80.5623092651367,-48.8395309448242,76.3843765258789,-69.5821990966796,224199314
fw,-81.0207977294921,-48.1373825073242,82.7162017822265,-51.0897254943847,224215981
fw,-81.2409515380859,-47.8297271728515,83.6280212402343,-27.7794952392578,224232648
fw,-81.1581573486328,-47.698371887207,86.8542861938476,-14.7124872207641,224249315
fw,-80.8474578857421,-48.2186203002929,87.5086822509765,26.7039012908935,224265982
fw,-80.4858474731445,-49.8255004882812,82.7995071411132,93.5232467651367,224282649
fw,-80.3006057739257,-51.9848899841308,64.2600555419921,124.352600097656,224299316
fw,-80.1892700195312,-54.3688278198242,44.1736717224121,136.506057739257,224315983
fw,-79.9314727783203,-55.8172874450683,38.5986404418945,82.6858139038086,224332650
fw,-79.6132736206054,-56.8318290710449,33.4260559082031,56.3755531311035,224349317
fw,-79.3376998901367,-56.9748840332031,22.6695499420166,2.1276729106903,224365984
fw,-79.1988525390625,-56.8162193298339,7.77230978012085,-14.3284254074096,224382651
fw,-79.1768035888671,-56.5993347167968,-4.13424634933471,-16.0255298614501,224399318
fw,-79.2793884277343,-56.1917495727539,-16.3310050964355,-26.891523361206,224415985
fw,-79.6681365966796,-56.2992095947265,-36.3652763366699,6.19881153106689,224432652
fw,-80.672981262207,-56.4440193176269,-77.9113006591796,4.99306726455688,224449319
fw,-82.3209228515625,-56.2126083374023,-126.867134094238,-20.4501190185546,224465986
fw,-84.027359008789,-55.9968910217285,-144.924667358398,-19.9125080108642,224482653
fw,-84.9566345214843,-55.8816871643066,-162.193634033203,-16.0779933929443,224499320
fw,-84.097541809082,-55.72265625,-172.124588012695,-20.3480587005615,224515987
fw,-82.1952056884765,-55.9015045166015,-152.166885375976,3.04649901390075,224532654
fw,-79.2172317504882,-56.6066589355468,-191.612838745117,36.875732421875,224549321
fw,-75.9035339355468,-57.8586502075195,-202.052185058593,71.3008422851562,224565988
fw,-72.6211547851562,-59.321964263916,-196.687530517578,84.8799896240234,224582655
fw,-69.0578002929687,-60.963565826416,-213.05418395996,95.6333694458007,224599322
fw,-65.6918029785156,-62.819278717041,-201.95637512207,108.28628540039,224615989
fw,-62.4896011352539,-64.72998046875,-192.331970214843,111.796424865722,224632656
fw,-59.4603576660156,-66.7349548339843,-181.601852416992,118.166549682617,224649323
fw,-56.7731971740722,-69.0215072631836,-160.741973876953,135.57551574707,224665990
fw,-54.4354820251464,-71.5663299560546,-139.143310546875,151.098648071289,224682657
fw,-52.6463356018066,-74.1996536254882,-105.779350280761,156.150924682617,224699324
fw,-51.3866386413574,-76.8292922973632,-74.5179595947265,155.643035888671,224715991
fw,-50.5211029052734,-79.4784164428711,-52.2254829406738,156.709106445312,224732658
fw,-49.9752349853515,-81.8974685668945,-34.4843597412109,143.261901855468,224749325
fw,-49.6854934692382,-83.9728927612304,-20.3255443572998,122.29409790039,224765992
fw,-49.5412101745605,-85.6972579956054,-13.1180562973022,100.257453918457,224782659
fw,-49.9973564147949,-86.9970397949218,21.1801853179931,75.9081726074218,224799326
fw,-50.8462829589843,-88.026123046875,44.1779403686523,62.6170082092285,224815993
fw,-51.8158721923828,-88.734992980957,52.0836868286132,50.2177200317382,224832660
fw,-52.6356887817382,-89.0949630737304,44.8090896606445,61.2332763671875,224849327
fw,-54.2680702209472,-88.3586044311523,93.6700897216796,74.0242538452148,224865994
fw,-55.8195152282714,-87.2239227294921,89.6743545532226,73.0703201293945,224882661
fw,-56.5934219360351,-86.0013427734375,42.2405281066894,74.5049209594726,224899328
fw,-56.6906700134277,-84.9908905029296,0.712204754352569,62.2765312194824,224915995
fw,-56.4866333007812,-84.1711273193359,-16.9635562896728,49.989631652832,224932662
fw,-56.2261047363281,-83.3396835327148,-20.4176330566406,49.3002052307128,224949329
fw,-55.9075355529785,-82.720230102539,-23.570966720581,35.9003791809082,224965996
fw,-55.7833518981933,-82.4852142333984,-11.5961542129516,12.5406246185302,224982663
fw,-55.9266357421875,-82.6292190551757,8.49753189086914,-10.2229719161987,224999330
fw,-55.5290336608886,-82.9620742797851,-25.8730449676513,-21.5152244567871,225015997
fw,-55.0552673339843,-83.5091552734375,-35.4722480773925,-34.3557014465332,225032664
fw,-54.8249053955078,-84.4095993041992,-21.6295013427734,-55.5547828674316,225049331
fw,-54.7583198547363,-85.8453674316406,-11.0388069152832,-88.4027862548828,225065998
fw,-54.496036529541,-87.7620086669921,-19.3955974578857,-123.625343322753,225082665
fw,-54.7756462097168,-88.5823822021484,12.6439037322998,-160.383697509765,225099332
fw,-55.7348175048828,-86.1088180541992,51.5382003784179,-170.785247802734,225115999
fw,-57.08198928833,-83.3674697875976,76.3329391479492,-161.430755615234,225132666
fw,-58.6670036315918,-80.5952529907226,92.2041854858398,-157.635787963867,225149333
fw,-60.2077560424804,-77.6349029541015,90.3990402221679,-177.219635009765,225166000
fw,-61.8391075134277,-74.8167419433593,96.1413879394531,-178.077178955078,225182667
fw,-63.4683380126953,-71.9006958007812,97.1512985229492,-185.998458862304,225199334
fw,-65.1949081420898,-68.9230651855468,104.787872314453,-187.063980102539,225216001
fw,-67.0030059814453,-66.0020446777343,110.694099426269,-181.637802124023,225232668
fw,-68.7265930175781,-63.1396293640136,105.274475097656,-177.691207885742,225249335
fw,-70.3995208740234,-60.4842224121093,101.228912353515,-164.96272277832,225266002
fw,-72.2203826904296,-57.913719177246,111.284294128417,-159.995178222656,225282669
fw,-74.1463546752929,-55.5048713684082,122.523872375488,-150.292434692382,225299336
fw,-76.0968475341796,-53.4373092651367,126.56420135498,-129.716064453125,225316003
fw,-77.7821502685546,-51.8985595703125,111.207466125488,-97.5446548461914,225332670
fw,-79.1164779663086,-50.5963706970214,95.1084671020507,-83.2909774780273,225349337
fw,-80.2240524291992,-49.3465423583984,93.8215103149414,-80.3708877563476,225366004
fw,-80.9057998657226,-48.4445991516113,78.0762252807617,-60.5500564575195,225382671
fw,-81.2996520996093,-47.7125816345214,76.2389526367187,-51.4328994750976,225399338
fw,-81.4638290405273,-47.2149696350097,87.0796508789062,-37.1758766174316,225416005
fw,-81.3232803344726,-47.1058845520019,85.3325576782226,-11.6225709915161,225432672
fw,-80.9794692993164,-47.9576911926269,77.9506378173828,47.8142318725585,225449339
fw,-80.5846633911132,-49.73193359375,65.7981872558593,102.888092041015,225466006
fw,-80.2784576416015,-52.083568572998,54.6377449035644,135.007614135742,225482673
fw,-80.1041717529296,-54.2109642028808,44.5533943176269,121.209602355957,225499340
fw,-79.8384857177734,-55.5102920532226,48.1364212036132,72.5390396118164,225516007
fw,-79.4907531738281,-56.4148368835449,45.6907997131347,50.2351837158203,225532674
fw,-79.2429656982421,-56.5610427856445,23.1720104217529,5.09401178359985,225549341
fw,-79.083251953125,-56.4771080017089,8.29467487335205,-7.56149911880493,225566008
fw,-79.0085754394531,-56.2419624328613,-2.63101911544799,-16.4605636596679,225582675
fw,-79.0711364746093,-55.998794555664,-16.8294506072998,-16.8075485229492,225599342
fw,-79.4400939941406,-56.3120536804199,-37.1658897399902,18.6197814941406,225616009
fw,-80.3870620727539,-56.6809577941894,-76.7487716674804,18.5309867858886,225632676
fw,-81.9196472167968,-56.2912559509277,-121.581794738769,-29.5450038909912,225649343
fw,-83.5435104370117,-55.9351577758789,-142.053176879882,-28.2572326660156,225666010
fw,-84.4899978637695,-55.8741836547851,-156.216918945312,-13.5159673690795,225682677
fw,-83.8353805541992,-55.5610847473144,-170.981842041015,-30.9726943969726,225699344
fw,-82.0958023071289,-55.5043067932128,-151.452041625976,-12.1376905441284,225716011
fw,-79.3307647705078,-55.6594467163085,-183.172103881835,4.45446300506591,225732678
fw,-75.9139938354492,-56.3827476501464,-210.312301635742,40.4725646972656,225749345
fw,-72.5981063842773,-57.3756942749023,-199.958572387695,57.353271484375,225766012
fw,-68.9706878662109,-58.4929275512695,-218.210845947265,65.1946563720703,225782679
fw,-65.5568771362304,-59.8408660888671,-205.620025634765,78.7038650512695,225799346
fw,-62.4018058776855,-61.2588081359863,-189.896865844726,82.4935531616211,225816013
fw,-59.3640213012695,-62.7508277893066,-182.191604614257,87.1645584106445,225832680
fw,-56.5731925964355,-64.5588226318359,-166.936950683593,106.694961547851,225849347
fw,-54.1564826965332,-66.6383285522461,-144.144302368164,123.428489685058,225866014
fw,-52.3350639343261,-68.8176803588867,-108.348907470703,129.330703735351,225882681
fw,-51.131420135498,-71.0264205932617,-72.053352355957,130.772598266601,225899348
fw,-50.2907409667968,-73.2935638427734,-51.2538146972656,133.942306518554,225916015
fw,-49.7065467834472,-75.68798828125,-36.9184188842773,141.549835205078,225932682
fw,-49.4172744750976,-78.0996627807617,-19.9613342285156,142.61994934082,225949349
fw,-49.3211326599121,-80.5947723388671,-9.15063953399658,147.033447265625,225966016
fw,-49.5663375854492,-83.1957397460937,10.3035631179809,152.211593627929,225982683
fw,-50.6366271972656,-85.4379501342773,59.4836120605468,129.738525390625,225999350
fw,-51.7052726745605,-87.2926025390625,58.303424835205,107.962585449218,226016017
fw,-52.3337821960449,-88.9690246582031,31.9181747436523,97.7658615112304,226032684
fw,-53.6311874389648,-89.8102645874023,70.4474563598632,77.5951385498046,226049351
fw,-55.2961196899414,-88.3577728271484,92.3902206420898,77.6302795410156,226066018
fw,-56.1290893554687,-87.0828857421875,44.0121879577636,69.2881164550781,226082685
fw,-56.3635864257812,-85.8562698364257,9.71159267425537,74.1428680419921,226099352
fw,-56.0649337768554,-84.8881378173828,-20.5833072662353,60.0440826416015,226116019
fw,-55.662971496582,-83.9520111083984,-27.0476570129394,55.3728141784668,226132686
fw,-55.1357917785644,-83.2331161499023,-35.2389907836914,41.3578147888183,226149353
fw,-54.7490158081054,-82.9390335083007,-27.5912418365478,15.2246980667114,226166020
fw,-54.7865524291992,-82.8595275878906,-0.79163908958435,2.54680299758911,226182687
fw,-54.5317687988281,-82.954475402832,-13.6845684051513,-7.10425281524658,226199354
fw,-53.9249267578125,-83.3312683105468,-43.1271705627441,-23.8228130340576,226216021
fw,-53.8528747558593,-84.0702438354492,-14.6176891326904,-45.8032417297363,226232688
fw,-53.6310081481933,-85.2829208374023,-20.521369934082,-75.2984771728515,226249355
fw,-53.4666557312011,-86.9685592651367,-11.9086875915527,-109.090217590332,226266022
fw,-53.7894706726074,-88.4778747558593,16.8763065338134,-142.089645385742,226282689
fw,-54.9927177429199,-87.0019302368164,66.3220977783203,-167.736419677734,226299356
fw,-56.4449844360351,-84.3614654541015,80.3427581787109,-164.010650634765,226316023
fw,-58.0546684265136,-81.7559814453125,91.5224990844726,-147.715270996093,226332690
fw,-59.5015144348144,-78.9855346679687,83.5044174194336,-154.80662536621,226349357
fw,-60.9136772155761,-76.1638641357421,81.9612579345703,-168.89419555664,226366024
fw,-62.4613227844238,-73.9025497436523,90.16064453125,-145.596496582031,226382691
fw,-64.047622680664,-71.4110794067382,93.1588363647461,-162.486038208007,226399358
fw,-65.6725540161132,-68.6983184814453,96.8157196044921,-173.641494750976,226416025
fw,-67.388069152832,-66.0011291503906,103.036407470703,-170.250244140625,226432692
fw,-69.1973648071289,-63.2985343933105,108.516021728515,-169.218795776367,226449359
fw,-71.1551055908203,-60.7867088317871,117.285400390625,-157.356094360351,226466026
fw,-73.2354583740234,-58.4608116149902,126.830223083496,-145.447830200195,226482693
fw,-75.360595703125,-56.4174842834472,133.461303710937,-127.700469970703,226499360
fw,-77.4942779541015,-54.5752563476562,135.996490478515,-114.984092712402,226516027
fw,-79.4555511474609,-52.9908027648925,127.683761596679,-99.1771392822265,226532694
fw,-80.8208465576171,-51.4733734130859,99.7448501586914,-95.4202423095703,226549361
fw,-81.6920623779296,-49.9418106079101,85.7405242919921,-96.6817855834961,226566028
fw,-82.2184066772461,-48.7573928833007,81.7085876464843,-76.9558563232421,226582695
fw,-82.4703750610351,-47.6812782287597,84.8786010742187,-71.5997924804687,226599362
fw,-82.3214645385742,-46.8521499633789,77.3480682373046,-57.3621826171875,226616029
fw,-81.8776168823242,-46.5653343200683,73.4772872924804,-22.7078971862792,226632696
fw,-81.3691711425781,-47.3372268676757,70.1286926269531,41.0385208129882,226649363
fw,-80.9604339599609,-49.1110496520996,57.1659049987793,100.669876098632,226666030
fw,-80.7012786865234,-51.1064720153808,44.5345840454101,112.89338684082,226682697
fw,-80.5013580322265,-53.0653953552246,35.7854804992675,111.691627502441,226699364
fw,-80.2244262695312,-54.4474830627441,38.6674423217773,78.9477767944336,226716031
fw,-79.9302444458007,-55.5360374450683,33.5850677490234,62.8714065551757,226732698
fw,-79.6979675292968,-55.931827545166,17.6090335845947,21.065839767456,226749365
fw,-79.5195083618164,-55.9471473693847,6.89761447906494,-1.71667885780334,226766032
fw,-79.3858871459961,-55.9075660705566,-0.412903100252151,-5.01349592208862,226782699
fw,-79.3253936767578,-55.7135620117187,-8.38957595825195,-15.2383298873901,226799366
fw,-79.4260482788086,-55.9336700439453,-18.7994041442871,11.1377725601196,226816033
fw,-79.9744567871093,-56.466552734375,-46.6861114501953,29.0494880676269,226832700
fw,-81.1665802001953,-56.5096778869628,-92.4915237426757,-2.57806682586669,226849367
fw,-82.7469940185546,-56.2292137145996,-132.111633300781,-22.1969509124755,226866034
fw,-84.1018600463867,-56.208152770996,-141.641189575195,-8.60180377960205,226882701
fw,-84.5490036010742,-56.0321617126464,-162.227416992187,-21.5111637115478,226899368
fw,-83.4903411865234,-55.9754180908203,-161.77392578125,-12.3854236602783,226916035
fw,-81.4904708862304,-56.1461334228515,-156.093215942382,5.29523420333862,226932702
fw,-78.3562698364257,-56.7942276000976,-203.115280151367,35.824405670166,226949369
fw,-75.104621887207,-57.9101409912109,-200.398361206054,64.2409286499023,226966036
fw,-71.9114761352539,-59.0702018737793,-193.123504638671,67.0725936889648,226982703
fw,-68.4919815063476,-60.2862548828125,-206.053436279296,70.1507339477539,226999370
fw,-65.2828369140625,-61.5573959350585,-193.662628173828,73.2243347167968,227016037
fw,-62.3614921569824,-62.8539085388183,-176.372665405273,74.9344253540039,227032704
fw,-59.5089530944824,-64.3958892822265,-171.741104125976,90.2720794677734,227049371
fw,-56.952407836914,-66.3306579589843,-153.619812011718,114.525695800781,227066038
fw,-54.8422050476074,-68.5669860839843,-126.579795837402,132.977767944335,227082705
fw,-53.2487030029296,-70.9194107055664,-95.5495223999023,139.714691162109,227099372
fw,-52.1206016540527,-73.3642654418945,-68.0734176635742,144.840560913085,227116039
fw,-51.2799415588378,-76.0059051513671,-51.68696975708,156.316574096679,227132706
fw,-50.63134765625,-78.8333587646484,-41.0216674804687,167.355529785156,227149373
fw,-50.2908325195312,-81.7426071166992,-23.2431182861328,172.070678710937,227166040
fw,-49.9842948913574,-84.5746231079101,-22.0448913574218,166.567672729492,227182707
fw,-50.2361335754394,-86.6047744750976,10.0077829360961,118.533699035644,227199374
fw,-51.2033386230468,-88.1369094848632,52.1295890808105,89.7069320678711,227216041
fw,-52.1411666870117,-89.3064880371093,49.3386001586914,67.3563232421875,227232708
fw,-52.9734535217285,-89.7273254394531,43.2000350952148,46.0135459899902,227249375
fw,-54.2395515441894,-88.9083709716796,69.4453125,47.6113891601562,227266042
fw,-55.4703979492187,-87.8915100097656,70.3990707397461,57.7727470397949,227282709
fw,-55.9376602172851,-86.6439208984375,25.4680480957031,76.7052001953125,227299376
fw,-56.0581245422363,-85.4515380859375,4.39588975906372,74.4663772583007,227316043
fw,-55.870807647705,-84.3069763183593,-13.9259014129638,69.3721771240234,227332710
fw,-55.6242179870605,-83.5859603881836,-17.3867092132568,42.0981559753418,227349377
fw,-55.2610282897949,-83.3635482788086,-26.0785217285156,11.5049591064453,227366044
fw,-54.9943351745605,-83.4758377075195,-21.3502769470214,-8.65494728088378,227382711
fw,-55.216251373291,-83.7657394409179,9.8823766708374,-18.6173515319824,227399378
fw,-55.1898956298828,-84.227798461914,-2.8511803150177,-28.6214027404785,227416045
fw,-54.7503929138183,-85.0959548950195,-31.3129520416259,-53.3226127624511,227432712
fw,-54.575210571289,-86.4454879760742,-16.5361232757568,-82.7010269165039,227449379
fw,-54.2301483154296,-87.973876953125,-25.1246166229248,-96.4230728149414,227466046
fw,-53.8298530578613,-88.9872131347656,-26.3608856201171,-114.186904907226,227482713
fw,-54.1495513916015,-87.0914154052734,15.8136262893676,-143.986495971679,227499380
fw,-55.2450523376464,-84.3280563354492,61.6816215515136,-161.50584411621,227516047
fw,-56.6949157714843,-81.6305999755859,83.7462768554687,-152.600921630859,227532714
fw,-58.2942733764648,-78.6889953613281,93.6638793945312,-169.369232177734,227549381
fw,-59.7458305358886,-75.7392349243164,85.2069931030273,-181.6123046875,227566048
fw,-61.2356986999511,-73.1643295288086,87.9977951049804,-167.913299560546,227582715
fw,-62.7495346069335,-70.4561386108398,90.6730041503906,-176.233901977539,227599382
fw,-64.3631744384765,-67.7250137329101,97.8664855957031,-174.430603027343,227616049
fw,-65.9961700439453,-64.8536987304687,99.1302871704101,-180.925918579101,227632716
fw,-67.5921325683593,-61.9530181884765,96.0013809204101,-181.25633239746,227649383
fw,-69.1633071899414,-59.3483734130859,94.1296691894531,-162.602416992187,227666050
fw,-70.807876586914,-56.9059410095214,100.592247009277,-152.559997558593,227682717
fw,-72.5006256103515,-54.7335548400878,108.145683288574,-135.758819580078,227699384
fw,-74.2454528808593,-52.8891448974609,114.817321777343,-115.508148193359,227716051
fw,-76.0729370117187,-51.3892517089843,120.467544555664,-94.3698501586914,227732718
fw,-77.8278579711914,-50.1044654846191,117.858276367187,-81.5433807373046,227749385
fw,-79.1154174804687,-48.7528953552246,97.2582397460937,-85.9394607543945,227766052
fw,-79.9387817382812,-47.6549835205078,80.8867492675781,-71.7273941040039,227782719
fw,-80.5147933959961,-46.76904296875,77.1995315551757,-60.5922012329101,227799386
fw,-80.8650283813476,-46.4282417297363,74.5908050537109,-28.3567180633544,227816053
fw,-80.9161148071289,-46.3456649780273,76.0398788452148,-9.93483734130859,227832720
fw,-80.6732559204101,-47.1358261108398,80.2580184936523,44.4569625854492,227849387
fw,-80.3738937377929,-48.8679809570312,80.0792999267578,102.072044372558,227866054
fw,-80.274299621582,-51.1106376647949,69.7343368530273,129.779556274414,227882721
fw,-80.3561630249023,-53.5106658935546,54.0891609191894,138.408584594726,227899388
fw,-80.2851409912109,-54.8320693969726,47.5431938171386,73.5378036499023,227916055
fw,-80.0729141235351,-55.865608215332,38.6844520568847,57.2860832214355,227932722
fw,-79.8046264648437,-56.1034355163574,26.6224956512451,9.95209980010986,227949389
fw,-79.5292053222656,-55.8879623413085,17.636526107788,-15.6531352996826,227966056
fw,-79.3175811767578,-55.5799369812011,6.79164409637451,-20.3547916412353,227982723
fw,-79.249771118164,-55.2033538818359,-7.8395299911499,-25.0418128967285,227999390
fw,-79.3747177124023,-55.3887672424316,-24.8495597839355,9.23923683166503,228016057
fw,-79.9150390625,-55.5893249511718,-59.8187294006347,8.06339454650878,228032724
fw,-80.9579086303711,-55.3575248718261,-107.777862548828,-18.983564376831,228049391
fw,-82.1449203491211,-55.0544281005859,-138.780166625976,-22.5329513549804,228066058
fw,-82.9917907714843,-54.8834571838378,-144.225067138671,-16.2966766357421,228082725
fw,-83.0019912719726,-54.7438125610351,-159.54344177246,-17.8865718841552,228099392
fw,-81.9254302978515,-54.9015769958496,-154.525817871093,2.17790722846984,228116059
fw,-80.0144348144531,-55.2606124877929,-154.94204711914,17.3087749481201,228132726
fw,-77.0588836669921,-56.0607643127441,-195.058303833007,44.7279739379882,228149393
fw,-74.0019760131836,-57.1302490234375,-189.031799316406,61.5649490356445,228166060
fw,-70.9020309448242,-58.2564048767089,-187.681518554687,65.5588989257812,228182727
fw,-67.5589828491211,-59.4300384521484,-201.159713745117,68.3654327392578,228199394
fw,-64.4292449951171,-60.6027526855468,-188.248748779296,68.1034698486328,228216061
fw,-61.5078811645507,-61.8895187377929,-175.745971679687,75.109016418457,228232728
fw,-58.7046432495117,-63.4784317016601,-168.322326660156,93.4901351928711,228249395
fw,-56.1550788879394,-65.4179229736328,-152.625183105468,114.606819152832,228266062
fw,-54.0504264831543,-67.5295257568359,-125.610374450683,124.830642700195,228282729
fw,-52.6010475158691,-69.7415771484375,-86.6051025390625,130.618865966796,228299396
fw,-51.5728454589843,-72.0967025756836,-62.2590866088867,138.900039672851,228316063
fw,-50.722427368164,-74.585220336914,-52.6689987182617,146.755676269531,228332730
fw,-50.1689414978027,-77.1793441772461,-35.626609802246,153.270919799804,228349397
fw,-49.8358535766601,-79.9037933349609,-22.9324131011962,161.234588623046,228366064
fw,-49.6941757202148,-82.7841186523437,-12.2500810623168,170.627853393554,228382731
fw,-50.4769554138183,-85.1719665527343,42.2441749572753,137.411666870117,228399398
fw,-51.4874954223632,-86.7476119995117,55.5644721984863,89.5685958862304,228416065
fw,-52.4304122924804,-88.1063842773437,51.0873908996582,81.5304489135742,228432732
fw,-53.3784484863281,-89.0310592651367,51.1143417358398,71.4881515502929,228449399
fw,-54.9637184143066,-88.8013916015625,88.1206741333007,64.1580200195312,228466066
fw,-55.9829406738281,-87.6550674438476,55.5629959106445,74.4004669189453,228482733
fw,-56.3005027770996,-86.4977645874023,14.6206741333007,74.5427551269531,228499400
fw,-56.0897712707519,-85.5190887451171,-16.001932144165,67.9644927978515,228516067
fw,-55.7145881652832,-84.5770797729492,-25.096939086914,60.4331321716308,228532734
fw,-55.1909942626953,-83.7721633911132,-35.1349868774414,48.2391967773437,228549401
fw,-54.6501121520996,-83.1329040527343,-36.8226242065429,37.2338523864746,228566068
fw,-54.3779296875,-82.791763305664,-20.4857959747314,18.9263381958007,228582735
fw,-54.4144439697265,-82.7325897216796,-0.087659515440464,1.87592768669128,228599402
fw,-54.2613563537597,-82.8539733886718,-11.0841455459594,-8.82226943969726,228616069
fw,-54.2168197631835,-83.2571258544921,-9.9579153060913,-25.6566429138183,228632736
fw,-54.4916267395019,-83.9916534423828,9.13366413116455,-45.6895713806152,228649403
fw,-54.6293411254882,-85.2569885253906,2.73736143112182,-78.0447387695312,228666070
fw,-54.6295738220214,-87.1419982910156,-2.95732569694519,-117.701744079589,228682737
fw,-54.9501342773437,-88.9496536254882,15.8292741775512,-146.750701904296,228699404
fw,-55.836627960205,-87.3095779418945,48.944522857666,-158.446701049804,228716071
fw,-57.1168174743652,-84.6651306152343,72.6665725708007,-159.951919555664,228732738
fw,-58.6481704711914,-82.055793762207,88.7963180541992,-148.894149780273,228749405
fw,-60.1227684020996,-79.2491149902343,86.2580947875976,-160.75242614746,228766072
fw,-61.6043510437011,-76.4593811035156,86.9636917114257,-170.916519165039,228782739
fw,-63.1761016845703,-73.9172134399414,92.9131546020507,-163.674041748046,228799406
fw,-64.7960662841796,-71.0494232177734,96.8424835205078,-182.705902099609,228816073
fw,-66.477668762207,-68.1202621459961,101.783203125,-183.017913818359,228832740
fw,-68.1799697875976,-65.1865539550781,103.57958984375,-182.043060302734,228849407
fw,-69.8467178344726,-62.507827758789,101.68814086914,-165.989105224609,228866074
fw,-71.5134506225586,-59.8855628967285,101.975532531738,-162.551193237304,228882741
fw,-73.2022247314453,-57.3149261474609,104.597610473632,-159.467224121093,228899408
fw,-74.993667602539,-55.0243225097656,112.734535217285,-141.893417358398,228916075
fw,-76.9591979980468,-53.1978187561035,124.541236877441,-113.278076171875,228932742
fw,-78.8561096191406,-51.6451988220214,124.982856750488,-96.5085830688476,228949409
fw,-80.1779708862304,-50.1689949035644,99.389663696289,-91.8762435913086,228966076
fw,-81.0286331176757,-49.0815544128418,85.5714569091796,-68.5761566162109,228982743
fw,-81.5763397216796,-48.2787361145019,78.4099731445312,-52.1318588256835,228999410
fw,-81.8160247802734,-47.7001037597656,69.6653594970703,-39.389663696289,229016077
fw,-81.7751998901367,-47.3681907653808,73.4838638305664,-24.4761180877685,229032744
fw,-81.4559707641601,-47.7709007263183,78.9568176269531,20.2074584960937,229049411
fw,-81.0368957519531,-49.0771789550781,77.3264541625976,74.932861328125,229066078
fw,-80.7782974243164,-50.7893333435058,64.3463897705078,97.1988983154296,229082745
fw,-80.7731018066406,-53.1236839294433,52.6025962829589,134.39859008789,229099412
fw,-80.8159484863281,-54.985481262207,43.5195617675781,106.21662902832,229116079
fw,-80.7498474121093,-56.3701934814453,40.1088981628418,78.7715530395507,229132746
fw,-80.6080322265625,-56.8504943847656,27.2067050933837,24.7752780914306,229149413
fw,-80.4502944946289,-56.8158721923828,11.6316785812377,-6.65755653381347,229166080
fw,-80.3394622802734,-56.5824546813964,-0.622055947780609,-17.4565296173095,229182747
fw,-80.4031295776367,-56.0777740478515,-18.7099361419677,-32.578140258789,229199414
fw,-80.7425231933593,-55.9468536376953,-40.5934982299804,-6.24930334091186,229216081
fw,-81.4983444213867,-56.1312255859375,-73.610237121582,8.9988317489624,229232748
fw,-82.7313766479492,-55.9694862365722,-116.223945617675,-16.2223167419433,229249415
fw,-83.9168548583984,-55.7726135253906,-131.980819702148,-18.8855381011962,229266082
fw,-84.4224472045898,-55.8036231994628,-147.453948974609,-6.34276247024536,229282749
fw,-83.584243774414,-55.7395935058593,-163.490951538085,-14.7879590988159,229299416
fw,-81.7169189453125,-55.9957389831543,-158.342742919921,6.55587434768676,229316083
fw,-78.8647766113281,-56.6061172485351,-189.046676635742,30.3299198150634,229332750
fw,-75.6592941284179,-57.6119346618652,-197.867904663085,56.4196853637695,229349417
fw,-72.6670608520507,-58.8851737976074,-180.500732421875,73.249885559082,229366084
fw,-69.4436645507812,-60.3029823303222,-193.138763427734,82.1375579833984,229382751
fw,-66.2811203002929,-61.8593635559082,-189.792404174804,90.3178787231445,229399418
fw,-63.4410095214843,-63.5523223876953,-170.849685668945,98.6035385131836,229416085
fw,-60.7134971618652,-65.4392013549804,-163.325103759765,111.28416442871,229432752
fw,-58.2737808227539,-67.6089706420898,-145.39468383789,129.15298461914,229449419
fw,-56.0827560424804,-69.9527740478515,-129.775619506835,140.264877319335,229466086
fw,-54.3009414672851,-72.356201171875,-104.342849731445,143.983657836914,229482753
fw,-53.0662307739257,-74.7545547485351,-71.5396957397461,143.085693359375,229499420
fw,-52.2251777648925,-77.1920089721679,-49.271614074707,144.992630004882,229516087
fw,-51.8236579895019,-79.6791915893554,-24.411600112915,148.020599365234,229532754
fw,-51.7062950134277,-82.0784149169921,-8.29003238677978,142.940460205078,229549421
fw,-51.6874847412109,-84.2674942016601,-3.00822639465332,130.778717041015,229566088
fw,-52.0659713745117,-86.1473541259765,20.1789760589599,112.158287048339,229582755
fw,-53.019775390625,-87.7323837280273,54.147232055664,94.6970291137695,229599422
fw,-54.1287612915039,-88.7874298095703,63.0057640075683,63.5951690673828,229616089
fw,-55.0020675659179,-89.5458679199218,48.7737770080566,50.7082901000976,229632756
fw,-55.8686866760253,-89.2837295532226,47.9775657653808,54.9957962036132,229649423
fw,-57.1214599609375,-88.271499633789,70.9763870239257,61.5352439880371,229666090
fw,-57.8994255065918,-87.0511093139648,43.0665092468261,71.7404251098632,229682757
fw,-58.1086120605468,-85.6960296630859,8.97325801849365,79.2729110717773,229699424
fw,-57.6651344299316,-84.392837524414,-30.04878616333,74.932502746582,229716091
fw,-57.1665077209472,-83.3691024780273,-33.2733688354492,56.9578399658203,229732758
fw,-56.6648254394531,-82.6531372070312,-33.6236877441406,38.7248916625976,229749425
fw,-56.145164489746,-82.0579452514648,-34.6288871765136,31.7256622314453,229766092
fw,-55.704475402832,-81.6854400634765,-29.5839939117431,18.2711238861084,229782759
fw,-55.4309120178222,-81.6301345825195,-17.8010826110839,-0.0180059019476175,229799426
fw,-54.9218864440918,-81.8213958740234,-32.1279220581054,-14.2037105560302,229816093
fw,-54.2796478271484,-82.2250671386718,-41.9689292907714,-28.0917568206787,229832760
fw,-54.1926460266113,-82.9143524169921,-8.41272258758545,-49.2800598144531,229849427
fw,-54.1442337036132,-84.0034790039062,-5.696373462677,-82.4190216064453,229866094
fw,-54.3132743835449,-85.3700561523437,6.85008525848388,-121.540374755859,229882761
fw,-55.2795143127441,-86.1889572143554,54.4133377075195,-154.088073730468,229899428
fw,-56.8958129882812,-85.1130065917968,93.9795837402343,-179.201522827148,229916095
fw,-58.9915809631347,-82.6844024658203,123.470817565917,-176.187850952148,229932762
fw,-61.1683120727539,-80.2480926513671,128.936645507812,-145.150848388671,229949429
fw,-63.0136451721191,-77.8195037841796,109.615661621093,-149.096755981445,229966096
fw,-64.6444396972656,-75.4392318725586,97.8868408203125,-160.666763305664,229982763
fw,-66.2612762451171,-73.0453109741211,99.293960571289,-167.289657592773,229999430
fw,-67.9339294433593,-70.4949111938476,105.567375183105,-172.789825439453,230016097
fw,-69.5101776123046,-67.8301315307617,102.158706665039,-175.539718627929,230032764
fw,-70.9656753540039,-65.0914077758789,95.4570388793945,-175.971420288085,230049431
fw,-72.3127975463867,-62.3303871154785,87.7289505004882,-175.217163085937,230066098
fw,-73.7483596801757,-59.6915435791015,92.1666183471679,-166.712448120117,230082765
fw,-75.3234329223632,-57.1789512634277,103.750038146972,-158.458877563476,230099432
fw,-76.9471206665039,-54.7047615051269,112.572242736816,-157.066513061523,230116099
fw,-78.546630859375,-52.717601776123,113.823371887207,-127.710006713867,230132766
fw,-79.7708053588867,-51.3455848693847,95.8690032958984,-89.8897476196289,230149433
fw,-80.5637283325195,-50.2827453613281,77.9437484741211,-70.9806365966796,230166100
fw,-81.0493774414062,-49.4431533813476,71.240737915039,-58.6484870910644,230182767
fw,-81.3302993774414,-48.7543563842773,72.540771484375,-51.2501335144043,230199434
fw,-81.3390045166015,-48.4458122253418,76.2336654663086,-28.8557777404785,230216101
fw,-81.0251770019531,-48.351634979248,71.4773330688476,-12.9495849609375,230232768
fw,-80.5263900756836,-48.3913650512695,60.5553245544433,-4.50914573669433,230249435
fw,-80.0311813354492,-49.4099235534668,54.6502037048339,57.0508460998535,230266102
fw,-79.676040649414,-51.3463897705078,49.6622161865234,112.162017822265,230282769
fw,-79.4430389404296,-53.6070289611816,45.6981544494628,128.773483276367,230299436
fw,-79.2223510742187,-55.4528427124023,46.86181640625,104.973815917968,230316103
fw,-78.9825286865234,-56.5812072753906,43.4862785339355,62.5672302246093,230332770
fw,-78.8156585693359,-57.2029762268066,31.5113849639892,31.2042217254638,230349437
fw,-78.7690200805664,-57.2490921020507,16.0110931396484,-2.18320798873901,230366104
fw,-78.8288650512695,-56.9714584350585,1.46779823303222,-20.8908004760742,230382771
fw,-78.9112167358398,-56.5409126281738,-3.57887363433837,-30.2834033966064,230399438
fw,-79.0620422363281,-56.2248992919921,-11.8063373565673,-23.0125732421875,230416105
fw,-79.4295120239257,-56.4211235046386,-28.431785583496,9.50954723358154,230432772
fw,-80.2450256347656,-56.758430480957,-62.2273254394531,17.2490806579589,230449439
fw,-81.6709060668945,-56.3094215393066,-105.142364501953,-32.5502662658691,230466106
fw,-83.4601898193359,-55.6767425537109,-133.357589721679,-42.4772987365722,230482773
fw,-84.9152755737304,-55.1581153869628,-155.041244506835,-37.2408599853515,230499440
fw,-84.68408203125,-54.7591934204101,-170.704238891601,-32.4610404968261,230516107
fw,-82.7720336914062,-54.9226760864257,-175.507583618164,4.10272789001464,230532774
fw,-79.9366683959961,-55.9224548339843,-199.219757080078,57.3034515380859,230549441
fw,-76.906997680664,-57.441795349121,-196.653381347656,89.5168762207031,230566108
fw,-73.7854995727539,-59.0970840454101,-192.744110107421,98.2931365966796,230582775
fw,-70.638198852539,-60.886547088623,-191.941711425781,106.169967651367,230599442
fw,-67.3437881469726,-62.7982063293457,-199.67707824707,112.886459350585,230616109
fw,-64.3487777709961,-64.5394134521484,-181.469985961914,102.334579467773,230632776
fw,-61.4148292541503,-66.3118515014648,-177.21662902832,104.368759155273,230649443
fw,-58.660587310791,-68.3498382568359,-165.596313476562,120.529220581054,230666110
fw,-56.320457458496,-70.6628341674804,-140.333068847656,136.942977905273,230682777
fw,-54.5253944396972,-73.1265106201171,-107.562683105468,145.668655395507,230699444
fw,-53.1094436645507,-75.69873046875,-85.2633514404296,151.89224243164,230716111
fw,-51.8690032958984,-78.3834457397461,-75.73876953125,158.234420776367,230732778
fw,-50.8728904724121,-81.192756652832,-62.0447273254394,165.886001586914,230749445
fw,-50.078800201416,-84.3059844970703,-50.6460952758789,184.217849731445,230766112
fw,-49.45015335083,-87.4932174682617,-41.6272430419921,186.278823852539,230782779
fw,-49.7105026245117,-89.5652389526367,9.63112735748291,116.157928466796,230799446
fw,-50.3889846801757,-89.3426971435546,33.7983131408691,66.2538223266601,230816113
fw,-51.0937843322753,-88.4595947265625,35.2919158935546,52.8292236328125,230832780
fw,-52.0259323120117,-88.0629577636718,49.4766578674316,21.6672000885009,230849447
fw,-53.1616630554199,-87.2608413696289,61.6115913391113,45.3886604309082,230866114
fw,-54.2965278625488,-85.8481979370117,65.498550415039,82.433723449707,230882781
fw,-54.8696479797363,-84.2763519287109,32.9576377868652,92.7950363159179,230899448
fw,-55.1702766418457,-82.7674407958984,14.699330329895,89.2544631958007,230916115
fw,-55.1484909057617,-81.5865097045898,-4.96055364608764,68.2912063598632,230932782
fw,-55.0543823242187,-80.8135528564453,-8.76228713989257,42.4914398193359,230949449
fw,-54.868896484375,-80.5301666259765,-14.6905364990234,12.6267786026,230966116
fw,-54.8988609313964,-80.5805511474609,-2.18269419670105,-6.82097864151001,230982783
fw,-55.1281089782714,-80.6462173461914,12.949872970581,-5.60312891006469,230999450
fw,-55.1573982238769,-81.0260314941406,0.910461246967315,-23.593936920166,231016117
fw,-54.876178741455,-81.9213638305664,-22.1700725555419,-56.303050994873,231032784
fw,-54.8940811157226,-83.3176345825195,-2.23413252830505,-89.1342163085937,231049451
fw,-54.5605812072753,-85.1012344360351,-23.1048507690429,-117.68472290039,231066118
fw,-54.1311912536621,-86.8735046386718,-28.6247024536132,-138.59568786621,231082785
fw,-54.6049728393554,-87.3521881103515,25.3941001892089,-168.653930664062,231099452
fw,-55.9529876708984,-85.2003784179687,77.8559036254882,-189.2021484375,231116119
fw,-57.6948051452636,-82.5435180664062,102.120529174804,-167.830245971679,231132786
fw,-59.458080291748,-79.818359375,103.900367736816,-164.965362548828,231149453
fw,-61.0576019287109,-77.0566940307617,94.0924453735351,-176.994247436523,231166120
fw,-62.6765022277832,-74.3700408935546,95.3562774658203,-175.857559204101,231182787
fw,-64.3240661621093,-71.552131652832,97.6793975830078,-180.460067749023,231199454
fw,-66.0946655273437,-68.651008605957,105.9990234375,-181.732528686523,231216121
fw,-67.9602432250976,-65.6246490478515,112.322647094726,-187.963760375976,231232788
fw,-69.8523864746093,-62.7422485351562,113.808128356933,-178.920700073242,231249455
fw,-71.7316513061523,-60.0130195617675,113.193778991699,-169.732986450195,231266122
fw,-73.6184997558593,-57.3762474060058,114.67765045166,-163.456130981445,231282789
fw,-75.6132354736328,-55.0731086730957,124.020240783691,-142.152252197265,231299456
fw,-77.9033966064453,-53.1678466796875,142.697662353515,-117.44831085205,231316123
fw,-80.1776504516601,-51.4456977844238,140.63801574707,-106.507270812988,231332790
fw,-81.7726440429687,-49.8455619812011,99.3446731567382,-99.8941116333007,231349457
fw,-82.7809677124023,-48.7178878784179,71.486328125,-72.5683975219726,231366124
fw,-83.4001998901367,-47.9810905456543,57.5201377868652,-49.8810310363769,231382791
fw,-83.8397369384765,-47.2573852539062,59.9460563659668,-49.2633247375488,231399458
fw,-84.1821060180664,-46.5222778320312,76.4558334350586,-50.9876747131347,231416125
fw,-84.2971801757812,-46.7828865051269,83.459716796875,8.80604743957519,231432792
fw,-84.2348327636718,-47.68794631958,80.1405487060546,47.5577316284179,231449459
fw,-84.1397323608398,-49.3811836242675,70.0170822143554,92.6305389404296,231466126
fw,-84.1822738647461,-51.1011314392089,47.7460784912109,94.1727523803711,231482793
fw,-84.2116928100586,-52.8996658325195,37.5588912963867,100.693489074707,231499460
fw,-84.171875,-53.9415092468261,27.2629661560058,54.578025817871,231516127
fw,-84.1257095336914,-54.3958778381347,16.5107116699218,18.3719310760498,231532794
fw,-84.1871261596679,-54.6608047485351,4.0226240158081,7.35099124908447,231549461
fw,-84.5179595947265,-54.5016555786132,-14.9766178131103,-15.3840379714965,231566128
fw,-85.3398208618164,-53.8564796447753,-45.6585502624511,-36.2272300720214,231582795
fw,-86.8361587524414,-53.0472984313964,-83.7063903808593,-42.0451850891113,231599462
fw,-88.9874114990234,-52.788330078125,-123.611152648925,-23.1323375701904,231616129
fw,-88.026626586914,-52.5424880981445,-146.453491210937,-33.2738647460937,231632796
fw,-85.0343780517578,-52.4502830505371,-168.232772827148,-19.4086799621582,231649463
fw,-81.3815841674804,-52.5413589477539,-210.870330810546,-10.2771053314208,231666130
fw,-77.7874374389648,-53.0134468078613,-212.430953979492,15.3055219650268,231682797
fw,-74.7075881958007,-54.2399940490722,-189.546737670898,64.3647689819336,231699464
fw,-72.0452651977539,-56.0921211242675,-171.644149780273,102.384246826171,231716131
fw,-69.2064437866211,-58.0636711120605,-182.351974487304,110.391662597656,231732798
fw,-66.2416687011718,-60.1400833129882,-186.273025512695,116.900802612304,231749465
fw,-63.554817199707,-62.1911010742187,-166.998214721679,113.14720916748,231766132
fw,-61.138572692871,-64.2671890258789,-149.332885742187,112.854743957519,231782799
fw,-58.7052841186523,-66.3669815063476,-150.052658081054,115.695411682128,231799466
fw,-56.3368034362793,-68.6765441894531,-145.95603942871,132.461074829101,231816133
fw,-54.3020553588867,-71.1699600219726,-125.484199523925,147.214599609375,231832800
fw,-52.6756629943847,-73.8741607666015,-100.493309020996,160.864624023437,231849467
fw,-51.3607292175293,-76.7620620727539,-81.7575607299804,171.952102661132,231866134
fw,-50.3442955017089,-79.7326431274414,-64.3049011230468,176.774429321289,231882801
fw,-49.5081634521484,-82.7472915649414,-54.0857582092285,179.135421752929,231899468
fw,-48.7737922668457,-85.3228683471679,-48.6508102416992,152.644302368164,231916135
fw,-48.2889976501464,-86.960693359375,-34.3315963745117,96.3594131469726,231932802
fw,-48.4743461608886,-87.8901138305664,5.04072666168212,55.2059593200683,231949469
fw,-49.3042488098144,-88.1178894042968,42.9069557189941,21.39208984375,231966136
fw,-49.795669555664,-88.0615463256836,22.7727870941162,17.6236476898193,231982803
fw,-50.7213821411132,-88.0457534790039,49.54683303833,46.8019180297851,231999470
fw,-51.9798355102539,-87.5863800048828,70.5665817260742,81.0452346801757,232016137
fw,-53.1124954223632,-86.5848846435546,64.6625747680664,94.7901153564453,232032804
fw,-53.5548095703125,-85.4802703857421,23.8909549713134,86.4244003295898,232049471
fw,-53.8828620910644,-84.3804702758789,17.0000534057617,75.8817443847656,232066138
fw,-54.0402336120605,-83.6240692138671,6.6846694946289,48.5251235961914,232082805
fw,-54.1740951538085,-83.0762405395507,5.00122499465942,31.2712059020996,232099472
fw,-54.1790466308593,-82.459358215332,-3.32257843017578,32.9736900329589,232116139
fw,-54.014362335205,-82.2345886230468,-13.8529481887817,8.96383666992187,232132806
fw,-54.0126876831054,-82.4686050415039,-4.06537008285522,-18.1473598480224,232149473
fw,-54.3914794921875,-82.9702987670898,19.7451801300048,-34.2770156860351,232166140
fw,-54.4789657592773,-83.6330490112304,2.14691019058227,-44.5541954040527,232182807
fw,-54.4352645874023,-84.6638107299804,-6.60673666000366,-65.8137130737304,232199474
fw,-54.235984802246,-86.3805847167968,-15.1357250213623,-104.398483276367,232216141
fw,-53.7010269165039,-88.7190017700195,-35.0236015319824,-137.94319152832,232232808
fw,-53.6646308898925,-88.6244201660156,-4.61365509033203,-154.377029418945,232249475
fw,-54.7259941101074,-85.5365219116211,61.6094398498535,-175.876388549804,232266142
fw,-56.3054695129394,-82.3046112060546,93.0671920776367,-185.301681518554,232282809
fw,-58.0410079956054,-79.031379699707,102.461502075195,-192.507034301757,232299476
fw,-59.684455871582,-75.7318649291992,97.2106018066406,-203.890808105468,232316143
fw,-61.3689346313476,-72.4462966918945,100.878990173339,-206.438064575195,232332810
fw,-63.2155265808105,-68.7602996826171,112.372207641601,-229.002395629882,232349477
fw,-65.2127380371093,-64.7994232177734,122.551696777343,-243.394500732421,232366144
fw,-67.1241989135742,-61.0773544311523,117.365043640136,-228.213226318359,232382811
fw,-68.8393249511718,-57.8110084533691,104.876091003417,-200.926635742187,232399478
fw,-70.3971176147461,-54.839500427246,96.0044784545898,-183.777099609375,232416145
fw,-71.9801559448242,-52.1997413635253,99.4076843261718,-163.641799926757,232432812
fw,-73.6703567504882,-50.0532341003418,110.052108764648,-133.288314819335,232449479
fw,-75.7861022949218,-48.3625335693359,137.376144409179,-105.33120727539,232466146
fw,-77.9456253051757,-47.1152153015136,140.306762695312,-79.1425094604492,232482813
fw,-79.6310958862304,-46.7884635925293,114.91837310791,-24.1045494079589,232499480
fw,-80.8383483886718,-46.3806076049804,95.7059860229492,-28.5571784973144,232516147
fw,-81.5995025634765,-45.5762062072753,81.8079299926757,-55.2867965698242,232532814
fw,-81.9630508422851,-44.9218215942382,73.5394287109375,-43.6175918579101,232549481
fw,-82.0409545898437,-44.7008018493652,76.1558303833007,-16.8750705718994,232566148
fw,-81.9595413208007,-46.2122573852539,68.9749450683593,85.9518051147461,232582815
fw,-81.9776535034179,-48.3049545288085,66.6069641113281,121.069587707519,232599482
fw,-82.14794921875,-50.0145645141601,51.0643997192382,97.761962890625,232616149
fw,-82.3530654907226,-51.9780006408691,36.5044403076171,112.762374877929,232632816
fw,-82.4597015380859,-53.359748840332,30.4495429992675,80.7479705810546,232649483
fw,-82.5064239501953,-54.1922607421875,19.6689529418945,47.6924362182617,232666150
fw,-82.5634155273437,-54.5443115234375,9.27837944030761,18.0376892089843,232682817
fw,-82.6399536132812,-54.6067352294921,5.64957380294799,2.2639102935791,232699484
fw,-82.7994155883789,-54.4494514465332,-3.71604561805725,-11.6888799667358,232716151
fw,-83.2101974487304,-54.3437004089355,-24.4321975708007,-6.16305971145629,232732818
fw,-84.0413513183593,-54.604434967041,-53.5858116149902,15.2767868041992,232749485
fw,-85.4010848999023,-54.6292190551757,-98.2403717041015,-7.91143655776977,232766152
fw,-86.7423782348632,-54.4442558288574,-129.601623535156,-23.256456375122,232782819
fw,-86.6163253784179,-54.3431968688964,-137.946517944335,-15.8879623413085,232799486
fw,-84.4504470825195,-54.421703338623,-166.094345092773,-7.89312314987182,232816153
fw,-81.6367492675781,-54.9219665527343,-171.445449829101,19.9023685455322,232832820
fw,-78.9377975463867,-56.0198745727539,-160.436553955078,61.0363998413085,232849487
fw,-75.9699554443359,-57.6717338562011,-179.087707519531,97.3617324829101,232866154
fw,-73.1096038818359,-59.397216796875,-174.956192016601,102.722038269042,232882821
fw,-69.8678894042968,-60.9281845092773,-197.552688598632,89.6394271850586,232899488
fw,-66.3942184448242,-62.472599029541,-210.529037475585,88.2045669555664,232916155
fw,-63.4003295898437,-64.0584259033203,-181.264923095703,89.6186218261718,232932822
fw,-60.6189956665039,-65.7227172851562,-168.326705932617,94.9140930175781,232949489
fw,-58.0025672912597,-67.6242370605468,-158.305099487304,110.770950317382,232966156
fw,-55.6612892150878,-69.7527465820312,-141.763488769531,125.830688476562,232982823
fw,-53.7633972167968,-72.1138610839843,-115.414039611816,140.35887145996,232999490
fw,-52.3362503051757,-74.5525360107421,-87.9013061523437,144.762512207031,233016157
fw,-51.2620582580566,-77.0021286010742,-67.7926025390625,145.020904541015,233032824
fw,-50.5037155151367,-79.5288467407226,-49.8896675109863,149.449478149414,233049491
fw,-50.0846252441406,-82.2443542480468,-30.3929767608642,161.128585815429,233066158
fw,-49.8736305236816,-84.9056549072265,-19.1006488800048,157.5966796875,233082825
fw,-50.2635421752929,-86.9570236206054,14.8956794738769,119.965744018554,233099492
fw,-51.4980773925781,-88.497802734375,64.6588897705078,91.0114669799804,233116159
fw,-52.4745864868164,-89.3905868530273,48.9144134521484,62.8575057983398,233132826
fw,-53.5028839111328,-89.2550659179687,51.5506210327148,35.0748748779296,233149493
fw,-54.8601150512695,-88.6305541992187,72.7772674560546,41.8971519470214,233166160
fw,-55.804386138916,-87.5259094238281,51.4036026000976,68.2355880737304,233182827
fw,-56.4042015075683,-86.4205093383789,31.2713146209716,67.4568786621093,233199494
fw,-56.5759849548339,-85.4400558471679,4.84933471679687,61.819091796875,233216161
fw,-56.4831581115722,-84.5249633789062,-9.67541408538818,57.8641738891601,233232828
fw,-56.3655242919921,-83.8492965698242,-11.637225151062,41.1550788879394,233249495
fw,-56.1741676330566,-83.3513793945312,-17.8328170776367,28.5204753875732,233266162
fw,-56.3005027770996,-83.124885559082,0.465650826692581,11.6038789749145,233282829
fw,-56.4771881103515,-83.0315399169921,7.75170564651489,4.09732675552368,233299496
fw,-55.8955497741699,-83.1942138671875,-40.0617713928222,-10.8768234252929,233316163
fw,-55.2339096069335,-83.7794952392578,-46.0049972534179,-36.3855743408203,233332830
fw,-54.9206390380859,-84.7576065063476,-26.5053749084472,-60.078140258789,233349497
fw,-54.5090026855468,-86.3032913208007,-29.5831451416015,-94.0681076049804,233366164
fw,-54.1852378845214,-88.3823928833007,-19.8502254486084,-125.854583740234,233382831
fw,-54.8800735473632,-89.0264282226562,38.8779258728027,-156.76756286621,233399498
fw,-56.1374015808105,-86.2373580932617,71.5692138671875,-168.114395141601,233416165
fw,-57.7041702270507,-83.4764099121093,91.8519134521484,-163.989120483398,233432832
fw,-59.1912384033203,-80.7755432128906,88.0810928344726,-155.285949707031,233449499
fw,-60.6000213623046,-77.7122116088867,83.151741027832,-176.723571777343,233466166
fw,-62.1578712463378,-74.9402770996093,91.217658996582,-165.669128417968,233482833
fw,-63.7941169738769,-72.3919219970703,95.7176895141601,-156.719573974609,233499500
fw,-65.4695129394531,-69.4634094238281,98.7015075683593,-180.644592285156,233516167
fw,-67.2080078125,-66.3778839111328,103.136642456054,-189.801116943359,233532834
fw,-68.8606262207031,-63.6077766418457,97.8223800659179,-170.574508666992,233549501
fw,-70.3910140991211,-60.8568687438964,90.3497543334961,-169.423248291015,233566168
fw,-72.038948059082,-58.3503494262695,98.2861938476562,-154.379943847656,233582835
fw,-73.8613662719726,-55.9344253540039,108.932792663574,-148.375823974609,233599502
fw,-75.8054122924804,-53.6730804443359,114.69213104248,-138.376922607421,233616169
fw,-77.7844085693359,-51.7515525817871,117.77188873291,-117.416458129882,233632836
fw,-79.5523376464843,-50.1650695800781,110.752662658691,-97.2674179077148,233649503
fw,-80.9464035034179,-49.0498237609863,94.7021331787109,-69.3594512939453,233666170
fw,-82.0270614624023,-48.3058776855468,82.3706130981445,-47.5925788879394,233682837
fw,-82.8998031616211,-47.729019165039,80.3756332397461,-38.2607421875,233699504
fw,-83.6279754638671,-47.1566123962402,89.5827484130859,-38.6947593688964,233716171
fw,-83.9328231811523,-47.1063346862793,89.5279769897461,-8.09429550170898,233732838
fw,-83.7909164428711,-47.666275024414,80.8301925659179,30.3031558990478,233749505
fw,-83.52001953125,-48.9517288208007,73.3921356201171,73.5514678955078,233766172
fw,-83.4462966918945,-50.9296112060546,57.3668212890625,114.330192565917,233782839
fw,-83.5065612792968,-52.6823272705078,42.6601676940918,100.063453674316,233799506
fw,-83.5723342895507,-54.1197776794433,29.8387336730957,82.6005783081054,233816173
fw,-83.6360702514648,-54.4892768859863,16.8687210083007,16.4039478302001,233832840
fw,-83.7062454223632,-54.7264556884765,5.08701086044311,10.2158851623535,233849507
fw,-83.8785934448242,-54.7272872924804,-11.3393898010253,-0.127961173653602,233866174
fw,-84.2271499633789,-54.3212127685546,-34.1623420715332,-19.2115268707275,233882841
fw,-84.8140563964843,-53.7008514404296,-60.3553352355957,-29.0471420288085,233899508
fw,-85.5396347045898,-53.6315612792968,-91.7110137939453,-6.10318040847778,233916175
fw,-85.9043731689453,-53.4273948669433,-124.707206726074,-23.4252948760986,233932842
fw,-85.2131652832031,-52.7432785034179,-143.608779907226,-51.3494987487793,233949509
fw,-83.2319259643554,-52.45210647583,-164.986724853515,-23.2594718933105,233966176
fw,-80.5446243286132,-52.3995704650878,-175.098754882812,-8.12784194946289,233982843
fw,-77.7500457763671,-53.2163848876953,-170.4150390625,46.0242271423339,233999510
fw,-74.9843597412109,-54.6697311401367,-166.256851196289,83.1002349853515,234016177
fw,-72.353530883789,-56.2820625305175,-159.403915405273,91.8928680419921,234032844
fw,-69.408332824707,-57.8564834594726,-178.702117919921,90.1622009277343,234049511
fw,-66.4328536987304,-59.4521331787109,-180.157608032226,91.1137771606445,234066178
fw,-63.9098281860351,-61.1865005493164,-152.745880126953,99.52587890625,234082845
fw,-61.4962654113769,-63.0770225524902,-146.046890258789,109.771835327148,234099512
fw,-59.3199882507324,-65.16357421875,-131.687057495117,122.919914245605,234116179
fw,-57.378562927246,-67.5056457519531,-117.133522033691,139.508361816406,234132846
fw,-55.7265243530273,-70.1868591308593,-99.0246353149414,160.220428466796,234149513
fw,-54.3896865844726,-73.1015396118164,-79.747329711914,173.88671875,234166180
fw,-53.404685974121,-76.1175155639648,-59.1774826049804,179.521667480468,234182847
fw,-52.748664855957,-79.072883605957,-40.7031898498535,175.633071899414,234199514
fw,-52.335277557373,-81.9731750488281,-27.2256736755371,172.661437988281,234216181
fw,-51.96875,-84.4933776855468,-25.2265586853027,151.314376831054,234232848
fw,-51.8609390258789,-86.2498092651367,-10.5245513916015,107.361541748046,234249515
fw,-52.4183502197265,-87.4548568725586,28.8283138275146,74.2288970947265,234266182
fw,-53.2617797851562,-88.5737152099609,44.3184242248535,68.104736328125,234282849
fw,-53.9986724853515,-89.5142288208007,36.3071708679199,56.4304389953613,234299516
fw,-54.7902603149414,-89.212173461914,40.8966941833496,61.2408027648925,234316183
fw,-55.9696235656738,-87.8316497802734,65.2388534545898,80.7777023315429,234332850
fw,-56.6225128173828,-86.484260559082,35.15380859375,78.4156646728515,234349517
fw,-56.9366073608398,-85.3554382324218,15.6005945205688,66.117561340332,234366184
fw,-56.778148651123,-84.3681335449218,-12.3368740081787,57.5314216613769,234382851
fw,-56.4278869628906,-83.4877777099609,-23.2423648834228,49.8773689270019,234399518
fw,-56.1340370178222,-82.6471557617187,-20.0579376220703,46.3990058898925,234416185
fw,-55.8430252075195,-82.0995788574218,-20.4761352539062,28.7191905975341,234432852
fw,-55.6188735961914,-81.8525238037109,-16.8470649719238,11.6343069076538,234449519
fw,-55.6731033325195,-82.0313644409179,1.37239921092987,-12.7121591567993,234466186
fw,-55.4291648864746,-82.7940521240234,-16.5262813568115,-47.3867645263671,234482853
fw,-54.7740592956543,-83.8910293579101,-42.6095809936523,-67.6931533813476,234499520
fw,-54.3719367980957,-85.2208251953125,-27.0896549224853,-84.3346176147461,234516187
fw,-53.74365234375,-86.7235641479492,-40.887710571289,-103.784706115722,234532854
fw,-53.1295204162597,-87.83544921875,-39.5426635742187,-123.875343322753,234549521
fw,-53.5241737365722,-86.8107070922851,20.608657836914,-150.002502441406,234566188
fw,-54.6466445922851,-84.3190078735351,65.085334777832,-165.08283996582,234582855
fw,-56.1395301818847,-81.7908020019531,87.7953720092773,-149.738204956054,234599522
fw,-57.6546783447265,-79.0428009033203,89.2413940429687,-168.407302856445,234616189
fw,-59.0840339660644,-76.429817199707,83.9561614990234,-170.168594360351,234632856
fw,-60.5092048645019,-73.8467254638671,83.9983749389648,-172.341033935546,234649523
fw,-61.9597053527832,-71.2552795410156,86.9248657226562,-169.492111206054,234666190
fw,-63.547191619873,-68.5985488891601,96.7966766357421,-170.010650634765,234682857
fw,-65.2165451049804,-65.7589416503906,102.898872375488,-179.62922668457,234699524
fw,-66.9367523193359,-63.0049362182617,105.731155395507,-173.185348510742,234716191
fw,-68.7566833496093,-60.2510452270507,110.079864501953,-172.430938720703,234732858
fw,-70.5763397216796,-57.8018226623535,109.034118652343,-153.565673828125,234749525
fw,-72.3487091064453,-55.6697044372558,109.05224609375,-134.014999389648,234766192
fw,-74.0954971313476,-53.778751373291,111.919563293457,-119.131065368652,234782859
fw,-75.9274978637695,-52.0777587890625,120.556678771972,-107.512817382812,234799526
fw,-77.6660842895507,-50.4193992614746,117.693572998046,-105.125617980957,234816193
fw,-79.0587844848632,-48.6770973205566,101.206687927246,-110.600753784179,234832860
fw,-80.0706939697265,-47.4691886901855,87.923843383789,-79.0896987915039,234849527
fw,-80.7799758911132,-46.7447166442871,80.8800964355468,-51.0112075805664,234866194
fw,-81.1840133666992,-46.2914886474609,75.5179824829101,-34.5365829467773,234882861
fw,-81.3292999267578,-46.3599853515625,73.4883041381836,-0.887633204460144,234899528
fw,-81.2909469604492,-47.3961219787597,77.3425598144531,58.7886009216308,234916195
fw,-81.2275238037109,-49.2536010742187,78.1059875488281,107.89054107666,234932862
fw,-81.2529373168945,-51.6158256530761,69.6999893188476,135.58267211914,234949529
fw,-81.3433303833007,-53.862621307373,54.3590583801269,127.664321899414,234966196
fw,-81.4523391723632,-55.1568031311035,39.9424629211425,69.4011840820312,234982863
fw,-81.5133514404296,-56.1743469238281,30.8215808868408,56.1987419128418,234999530
fw,-81.6068420410156,-56.6778945922851,13.5502023696899,27.5446395874023,235016197
fw,-81.765510559082,-56.8728294372558,-4.65976810455322,11.8074331283569,235032864
fw,-82.0433731079101,-56.8215026855468,-25.6967525482177,-3.082279920578,235049531
fw,-82.5751647949218,-56.744026184082,-53.2328872680664,-4.27055263519287,235066198
fw,-83.4355926513671,-56.8828048706054,-80.3182144165039,6.42796897888183,235082865
fw,-84.5294418334961,-56.868309020996,-118.060188293457,-5.47261428833007,235099532
fw,-85.2829208374023,-56.3594551086425,-138.834014892578,-38.5026016235351,235116199
fw,-84.8431167602539,-55.6961326599121,-152.760940551757,-50.3514976501464,235132866
fw,-82.7645645141601,-55.2298736572265,-178.484420776367,-39.1602897644043,235149533
fw,-80.1027450561523,-55.1123924255371,-173.895782470703,-15.3686399459838,235166200
fw,-77.0419082641601,-55.8628120422363,-186.701278686523,39.5913772583007,235182867
fw,-74.0613479614257,-57.244758605957,-179.956893920898,78.9967880249023,235199534
fw,-71.0836791992187,-58.7627944946289,-180.054443359375,88.5428085327148,235216201
fw,-67.8425903320312,-60.3447685241699,-195.569747924804,91.9797134399414,235232868
fw,-64.9465713500976,-62.0681915283203,-174.573333740234,99.5263442993164,235249535
fw,-62.2773246765136,-63.8612174987793,-160.793807983398,103.13475036621,235266202
fw,-59.8491020202636,-65.7420806884765,-146.273071289062,108.803985595703,235282869
fw,-57.6305427551269,-67.9709320068359,-133.528121948242,130.952331542968,235299536
fw,-55.6663246154785,-70.5348205566406,-117.871170043945,151.882614135742,235316203
fw,-54.027473449707,-73.337646484375,-97.9957275390625,166.400360107421,235332870
fw,-52.6743545532226,-76.2964248657226,-81.0927200317382,175.48127746582,235349537
fw,-51.6516990661621,-79.4225540161132,-62.2548103332519,184.900573730468,235366204
fw,-51.0506744384765,-82.6142196655273,-38.1619796752929,188.597213745117,235382871
fw,-50.8325614929199,-85.025276184082,-16.2867336273193,141.873138427734,235399538
fw,-50.7220382690429,-86.1202545166015,-10.8971080780029,63.3559265136718,235416205
fw,-50.9741592407226,-86.5310134887695,9.91514492034912,23.7347869873046,235432872
fw,-51.955955505371,-86.6443328857421,53.1736373901367,7.541588306427,235449539
fw,-52.6056098937988,-87.0552368164062,33.4348182678222,25.6407642364501,235466206
fw,-53.1705284118652,-88.1662445068359,29.5607795715332,73.6357650756836,235482873
fw,-54.0235595703125,-88.9405746459961,47.3155250549316,94.5742874145507,235499540
fw,-55.2181053161621,-88.2239227294921,66.3615951538086,81.3141937255859,235516207
fw,-55.7730979919433,-87.2521286010742,27.8764190673828,64.8501586914062,235532874
fw,-55.9163017272949,-86.4793090820312,3.2896728515625,47.6325912475585,235549541
fw,-56.0777130126953,-85.9330673217773,4.76684045791626,33.0490455627441,235566208
fw,-56.1040115356445,-85.3543472290039,-3.22166180610656,34.0486297607421,235582875
fw,-56.0770454406738,-84.4762496948242,-7.103280544281,50.8796348571777,235599542
fw,-55.9682502746582,-83.6080703735351,-12.2595205307006,50.296760559082,235616209
fw,-55.8221168518066,-83.3432159423828,-13.8942937850952,14.4847517013549,235632876
fw,-55.8049888610839,-83.4409713745117,-5.51914882659912,-7.13394403457641,235649543
fw,-55.833869934082,-83.6396179199218,-0.681029856204986,-13.4310445785522,235666210
fw,-55.7025260925293,-83.822769165039,-8.93072986602783,-12.8022365570068,235682877
fw,-55.5909767150878,-84.1096496582031,-9.36613655090332,-19.5739040374755,235699544
fw,-55.7315979003906,-84.837417602539,4.01424169540405,-47.7988510131835,235716211
fw,-55.4768257141113,-86.0930480957031,-20.9530086517334,-83.3551788330078,235732878
fw,-55.2240295410156,-87.7164764404296,-19.1177005767822,-120.666900634765,235749545
fw,-55.8170700073242,-88.0553970336914,32.2427787780761,-150.970642089843,235766212
fw,-57.4476356506347,-85.9760131835937,95.3358840942382,-160.974227905273,235782879
fw,-59.5395469665527,-83.3985900878906,123.441299438476,-162.91860961914,235799546
fw,-61.4490203857421,-80.755630493164,112.663856506347,-160.368606567382,235816213
fw,-62.9849395751953,-77.8081436157226,90.4242858886718,-180.49169921875,235832880
fw,-64.4848861694336,-74.9220352172851,89.0480346679687,-179.934494018554,235849547
fw,-66.0564727783203,-72.0031661987304,94.9019241333007,-182.283660888671,235866214
fw,-67.7605972290039,-69.0748748779296,104.212646484375,-181.475204467773,235882881
fw,-69.4867248535156,-66.0908584594726,105.304985046386,-183.87059020996,235899548
fw,-70.9779052734375,-63.0323410034179,90.0140838623046,-187.972274780273,235916215
fw,-72.2187957763671,-60.2529716491699,75.1952209472656,-170.918045043945,235932882
fw,-73.3942108154296,-57.686351776123,72.7998962402343,-157.993927001953,235949549
fw,-74.5386734008789,-55.3770446777343,71.8740921020507,-142.343673706054,235966216
fw,-75.8121948242187,-53.3007736206054,78.7079467773437,-128.019073486328,235982883
fw,-77.288101196289,-51.4938774108886,93.4672164916992,-111.495132446289,235999550
fw,-78.8423080444336,-49.8629493713378,99.7044067382812,-100.7466506958,236016217
fw,-80.0650634765625,-48.5056076049804,80.503059387207,-84.4615249633789,236032884
fw,-80.9904327392578,-47.5445098876953,70.2826690673828,-60.8151779174804,236049551
fw,-81.7381286621093,-46.8907775878906,71.5440368652343,-42.377700805664,236066218
fw,-82.3293685913086,-46.340648651123,77.3947219848632,-36.1972579956054,236082885
fw,-82.5737609863281,-46.3575363159179,74.2262496948242,-2.6368064880371,236099552
fw,-82.4785919189453,-47.0251655578613,74.2755813598632,36.6568069458007,236116219
fw,-82.2287292480468,-48.3411865234375,76.4521484375,76.2905502319336,236132886
fw,-82.1039505004882,-50.4775047302246,77.8119583129882,123.380554199218,236149553
fw,-82.1511764526367,-52.7105560302734,61.4238090515136,127.467643737792,236166220
fw,-82.2198944091796,-54.4048614501953,44.8845024108886,94.0418701171875,236182887
fw,-82.2066345214843,-55.2210273742675,33.6630096435546,41.9767837524414,236199554
fw,-82.232925415039,-55.6456031799316,17.5414447784423,20.1278018951416,236216221
fw,-82.2773208618164,-55.7418899536132,7.04215860366821,3.53636121749877,236232888
fw,-82.3661651611328,-55.4075126647949,-3.33083367347717,-18.2057704925537,236249555
fw,-82.7100830078125,-54.9404907226562,-25.1074352264404,-19.8835697174072,236266222
fw,-83.5327377319336,-54.9349098205566,-58.0441017150878,4.4892086982727,236282889
fw,-84.8695907592773,-55.3589210510253,-102.552665710449,20.7454452514648,236299556
fw,-86.1464462280273,-55.1886978149414,-135.478454589843,-22.6207561492919,236316223
fw,-86.0164108276367,-54.6398658752441,-158.605377197265,-44.3010635375976,236332890
fw,-83.9852981567382,-54.4656105041503,-180.588317871093,-21.7546825408935,236349557
fw,-81.1623306274414,-54.5943908691406,-185.414398193359,1.14742970466613,236366224
fw,-78.0868377685546,-55.6135940551757,-186.986877441406,58.1266441345214,236382891
fw,-74.9813232421875,-57.5170288085937,-186.569396972656,110.705574035644,236399558
fw,-72.0626449584961,-59.6021728515625,-176.788833618164,121.784278869628,236416225
fw,-69.0057144165039,-61.3309059143066,-184.233795166015,99.5379943847656,236432892
fw,-66.0358352661132,-62.8612098693847,-177.94189453125,85.8981552124023,236449559
fw,-63.3990173339843,-64.2111740112304,-157.986999511718,74.3782577514648,236466226
fw,-60.9770889282226,-65.5681457519531,-145.54833984375,75.4656600952148,236482893
fw,-58.690258026123,-67.1403427124023,-137.610549926757,90.7540512084961,236499560
fw,-56.604377746582,-68.9715499877929,-125.032119750976,108.203994750976,236516227
fw,-54.8998222351074,-71.1292190551757,-101.132995605468,128.534362792968,236532894
fw,-53.575210571289,-73.4892044067382,-77.8426284790039,140.913772583007,236549561
fw,-52.5742835998535,-75.9131698608398,-59.0304107666015,144.487472534179,236566228
fw,-51.9457130432128,-78.6397018432617,-37.998550415039,162.36262512207,236582895
fw,-51.6091918945312,-81.5259933471679,-21.8878765106201,171.992034912109,236599562
fw,-51.2709465026855,-83.7984390258789,-23.098159790039,136.389556884765,236616229
