Label,Left_Hip_q,Right_Hip_q,Left_Hip_qd,Right_Hip_qd,SampleTimeFine
iw,-65.3121032714843,-64.561767578125,-143.597824096679,78.5520629882812,1524191980
iw,-63.1644477844238,-65.8480758666992,-144.044982910156,76.2722473144531,1524208647
iw,-61.0417098999023,-67.0943984985351,-140.068527221679,74.0548477172851,1524225314
iw,-59.0962371826171,-68.3757705688476,-125.818466186523,76.3214263916015,1524241981
iw,-57.3159713745117,-69.7258148193359,-111.226165771484,80.7552032470703,1524258648
iw,-55.5112991333007,-71.1958312988281,-104.993713378906,88.3330993652343,1524275315
iw,-53.5336532592773,-72.7972183227539,-107.266250610351,96.7375106811523,1524291982
iw,-51.5679512023925,-74.4533081054687,-101.627601623535,100.523719787597,1524308649
iw,-49.6543197631835,-76.081672668457,-98.0056915283203,98.9472198486328,1524325316
iw,-47.7967414855957,-77.6354141235351,-100.023956298828,94.0240631103515,1524341983
iw,-46.1394157409668,-79.1044769287109,-93.8728713989257,88.5253143310546,1524358650
iw,-44.9559936523437,-80.4914321899414,-68.7181167602539,83.494026184082,1524375317
iw,-44.1765632629394,-81.8479919433593,-46.060317993164,81.1920547485351,1524391984
iw,-43.6033935546875,-83.1913375854492,-34.8799476623535,79.6999206542968,1524408651
iw,-43.0807037353515,-84.5087738037109,-32.4736824035644,77.8310089111328,1524425318
iw,-42.6245727539062,-85.8304977416992,-28.691795349121,78.7254257202148,1524441985
iw,-42.3084754943847,-87.1598587036132,-20.5396499633789,81.9191207885742,1524458652
iw,-41.9639739990234,-88.3577728271484,-22.0414562225341,83.9397506713867,1524475319
iw,-41.4974822998046,-88.7200775146484,-28.3317909240722,88.3531188964843,1524491986
iw,-40.9539031982421,-87.7522354125976,-32.3878555297851,85.1082305908203,1524508653
iw,-40.3535919189453,-86.7111587524414,-34.9799652099609,67.8363800048828,1524525320
iw,-39.7233543395996,-85.8297882080078,-34.8279495239257,54.1243896484375,1524541987
iw,-39.093578338623,-84.9731369018554,-33.3867835998535,51.1547966003418,1524558654
iw,-38.7067909240722,-84.0630416870117,-20.3646602630615,54.6365737915039,1524575321
iw,-38.4950256347656,-83.1239700317382,-11.6984119415283,57.3502159118652,1524591988
iw,-38.3088455200195,-82.2063598632812,-10.3745336532592,55.6865997314453,1524608655
iw,-38.1613998413085,-81.3718338012695,-8.10482215881347,49.1651153564453,1524625322
iw,-38.0882568359375,-80.5918045043945,-3.16750741004943,44.4855422973632,1524641989
iw,-38.0901222229003,-79.8061065673828,1.99841094017028,43.458740234375,1524658656
iw,-38.1295928955078,-79.0275802612304,4.62519645690918,42.2024459838867,1524675323
iw,-38.1666183471679,-78.2816543579101,4.47898864746093,40.4244956970214,1524691990
iw,-38.1980667114257,-77.6039352416992,4.32340240478515,36.632209777832,1524708657
iw,-38.2214164733886,-77.0072479248046,3.76565670967102,31.6079502105712,1524725324
iw,-37.8877067565918,-76.4186553955078,-18.5015087127685,30.4440460205078,1524741991
iw,-37.351448059082,-75.9518203735351,-30.483715057373,22.6961460113525,1524758658
iw,-36.8726959228515,-75.7603988647461,-26.28023147583,6.36603069305419,1524775325
iw,-36.9674987792968,-75.916389465332,6.41251277923584,-15.026400566101,1524791992
iw,-37.7988967895507,-76.5250091552734,48.6210556030273,-42.6412124633789,1524808659
iw,-38.4253273010253,-77.6750564575195,36.134479522705,-75.3363265991211,1524825326
iw,-38.63720703125,-79.3997344970703,10.478157043457,-114.091255187988,1524841993
iw,-39.0413551330566,-81.3462600708007,20.9142093658447,-137.275650024414,1524858660
iw,-39.7375106811523,-83.053108215332,40.0117111206054,-139.507659912109,1524875327
iw,-40.4897842407226,-84.193977355957,45.0730438232421,-128.14533996582,1524891994
iw,-41.3904495239257,-84.7366790771484,53.4176216125488,-121.257347106933,1524908661
iw,-42.4647674560546,-84.530158996582,64.9622344970703,-128.88899230957,1524925328
iw,-43.742015838623,-83.4325180053711,82.922981262207,-152.603057861328,1524941995
iw,-44.9835624694824,-81.7185287475586,86.2228851318359,-156.294204711914,1524958662
iw,-46.3264541625976,-79.5917358398437,93.1618347167968,-161.570404052734,1524975329
iw,-47.6302032470703,-76.8923034667968,86.5287704467773,-184.291519165039,1524991996
iw,-48.8813133239746,-73.8074111938476,78.9527969360351,-198.625564575195,1525008663
iw,-50.1392745971679,-70.829475402832,76.0876846313476,-186.73371887207,1525025330
iw,-51.4947242736816,-68.1331710815429,80.3762435913086,-167.975555419921,1525041997
iw,-52.8156585693359,-65.7663116455078,77.1780471801757,-148.225631713867,1525058664
iw,-54.1293563842773,-63.6568908691406,76.4247817993164,-133.393722534179,1525075331
iw,-55.6484413146972,-61.5048027038574,93.2427902221679,-135.554641723632,1525091998
iw,-57.3755989074707,-59.2153625488281,110.281639099121,-142.77375793457,1525108665
iw,-59.162670135498,-57.2191162109375,115.990585327148,-124.367134094238,1525125332
iw,-60.9447402954101,-55.3108863830566,123.119354248046,-118.413284301757,1525141999
iw,-62.552749633789,-53.1571617126464,123.06184387207,-132.251007080078,1525158666
iw,-63.9112014770507,-51.1303558349609,116.162902832031,-124.047126770019,1525175333
iw,-65.0729141235351,-49.502685546875,110.046676635742,-99.9605178833007,1525192000
iw,-66.0035705566406,-48.3483123779296,97.1132278442382,-71.2065048217773,1525208667
iw,-66.5960693359375,-47.6264457702636,69.5462188720703,-45.7510681152343,1525225334
iw,-66.8762969970703,-47.5103111267089,45.4665565490722,-9.12064170837402,1525242001
iw,-67.01953125,-47.7946586608886,38.2538833618164,15.3768444061279,1525258668
iw,-67.2177581787109,-48.1135482788085,46.5716514587402,17.4934902191162,1525275335
iw,-67.5404510498046,-48.4215393066406,55.7285537719726,16.5329837799072,1525292002
iw,-67.9127197265625,-48.5613212585449,50.5540695190429,6.17029476165771,1525308669
iw,-68.3034210205078,-48.7086715698242,42.6066055297851,6.20048856735229,1525325336
iw,-68.7842407226562,-49.2806358337402,43.6825408935546,32.0839195251464,1525342003
iw,-69.3816528320312,-49.3629531860351,47.8712272644043,3.0198802947998,1525358670
iw,-69.9938812255859,-49.1613540649414,47.0108032226562,-15.4880313873291,1525375337
iw,-70.511116027832,-49.1195449829101,37.4393310546875,-6.77078866958618,1525392004
iw,-70.8987808227539,-49.287914276123,29.0006122589111,6.07345151901245,1525408671
iw,-71.1924896240234,-49.5062026977539,27.7148342132568,9.20462131500244,1525425338
iw,-71.3416366577148,-49.9180641174316,24.2565956115722,20.6996269226074,1525442005
iw,-71.3148956298828,-50.3197059631347,15.9352178573608,22.137502670288,1525458672
iw,-71.2954788208007,-50.6872940063476,5.45374536514282,16.5676956176757,1525475339
iw,-71.3835830688476,-50.6922149658203,-14.554648399353,-8.47779941558837,1525492006
iw,-71.5921859741211,-50.7256622314453,-47.2181510925293,-7.73359012603759,1525508673
iw,-71.9233856201171,-50.9510879516601,-91.4163589477539,4.86259603500366,1525525340
iw,-72.3530883789062,-51.3341178894043,-119.986495971679,17.5001678466796,1525542007
iw,-72.7332000732421,-52.4935493469238,-131.907119750976,66.1465530395507,1525558674
iw,-72.6410675048828,-54.1983108520507,-156.230010986328,99.4664306640625,1525575341
iw,-71.8995208740234,-55.7594528198242,-160.982299804687,90.5582733154296,1525592008
iw,-70.5156555175781,-57.0937919616699,-167.919448852539,76.0515518188476,1525608675
iw,-68.7119750976562,-58.5035972595214,-167.33396911621,80.5629501342773,1525625342
iw,-66.8881530761718,-60.0977821350097,-150.489517211914,92.0328979492187,1525642009
iw,-64.9677200317382,-61.7076530456543,-144.979553222656,93.5533676147461,1525658676
iw,-62.8216094970703,-63.1942481994628,-153.508346557617,87.0225219726562,1525675343
iw,-60.6580238342285,-64.6156616210937,-153.709930419921,83.684341430664,1525692010
iw,-58.4386291503906,-66.1348648071289,-153.127517700195,89.7753295898437,1525708677
iw,-56.1356887817382,-67.7642059326171,-151.297393798828,96.5567245483398,1525725344
iw,-53.8731079101562,-69.3588790893554,-141.31037902832,94.6076736450195,1525742011
iw,-51.8081130981445,-70.9136734008789,-125.796447753906,92.2741317749023,1525758678
iw,-49.9100456237793,-72.5482788085937,-112.381050109863,97.195556640625,1525775345
iw,-47.8299560546875,-74.1905822753906,-116.133308410644,97.9938049316406,1525792012
iw,-45.6818466186523,-75.7539901733398,-116.686157226562,93.6785888671875,1525808679
iw,-43.7416267395019,-77.2161483764648,-105.680831909179,87.9761734008789,1525825346
iw,-42.280517578125,-78.6555252075195,-80.090461730957,86.5787811279296,1525842013
iw,-41.3175468444824,-80.0751419067382,-54.8616065979003,84.9545745849609,1525858680
iw,-40.7530326843261,-81.4391326904296,-34.3778572082519,80.8021240234375,1525875347
iw,-40.3884201049804,-82.7091674804687,-23.1316967010498,74.1989669799804,1525892014
iw,-40.0848007202148,-83.8810882568359,-19.4808006286621,67.6919708251953,1525908681
iw,-39.5924072265625,-84.9623489379882,-30.4688568115234,62.4716567993164,1525925348
iw,-38.8479843139648,-85.8985977172851,-43.8050804138183,54.0901336669921,1525942015
iw,-38.4690055847168,-86.8827896118164,-21.9032955169677,57.8267097473144,1525958682
iw,-38.7083778381347,-88.0072784423828,15.5529661178588,69.8242034912109,1525975349
iw,-39.0460128784179,-88.9903182983398,20.6038951873779,76.7856979370117,1525992016
iw,-38.9201545715332,-88.917007446289,-8.69439506530761,73.0325698852539,1526008683
iw,-38.4778327941894,-87.9811325073242,-28.0160884857177,69.9932708740234,1526025350
iw,-37.9056892395019,-86.9312667846679,-35.7916946411132,65.1351089477539,1526042017
iw,-37.4422988891601,-85.9474487304687,-29.2330875396728,58.3550872802734,1526058684
iw,-37.0453910827636,-85.0542678833007,-25.1640872955322,51.9866027832031,1526075351
iw,-36.6037483215332,-84.2413253784179,-27.6704959869384,46.5991630554199,1526092018
iw,-36.148193359375,-83.5038146972656,-28.0822067260742,41.595401763916,1526108685
iw,-35.8419532775878,-82.8060684204101,-18.5473365783691,38.7000045776367,1526125352
iw,-35.7322425842285,-82.0559921264648,-6.19758033752441,41.1084823608398,1526142019
iw,-35.3967933654785,-81.2102127075195,-19.6635284423828,46.1520309448242,1526158686
iw,-34.8278656005859,-80.4006881713867,-33.1455612182617,44.409553527832,1526175353
iw,-34.4092025756835,-79.836555480957,-21.6747322082519,30.882863998413,1526192020
iw,-35.1890792846679,-79.7183761596679,49.3597946166992,3.75399112701416,1526208687
iw,-36.5768661499023,-80.1994018554687,82.5127334594726,-32.5814704895019,1526225354
iw,-37.6257286071777,-81.383544921875,61.493423461914,-75.1536178588867,1526242021
iw,-38.1240043640136,-83.1455154418945,28.1344032287597,-113.886917114257,1526258688
iw,-38.65767288208,-85.0427932739257,29.4174919128417,-133.935897827148,1526275355
iw,-39.5816383361816,-86.4100799560546,53.5962333679199,-133.839950561523,1526292022
iw,-40.924087524414,-86.4890441894531,79.2079391479492,-129.984680175781,1526308689
iw,-42.1880187988281,-85.323745727539,75.2050247192382,-132.342559814453,1526325356
iw,-43.3881912231445,-83.4679641723632,75.9060287475586,-149.03335571289,1526342023
iw,-44.5956573486328,-81.3204040527343,82.8977508544921,-155.142593383789,1526358690
iw,-45.8745613098144,-79.1631698608398,91.146484375,-146.405090332031,1526375357
iw,-47.3682174682617,-76.9406661987304,101.409797668457,-144.333892822265,1526392024
iw,-48.8680191040039,-74.4482192993164,96.673110961914,-157.527603149414,1526408691
iw,-50.1695976257324,-71.5892105102539,81.6025161743164,-177.536636352539,1526425358
iw,-51.3566818237304,-68.5724258422851,72.7190246582031,-185.776702880859,1526442025
iw,-52.5036811828613,-65.7195053100586,67.9158325195312,-175.471328735351,1526458692
iw,-53.6773223876953,-63.1122817993164,66.3860092163086,-160.144058227539,1526475359
iw,-55.0066146850585,-61.1027908325195,74.6878051757812,-123.463508605957,1526492026
iw,-56.5276565551757,-59.3387184143066,87.7516860961914,-108.17259979248,1526508693
iw,-58.101203918457,-57.2018737792968,91.3674926757812,-130.078796386718,1526525360
iw,-59.6580162048339,-55.0257759094238,94.0480880737304,-132.243591308593,1526542027
iw,-60.9874687194824,-52.9790496826171,88.6164627075195,-124.86360168457,1526558694
iw,-62.1519012451171,-50.8518753051757,88.7262573242187,-129.90364074707,1526575361
iw,-63.3301925659179,-48.8757743835449,94.1145248413086,-120.715415954589,1526592028
iw,-64.4643783569336,-47.4254188537597,95.2000274658203,-89.0746917724609,1526608695
iw,-65.3336486816406,-46.5676002502441,86.9404525756836,-53.5797500610351,1526625362
iw,-65.9392547607421,-46.4800796508789,80.6666717529296,-7.31963205337524,1526642029
iw,-66.3177337646484,-47.0252227783203,74.7010879516601,31.5066585540771,1526658696
iw,-66.5617370605468,-47.8647880554199,66.663818359375,49.5177307128906,1526675363
iw,-66.7704849243164,-48.4622344970703,54.6537399291992,34.6033821105957,1526692030
iw,-67.077033996582,-48.3518600463867,51.3854255676269,-8.24960136413574,1526708697
iw,-67.5293655395507,-47.9984512329101,55.6390228271484,-23.202781677246,1526725364
iw,-68.0639114379882,-48.1519584655761,53.9484748840332,7.11817073822021,1526742031
iw,-68.6139755249023,-48.2720527648925,46.5398139953613,5.10106229782104,1526758698
iw,-69.1779327392578,-48.0625,38.8939971923828,-15.5192384719848,1526775365
iw,-69.7235870361328,-47.838752746582,31.3488845825195,-16.6814880371093,1526792032
iw,-70.2231750488281,-47.6887550354003,24.950698852539,-11.9625520706176,1526808699
iw,-70.7140579223632,-47.491397857666,22.6521244049072,-14.4958477020263,1526825366
iw,-71.1911315917968,-47.3613777160644,23.8414592742919,-11.0767107009887,1526842033
iw,-71.5324935913086,-47.3825607299804,20.4121208190917,-1.9920562505722,1526858700
iw,-71.7066116333007,-47.316608428955,18.1171894073486,-6.80131673812866,1526875367
iw,-71.7919311523437,-47.1928939819335,17.1417484283447,-12.3388757705688,1526892034
iw,-71.8401794433593,-46.8990249633789,11.0493240356445,-24.5880584716796,1526908701
iw,-71.8649597167968,-46.6051750183105,-9.5447301864624,-26.6941089630126,1526925368
iw,-71.8982162475586,-46.8101844787597,-46.9782943725585,2.12083482742309,1526942035
iw,-71.9444274902343,-47.6072883605957,-84.6563262939453,40.8076210021972,1526958702
iw,-71.9664001464843,-48.8254280090332,-103.117118835449,70.1564559936523,1526975369
iw,-72.0024795532226,-50.3940277099609,-111.335540771484,92.1928939819336,1526992036
iw,-71.8922882080078,-52.0088157653808,-122.21410369873,94.0690612792968,1527008703
iw,-71.2548217773437,-53.4126777648925,-140.327575683593,80.8970565795898,1527025370
iw,-69.8675003051757,-54.7561836242675,-163.654144287109,77.462287902832,1527042037
iw,-68.1223526000976,-56.1213607788085,-162.30044555664,78.9724197387695,1527058704
iw,-66.4077987670898,-57.495807647705,-143.070907592773,79.5369873046875,1527075371
iw,-64.698127746582,-58.9603195190429,-129.349136352539,85.0149307250976,1527092038
iw,-62.7846984863281,-60.5365829467773,-135.485610961914,92.1065521240234,1527108705
iw,-60.7190704345703,-62.130500793457,-142.339035034179,93.5912551879882,1527125372
iw,-58.6236038208007,-63.6606369018554,-141.618011474609,90.2622909545898,1527142039
iw,-56.5688743591308,-65.1301040649414,-133.601776123046,86.8754196166992,1527158706
iw,-54.6281394958496,-66.5751266479492,-122.054908752441,85.406494140625,1527175373
iw,-52.7498626708984,-68.0554428100586,-114.697402954101,87.5454788208007,1527192040
iw,-50.9804649353027,-69.5878295898437,-103.358901977539,90.7797470092773,1527208707
iw,-49.147663116455,-71.1543731689453,-102.264694213867,92.8719787597656,1527225374
iw,-47.2393150329589,-72.7342681884765,-103.31753540039,93.8141555786132,1527242041
iw,-45.4634132385253,-74.3039245605468,-97.0658416748046,93.4942626953125,1527258708
iw,-43.9680557250976,-75.8852310180664,-83.1844863891601,94.4596557617187,1527275375
iw,-42.830223083496,-77.4976196289062,-63.7218055725097,96.2990951538086,1527292042
iw,-41.9860954284668,-79.1452941894531,-48.2136650085449,98.3825378417968,1527308709
iw,-41.4148178100585,-80.789794921875,-32.1895294189453,98.5375213623046,1527325376
iw,-41.02193069458,-82.392333984375,-22.6374244689941,96.3230972290039,1527342043
iw,-40.6853599548339,-83.9339523315429,-21.4754524230957,92.227294921875,1527358710
iw,-40.1315155029296,-85.4784851074218,-35.172119140625,92.2670669555664,1527375377
iw,-39.5305595397949,-87.0703659057617,-36.9742622375488,97.7118530273437,1527392044
iw,-39.1358642578125,-88.4676208496093,-23.9744777679443,98.1302261352539,1527408711
iw,-38.824836730957,-88.8577346801757,-18.9551029205322,79.8429489135742,1527425378
iw,-38.48579788208,-88.3033828735351,-19.38667678833,60.0311965942382,1527442045
iw,-38.2691192626953,-87.6083755493164,-11.9856615066528,47.606101989746,1527458712
iw,-38.0122299194335,-86.7975921630859,-16.4007263183593,50.7037467956543,1527475379
iw,-37.5726814270019,-85.8787384033203,-27.9940185546875,56.3589973449707,1527492046
iw,-37.0485725402832,-84.9604415893554,-32.7923240661621,55.3680877685546,1527508713
iw,-36.6283378601074,-84.041748046875,-26.0890598297119,54.3608779907226,1527525380
iw,-36.3302154541015,-83.2103118896484,-18.0586471557617,47.8289833068847,1527542047
iw,-36.2354621887207,-82.5341796875,-5.41935110092163,37.0868263244628,1527558714
iw,-36.2930335998535,-82.02001953125,4.03097295761108,26.326171875,1527575381
iw,-36.4430618286132,-81.5990295410156,9.9212646484375,20.9202404022216,1527592048
iw,-36.5965766906738,-81.1782913208007,10.4370937347412,21.8729209899902,1527608715
iw,-36.645408630371,-80.7049407958984,4.09499454498291,25.6147060394287,1527625382
iw,-36.6870231628418,-80.2825622558593,4.94579267501831,23.1141090393066,1527642049
iw,-36.6267700195312,-80.1114501953125,1.6125042438507,7.66965007781982,1527658716
iw,-37.3421745300293,-80.2390823364257,47.77876663208,-12.4471549987792,1527675383
iw,-38.7874107360839,-80.662368774414,88.2430191040039,-31.973045349121,1527692050
iw,-39.8530082702636,-81.5267868041992,63.6117095947265,-58.9589309692382,1527708717
iw,-40.4108276367187,-82.9332885742187,32.7741088867187,-94.5903930664062,1527725384
iw,-40.8821716308593,-84.5745849609375,25.8917121887207,-119.35814666748,1527742051
iw,-41.7976760864257,-85.9095001220703,54.528205871582,-128.37368774414,1527758718
iw,-42.9943122863769,-86.2367248535156,73.7248764038086,-125.235984802246,1527775385
iw,-44.2573852539062,-85.3838272094726,78.055419921875,-130.68797302246,1527792052
iw,-45.2284317016601,-83.691650390625,61.2955169677734,-145.869491577148,1527808719
iw,-46.2840118408203,-81.5203857421875,71.8436431884765,-161.23583984375,1527825386
iw,-47.5103607177734,-79.1780776977539,88.3544082641601,-163.222503662109,1527842053
iw,-48.7781105041503,-76.8620147705078,91.3710784912109,-154.649429321289,1527858720
iw,-50.0222778320312,-74.4193649291992,85.8273620605468,-157.531753540039,1527875387
iw,-51.1910362243652,-71.7501983642578,76.7735824584961,-167.613388061523,1527892054
iw,-52.3496971130371,-68.9099731445312,72.4468841552734,-175.316192626953,1527908721
iw,-53.5225028991699,-66.1837844848632,69.505256652832,-167.351104736328,1527925388
iw,-54.7065887451171,-63.6677932739257,65.6243438720703,-154.175460815429,1527942055
iw,-55.8995170593261,-61.4696044921875,64.4061126708984,-134.527084350585,1527958722
iw,-57.1752395629882,-59.5632400512695,71.5634231567382,-116.207580566406,1527975389
iw,-58.4602470397949,-57.5089149475097,75.3577651977539,-124.376205444335,1527992056
iw,-59.7037506103515,-55.3822860717773,74.4592819213867,-128.501632690429,1528008723
iw,-60.7441596984863,-53.4738006591796,67.3602066040039,-115.807540893554,1528025390
iw,-61.6673545837402,-51.4522819519043,70.2210540771484,-123.13655090332,1528042057
iw,-62.6219329833984,-49.4030532836914,80.1595764160156,-125.034957885742,1528058724
iw,-63.4509201049804,-47.8622360229492,81.5853729248046,-94.5640029907226,1528075391
iw,-64.0394210815429,-47.0763969421386,72.5478820800781,-49.0702171325683,1528092058
iw,-64.5226135253906,-46.8805847167968,67.8246459960937,-13.5848121643066,1528108725
iw,-64.9289016723632,-47.0896072387695,63.4846954345703,10.8564720153808,1528125392
iw,-65.3192138671875,-47.8656539916992,60.1310729980468,45.7409782409668,1528142059
iw,-65.7261657714843,-48.9610862731933,55.4513816833496,65.2544403076171,1528158726
iw,-66.1922454833984,-49.7464523315429,53.0840759277343,45.9441680908203,1528175393
iw,-66.7730102539062,-49.5948257446289,57.6548233032226,-11.2161388397216,1528192060
iw,-67.4081649780273,-49.3868370056152,58.30904006958,-15.508915901184,1528208727
iw,-68.0175247192382,-49.5110855102539,56.8230819702148,5.53353834152221,1528225394
iw,-68.4974594116211,-49.3938102722168,50.0761489868164,-9.41909408569336,1528242061
iw,-68.8223342895507,-48.971622467041,37.8439712524414,-29.2240200042724,1528258728
iw,-69.0796203613281,-48.4931411743164,28.1485061645507,-32.6341438293457,1528275395
iw,-69.3888168334961,-48.1132507324218,27.7037734985351,-25.9056205749511,1528292062
iw,-69.7339096069336,-47.7153053283691,29.0712566375732,-27.1490631103515,1528308729
iw,-70.084602355957,-47.527473449707,26.4829330444335,-15.2347249984741,1528325396
iw,-70.4207687377929,-47.593765258789,23.5528259277343,0.779790759086608,1528342063
iw,-70.7204971313476,-47.6638069152832,20.6638603210449,1.38402104377746,1528358730
iw,-71.0343322753906,-47.6555976867675,11.8798465728759,-5.44743251800537,1528375397
iw,-71.3593673706054,-47.4080619812011,2.09067296981811,-21.7704238891601,1528392064
iw,-71.6330032348632,-47.1199722290039,-20.2037048339843,-26.0703239440917,1528408731
iw,-71.8478851318359,-47.1516647338867,-56.0688209533691,-7.51237392425537,1528425398
iw,-72.0048217773437,-47.6752281188964,-95.2293624877929,24.1790466308593,1528442065
iw,-72.1285629272461,-48.7220878601074,-112.301307678222,57.6904067993164,1528458732
iw,-72.2537765502929,-50.1000061035156,-122.045974731445,79.0859146118164,1528475399
iw,-72.0406951904296,-51.5117454528808,-138.186874389648,81.4823150634765,1528492066
iw,-71.1520385742187,-52.8595466613769,-160.031616210937,77.6522521972656,1528508733
iw,-69.5462799072265,-54.2605094909668,-176.599731445312,81.1902236938476,1528525400
iw,-67.7185821533203,-55.6855125427246,-165.302581787109,82.8251113891601,1528542067
iw,-65.9796829223632,-57.1470184326171,-140.76138305664,84.6788177490234,1528558734
iw,-64.1256561279296,-58.6572265625,-135.023620605468,87.6093063354492,1528575401
iw,-62.0734710693359,-60.1848220825195,-142.634231567382,89.1508331298828,1528592068
iw,-59.9522857666015,-61.7368240356445,-144.892578125,91.1614990234375,1528608735
iw,-57.8053665161132,-63.295597076416,-143.64207458496,91.8300170898437,1528625402
iw,-55.6861038208007,-64.8703689575195,-137.135589599609,92.8609008789062,1528642069
iw,-53.6902847290039,-66.5019836425781,-124.0747756958,96.3388366699218,1528658736
iw,-51.7290649414062,-68.2420501708984,-119.251228332519,103.002822875976,1528675403
iw,-49.7063179016113,-70.0281600952148,-120.039932250976,105.86181640625,1528692070
iw,-47.5137748718261,-71.8841247558593,-125.009071350097,110.144142150878,1528708737
iw,-45.344482421875,-73.7778091430664,-121.840141296386,112.799049377441,1528725404
iw,-43.5603904724121,-75.6251144409179,-99.6651153564453,110.837181091308,1528742071
iw,-42.1237754821777,-77.382209777832,-80.1382598876953,106.076553344726,1528758738
iw,-41.0468025207519,-79.0662231445312,-61.963020324707,101.260719299316,1528775405
iw,-40.2941055297851,-80.7216339111328,-44.8526649475097,98.5330810546875,1528792072
iw,-39.8477745056152,-82.3584365844726,-27.0871868133544,97.1582489013671,1528808739
iw,-39.5519485473632,-83.9415206909179,-18.6650333404541,94.5711212158203,1528825406
iw,-39.0595512390136,-85.4879455566406,-30.4181385040283,93.2599411010742,1528842073
iw,-38.4823036193847,-87.0299453735351,-34.5244064331054,95.5494232177734,1528858740
iw,-38.1309623718261,-88.3296508789062,-21.2917346954345,89.3580169677734,1528875407
iw,-38.0516700744628,-88.937255859375,-3.73631119728088,69.382453918457,1528892074
iw,-38.1982307434082,-88.8002548217773,11.1422529220581,48.9724655151367,1528908741
iw,-38.05757522583,-88.3746643066406,-7.91793251037597,35.895652770996,1528925408
iw,-37.7787208557128,-87.6967544555664,-17.4525470733642,42.3052787780761,1528942075
iw,-37.4482192993164,-86.6485290527343,-21.0822734832763,62.6365852355957,1528958742
iw,-37.0394134521484,-85.2831649780273,-26.0991706848144,81.5029220581054,1528975409
iw,-36.6268043518066,-83.9858474731445,-26.0918979644775,76.8498382568359,1528992076
iw,-36.2714309692382,-82.9134063720703,-22.1913547515869,62.3573112487793,1529008743
iw,-36.019302368164,-82.0780639648437,-15.4464664459228,46.7031860351562,1529025410
iw,-35.9351196289062,-81.4723968505859,-4.715416431427,31.6898918151855,1529042077
iw,-36.0138969421386,-81.0131912231445,5.82664442062377,23.4046249389648,1529058744
iw,-36.2408866882324,-80.5367279052734,15.3254318237304,26.13596534729,1529075411
iw,-36.3243522644043,-79.9710083007812,6.53013896942138,32.3509216308593,1529092078
iw,-36.2134399414062,-79.3279418945312,-4.91777276992797,37.0036277770996,1529108745
iw,-35.8994369506835,-78.8662643432617,-14.6386079788208,25.464162826538,1529125412
iw,-35.9461860656738,-78.6890640258789,7.89837217330932,6.94794130325317,1529142079
iw,-36.9302749633789,-78.8170471191406,60.6851463317871,-13.3078279495239,1529158746
iw,-37.9514007568359,-79.3796081542968,60.4289932250976,-39.3612480163574,1529175413
iw,-38.4502487182617,-80.5211410522461,28.0775108337402,-74.5150451660156,1529192080
iw,-38.7515602111816,-82.1703491210937,13.3480062484741,-108.912452697753,1529208747
iw,-39.4896049499511,-83.966194152832,40.3812522888183,-124.635131835937,1529225414
iw,-40.7130508422851,-85.4905929565429,73.7783279418945,-125.407440185546,1529242081
iw,-42.0750465393066,-86.27001953125,83.5152282714843,-123.297035217285,1529258748
iw,-43.1675033569335,-85.9198989868164,66.7301406860351,-125.895370483398,1529275415
iw,-44.3485832214355,-84.6237106323242,76.2774505615234,-133.328292846679,1529292082
iw,-45.7055702209472,-82.7973709106445,95.6208419799804,-142.94775390625,1529308749
iw,-47.1301803588867,-80.7641220092773,105.233039855957,-144.113174438476,1529325416
iw,-48.5683479309082,-78.6421813964843,103.272712707519,-142.826965332031,1529342083
iw,-49.9953079223632,-76.2674179077148,96.6862258911132,-153.922790527343,1529358750
iw,-51.277042388916,-73.4992980957031,83.9821319580078,-173.984649658203,1529375417
iw,-52.4251708984375,-70.7949142456054,74.0325622558593,-167.210128784179,1529392084
iw,-53.5274810791015,-68.3088073730468,69.8704071044921,-152.976181030273,1529408751
iw,-54.6921463012695,-66.1779174804687,70.4457397460937,-131.775177001953,1529425418
iw,-56.0397796630859,-64.3406600952148,78.9197921752929,-114.382919311523,1529442085
iw,-57.6035079956054,-62.432559967041,92.5780410766601,-117.837059020996,1529458752
iw,-59.0662956237793,-60.1920661926269,87.2527542114257,-137.032119750976,1529475419
iw,-60.2294425964355,-57.9321708679199,68.8995590209961,-138.36050415039,1529492086
iw,-61.0372428894043,-55.7781600952148,53.471076965332,-132.629440307617,1529508753
iw,-61.6577835083007,-53.3423881530761,53.8085212707519,-149.68000793457,1529525420
iw,-62.2627944946289,-51.1573257446289,61.7365837097168,-134.245651245117,1529542087
iw,-62.9158248901367,-49.332893371582,70.3683700561523,-112.057495117187,1529558754
iw,-63.6011505126953,-48.0915718078613,77.3666763305664,-76.4578018188476,1529575421
iw,-64.3411102294921,-47.3667068481445,86.4173431396484,-45.1206855773925,1529592088
iw,-65.0439987182617,-46.973388671875,88.4053421020507,-25.3367099761962,1529608755
iw,-65.6616592407226,-47.026798248291,80.6349639892578,1.14105808734893,1529625422
iw,-66.1442794799804,-47.2764511108398,64.8011093139648,13.2464685440063,1529642089
iw,-66.54248046875,-47.8218345642089,50.6146011352539,31.0467205047607,1529658756
iw,-66.8347778320312,-48.3422355651855,35.674144744873,29.4386920928955,1529675423
iw,-67.0723724365234,-48.9022560119628,28.0435523986816,31.9282188415527,1529692090
iw,-67.3677215576171,-49.1512260437011,36.8032608032226,13.3646097183227,1529708757
iw,-67.7202987670898,-49.26265335083,44.3682746887207,4.86547994613647,1529725424
iw,-68.0953140258789,-49.4160118103027,42.8320732116699,7.44420099258422,1529742091
iw,-68.4922103881836,-49.4168014526367,39.4526100158691,-1.48624110221862,1529758758
iw,-68.9114685058593,-49.4120178222656,35.419319152832,-2.03416323661804,1529775425
iw,-69.3506851196289,-49.473518371582,28.2350959777832,1.81465005874633,1529792092
iw,-69.7416229248046,-49.7111473083496,17.7217788696289,12.3418092727661,1529808759
iw,-70.0060882568359,-50.036563873291,15.000370979309,17.6151237487792,1529825426
iw,-70.112190246582,-50.2889976501464,19.3323459625244,13.2056398391723,1529842093
iw,-70.0851058959961,-49.9697875976562,20.9337368011474,-21.3551845550537,1529858760
iw,-69.946060180664,-48.9612274169921,10.8495502471923,-63.5540313720703,1529875427
iw,-69.7643203735351,-48.1248397827148,-9.02069568634033,-55.2396507263183,1529892094
iw,-69.6589889526367,-47.8004264831543,-38.5027198791503,-26.0766677856445,1529908761
iw,-69.6445541381836,-48.2337341308593,-75.3447189331054,21.5238323211669,1529925428
iw,-69.6423416137695,-49.42915725708,-99.6501235961914,69.9655456542968,1529942095
iw,-69.7043914794921,-50.9580116271972,-105.137573242187,90.6526794433593,1529958762
iw,-69.7800521850586,-52.4415283203125,-117.224021911621,86.9056167602539,1529975429
iw,-69.5865631103515,-53.6204490661621,-132.956008911132,67.2925872802734,1529992096
iw,-68.8333740234375,-54.7504653930664,-145.71858215332,64.3955917358398,1530008763
iw,-67.52734375,-56.0435180664062,-153.682235717773,75.1932144165039,1530025430
iw,-66.017593383789,-57.3705444335937,-145.965759277343,77.3955535888671,1530042097
iw,-64.4074249267578,-58.6095962524414,-136.572448730468,71.771728515625,1530058764
iw,-62.55615234375,-59.8897018432617,-140.901107788085,74.0768890380859,1530075431
iw,-60.5419654846191,-61.2601165771484,-144.311080932617,79.6569290161132,1530092098
iw,-58.6035346984863,-62.5979347229003,-133.918106079101,78.0699996948242,1530108765
iw,-56.725170135498,-63.8377304077148,-127.592140197753,72.4829025268554,1530125432
iw,-54.8386192321777,-65.0528793334961,-122.930084228515,71.1187438964843,1530142099
iw,-52.8611145019531,-66.3440475463867,-124.848220825195,75.845474243164,1530158766
iw,-50.786506652832,-67.6923904418945,-128.367874145507,79.4137420654296,1530175433
iw,-48.7252578735351,-69.0471801757812,-123.889739990234,79.8337936401367,1530192100
iw,-46.7047386169433,-70.4139328002929,-117.680076599121,80.5717697143554,1530208767
iw,-44.70751953125,-71.8194961547851,-115.123588562011,83.0262451171875,1530225434
iw,-42.9686470031738,-73.1837997436523,-100.374198913574,80.8645858764648,1530242101
iw,-41.4883956909179,-74.5018692016601,-86.4083862304687,78.4423065185546,1530258768
iw,-40.3290367126464,-75.8191680908203,-68.7228393554687,78.5940399169921,1530275435
iw,-39.6377258300781,-77.1361846923828,-42.1222496032714,78.596694946289,1530292102
iw,-39.24853515625,-78.45361328125,-25.3233375549316,78.4222183227539,1530308769
iw,-38.9707984924316,-79.7863388061523,-19.173147201538,78.8754043579101,1530325436
iw,-38.6129264831543,-81.2171630859375,-23.927978515625,84.5502624511718,1530342103
iw,-38.1110572814941,-82.7507858276367,-31.7417812347412,91.0577087402343,1530358770
iw,-37.6505432128906,-84.2669143676757,-28.6193599700927,90.3136596679687,1530375437
iw,-37.4569129943847,-85.7385559082031,-12.0270891189575,87.3747863769531,1530392104
iw,-37.5260925292968,-87.2164611816406,4.25607109069824,87.810302734375,1530408771
iw,-37.4789123535156,-88.5915298461914,-3.81551098823547,85.2001419067382,1530425438
iw,-37.1545372009277,-89.3121566772461,-21.0800704956054,72.2574081420898,1530442105
iw,-36.7048263549804,-88.7255859375,-28.5841903686523,57.8777046203613,1530458772
iw,-36.2525253295898,-87.7417221069336,-28.6961631774902,60.658878326416,1530475439
iw,-35.8461227416992,-86.4755783081054,-25.8750476837158,75.5124588012695,1530492106
iw,-35.4942550659179,-85.046630859375,-22.4641494750976,85.841567993164,1530508773
iw,-35.1684455871582,-83.7530746459961,-20.6987438201904,77.7962265014648,1530525440
iw,-34.8114318847656,-82.8055725097656,-22.2660789489746,56.2000999450683,1530542107
iw,-34.5352630615234,-82.1470031738281,-16.9527721405029,37.2519035339355,1530558774
iw,-34.3266983032226,-81.5769271850586,-12.6599979400634,30.2283744812011,1530575441
iw,-33.9768753051757,-80.9204177856445,-21.0855522155761,34.3933219909668,1530592108
iw,-33.5967483520507,-80.2315902709961,-22.2624607086181,37.1536598205566,1530608775
iw,-33.6695365905761,-79.701171875,5.71316337585449,28.8643894195556,1530625442
iw,-34.6863670349121,-79.5135269165039,60.7197761535644,8.31484031677246,1530642109
iw,-35.746841430664,-79.9240951538086,61.9766120910644,-28.0627212524414,1530658776
iw,-36.2651290893554,-81.0186920166015,29.527000427246,-69.9892578125,1530675443
iw,-36.6581916809082,-82.6484375,21.1298923492431,-105.818046569824,1530692110
iw,-37.3782348632812,-84.420654296875,40.1408042907714,-122.117919921875,1530708777
iw,-38.6339073181152,-85.9121856689453,73.1261367797851,-122.941886901855,1530725444
iw,-40.0707359313964,-86.6024703979492,86.4274139404296,-118.617454528808,1530742111
iw,-41.3627243041992,-86.1569747924804,80.7351837158203,-120.502952575683,1530758778
iw,-42.6415672302246,-84.8232040405273,84.3755340576171,-131.274963378906,1530775445
iw,-44.0081558227539,-82.8491973876953,94.5565567016601,-147.821838378906,1530792112
iw,-45.600528717041,-80.7091903686523,109.033065795898,-143.637145996093,1530808779
iw,-47.2247085571289,-78.6563873291015,108.254020690917,-133.669952392578,1530825446
iw,-48.7365226745605,-76.4653396606445,99.6712951660156,-140.555343627929,1530842113
iw,-50.1103858947753,-73.9638977050781,90.598274230957,-157.064758300781,1530858780
iw,-51.3592109680175,-71.2960891723632,82.3318176269531,-164.483078002929,1530875447
iw,-52.5361824035644,-68.9732666015625,76.9680099487304,-142.390411376953,1530892114
iw,-53.6417160034179,-67.0809783935546,68.9267807006836,-117.214820861816,1530908781
iw,-54.7778930664062,-65.5343933105468,66.8699264526367,-97.2779846191406,1530925448
iw,-56.1277618408203,-63.9418830871582,78.0191879272461,-99.822883605957,1530942115
iw,-57.5526962280273,-62.0555877685546,80.1736984252929,-116.430221557617,1530958782
iw,-58.9879035949707,-60.0704231262207,79.7776336669921,-121.862121582031,1530975449
iw,-60.2869796752929,-58.1559181213378,76.7867050170898,-117.698051452636,1530992116
iw,-61.2983474731445,-56.2126884460449,66.0945281982421,-119.658485412597,1531008783
iw,-62.0891609191894,-54.153263092041,58.4109115600585,-126.728790283203,1531025450
iw,-62.8080177307128,-52.2599296569824,57.7058868408203,-116.731536865234,1531042117
iw,-63.461139678955,-50.7828140258789,57.0576705932617,-91.7231292724609,1531058784
iw,-63.9916343688964,-49.8502197265625,53.0242004394531,-58.6438941955566,1531075451
iw,-64.4542999267578,-49.321231842041,52.2202911376953,-33.962963104248,1531092118
iw,-64.8831100463867,-49.1314239501953,51.7988739013671,-13.2990474700927,1531108785
iw,-65.2906112670898,-49.1770629882812,50.7958488464355,0.69243448972702,1531125452
iw,-65.7651824951171,-49.4062042236328,53.9141387939453,11.4667568206787,1531142119
iw,-66.3861999511718,-49.7642211914062,61.374900817871,19.5919151306152,1531158786
iw,-67.1629104614257,-50.2841186523437,67.2494277954101,29.3224906921386,1531175453
iw,-68.0025482177734,-50.7740859985351,69.8468627929687,27.3024063110351,1531192120
iw,-68.7458038330078,-51.1365356445312,64.8683013916015,19.0411472320556,1531208787
iw,-69.2721862792968,-51.0170249938964,55.2300643920898,-10.7972507476806,1531225454
iw,-69.6744842529296,-50.8303756713867,53.2374725341796,-15.2128562927246,1531242121
iw,-70.0272216796875,-50.6741752624511,53.3227081298828,-12.5558605194091,1531258788
iw,-70.3528518676757,-50.3758888244628,50.0828208923339,-20.6498622894287,1531275455
iw,-70.6357803344726,-49.9615783691406,44.536033630371,-28.0646858215332,1531292122
iw,-70.9183807373046,-49.4901390075683,37.8173904418945,-32.2453155517578,1531308789
iw,-71.2404251098632,-49.1364440917968,29.5501098632812,-26.0189628601074,1531325456
iw,-71.640869140625,-48.937156677246,28.7524642944335,-17.4883632659912,1531342123
iw,-72.0821838378906,-48.969482421875,30.9128894805908,-3.13397693634033,1531358790
iw,-72.4769515991211,-48.7841911315918,27.8164730072021,-13.9140758514404,1531375457
iw,-72.8030166625976,-48.4064407348632,21.8636226654052,-26.4261875152587,1531392124
iw,-72.9907455444336,-47.8652915954589,15.4838542938232,-38.7446708679199,1531408791
iw,-73.0407562255859,-47.4070396423339,3.94643688201904,-35.2646598815918,1531425458
iw,-73.0812454223632,-47.2699966430664,-23.9570331573486,-16.5109977722167,1531442125
iw,-73.1679000854492,-47.7449569702148,-60.5617370605468,22.1677322387695,1531458792
iw,-73.1820526123046,-48.6818046569824,-94.3579711914062,52.3907661437988,1531475459
iw,-73.0495834350586,-50.0484390258789,-103.920867919921,79.2824783325195,1531492126
iw,-72.8493728637695,-51.6866645812988,-103.648719787597,94.8077392578125,1531508793
iw,-72.5608367919921,-53.2215499877929,-118.58666229248,87.301887512207,1531525460
iw,-72.0406112670898,-54.5883445739746,-132.385070800781,76.8152694702148,1531542127
iw,-70.973518371582,-55.9628181457519,-155.56346130371,77.4469223022461,1531558794
iw,-69.4410552978515,-57.3789939880371,-163.459716796875,80.5557708740234,1531575461
iw,-67.7863616943359,-58.717845916748,-149.211471557617,76.1465911865234,1531592128
iw,-66.0855102539062,-60.0526618957519,-135.495147705078,76.4349594116211,1531608795
iw,-64.332649230957,-61.4750213623046,-130.403884887695,82.4931869506836,1531625462
iw,-62.5176429748535,-62.9231338500976,-132.343215942382,84.8379516601562,1531642129
iw,-60.5694274902343,-64.2922744750976,-139.299652099609,80.4964294433593,1531658796
iw,-58.522045135498,-65.6140365600586,-141.380615234375,77.922004699707,1531675463
iw,-56.5056915283203,-66.9651641845703,-133.823699951171,79.9498291015625,1531692130
iw,-54.5621376037597,-68.3492584228515,-120.477912902832,82.0589141845703,1531708797
iw,-52.5645065307617,-69.7130889892578,-114.478538513183,80.8237838745117,1531725464
iw,-50.4270439147949,-71.0597839355468,-113.824699401855,79.9535064697265,1531742131
iw,-48.2591323852539,-72.4360809326171,-110.18130493164,81.9733963012695,1531758798
iw,-46.1300888061523,-73.8017959594726,-110.982818603515,81.8106460571289,1531775465
iw,-44.2458724975585,-75.1534576416015,-102.416107177734,81.4290771484375,1531792132
iw,-42.7493362426757,-76.4581832885742,-83.5864639282226,78.3675308227539,1531808799
iw,-41.6487426757812,-77.6982955932617,-61.9471397399902,73.6945343017578,1531825466
iw,-40.8797454833984,-78.819107055664,-43.7031211853027,65.7320480346679,1531842133
iw,-40.3244934082031,-79.8599395751953,-32.236343383789,60.3691940307617,1531858800
iw,-39.8930130004882,-80.9340438842773,-26.305419921875,62.2356376647949,1531875467
iw,-39.4464149475097,-82.0764770507812,-28.3461456298828,66.5507202148437,1531892134
iw,-39.0202751159668,-83.2908020019531,-27.2992877960205,71.2679595947265,1531908801
iw,-38.5889663696289,-84.5680465698242,-27.0148944854736,75.154296875,1531925468
iw,-38.1908378601074,-85.8304061889648,-24.042495727539,74.0028839111328,1531942135
iw,-37.8155517578125,-87.0729675292968,-21.5477123260498,72.7948837280273,1531958802
iw,-37.3759956359863,-88.3639831542968,-25.0368614196777,76.7819290161132,1531975469
iw,-37.0366706848144,-89.4717712402343,-19.1421146392822,75.8564682006836,1531992136
iw,-36.6513671875,-88.9797134399414,-22.2128887176513,68.9867477416992,1532008803
iw,-36.2967262268066,-87.7852096557617,-21.3301811218261,73.2088241577148,1532025470
iw,-36.1293411254882,-86.4007110595703,-10.984540939331,81.9498901367187,1532042137
iw,-35.9163284301757,-84.9802703857421,-13.7199697494506,83.3490447998046,1532058804
iw,-35.6688385009765,-83.7546463012695,-15.4530420303344,71.9021911621093,1532075471
iw,-35.4889411926269,-82.7005310058593,-11.1018476486206,61.8880500793457,1532092138
iw,-35.3803405761718,-81.7926635742187,-6.6813735961914,51.9401359558105,1532108805
iw,-35.2834548950195,-81.0566864013671,-5.84271001815795,39.9627685546875,1532125472
iw,-35.2419815063476,-80.3264694213867,-2.24174380302429,39.2732810974121,1532142139
iw,-34.942268371582,-79.487075805664,-17.6412391662597,46.1614456176757,1532158806
iw,-34.5905303955078,-78.6718444824218,-20.2955265045166,45.3199577331543,1532175473
iw,-34.3290100097656,-78.1628723144531,-13.4626579284667,27.5858879089355,1532192140
iw,-34.9432830810546,-78.0942153930664,38.7967071533203,0.782872438430786,1532208807
iw,-36.0754661560058,-78.634033203125,67.3994140625,-36.6217765808105,1532225474
iw,-36.9070320129394,-79.8613128662109,48.5544624328613,-78.814094543457,1532242141
iw,-37.2814598083496,-81.68994140625,20.6813621520996,-119.262290954589,1532258808
iw,-37.8284378051757,-83.6848449707031,30.1664218902587,-139.903564453125,1532275475
iw,-38.8045539855957,-85.2464294433593,57.4730033874511,-136.661102294921,1532292142
iw,-40.2287712097168,-85.8651657104492,86.3226242065429,-125.046821594238,1532308809
iw,-41.5670700073242,-85.4953689575195,82.5435714721679,-123.959831237792,1532325476
iw,-42.7011909484863,-84.2569351196289,73.2608337402343,-140.460571289062,1532342143
iw,-43.8672866821289,-82.3257064819336,80.6480560302734,-156.795761108398,1532358810
iw,-45.1128959655761,-80.2535552978515,88.7008361816406,-147.428802490234,1532375477
iw,-46.5223007202148,-78.1523132324218,96.0029678344726,-141.468826293945,1532392144
iw,-47.9432411193847,-75.7888717651367,91.622688293457,-153.209732055664,1532408811
iw,-49.2486114501953,-73.1160888671875,80.7637329101562,-169.008209228515,1532425478
iw,-50.4657821655273,-70.2143402099609,72.9461135864257,-180.205871582031,1532442145
iw,-51.6589279174804,-67.5034103393554,70.3672943115234,-167.306335449218,1532458812
iw,-52.8536033630371,-65.2151870727539,69.0683364868164,-141.723236083984,1532475479
iw,-54.134780883789,-63.421775817871,74.0278396606445,-112.202011108398,1532492146
iw,-55.5824928283691,-61.8390235900878,85.3296279907226,-99.5476455688476,1532508813
iw,-57.1734504699707,-60.043285369873,94.233657836914,-111.506919860839,1532525480
iw,-58.829288482666,-58.0998992919921,101.166694641113,-119.758178710937,1532542147
iw,-60.3209533691406,-56.2738571166992,97.2197570800781,-112.877693176269,1532558814
iw,-61.6441535949707,-54.0643424987793,96.8424758911132,-136.020904541015,1532575481
iw,-62.7632026672363,-51.8980293273925,95.248176574707,-133.088485717773,1532592148
iw,-63.6490097045898,-50.1915740966796,89.6944732666015,-105.099540710449,1532608815
iw,-64.2517852783203,-49.0930404663085,80.8409881591796,-68.0950164794921,1532625482
iw,-64.6525192260742,-48.47021484375,72.693862915039,-39.6589622497558,1532642149
iw,-65.0639419555664,-48.3671531677246,75.3719635009765,-8.9153938293457,1532658816
iw,-65.478042602539,-48.7676734924316,74.1475830078125,21.9196510314941,1532675483
iw,-65.8030014038086,-49.3102493286132,57.1130905151367,30.7712974548339,1532692150
iw,-66.045051574707,-49.8447265625,38.8385543823242,29.8101501464843,1532708817
iw,-66.3540802001953,-49.7692031860351,37.395336151123,-7.46261548995971,1532725484
iw,-66.7974243164062,-49.5325813293457,44.347354888916,-18.3985118865966,1532742151
iw,-67.1866149902343,-49.6755256652832,37.5303344726562,3.91028928756713,1532758818
iw,-67.48876953125,-49.8818931579589,28.4562397003173,8.25404739379882,1532775485
iw,-67.8138580322265,-49.779369354248,25.4116992950439,-10.6600933074951,1532792152
iw,-68.2260208129882,-49.475730895996,23.7885131835937,-23.906831741333,1532808819
iw,-68.7758407592773,-49.2408180236816,27.2638244628906,-20.181640625,1532825486
iw,-69.3778686523437,-49.1383628845214,29.0033473968505,-12.2672004699707,1532842153
iw,-69.9290618896484,-49.1140098571777,20.3174877166748,-7.95122671127319,1532858820
iw,-70.3609848022461,-49.1713600158691,12.7009925842285,-3.55592608451843,1532875487
iw,-70.6556701660156,-49.4603042602539,8.29927158355712,10.4457035064697,1532892154
iw,-70.8436508178711,-49.8663902282714,8.75220489501953,19.2463264465332,1532908821
iw,-70.985855102539,-50.1646003723144,8.91047573089599,12.3537626266479,1532925488
iw,-71.149673461914,-50.339988708496,1.79685485363006,2.44049978256225,1532942155
iw,-71.3684616088867,-50.4453582763671,-8.80198860168457,-3.60395622253417,1532958822
iw,-71.6452255249023,-50.5877151489257,-27.9142398834228,-3.18046236038208,1532975489
iw,-71.9654998779296,-51.0841064453125,-57.1189002990722,19.572410583496,1532992156
iw,-72.2745971679687,-52.0227699279785,-87.5438842773437,49.3252983093261,1533008823
iw,-72.565559387207,-53.3197860717773,-101.1201171875,72.6357879638671,1533025490
iw,-72.767219543457,-54.7328796386718,-110.735710144042,80.6534118652343,1533042157
iw,-72.4716415405273,-56.0531349182128,-134.396194458007,74.3792037963867,1533058824
iw,-71.4453201293945,-57.2462730407714,-154.58056640625,66.2925720214843,1533075491
iw,-69.7432250976562,-58.431468963623,-170.570266723632,66.1518173217773,1533092158
iw,-67.8018646240234,-59.7304496765136,-163.340362548828,73.6469421386718,1533108825
iw,-65.9479675292968,-61.062744140625,-141.735641479492,76.1132125854492,1533125492
iw,-64.0007553100586,-62.4053230285644,-136.568740844726,77.1173477172851,1533142159
iw,-61.8795547485351,-63.7696800231933,-142.673629760742,79.0491333007812,1533158826
iw,-59.7157173156738,-65.151985168457,-144.305847167968,80.8157653808593,1533175493
iw,-57.5048179626464,-66.5113372802734,-146.633834838867,79.8926620483398,1533192160
iw,-55.3121643066406,-67.9170150756836,-138.843231201171,82.9424972534179,1533208827
iw,-53.253807067871,-69.4470520019531,-125.738563537597,90.3719177246093,1533225494
iw,-51.2446098327636,-71.0701522827148,-120.389732360839,95.8602142333984,1533242161
iw,-49.174949645996,-72.716796875,-120.042594909667,97.1175231933593,1533258828
iw,-46.9803657531738,-74.4076309204101,-121.346740722656,99.6897506713867,1533275495
iw,-44.7517471313476,-76.1280670166015,-120.574180603027,101.609016418457,1533292162
iw,-42.8139495849609,-77.835952758789,-104.478706359863,101.039375305175,1533308829
iw,-41.3410949707031,-79.5453948974609,-81.8170547485351,100.97013092041,1533325496
iw,-40.2909431457519,-81.1475830078125,-61.4361991882324,94.2498245239257,1533342163
iw,-39.6484718322753,-82.5079727172851,-39.5609092712402,79.6889419555664,1533358830
iw,-39.2230796813964,-83.6923675537109,-26.5497455596923,69.127326965332,1533375497
iw,-38.816909790039,-84.8457336425781,-25.7332592010498,67.3070907592773,1533392164
iw,-38.099609375,-86.0475006103515,-44.923973083496,70.4747161865234,1533408831
iw,-37.1492500305175,-87.2619018554687,-58.5932006835937,71.8620910644531,1533425498
iw,-36.6655578613281,-88.4976730346679,-30.7476272583007,74.8804473876953,1533442165
iw,-36.5475883483886,-89.4803619384765,-7.48646974563598,78.2482986450195,1533458832
iw,-36.4043884277343,-88.7343673706054,-7.9704270362854,73.2013854980468,1533475499
iw,-36.141975402832,-87.5446548461914,-15.4090108871459,73.8585433959961,1533492166
iw,-36.0218849182128,-86.2737426757812,-6.8372745513916,76.0642547607421,1533508833
iw,-35.8953323364257,-85.1061096191406,-7.48056745529174,68.6405639648437,1533525500
iw,-35.6622047424316,-84.1772232055664,-14.1821174621582,53.9019889831543,1533542167
iw,-35.4336814880371,-83.4111709594726,-13.5886373519897,44.1797866821289,1533558834
iw,-35.2271537780761,-82.6687240600586,-11.855278968811,42.7719650268554,1533575501
iw,-35.1066055297851,-81.9261016845703,-5.84273862838745,42.6614875793457,1533592168
iw,-35.0928153991699,-81.2090911865234,1.08926177024841,40.6392478942871,1533608835
iw,-35.0949478149414,-80.5139465332031,2.23314332962036,38.602439880371,1533625502
iw,-35.2449569702148,-79.8746948242187,11.1638736724853,34.8320884704589,1533642169
iw,-35.2757148742675,-79.3705673217773,3.45826244354248,26.6850433349609,1533658836
iw,-35.2844886779785,-79.0631790161132,2.95032119750976,15.5262117385864,1533675503
iw,-35.4598808288574,-79.0828323364257,15.0877141952514,-3.75651097297668,1533692170
iw,-36.5510940551757,-79.4715423583984,69.8966293334961,-26.4016227722167,1533708837
iw,-38.102180480957,-80.3941421508789,94.8380279541015,-59.3010025024414,1533725504
iw,-39.0818405151367,-81.9728317260742,59.0854949951171,-100.912193298339,1533742171
iw,-39.214744567871,-83.9812240600586,7.10512208938598,-135.136962890625,1533758838
iw,-39.6596908569335,-85.7947158813476,23.8715171813964,-144.168807983398,1533775505
iw,-40.8181686401367,-86.6597671508789,69.7434005737304,-135.09910583496,1533792172
iw,-42.0710220336914,-86.3037719726562,79.3587570190429,-124.97272491455,1533808839
iw,-43.2546920776367,-85.0318603515625,77.3645477294921,-133.820053100585,1533825506
iw,-44.3928985595703,-82.9877090454101,76.1625518798828,-155.794601440429,1533842173
iw,-45.6298637390136,-80.765754699707,84.3438949584961,-150.014007568359,1533858840
iw,-46.9883613586425,-78.3651428222656,93.4326705932617,-153.515533447265,1533875507
iw,-48.3984146118164,-75.6193695068359,94.8996658325195,-171.110687255859,1533892174
iw,-49.79052734375,-72.5860366821289,90.0299606323242,-186.473068237304,1533908841
iw,-51.2059135437011,-69.705322265625,87.1341781616211,-176.307144165039,1533925508
iw,-52.6132888793945,-67.0755157470703,83.3314743041992,-161.10090637207,1533942175
iw,-54.030460357666,-64.7656555175781,82.9399642944336,-142.096939086914,1533958842
iw,-55.3881034851074,-62.6865615844726,79.6843109130859,-128.105697631835,1533975509
iw,-56.6859664916992,-60.6811714172363,75.0861892700195,-123.068206787109,1533992176
iw,-57.8953971862793,-58.6560668945312,71.9038696289062,-123.569328308105,1534008843
iw,-59.0816688537597,-56.9448776245117,73.7945175170898,-104.50170135498,1534025510
iw,-60.2200584411621,-55.1137809753418,79.4387588500976,-111.888153076171,1534042177
iw,-61.2816123962402,-53.050048828125,83.6591186523437,-126.040649414062,1534058844
iw,-62.2652740478515,-51.208885192871,84.6204452514648,-112.712242126464,1534075511
iw,-63.2358512878418,-49.8433952331543,88.8798675537109,-83.8472518920898,1534092178
iw,-64.1214981079101,-49.0137939453125,87.0271072387695,-51.3812141418457,1534108845
iw,-64.8332443237304,-48.6384048461914,79.3734359741211,-24.450511932373,1534125512
iw,-65.335823059082,-48.7093772888183,67.2111282348632,2.18857431411743,1534142179
iw,-65.5898056030273,-48.9888114929199,47.7040901184082,15.0511636734008,1534158846
iw,-65.7096099853515,-49.3804016113281,33.9550666809082,21.9364070892334,1534175513
iw,-65.906379699707,-49.9054794311523,35.797752380371,29.7432479858398,1534192180
iw,-66.2450866699218,-50.2267990112304,42.5457000732421,17.2628021240234,1534208847
iw,-66.6399002075195,-50.4736213684082,43.1300811767578,12.1801528930664,1534225514
iw,-67.0470733642578,-50.7284851074218,43.7401733398437,12.5457258224487,1534242181
iw,-67.4514694213867,-50.717414855957,43.9003677368164,-2.67343664169311,1534258848
iw,-67.8415756225586,-50.5428276062011,40.3218536376953,-12.5339565277099,1534275515
iw,-68.2201232910156,-50.2707939147949,32.7684288024902,-18.8430633544921,1534292182
iw,-68.5794982910156,-49.9804878234863,26.5154380798339,-20.3962116241455,1534308849
iw,-68.9142913818359,-49.6938400268554,22.2837295532226,-20.2575664520263,1534325516
iw,-69.2248916625976,-49.4698371887207,19.552526473999,-16.7882480621337,1534342183
iw,-69.4987869262695,-49.3956680297851,23.0721206665039,-8.16481685638427,1534358850
iw,-69.747573852539,-49.5811157226562,27.0700130462646,7.64854049682617,1534375517
iw,-69.9376220703125,-50.037483215332,28.8824653625488,25.0526103973388,1534392184
iw,-70.1153335571289,-50.4469375610351,28.651985168457,20.5722217559814,1534408851
iw,-70.307014465332,-50.4274253845214,20.8468265533447,-7.1515040397644,1534425518
iw,-70.4986419677734,-50.230411529541,10.8729410171508,-17.6483116149902,1534442185
iw,-70.661506652832,-50.0590171813964,-8.83978366851806,-16.2758674621582,1534458852
iw,-70.7683029174804,-49.9537620544433,-36.8047904968261,-12.720664024353,1534475519
iw,-70.7916183471679,-50.0845298767089,-72.5391540527343,1.30197691917419,1534492186
iw,-70.7954559326171,-50.983283996582,-94.8722839355468,48.4324111938476,1534508853
iw,-70.888916015625,-52.4235610961914,-102.292915344238,83.2237701416015,1534525520
iw,-70.9924240112304,-53.8642578125,-116.545921325683,83.6560974121093,1534542187
iw,-70.8234405517578,-55.0250244140625,-128.583267211914,66.2900619506836,1534558854
iw,-70.0617370605468,-55.9617004394531,-146.983627319335,52.541217803955,1534575521
iw,-68.5562286376953,-57.0167083740234,-169.739685058593,60.151569366455,1534592188
iw,-66.5916748046875,-58.3253479003906,-175.994735717773,75.9710617065429,1534608855
iw,-64.6401901245117,-59.7656707763671,-157.306549072265,83.8994750976562,1534625522
iw,-62.7793502807617,-61.263874053955,-138.769058227539,87.3952713012695,1534642189
iw,-60.953758239746,-62.8232345581054,-132.518585205078,91.3086776733398,1534658856
iw,-59.1259574890136,-64.4813766479492,-135.055252075195,97.5612716674804,1534675523
iw,-57.2056503295898,-66.2131652832031,-140.329452514648,102.161643981933,1534692190
iw,-55.2258491516113,-67.9442977905273,-138.450607299804,102.230407714843,1534708857
iw,-53.2007522583007,-69.6573257446289,-135.871826171875,101.229469299316,1534725524
iw,-51.5693206787109,-71.3554077148437,-103.641563415527,100.213325500488,1534742191
iw,-50.1178550720214,-73.130126953125,-86.3999710083007,104.586128234863,1534758858
iw,-48.1185646057128,-75.0283966064453,-111.053871154785,111.94416809082,1534775525
iw,-45.7888984680175,-77.0173645019531,-124.405815124511,117.689445495605,1534792192
iw,-43.6126747131347,-79.159194946289,-118.796226501464,127.276176452636,1534808859
iw,-41.8198814392089,-81.3666458129882,-101.128410339355,131.618911743164,1534825526
iw,-40.5234298706054,-83.3051376342773,-74.6970977783203,116.62572479248,1534842193
iw,-39.6335716247558,-84.8943939208984,-52.906135559082,97.0477218627929,1534858860
iw,-39.0032157897949,-86.3386840820312,-38.675479888916,89.9447555541992,1534875527
iw,-38.4831047058105,-87.5905151367187,-33.2624206542968,81.7325134277343,1534892194
iw,-37.7325820922851,-88.4641799926757,-46.0855751037597,62.4393424987793,1534908861
iw,-37.0700950622558,-89.0108795166015,-38.9197235107421,51.9096527099609,1534925528
iw,-36.9200019836425,-88.9879913330078,-8.12564659118652,45.0392036437988,1534942195
iw,-37.07661819458,-88.4711990356445,11.5882453918457,42.8997726440429,1534958862
iw,-37.0038032531738,-87.6130447387695,-3.23676991462707,52.4492225646972,1534975529
iw,-36.8769912719726,-86.4565734863281,-8.52565193176269,67.7161865234375,1534992196
iw,-36.7539863586425,-85.1349029541015,-8.69888019561767,77.2897872924804,1535008863
iw,-36.5269508361816,-83.7985687255859,-14.9179925918579,77.7464904785156,1535025530
iw,-36.3599166870117,-82.615608215332,-11.2251873016357,67.6409378051757,1535042197
iw,-36.2049369812011,-81.6967163085937,-10.3431587219238,50.8835296630859,1535058864
iw,-36.0706748962402,-81.0409240722656,-8.87947273254394,35.149543762207,1535075531
iw,-36.2051811218261,-80.5598983764648,7.61940240859985,26.0077018737792,1535092198
iw,-36.453067779541,-80.1951675415039,14.4853200912475,19.9446811676025,1535108865
iw,-36.3354454040527,-79.9380569458007,-8.18970870971679,14.0969219207763,1535125532
iw,-36.1042251586914,-79.8678512573242,-13.9421958923339,3.21500825881958,1535142199
iw,-36.5883598327636,-80.0252456665039,31.5619831085205,-11.3250732421875,1535158866
iw,-37.7828865051269,-80.4629440307617,72.3275909423828,-30.8266048431396,1535175533
iw,-38.6570472717285,-81.4856719970703,51.2571563720703,-70.4248733520507,1535192200
iw,-38.8198165893554,-83.0748825073242,8.42728614807128,-112.785171508789,1535208867
iw,-39.1913223266601,-84.7626190185546,19.858736038208,-138.123825073242,1535225534
iw,-40.4118156433105,-85.8408432006836,71.441665649414,-144.055282592773,1535242201
iw,-42.0434951782226,-85.5913162231445,98.2780990600586,-135.14208984375,1535258868
iw,-43.687442779541,-84.3765335083007,102.333511352539,-127.413734436035,1535275535
iw,-45.0109748840332,-82.6808547973632,85.2567138671875,-134.43894958496,1535292202
iw,-46.1746559143066,-80.6860809326171,79.1411590576171,-145.292831420898,1535308869
iw,-47.3865737915039,-78.6514282226562,85.3412780761718,-140.870788574218,1535325536
iw,-48.7993545532226,-76.7664947509765,97.9005966186523,-126.16062927246,1535342203
iw,-50.2023773193359,-74.7269592285156,95.7095336914062,-131.89485168457,1535358870
iw,-51.508316040039,-72.2382202148437,87.7416381835937,-156.009887695312,1535375537
iw,-52.717960357666,-69.4653167724609,78.5390090942382,-170.630584716796,1535392204
iw,-53.90087890625,-67.0359344482421,73.0837249755859,-149.015228271484,1535408871
iw,-55.1019058227539,-65.090347290039,69.2354736328125,-120.852005004882,1535425538
iw,-56.3833503723144,-63.6980781555175,69.2904739379882,-88.6969909667968,1535442205
iw,-57.7968482971191,-62.3550796508789,74.7181625366211,-85.3019027709961,1535458872
iw,-59.2596435546875,-60.5478858947753,79.1157989501953,-111.803001403808,1535475539
iw,-60.6519584655761,-58.4723358154296,77.1881637573242,-127.408393859863,1535492206
iw,-61.7564888000488,-56.6313591003418,66.0698547363281,-113.59398651123,1535508873
iw,-62.5894622802734,-54.8315391540527,60.0625801086425,-111.487754821777,1535525540
iw,-63.2787322998046,-52.8675422668457,59.6682586669921,-121.342613220214,1535542207
iw,-63.9056053161621,-51.1616706848144,60.373435974121,-105.569747924804,1535558874
iw,-64.4692687988281,-50.0091819763183,59.4399147033691,-72.2718505859375,1535575541
iw,-64.96484375,-49.4083442687988,58.0270462036132,-39.1229248046875,1535592208
iw,-65.4224472045898,-49.1784439086914,59.2699928283691,-16.6049480438232,1535608875
iw,-65.8699798583984,-49.1994857788085,58.6493263244628,-1.38751852512359,1535625542
iw,-66.3081741333007,-49.4814758300781,53.0258102416992,14.3694458007812,1535642209
iw,-66.7538223266601,-50.082664489746,47.1535339355468,33.8392601013183,1535658876
iw,-67.2517471313476,-50.8463325500488,47.5979843139648,43.9112510681152,1535675543
iw,-67.7674102783203,-51.5944023132324,46.860984802246,42.9821701049804,1535692210
iw,-68.187515258789,-52.3657073974609,37.7323684692382,44.0402297973632,1535708877
iw,-68.5150375366211,-52.2257575988769,34.0114555358886,-11.5493450164794,1535725544
iw,-68.8224105834961,-51.8755187988281,34.1146850585937,-24.723928451538,1535742211
iw,-69.1500244140625,-51.6877250671386,32.2932395935058,-14.2707452774047,1535758878
iw,-69.481948852539,-51.5101165771484,29.5124588012695,-12.8937721252441,1535775545
iw,-69.7940597534179,-51.223949432373,25.5430278778076,-19.8876953125,1535792212
iw,-70.1326293945312,-50.8535652160644,22.2064266204834,-25.7115478515625,1535808879
iw,-70.5009460449218,-50.4809417724609,18.3392829895019,-26.1774559020996,1535825546
iw,-70.9256591796875,-50.2611961364746,18.5078887939453,-17.3058719635009,1535842213
iw,-71.3905258178711,-50.2463760375976,21.9491291046142,-5.26833581924438,1535858880
iw,-71.7572326660156,-50.4984741210937,19.4604587554931,11.6394958496093,1535875547
iw,-72.0142364501953,-50.66845703125,19.6413898468017,7.43937873840332,1535892214
iw,-72.2878494262695,-50.6111984252929,23.8778858184814,-8.16839408874511,1535908881
iw,-72.5740890502929,-50.297134399414,26.9461498260498,-25.4408378601074,1535925548
iw,-72.8127212524414,-49.7931175231933,20.8202400207519,-38.1435241699218,1535942215
iw,-72.9747924804687,-49.6718406677246,5.56912040710449,-16.0922794342041,1535958882
iw,-73.0141372680664,-49.6983184814453,-19.4470958709716,-6.38499689102172,1535975549
iw,-72.9291534423828,-49.9819984436035,-54.3176689147949,9.65701961517334,1535992216
iw,-72.8151168823242,-51.099983215332,-82.0796966552734,60.5207214355468,1536008883
iw,-72.7446060180664,-52.5495071411132,-96.5349655151367,83.4598922729492,1536025550
iw,-72.7296981811523,-53.877098083496,-108.413314819335,77.0649871826171,1536042217
iw,-72.6079711914062,-55.0276756286621,-121.625167846679,65.6354217529296,1536058884
iw,-71.9739761352539,-56.2474403381347,-141.006454467773,69.0947036743164,1536075551
iw,-70.4251403808593,-57.7173995971679,-176.63003540039,84.6337585449218,1536092218
iw,-68.4335403442382,-59.164924621582,-170.23452758789,83.7352600097656,1536108885
iw,-66.637825012207,-60.4942893981933,-135.947463989257,76.5411911010742,1536125552
iw,-64.7225875854492,-61.8335037231445,-139.34390258789,77.2490997314453,1536142219
iw,-62.6290168762207,-63.2329139709472,-148.67251586914,81.2630538940429,1536158886
iw,-60.4516334533691,-64.6443710327148,-148.866607666015,82.351448059082,1536175553
iw,-58.3183822631835,-66.0302352905273,-144.648803710937,80.9898300170898,1536192220
iw,-56.1844100952148,-67.4342193603515,-142.05517578125,82.3016891479492,1536208887
iw,-54.0908432006835,-68.8425521850586,-133.222747802734,82.7572402954101,1536225554
iw,-51.9038772583007,-70.2064208984375,-134.217361450195,80.1526794433593,1536242221
iw,-49.6968765258789,-71.5066986083984,-131.822891235351,76.337776184082,1536258888
iw,-47.4954299926757,-72.8232040405273,-126.19480895996,77.3049926757812,1536275555
iw,-45.1496772766113,-74.1515960693359,-130.730590820312,78.1147689819336,1536292222
iw,-42.9788284301757,-75.4041137695312,-119.560836791992,73.6571578979492,1536308889
iw,-41.2853813171386,-76.6316604614257,-93.7528991699218,72.0763473510742,1536325556
iw,-40.0185356140136,-77.8602447509765,-71.6659622192382,72.0063095092773,1536342223
iw,-39.2272224426269,-79.0405197143554,-46.1638488769531,69.0307006835937,1536358890
iw,-38.737003326416,-80.2846908569336,-29.266881942749,72.788818359375,1536375557
iw,-38.516616821289,-81.6834869384765,-13.9358100891113,82.0307922363281,1536392224
iw,-38.336498260498,-83.2781906127929,-12.8108482360839,93.8698120117187,1536408891
iw,-37.8703689575195,-85.049201965332,-29.5643005371093,104.464080810546,1536425558
iw,-37.3946151733398,-86.7785186767578,-28.0975723266601,101.749084472656,1536442225
iw,-37.2463150024414,-88.4522476196289,-7.7849531173706,97.8724212646484,1536458892
iw,-37.2561340332031,-90.0,3.04014134407043,94.6775283813476,1536475559
iw,-37.2993240356445,-88.6139297485351,5.13028812408447,79.8579635620117,1536492226
iw,-37.130084991455,-87.6237258911132,-9.81660366058349,57.0398445129394,1536508893
iw,-36.9302520751953,-86.8566436767578,-12.5397958755493,43.9688148498535,1536525560
iw,-36.6542892456054,-86.0436935424804,-17.5744094848632,46.8406295776367,1536542227
iw,-36.4019393920898,-85.0556182861328,-15.6927471160888,57.4115524291992,1536558894
iw,-36.2186851501464,-83.8240356445312,-10.5963125228881,72.1102066040039,1536575561
iw,-36.168041229248,-82.6059646606445,-1.77537417411804,71.1481018066406,1536592228
iw,-36.3310928344726,-81.6996231079101,11.7045545578002,51.8267364501953,1536608895
iw,-36.6290283203125,-81.1328887939453,20.3316097259521,30.3674755096435,1536625562
iw,-36.9762115478515,-80.7360458374023,23.9891662597656,19.0626220703125,1536642229
iw,-37.4108657836914,-80.3507843017578,29.1411552429199,18.1826305389404,1536658896
iw,-37.6537971496582,-79.911865234375,15.8487606048583,22.7476539611816,1536675563
iw,-37.966022491455,-79.5069961547851,20.7116260528564,22.0245609283447,1536692230
iw,-38.406265258789,-79.3699035644531,31.6085815429687,6.01727104187011,1536708897
iw,-39.4229354858398,-79.662353515625,65.71142578125,-21.0282726287841,1536725564
iw,-40.9721374511718,-80.3757781982421,94.6063766479492,-47.3560447692871,1536742231
iw,-42.0242958068847,-81.556640625,62.6787071228027,-76.7146759033203,1536758898
iw,-42.1439895629882,-83.2103729248046,5.3735933303833,-111.497276306152,1536775565
iw,-42.1313934326171,-85.0271301269531,-5.51871538162231,-140.027221679687,1536792232
iw,-42.8222274780273,-86.1634521484375,37.0857124328613,-145.91616821289,1536808899
iw,-43.9244003295898,-85.8610458374023,65.1856231689453,-128.954635620117,1536825566
iw,-45.2130317687988,-84.6019592285156,78.708023071289,-125.437110900878,1536842233
iw,-46.4504890441894,-82.7401504516601,76.6315231323242,-145.059326171875,1536858900
iw,-47.498607635498,-80.5393447875976,68.2787017822265,-158.043090820312,1536875567
iw,-48.5129051208496,-78.3373184204101,72.5721435546875,-150.748184204101,1536892234
iw,-49.6445274353027,-76.1576309204101,83.8531951904296,-144.333206176757,1536908901
iw,-50.7738380432128,-73.8293991088867,81.7438049316406,-149.83787536621,1536925568
iw,-51.7957725524902,-71.2932662963867,71.297737121582,-159.424835205078,1536942235
iw,-52.8053131103515,-68.7145004272461,67.8718109130859,-159.910339355468,1536958902
iw,-53.8466491699218,-66.4383239746093,67.0906600952148,-140.71044921875,1536975569
iw,-54.9191093444824,-64.5311126708984,64.523208618164,-119.254814147949,1536992236
iw,-56.1149787902832,-62.7692947387695,67.3219604492187,-111.140655517578,1537008903
iw,-57.549144744873,-60.9078865051269,80.150390625,-116.392379760742,1537025570
iw,-59.1129302978515,-58.9640274047851,89.402961730957,-120.409378051757,1537042237
iw,-60.5199851989746,-57.1065788269043,82.9768981933593,-114.764663696289,1537058904
iw,-61.6788482666015,-55.3834800720214,76.4776077270507,-106.520385742187,1537075571
iw,-62.666576385498,-53.6144866943359,77.4143447875976,-109.187622070312,1537092238
iw,-63.5586547851562,-51.7742500305175,80.9434356689453,-113.162300109863,1537108905
iw,-64.3495178222656,-50.2960319519043,81.7569046020507,-91.2003555297851,1537125572
iw,-65.0233383178711,-49.3688926696777,80.0082778930664,-58.0809669494628,1537142239
iw,-65.5572357177734,-48.8667373657226,75.4086074829101,-32.7983818054199,1537158906
iw,-66.026008605957,-48.697021484375,74.3371124267578,-12.8954143524169,1537175573
iw,-66.507583618164,-48.9548683166503,72.1962051391601,13.4838018417358,1537192240
iw,-66.9065399169921,-49.5157432556152,55.3713493347168,31.9511642456054,1537208907
iw,-67.1838455200195,-50.38325881958,36.7294425964355,50.2093963623046,1537225574
iw,-67.4753036499023,-50.6548156738281,35.0382461547851,14.203143119812,1537242241
iw,-67.9019546508789,-50.5851593017578,41.4762153625488,-7.13537549972534,1537258908
iw,-68.4409942626953,-50.6797790527343,42.7403411865234,2.87772512435913,1537275575
iw,-68.9627380371093,-50.7225608825683,39.3459434509277,0.373815864324569,1537292242
iw,-69.3671875,-50.583194732666,35.7710075378418,-10.7764539718627,1537308909
iw,-69.6641311645507,-50.4254074096679,25.94140625,-12.1437177658081,1537325576
iw,-69.9143753051757,-50.4125480651855,18.7107257843017,-3.74551367759704,1537342243
iw,-70.1204452514648,-50.479923248291,13.8005094528198,0.547772824764251,1537358910
iw,-70.3471069335937,-50.4981117248535,15.74072265625,-3.31960415840148,1537375577
iw,-70.6187362670898,-50.6780929565429,20.5579185485839,6.30977630615234,1537392244
iw,-70.8524169921875,-50.9795341491699,20.5185604095459,15.0173301696777,1537408911
iw,-71.0791702270507,-51.2651977539062,20.0626373291015,11.9044694900512,1537425578
iw,-71.3347625732421,-51.3059921264648,12.7365274429321,-5.34532880783081,1537442245
iw,-71.5724487304687,-51.2974967956543,-0.939923584461212,-8.80876445770263,1537458912
iw,-71.7509078979492,-51.6481628417968,-24.3049087524414,13.1299438476562,1537475579
iw,-71.8288269042968,-52.290111541748,-57.0542564392089,31.9080410003662,1537492246
iw,-71.7469635009765,-53.1372871398925,-90.4835739135742,45.4004287719726,1537508913
iw,-71.5758743286132,-54.4940147399902,-103.951820373535,77.4307785034179,1537525580
iw,-71.4145736694336,-55.932373046875,-109.363639831542,83.9386901855468,1537542247
iw,-71.1989669799804,-57.1940765380859,-118.149940490722,72.9969406127929,1537558914
iw,-70.6061935424804,-58.3189849853515,-135.157318115234,64.1630935668945,1537575581
iw,-69.2149581909179,-59.502155303955,-166.132369995117,67.5967178344726,1537592248
iw,-67.3225631713867,-60.7655372619628,-173.479949951171,72.8745574951171,1537608915
iw,-65.4037780761718,-61.9823265075683,-155.30906677246,70.425064086914,1537625582
iw,-63.4444122314453,-63.2295875549316,-143.52912902832,72.3621215820312,1537642249
iw,-61.387451171875,-64.5011138916015,-142.902893066406,73.9737472534179,1537658916
iw,-59.3343849182128,-65.7247161865234,-138.94319152832,71.3195724487304,1537675583
iw,-57.374900817871,-66.9216918945312,-132.994186401367,69.8467941284179,1537692250
iw,-55.4262008666992,-68.1923599243164,-130.049896240234,74.3572998046875,1537708917
iw,-53.5134963989257,-69.5239486694336,-123.5537109375,78.2723693847656,1537725584
iw,-51.5698699951171,-70.8914337158203,-123.986610412597,80.7347717285156,1537742251
iw,-49.6194458007812,-72.2879486083984,-119.883003234863,82.6976470947265,1537758918
iw,-47.5055046081543,-73.7579193115234,-121.869903564453,87.2812118530273,1537775585
iw,-45.3239555358886,-75.3298263549804,-119.732727050781,93.583740234375,1537792252
iw,-43.3739318847656,-76.9655990600586,-107.42381286621,97.7675704956054,1537808919
iw,-41.7567825317382,-78.6015167236328,-91.8095016479492,98.2743301391601,1537825586
iw,-40.5693359375,-80.2529373168945,-69.7949523925781,99.5304870605468,1537842253
iw,-39.8119506835937,-81.9150238037109,-46.5485649108886,100.15576171875,1537858920
iw,-39.2730674743652,-83.4973907470703,-33.8955993652343,95.7005920410156,1537875587
iw,-38.9199447631835,-84.9046173095703,-22.6499290466308,85.2228775024414,1537892254
iw,-38.6195106506347,-86.1381225585937,-19.7009449005126,74.2457046508789,1537908921
iw,-38.1803550720214,-87.28271484375,-26.6004791259765,68.8490982055664,1537925588
iw,-37.8207130432128,-88.281494140625,-20.4431400299072,61.9524459838867,1537942255
iw,-37.7908363342285,-88.9595794677734,-0.979279220104217,45.5145797729492,1537958922
iw,-38.0916099548339,-89.2997512817382,19.7137126922607,36.8113822937011,1537975589
iw,-38.2132720947265,-88.8974914550781,7.50196647644043,49.8899917602539,1537992256
iw,-38.0992546081543,-87.7865447998046,-8.26414680480957,69.8144073486328,1538008923
iw,-37.8753852844238,-86.4199142456054,-15.0822067260742,81.5343322753906,1538025590
iw,-37.5138359069824,-85.0673141479492,-23.3894138336181,80.7766647338867,1538042257
iw,-37.1185150146484,-83.937255859375,-25.3632183074951,66.7810821533203,1538058924
iw,-36.7523345947265,-83.165771484375,-23.4448699951171,44.4655952453613,1538075591
iw,-36.3853950500488,-82.6605911254882,-23.1859817504882,28.2946224212646,1538092258
iw,-36.1128158569335,-82.3308181762695,-17.016954421997,17.814561843872,1538108925
iw,-36.0924911499023,-82.1482467651367,-1.35055100917816,9.06401538848877,1538125592
iw,-36.0068244934082,-82.0536422729492,-5.45037841796875,4.0081787109375,1538142259
iw,-35.7445335388183,-81.8664855957031,-16.1002674102783,9.79820919036865,1538158926
iw,-35.3935012817382,-81.6561660766601,-17.8419342041015,10.8262615203857,1538175593
iw,-35.8011627197265,-81.5987930297851,30.1443634033203,-0.260098904371261,1538192260
iw,-37.1944503784179,-81.9052734375,85.7960739135742,-25.0445823669433,1538208927
iw,-38.3838462829589,-82.6904296875,70.9195556640625,-56.9659118652343,1538225594
iw,-39.044334411621,-83.9855575561523,38.3318710327148,-94.2099990844726,1538242261
iw,-39.5078048706054,-85.5696868896484,24.9056644439697,-126.935676574707,1538258928
iw,-40.4026870727539,-86.6659927368164,51.7823753356933,-139.64045715332,1538275595
iw,-41.7172698974609,-86.3439331054687,79.486457824707,-136.156417846679,1538292262
iw,-43.0978622436523,-84.9612960815429,84.6431274414062,-129.05110168457,1538308929
iw,-44.2374610900878,-83.1049423217773,71.0223693847656,-135.872894287109,1538325596
iw,-45.2163314819335,-81.0520553588867,63.5318527221679,-140.460632324218,1538342263
iw,-46.3139839172363,-78.9455795288086,75.4923477172851,-138.506805419921,1538358930
iw,-47.5938568115234,-76.8119812011718,88.8785705566406,-136.112182617187,1538375597
iw,-48.9357643127441,-74.5778656005859,90.949348449707,-139.385284423828,1538392264
iw,-50.2205505371093,-72.0992965698242,84.4327621459961,-152.717559814453,1538408931
iw,-51.4421768188476,-69.3826065063476,77.0214614868164,-166.236770629882,1538425598
iw,-52.622760772705,-66.5104064941406,71.9407882690429,-175.209838867187,1538442265
iw,-53.7557487487793,-64.0571517944336,67.264419555664,-149.900039672851,1538458932
iw,-54.9504013061523,-62.5590133666992,69.633544921875,-92.8932495117187,1538475599
iw,-56.3056945800781,-61.232135772705,78.9226531982421,-82.693130493164,1538492266
iw,-57.8755187988281,-59.3518943786621,91.6897048950195,-115.298454284667,1538508933
iw,-59.4348182678222,-57.1642837524414,92.9481582641601,-133.229187011718,1538525600
iw,-60.8331756591796,-55.2574005126953,88.170669555664,-116.558219909667,1538542267
iw,-62.0764007568359,-53.3281593322753,87.2813034057617,-118.189102172851,1538558934
iw,-63.2586326599121,-51.3145446777343,93.3687591552734,-123.140525817871,1538575601
iw,-64.45361328125,-49.6523628234863,103.019218444824,-101.967582702636,1538592268
iw,-65.6335525512695,-48.5671501159668,110.857749938964,-67.2967681884765,1538608935
iw,-66.703742980957,-47.9702682495117,111.67610168457,-38.1285552978515,1538625602
iw,-67.5756454467773,-47.9842567443847,105.879623413085,-1.68574321269989,1538642269
iw,-68.0767135620117,-48.4688339233398,83.0740280151367,27.2810096740722,1538658936
iw,-68.2061767578125,-49.0191192626953,54.4427871704101,31.7364025115966,1538675603
iw,-68.1268692016601,-49.7179450988769,32.9842147827148,40.5620994567871,1538692270
iw,-68.1826553344726,-49.8407096862793,33.1082191467285,5.1422734260559,1538708937
iw,-68.5060806274414,-49.7880325317382,45.1096878051757,-6.14889001846313,1538725604
iw,-69.0316543579101,-49.992820739746,48.9276847839355,9.40906429290771,1538742271
iw,-69.6236419677734,-49.9710655212402,45.3874855041503,-4.87519645690918,1538758938
iw,-70.1919479370117,-49.7084808349609,40.1004524230957,-20.1398696899414,1538775605
iw,-70.6637268066406,-49.3846588134765,32.1123924255371,-23.2931022644042,1538792272
iw,-71.1028366088867,-49.1629295349121,25.2570400238037,-17.2282104492187,1538808939
iw,-71.4800415039062,-49.0935134887695,19.3893356323242,-8.83369350433349,1538825606
iw,-71.7814254760742,-49.3228874206543,18.475830078125,8.42307662963867,1538842273
iw,-71.9521179199218,-49.791015625,19.9215278625488,24.8436546325683,1538858940
iw,-72.0461273193359,-50.2263107299804,22.6565265655517,22.7166309356689,1538875607
iw,-72.1061019897461,-50.3560943603515,16.9504699707031,0.328160136938095,1538892274
iw,-72.1624450683593,-50.064281463623,4.93940353393554,-27.2721767425537,1538908941
iw,-72.229736328125,-49.8924827575683,-19.0840530395507,-20.7901287078857,1538925608
iw,-72.3036193847656,-50.1900901794433,-58.568504333496,11.1011915206909,1538942275
iw,-72.2883529663086,-50.9786033630371,-95.7597732543945,42.6376647949218,1538958942
iw,-72.1794204711914,-52.386734008789,-106.230476379394,80.676040649414,1538975609
iw,-72.0804595947265,-53.9701766967773,-109.599296569824,92.0586395263671,1538992276
iw,-71.9538955688476,-55.3844184875488,-115.10203552246,81.1782150268554,1539008943
iw,-71.4413528442382,-56.5780601501464,-128.816955566406,67.3467559814453,1539025610
iw,-70.133186340332,-57.88325881958,-160.761627197265,74.1858978271484,1539042277
iw,-68.3412399291992,-59.3307266235351,-167.519592285156,83.334358215332,1539058944
iw,-66.4053955078125,-60.6678657531738,-157.421401977539,77.0552139282226,1539075611
iw,-64.4145050048828,-61.9248123168945,-145.194061279296,72.4541778564453,1539092278
iw,-62.3280448913574,-63.2611389160156,-141.940200805664,77.5518569946289,1539108945
iw,-60.1892318725585,-64.6236953735351,-142.417755126953,79.4804458618164,1539125612
iw,-57.9992561340332,-65.8789749145507,-147.114318847656,73.3801956176757,1539142279
iw,-55.7740249633789,-67.0836715698242,-147.003601074218,70.5201187133789,1539158946
iw,-53.6615333557128,-68.3635864257812,-136.787719726562,75.1918869018554,1539175613
iw,-51.558536529541,-69.6963119506836,-133.151580810546,78.4699096679687,1539192280
iw,-49.484748840332,-71.0271301269531,-124.533363342285,78.3818817138671,1539208947
iw,-47.4008712768554,-72.3844604492187,-118.008567810058,79.9695968627929,1539225614
iw,-45.2819480895996,-73.771987915039,-115.114128112792,81.8492279052734,1539242281
iw,-43.3103790283203,-75.160774230957,-106.331733703613,82.1305084228515,1539258948
iw,-41.716453552246,-76.5456314086914,-87.1906127929687,82.1653289794921,1539275615
iw,-40.4275932312011,-77.9114227294921,-71.82275390625,80.9475021362304,1539292282
iw,-39.4546546936035,-79.2497940063476,-55.5113792419433,78.8421630859375,1539308949
iw,-38.7759552001953,-80.5383911132812,-38.6381034851074,75.4452209472656,1539325616
iw,-38.3338241577148,-81.8197631835937,-24.6714706420898,74.640625,1539342283
iw,-37.9311637878418,-83.1519546508789,-22.9301567077636,77.6211318969726,1539358950
iw,-37.4471130371093,-84.5244216918945,-27.1097373962402,80.3462524414062,1539375617
iw,-37.1653823852539,-85.8593444824218,-15.7141122817993,78.4494323730468,1539392284
iw,-37.25191116333,-87.1555252075195,5.94454956054687,76.3428802490234,1539408951
iw,-37.418773651123,-88.391242980957,11.0989961624145,72.5452728271484,1539425618
iw,-37.437400817871,-89.5381774902343,1.3092234134674,66.2285461425781,1539442285
iw,-37.306037902832,-89.4161758422851,-8.48422813415527,63.2582626342773,1539458952
iw,-37.1924667358398,-88.2876510620117,-7.87248039245605,65.0153198242187,1539475619
iw,-37.0401039123535,-87.1149291992187,-10.3660049438476,68.2959060668945,1539492286
iw,-36.884593963623,-85.8389663696289,-10.5942039489746,74.5534896850586,1539508953
iw,-36.6720466613769,-84.5723495483398,-14.0221729278564,74.0127563476562,1539525620
iw,-36.4101066589355,-83.5603866577148,-16.9390220642089,58.7374763488769,1539542287
iw,-36.185302734375,-82.8807907104492,-14.5833559036254,38.3575325012207,1539558954
iw,-36.0257873535156,-82.3988342285156,-10.4561796188354,26.0609035491943,1539575621
iw,-36.0252990722656,-81.8894271850586,-0.481547027826309,27.5236072540283,1539592288
iw,-35.8903274536132,-81.344497680664,-8.46039009094238,29.6616783142089,1539608955
iw,-35.570327758789,-80.7841796875,-19.81077003479,30.9392032623291,1539625622
iw,-35.3148498535156,-80.4549713134765,-14.0426120758056,17.3851623535156,1539642289
iw,-35.830825805664,-80.4925460815429,33.6760444641113,-5.25211715698242,1539658956
iw,-37.226879119873,-80.9865951538086,84.275520324707,-33.2334594726562,1539675623
iw,-38.4147872924804,-82.065559387207,70.2738876342773,-68.563491821289,1539692290
iw,-39.0324096679687,-83.6671142578125,35.5337142944335,-103.16674041748,1539708957
iw,-39.5205764770507,-85.5358200073242,27.2011909484863,-130.706893920898,1539725624
iw,-40.4142379760742,-86.9910507202148,53.7212142944335,-145.679718017578,1539742291
iw,-41.6801567077636,-86.735595703125,77.2633361816406,-138.030014038085,1539758958
iw,-42.9891471862793,-85.2381134033203,80.383560180664,-132.976196289062,1539775625
iw,-44.1311569213867,-83.2565689086914,71.5275421142578,-141.118438720703,1539792292
iw,-45.1557426452636,-80.9508285522461,67.7799682617187,-154.778747558593,1539808959
iw,-46.2104949951171,-78.6508407592773,73.2765655517578,-150.074295043945,1539825626
iw,-47.4380836486816,-76.4309616088867,83.1545028686523,-141.836791992187,1539842293
iw,-48.6632614135742,-73.9487686157226,78.9384155273437,-155.460678100585,1539858960
iw,-49.7722053527832,-71.1242446899414,68.7603988647461,-174.160537719726,1539875627
iw,-50.86714553833,-68.1637268066406,65.664566040039,-181.059600830078,1539892294
iw,-52.0577850341796,-65.5678939819336,68.9925308227539,-158.66014099121,1539908961
iw,-53.29976272583,-63.3957328796386,69.9375915527343,-133.539978027343,1539925628
iw,-54.5789031982421,-61.7587776184082,72.5052490234375,-101.904022216796,1539942295
iw,-55.8652000427246,-60.1682777404785,74.3236465454101,-99.0026473999023,1539958962
iw,-57.1923103332519,-58.149169921875,76.083999633789,-124.139984130859,1539975629
iw,-58.5592575073242,-56.17822265625,80.3277282714843,-121.090034484863,1539992296
iw,-59.855728149414,-54.517463684082,83.7205352783203,-102.82127380371,1540008963
iw,-60.9498291015625,-52.6032562255859,81.0315475463867,-118.165374755859,1540025630
iw,-61.783836364746,-50.6956214904785,71.9093246459961,-117.479461669921,1540042297
iw,-62.3946800231933,-49.2416877746582,60.2771224975585,-90.0136566162109,1540058964
iw,-62.804401397705,-48.3023414611816,50.8405151367187,-58.8585052490234,1540075631
iw,-63.2108535766601,-47.8258743286132,54.9348182678222,-30.5910205841064,1540092298
iw,-63.8015403747558,-47.7047271728515,69.6928024291992,-9.19999027252197,1540108965
iw,-64.4387969970703,-47.9075012207031,71.6704635620117,10.1055498123168,1540125632
iw,-65.0525970458984,-48.2930221557617,64.5671920776367,21.3471374511718,1540142299
iw,-65.6766891479492,-48.8147201538085,62.648078918457,29.8054122924804,1540158966
iw,-66.2567443847656,-49.4705162048339,59.6969604492187,37.681770324707,1540175633
iw,-66.693130493164,-49.7528228759765,50.0169448852539,14.7726545333862,1540192300
iw,-66.9896469116211,-49.6928215026855,42.1765365600585,-6.28017568588256,1540208967
iw,-67.2249679565429,-49.7475204467773,39.0957603454589,0.457907736301422,1540225634
iw,-67.4429931640625,-49.8736724853515,36.1649284362793,5.09383344650268,1540242301
iw,-67.6700897216796,-49.9388122558593,36.9021263122558,1.81008172035217,1540258968
iw,-67.9456939697265,-49.8739318847656,39.3106536865234,-6.19511365890502,1540275635
iw,-68.2579269409179,-49.7403030395507,36.8841323852539,-10.686650276184,1540292302
iw,-68.5754241943359,-49.679100036621,29.5100479125976,-6.57288837432861,1540308969
iw,-68.9619369506836,-49.750389099121,27.1755752563476,1.01735663414001,1540325636
iw,-69.4202804565429,-49.888816833496,30.567886352539,4.44486236572265,1540342303
iw,-69.8650894165039,-50.0710830688476,29.2190551757812,6.30082082748413,1540358970
iw,-70.2122116088867,-50.3536834716796,28.0710945129394,12.1954202651977,1540375637
iw,-70.4068908691406,-50.6897392272949,28.7286396026611,16.6929302215576,1540392304
iw,-70.538330078125,-50.8277053833007,31.2214469909667,4.51023292541503,1540408971
iw,-70.6589126586914,-50.6925163269043,28.1997776031494,-14.068959236145,1540425638
iw,-70.7106704711914,-50.3955841064453,22.64670753479,-24.7907276153564,1540442305
iw,-70.7183380126953,-50.2781982421875,7.10685443878173,-13.9384593963623,1540458972
iw,-70.7600936889648,-50.3138198852539,-20.0812454223632,-4.74611949920654,1540475639
iw,-70.877815246582,-50.6634941101074,-55.7170639038085,14.7333126068115,1540492306
iw,-71.1267395019531,-51.6659812927246,-84.3968200683593,55.4697799682617,1540508973
iw,-71.4944381713867,-52.9679145812988,-99.655403137207,75.4739227294921,1540525640
iw,-71.8878707885742,-54.2615928649902,-105.867530822753,74.9842987060546,1540542307
iw,-72.0624694824218,-55.39208984375,-120.286186218261,64.4058532714843,1540558974
iw,-71.7482452392578,-56.4787559509277,-130.27879333496,61.532730102539,1540575641
iw,-70.754409790039,-57.6655464172363,-145.656005859375,68.0780639648437,1540592308
iw,-69.2575149536132,-58.8432693481445,-150.945266723632,68.0028610229492,1540608975
iw,-67.5992736816406,-60.0150032043457,-141.39956665039,67.6838226318359,1540625642
iw,-65.8496780395507,-61.3094367980957,-132.187530517578,75.0237655639648,1540642309
iw,-63.9732818603515,-62.7230262756347,-133.028884887695,82.3409957885742,1540658976
iw,-62.0333213806152,-64.1463928222656,-135.608184814453,83.3778076171875,1540675643
iw,-60.0101165771484,-65.5769500732421,-141.173538208007,84.0160369873046,1540692310
iw,-57.9759521484375,-67.0386352539062,-137.520217895507,85.9490890502929,1540708977
iw,-56.0417594909668,-68.4906158447265,-124.788421630859,85.4227828979492,1540725644
iw,-54.0873794555664,-69.8937530517578,-122.891128540039,82.4241714477539,1540742311
iw,-52.0289421081543,-71.228157043457,-125.255805969238,78.1752395629882,1540758978
iw,-49.884422302246,-72.6345443725586,-124.239158630371,82.3677673339843,1540775645
iw,-47.5588912963867,-74.0638961791992,-131.245971679687,83.6471481323242,1540792312
iw,-45.3627471923828,-75.4116516113281,-123.191436767578,78.8107757568359,1540808979
iw,-43.5833473205566,-76.6314086914062,-101.296852111816,71.2637252807617,1540825646
iw,-42.1757354736328,-77.7716522216796,-81.8508758544921,66.5895080566406,1540842313
iw,-41.2233543395996,-78.8634872436523,-56.8628807067871,63.7493667602539,1540858980
iw,-40.6049995422363,-79.9344253540039,-38.2532386779785,62.5114555358886,1540875647
iw,-40.1329803466796,-81.073989868164,-30.5930767059326,66.6033477783203,1540892314
iw,-39.6668853759765,-82.3364105224609,-30.5672168731689,73.9866027832031,1540908981
iw,-39.1314125061035,-83.6699295043945,-34.1783905029296,78.2980346679687,1540925648
iw,-38.5009040832519,-85.0537948608398,-38.6905708312988,81.3339385986328,1540942315
iw,-38.0204544067382,-86.412971496582,-28.8180446624755,79.7033157348632,1540958982
iw,-37.7361450195312,-87.7036437988281,-16.8575134277343,75.4192352294921,1540975649
iw,-37.729736328125,-89.0130538940429,0.259415358304977,75.8915176391601,1540992316
iw,-37.7953567504882,-89.8208694458007,4.02028131484985,73.2035369873046,1541008983
iw,-37.8789825439453,-88.5073471069336,3.53012466430664,71.7311706542968,1541025650
iw,-37.9131774902343,-87.2133712768554,-0.190998703241348,74.5936050415039,1541042317
iw,-37.9017486572265,-85.8221893310546,-2.76597690582275,81.8694763183593,1541058984
iw,-37.7472610473632,-84.4315109252929,-11.4601926803588,82.1238555908203,1541075651
iw,-37.5646133422851,-83.2231521606445,-13.3952484130859,70.8846282958984,1541092318
iw,-37.4157752990722,-82.1540222167968,-11.4908504486083,62.1239509582519,1541108985
iw,-37.3110923767089,-81.1627578735351,-8.80811691284179,56.0629692077636,1541125652
iw,-37.3150787353515,-80.3371810913086,-2.08123326301574,44.7618598937988,1541142319
iw,-37.3359451293945,-79.6878433227539,-0.564533591270446,33.9983901977539,1541158986
iw,-37.0306396484375,-79.1122436523437,-19.7370166778564,29.8920021057128,1541175653
iw,-36.510383605957,-78.6599731445312,-32.0795097351074,22.9673290252685,1541192320
iw,-36.6668090820312,-78.6011199951171,10.14013671875,0.00729324715211987,1541208987
iw,-37.8831138610839,-79.099494934082,72.4061431884765,-33.4018783569335,1541225654
iw,-38.8722915649414,-80.2478103637695,57.7401046752929,-74.9600982666015,1541242321
iw,-39.3088150024414,-82.0277252197265,24.217077255249,-118.655097961425,1541258988
iw,-39.6502876281738,-84.098876953125,17.3724098205566,-150.754257202148,1541275655
iw,-40.32612991333,-85.7499237060546,39.3197364807128,-166.550903320312,1541292322
iw,-41.5859489440918,-85.8254776000976,77.6530303955078,-149.675415039062,1541308989
iw,-43.0740280151367,-84.8131408691406,93.5349044799804,-124.770347595214,1541325656
iw,-44.162784576416,-83.3181838989257,69.373664855957,-129.720977783203,1541342323
iw,-45.0275726318359,-81.2639846801757,57.2473831176757,-153.772369384765,1541358990
iw,-45.8641281127929,-79.0840454101562,59.0810623168945,-150.309204101562,1541375657
iw,-46.9134063720703,-76.8992462158203,73.1182327270507,-143.664443969726,1541392324
iw,-48.1289253234863,-74.4075241088867,81.3802947998046,-157.869934082031,1541408991
iw,-49.32124710083,-71.5572052001953,76.413101196289,-176.316955566406,1541425658
iw,-50.4410591125488,-68.6635131835937,67.7734680175781,-177.076507568359,1541442325
iw,-51.5151062011718,-66.1260452270507,61.7662620544433,-155.169128417968,1541458992
iw,-52.6096572875976,-64.13427734375,62.2901153564453,-123.225357055664,1541475659
iw,-53.7761993408203,-62.5790557861328,67.528694152832,-97.6138763427734,1541492326
iw,-55.0045433044433,-61.0352134704589,72.4373016357421,-96.2182083129882,1541508993
iw,-56.2947807312011,-59.1796607971191,75.3336486816406,-113.866539001464,1541525660
iw,-57.662670135498,-57.1946868896484,80.4018020629882,-121.470848083496,1541542327
iw,-59.0203208923339,-55.4033126831054,84.6824645996093,-110.378097534179,1541558994
iw,-60.3182067871093,-53.400089263916,86.8307266235351,-123.515022277832,1541575661
iw,-61.439525604248,-51.5236549377441,82.278076171875,-115.870910644531,1541592328
iw,-62.3427658081054,-50.1168670654296,76.2905731201171,-87.5237426757812,1541608995
iw,-63.0765571594238,-49.2898559570312,73.0672988891601,-52.4251480102539,1541625662
iw,-63.7041587829589,-48.9240798950195,73.8113937377929,-24.2465591430664,1541642329
iw,-64.2654724121093,-48.9370613098144,72.5752639770507,-1.40552484989166,1541658996
iw,-64.7821350097656,-49.2621345520019,68.2754974365234,17.4676570892334,1541675663
iw,-65.2467498779296,-49.7582855224609,63.6319541931152,28.0191707611084,1541692330
iw,-65.6134719848632,-50.346393585205,55.1684379577636,33.560302734375,1541708997
iw,-65.9305114746093,-50.7929306030273,46.9259796142578,25.0451564788818,1541725664
iw,-66.3663330078125,-50.9675941467285,52.0373382568359,8.41611766815185,1541742331
iw,-66.9241180419921,-50.7663421630859,59.702335357666,-14.8447914123535,1541758998
iw,-67.4359817504882,-50.5377655029296,55.1411933898925,-17.3760967254638,1541775665
iw,-67.8303527832031,-50.4087486267089,47.557991027832,-11.2230243682861,1541792332
iw,-68.129150390625,-50.2410125732421,40.8848724365234,-12.92906665802,1541808999
iw,-68.4101333618164,-49.9527168273925,38.5217666625976,-20.1433486938476,1541825666
iw,-68.7081451416015,-49.5984916687011,39.4853248596191,-24.6005172729492,1541842333
iw,-69.0208129882812,-49.3145217895507,40.8991203308105,-21.0721817016601,1541859000
iw,-69.2842559814453,-49.169017791748,36.0456314086914,-13.3829660415649,1541875667
iw,-69.4922866821289,-49.0822372436523,24.4891471862792,-10.8196306228637,1541892334
iw,-69.6637802124023,-49.0157279968261,20.4680919647216,-10.2858457565307,1541909001
iw,-69.7956466674804,-49.1219978332519,18.413625717163,0.28679472208023,1541925668
iw,-69.862548828125,-49.3584327697753,15.5585441589355,9.89048862457275,1541942335
iw,-69.901611328125,-49.5681343078613,15.1678323745727,9.14246654510498,1541959002
iw,-69.9458694458007,-49.7724151611328,10.6007575988769,7.14362001419067,1541975669
iw,-69.9682540893554,-49.9979133605957,2.70682168006896,7.91946029663085,1541992336
iw,-69.9920806884765,-50.3349952697753,-14.5241584777832,15.2463178634643,1542009003
iw,-70.0724182128906,-51.1103134155273,-43.5417442321777,41.7762908935546,1542025670
iw,-70.2969741821289,-52.1106910705566,-70.3841323852539,55.5121765136718,1542042337
iw,-70.6452941894531,-53.3622207641601,-93.182746887207,71.3141098022461,1542059004
iw,-71.032844543457,-54.7797203063964,-102.257606506347,82.4015884399414,1542075671
iw,-71.2987976074218,-56.1689987182617,-119.931060791015,80.7925491333007,1542092338
iw,-71.1856384277343,-57.3797760009765,-140.61424255371,69.592658996582,1542109005
iw,-70.4719085693359,-58.5124282836914,-152.977798461914,64.8216552734375,1542125672
iw,-69.1612396240234,-59.7676124572753,-158.60952758789,72.6622161865234,1542142339
iw,-67.4421463012695,-61.0597686767578,-157.168258666992,75.2980575561523,1542159006
iw,-65.5905532836914,-62.3185310363769,-148.676528930664,73.3779983520507,1542175673
iw,-63.6695709228515,-63.6501235961914,-140.968399047851,77.8189620971679,1542192340
iw,-61.6567001342773,-65.0718536376953,-140.372833251953,83.4324111938476,1542209007
iw,-59.6565589904785,-66.5670623779296,-143.040832519531,87.9436645507812,1542225674
iw,-57.6977233886718,-68.0431594848632,-140.700973510742,86.7882919311523,1542242341
iw,-55.7449073791503,-69.4558181762695,-132.065017700195,82.9803619384765,1542259008
iw,-53.6280250549316,-70.8475036621093,-130.900161743164,81.6605377197265,1542275675
iw,-51.5285682678222,-72.3101196289062,-122.948692321777,85.7500991821289,1542292342
iw,-49.4301681518554,-73.8419113159179,-118.731895446777,89.6862564086914,1542309009
iw,-47.3001289367675,-75.4257659912109,-116.553070068359,92.6884613037109,1542325676
iw,-45.2277374267578,-76.9740219116211,-113.299797058105,90.5109329223632,1542342343
iw,-43.5691413879394,-78.4805908203125,-91.7215194702148,88.0957641601562,1542359010
iw,-42.290771484375,-79.9225311279296,-72.2311248779296,84.4204864501953,1542375677
iw,-41.3923873901367,-81.2786178588867,-52.1366500854492,79.5180053710937,1542392344
iw,-40.7588272094726,-82.6145706176757,-37.4997596740722,78.4207153320312,1542409011
iw,-40.2878303527832,-83.956558227539,-28.9017639160156,78.7864990234375,1542425678
iw,-39.8886680603027,-85.2565383911132,-25.5523643493652,76.2514953613281,1542442345
iw,-39.3934059143066,-86.5185623168945,-31.566234588623,73.9923477172851,1542459012
iw,-38.8983879089355,-87.716552734375,-30.0814819335937,70.0868453979492,1542475679
iw,-38.5418434143066,-88.8601379394531,-20.6340026855468,66.7050323486328,1542492346
iw,-38.1245040893554,-90.0,-24.5893955230712,64.5453262329101,1542509013
iw,-37.8582687377929,-88.9180908203125,-15.099627494812,65.2410430908203,1542525680
iw,-37.7281341552734,-87.716552734375,-7.28540515899658,69.6623001098632,1542542347
iw,-37.6244010925293,-86.4740829467773,-6.74385595321655,71.6114807128906,1542559014
iw,-37.5093994140625,-85.2139816284179,-8.21835136413574,72.775276184082,1542575681
iw,-37.3667068481445,-83.9905166625976,-9.98094463348388,71.1369094848632,1542592348
iw,-37.1726989746093,-82.8957977294921,-12.9263162612915,63.6769714355468,1542609015
iw,-36.961124420166,-81.9541625976562,-13.8027725219726,54.9849433898925,1542625682
iw,-36.7861289978027,-81.1560897827148,-11.4518566131591,45.8643226623535,1542642349
iw,-36.6762733459472,-80.4790344238281,-7.35941553115844,37.2879371643066,1542659016
iw,-36.6988372802734,-79.9009857177734,0.873300552368164,30.5795192718505,1542675683
iw,-36.8213233947753,-79.3835525512695,7.20019578933715,26.7428836822509,1542692350
iw,-36.7183570861816,-78.8617172241211,-6.8670015335083,27.1938114166259,1542709017
iw,-36.371826171875,-78.4321594238281,-21.2419986724853,22.1227378845214,1542725684
iw,-36.4780464172363,-78.3556518554687,8.64381122589111,1.57633125782012,1542742351
iw,-37.6212501525878,-78.6959457397461,69.6554718017578,-23.0476112365722,1542759018
iw,-38.7036552429199,-79.6090621948242,63.6423645019531,-58.317024230957,1542775685
iw,-39.0541152954101,-81.1608428955078,19.1233863830566,-99.4220123291015,1542792352
iw,-39.188175201416,-83.1830139160156,5.0176453590393,-136.232452392578,1542809019
iw,-39.7678031921386,-85.1977996826171,32.2805061340332,-156.846954345703,1542825686
iw,-40.8981208801269,-86.2362594604492,67.6819534301757,-152.443450927734,1542842353
iw,-42.3257446289062,-85.8767318725586,88.4387512207031,-125.208778381347,1542859020
iw,-43.4111137390136,-84.8154525756836,69.5119552612304,-119.001556396484,1542875687
iw,-44.2566680908203,-83.1022720336914,57.3394660949707,-143.209991455078,1542892354
iw,-45.1400299072265,-80.880256652832,63.4906730651855,-159.605667114257,1542909021
iw,-46.2200355529785,-78.5397415161132,76.0051345825195,-156.68423461914,1542925688
iw,-47.4255332946777,-75.8915252685546,81.1817932128906,-168.547973632812,1542942355
iw,-48.5759620666503,-73.010025024414,75.565689086914,-178.198516845703,1542959022
iw,-49.6356925964355,-70.1784362792968,67.3712005615234,-173.313598632812,1542975689
iw,-50.7345314025878,-67.5476303100586,66.5293502807617,-161.016876220703,1542992356
iw,-51.9216766357421,-65.3532791137695,68.0234603881836,-135.390640258789,1543009023
iw,-53.2159576416015,-63.3788414001464,71.3894882202148,-122.284385681152,1543025690
iw,-54.6363945007324,-61.4078559875488,78.3508529663086,-121.194305419921,1543042357
iw,-55.9936981201171,-59.2909469604492,74.9408340454101,-129.231506347656,1543059024
iw,-57.2829856872558,-57.2235221862793,72.1112442016601,-126.162651062011,1543075691
iw,-58.4854698181152,-55.2299575805664,72.5451889038086,-122.017700195312,1543092358
iw,-59.49755859375,-53.1438255310058,71.0586166381836,-127.718147277832,1543109025
iw,-60.2988014221191,-51.1596450805664,65.8483352661132,-121.51301574707,1543125692
iw,-61.0312385559082,-49.6369514465332,65.3206405639648,-93.5689163208007,1543142359
iw,-61.822166442871,-48.6779136657714,73.441291809082,-59.1901893615722,1543159026
iw,-62.6657104492187,-48.2289695739746,80.6145935058593,-28.1812953948974,1543175693
iw,-63.5211563110351,-48.1697845458984,84.927131652832,-5.04117965698242,1543192360
iw,-64.2326889038086,-48.481346130371,78.9439086914062,17.1485042572021,1543209027
iw,-64.7968597412109,-48.828987121582,71.8232345581054,19.6497802734375,1543225694
iw,-65.3380661010742,-49.5182762145996,70.322395324707,39.9989585876464,1543242361
iw,-65.8152084350586,-50.267406463623,64.3742599487304,43.2678985595703,1543259028
iw,-66.1818542480468,-50.7206153869628,58.8061180114746,25.3138160705566,1543275695
iw,-66.5046081542968,-50.9813804626464,57.0513954162597,13.5639314651489,1543292362
iw,-66.804328918457,-50.9543838500976,56.610595703125,-3.85465264320373,1543309029
iw,-67.0860824584961,-50.9121475219726,54.8545227050781,-4.5017294883728,1543325696
iw,-67.338752746582,-50.7934761047363,50.5714111328125,-9.11404705047607,1543342363
iw,-67.5901794433593,-50.4938011169433,43.5269622802734,-20.7973365783691,1543359030
iw,-67.8923797607421,-50.0770568847656,39.4486961364746,-28.6352519989013,1543375697
iw,-68.2443008422851,-49.7153892517089,39.5581321716308,-25.8154296875,1543392364
iw,-68.6769485473632,-49.4537773132324,35.185920715332,-20.084882736206,1543409031
iw,-69.1141128540039,-49.2132034301757,28.9528713226318,-19.1539592742919,1543425698
iw,-69.4315414428711,-49.2215461730957,25.507863998413,-3.94521284103393,1543442365
iw,-69.5723724365234,-49.2620887756347,26.4693489074707,0.12308844178915,1543459032
iw,-69.5765151977539,-49.166706085205,27.6351642608642,-7.8255066871643,1543475699
iw,-69.5063552856445,-48.7893447875976,25.2676467895507,-27.1634483337402,1543492366
iw,-69.3515014648437,-48.2740211486816,22.0796890258789,-35.8994407653808,1543509033
iw,-69.1976242065429,-48.1425628662109,6.25349140167236,-12.4530229568481,1543525700
iw,-69.1357803344726,-48.0248107910156,-22.8087558746337,-11.7858963012695,1543542367
iw,-69.1786041259765,-48.2711486816406,-53.2896385192871,10.9355297088623,1543559034
iw,-69.4126434326171,-49.336311340332,-84.8776168823242,60.4262886047363,1543575701
iw,-69.7982482910156,-50.87495803833,-108.517036437988,89.7273864746093,1543592368
iw,-70.2210540771484,-52.3398246765136,-113.568122863769,84.897834777832,1543609035
iw,-70.6021499633789,-53.4770927429199,-121.267440795898,64.2682723999023,1543625702
iw,-70.6943817138671,-54.4725265502929,-126.793228149414,55.3134841918945,1543642369
iw,-70.1782150268554,-55.5668220520019,-141.527084350585,61.782859802246,1543659036
iw,-68.9546737670898,-56.6718788146972,-159.644805908203,63.2435646057128,1543675703
iw,-67.3656387329101,-57.8077583312988,-155.680313110351,65.2855987548828,1543692370
iw,-65.7013854980468,-59.0727844238281,-140.799896240234,72.9143524169921,1543709037
iw,-63.962345123291,-60.4822006225585,-135.157562255859,81.903205871582,1543725704
iw,-62.1589088439941,-61.9265518188476,-137.928756713867,84.5266876220703,1543742371
iw,-60.2681083679199,-63.3593711853027,-142.514099121093,84.123306274414,1543759038
iw,-58.3257598876953,-64.8123397827148,-141.90037536621,85.350341796875,1543775705
iw,-56.5591697692871,-66.282958984375,-125.013732910156,86.5022354125976,1543792372
iw,-54.787742614746,-67.7140731811523,-116.822952270507,84.198989868164,1543809039
iw,-52.8033943176269,-69.103530883789,-122.047843933105,81.6386795043945,1543825706
iw,-50.6484909057617,-70.4644775390625,-124.938232421875,79.8736114501953,1543842373
iw,-48.4412155151367,-71.8126831054687,-122.122909545898,79.0565643310546,1543859040
iw,-46.3242950439453,-73.1190567016601,-117.56721496582,76.5823211669921,1543875707
iw,-44.5112037658691,-74.3580856323242,-102.858940124511,72.6716079711914,1543892374
iw,-43.0721588134765,-75.5532684326171,-83.4461975097656,70.1461486816406,1543909041
iw,-42.1196479797363,-76.6825561523437,-56.3881034851074,66.2203903198242,1543925708
iw,-41.4710884094238,-77.7358245849609,-39.7388191223144,61.6207847595214,1543942375
iw,-40.9711837768554,-78.7938385009765,-31.6655197143554,61.8878860473632,1543959042
iw,-40.5051612854003,-79.9738006591796,-30.5902824401855,69.2686691284179,1543975709
iw,-40.0694427490234,-81.3186645507812,-29.8973369598388,79.2861175537109,1543992376
iw,-39.6689414978027,-82.8130493164062,-28.231834411621,88.4053802490234,1544009043
iw,-39.3518447875976,-84.2845458984375,-22.6672058105468,87.0358047485351,1544025710
iw,-39.0938453674316,-85.6533737182617,-17.8868732452392,80.4036483764648,1544042377
iw,-38.7375869750976,-86.9481582641601,-22.6408901214599,75.6130905151367,1544059044
iw,-38.3961105346679,-88.2427520751953,-20.0966987609863,75.6095123291015,1544075711
iw,-38.0726699829101,-89.3810348510742,-17.8948802947998,67.1524658203125,1544092378
iw,-37.6160850524902,-89.5454406738281,-25.6930751800537,59.1011276245117,1544109045
iw,-37.0899772644043,-88.4830245971679,-31.2831573486328,63.5658683776855,1544125712
iw,-36.706256866455,-87.3066711425781,-23.5879001617431,68.9424438476562,1544142379
iw,-36.4035034179687,-86.0890426635742,-18.8230743408203,71.1125946044921,1544159046
iw,-36.2519989013671,-84.8647766113281,-9.55862236022949,71.5167617797851,1544175713
iw,-36.1566162109375,-83.6952514648437,-5.75226736068725,67.9155578613281,1544192380
iw,-36.1054801940918,-82.6807556152343,-2.73906850814819,57.8020820617675,1544209047
iw,-36.0805282592773,-81.847053527832,-1.26189851760864,45.6890907287597,1544225714
iw,-35.9509086608886,-81.1589584350586,-7.5913496017456,36.3083724975585,1544242381
iw,-35.9176177978515,-80.4997024536132,-1.75550091266632,34.8940849304199,1544259048
iw,-35.817138671875,-79.8749008178711,-6.34361124038696,33.8621025085449,1544275715
iw,-35.7185516357421,-79.3338775634765,-6.54345417022705,29.9632472991943,1544292382
iw,-35.771369934082,-79.1490631103515,4.16708087921142,9.04605865478515,1544309049
iw,-36.6498222351074,-79.4457244873046,54.4534225463867,-20.0795211791992,1544325716
iw,-37.7510299682617,-80.2782363891601,65.6398162841796,-53.9063873291015,1544342383
iw,-38.3091773986816,-81.6854019165039,31.597053527832,-90.3830184936523,1544359050
iw,-38.3593559265136,-83.5268249511718,-0.855057597160339,-122.668571472167,1544375717
iw,-38.766845703125,-85.4370498657226,18.6869564056396,-145.10643005371,1544392384
iw,-39.787254333496,-86.5370025634765,57.9352149963378,-151.255584716796,1544409051
iw,-41.1592750549316,-86.0279312133789,83.8953018188476,-130.289459228515,1544425718
iw,-42.5720481872558,-84.7289047241211,90.5819244384765,-122.694145202636,1544442385
iw,-43.68599319458,-82.9501037597656,73.7112503051757,-135.884567260742,1544459052
iw,-44.6506919860839,-80.8019180297851,67.0323715209961,-150.610229492187,1544475719
iw,-45.7006340026855,-78.6829528808593,74.5869140625,-142.120086669921,1544492386
iw,-46.9181900024414,-76.5320434570312,83.4727325439453,-139.558395385742,1544509053
iw,-48.144229888916,-74.0515747070312,80.8637084960937,-156.440689086914,1544525720
iw,-49.2701110839843,-71.2417831420898,72.1930160522461,-173.809906005859,1544542387
iw,-50.3586387634277,-68.6008148193359,67.1342544555664,-162.134338378906,1544559054
iw,-51.4916343688964,-66.3945236206054,66.802001953125,-135.873870849609,1544575721
iw,-52.6638298034668,-64.6268234252929,65.2264938354492,-110.196395874023,1544592388
iw,-53.9160614013671,-62.9703140258789,66.32861328125,-103.38646697998,1544609055
iw,-55.3434562683105,-60.9928512573242,75.323745727539,-121.8388671875,1544625722
iw,-56.9153289794921,-58.7939682006835,85.5859375,-134.573577880859,1544642389
iw,-58.5092163085937,-56.9104843139648,92.9052810668945,-115.923652648925,1544659056
iw,-59.9916496276855,-55.0420684814453,93.9752807617187,-115.574790954589,1544675723
iw,-61.1841583251953,-52.9795913696289,85.7434005737304,-127.274322509765,1544692390
iw,-62.0631027221679,-51.1531372070312,77.5086975097656,-112.773414611816,1544709057
iw,-62.7383422851562,-49.795352935791,72.922378540039,-84.2716522216796,1544725724
iw,-63.3269958496093,-48.9980316162109,73.1334228515625,-49.9671897888183,1544742391
iw,-63.9243087768554,-48.5793876647949,77.9675216674804,-26.901195526123,1544759058
iw,-64.5881118774414,-48.4974975585937,82.7103195190429,-6.91856956481933,1544775725
iw,-65.2008285522461,-48.7102546691894,76.1156692504882,10.9343919754028,1544792392
iw,-65.667366027832,-49.139347076416,60.5530204772949,24.2074165344238,1544809059
iw,-66.1154632568359,-49.6158180236816,53.330711364746,26.9783058166503,1544825726
iw,-66.6160278320312,-49.9403533935546,51.0330085754394,17.7096271514892,1544842393
iw,-67.1495971679687,-50.047077178955,51.2024459838867,4.44248294830322,1544859060
iw,-67.6958389282226,-50.0394210815429,57.5286407470703,-2.79620718955993,1544875727
iw,-68.1089477539062,-50.1739845275878,52.5981521606445,5.39054012298584,1544892394
iw,-68.3755874633789,-50.2583236694335,41.3077735900878,2.70473289489746,1544909061
iw,-68.6152877807617,-50.176040649414,39.0439567565918,-7.25653314590454,1544925728
iw,-68.9240036010742,-49.8808097839355,40.9691123962402,-20.426794052124,1544942395
iw,-69.2574996948242,-49.5667190551757,34.2693328857421,-21.7034530639648,1544959062
iw,-69.5580902099609,-49.492130279541,22.1674671173095,-7.55357551574707,1544975729
iw,-69.8623962402343,-49.5288162231445,16.3969364166259,-1.633354306221,1544992396
iw,-70.1950225830078,-49.5517234802246,17.907371520996,-3.39595913887023,1545009063
iw,-70.4253616333007,-49.681785583496,17.1976051330566,3.33486080169677,1545025730
iw,-70.5529708862304,-49.918357849121,14.9656143188476,9.90053939819336,1545042397
iw,-70.6893615722656,-49.716022491455,8.33282279968261,-17.6956233978271,1545059064
iw,-70.7969055175781,-49.2206535339355,-2.29642224311828,-36.4178924560546,1545075731
iw,-70.8692626953125,-49.1076202392578,-23.9818496704101,-13.7855577468872,1545092398
iw,-70.9489288330078,-49.2607879638671,-57.8619842529296,3.01679515838623,1545109065
iw,-70.9874954223632,-49.7506599426269,-90.1049728393554,25.1301155090332,1545125732
iw,-70.9643249511718,-50.9204635620117,-99.1819686889648,68.5959548950195,1545142399
iw,-70.958740234375,-52.3579635620117,-108.329216003417,84.7576904296875,1545159066
iw,-70.8602523803711,-53.6461944580078,-119.967658996582,74.3717346191406,1545175733
iw,-70.3138198852539,-54.7395286560058,-135.866592407226,62.4547996520996,1545192400
iw,-69.0110931396484,-55.8732070922851,-159.502487182617,65.3581161499023,1545209067
iw,-67.3163375854492,-57.0742149353027,-159.080642700195,69.7894134521484,1545225734
iw,-65.6350479125976,-58.2111740112304,-139.545349121093,65.8340148925781,1545242401
iw,-63.9425315856933,-59.3570976257324,-127.197631835937,66.1987915039062,1545259068
iw,-62.1011810302734,-60.5901908874511,-129.544540405273,71.4599075317382,1545275735
iw,-60.1711959838867,-61.8999290466308,-133.688125610351,76.2954864501953,1545292402
iw,-58.2282180786132,-63.2376556396484,-134.344573974609,78.2507400512695,1545309069
iw,-56.3710861206054,-64.6211395263671,-125.12621307373,81.1835708618164,1545325736
iw,-54.5233039855957,-66.0833892822265,-120.646141052246,86.0337142944336,1545342403
iw,-52.5644302368164,-67.6273803710937,-124.386024475097,90.9826583862304,1545359070
iw,-50.5828628540039,-69.1387405395507,-120.674308776855,88.9266052246093,1545375737
iw,-48.542194366455,-70.5426712036132,-118.158424377441,82.3292999267578,1545392404
iw,-46.4793434143066,-71.9341049194336,-114.237403869628,81.4697113037109,1545409071
iw,-44.5421867370605,-73.3863983154296,-106.616226196289,85.1111297607421,1545425738
iw,-42.7583541870117,-74.821792602539,-101.352722167968,84.2041625976562,1545442405
iw,-41.2944946289062,-76.1903076171875,-85.4929733276367,80.2971496582031,1545459072
iw,-40.2861633300781,-77.5654220581054,-59.5241241455078,80.7454147338867,1545475739
iw,-39.7069702148437,-78.9896545410156,-35.1233978271484,83.708023071289,1545492406
iw,-39.356460571289,-80.4188766479492,-22.8188896179199,84.0457992553711,1545509073
iw,-39.0750312805175,-81.8796997070312,-19.4725685119628,85.998664855957,1545525740
iw,-38.6917724609375,-83.4974517822265,-25.3505783081054,95.5265731811523,1545542407
iw,-38.1708831787109,-85.1594085693359,-32.3285942077636,98.5228118896484,1545559074
iw,-37.6801033020019,-86.6554336547851,-29.4393253326416,88.8366546630859,1545575741
iw,-37.4042434692382,-87.9450988769531,-15.2965812683105,76.6154022216796,1545592408
iw,-37.3671150207519,-89.0934524536132,-0.591814935207366,69.3120651245117,1545609075
iw,-37.2659149169921,-89.6749496459961,-6.19881391525268,57.7609786987304,1545625742
iw,-37.1781730651855,-88.9251708984375,-6.57017374038696,52.6775817871093,1545642409
iw,-37.23237991333,-87.858901977539,1.35320580005645,63.1703910827636,1545659076
iw,-37.1262702941894,-86.5978622436523,-8.26542663574218,73.8597183227539,1545675743
iw,-36.8118133544921,-85.3362503051757,-20.2234382629394,74.0037841796875,1545692410
iw,-36.4024009704589,-84.2011337280273,-25.2140560150146,66.3714904785156,1545709077
iw,-35.9723815917968,-83.2825927734375,-25.5465698242187,52.6767501831054,1545725744
iw,-35.7317733764648,-82.5702285766601,-13.2418146133422,38.7122535705566,1545742411
iw,-35.8213233947753,-81.9511184692382,7.29741191864013,32.0917854309082,1545759078
iw,-36.0291061401367,-81.2964477539062,13.6672258377075,34.1792373657226,1545775745
iw,-36.1081581115722,-80.6969528198242,5.44631814956665,31.9303188323974,1545792412
iw,-36.4033126831054,-80.3754577636718,20.7482357025146,17.1540451049804,1545809079
iw,-37.3177070617675,-80.4436645507812,58.7150611877441,-6.0141544342041,1545825746
iw,-38.4655990600585,-81.0642929077148,69.8179473876953,-40.3110313415527,1545842413
iw,-39.1704406738281,-82.3295974731445,41.1230239868164,-80.8231811523437,1545859080
iw,-39.4450950622558,-84.1104736328125,13.7317953109741,-117.5571975708,1545875747
iw,-40.022850036621,-86.0427474975586,30.8632183074951,-143.566528320312,1545892414
iw,-41.1042785644531,-87.1161575317382,62.7564010620117,-146.46109008789,1545909081
iw,-42.4683189392089,-86.3845901489257,82.7938079833984,-132.600296020507,1545925748
iw,-43.7691307067871,-84.7709350585937,82.5345764160156,-126.006599426269,1545942415
iw,-44.8046875,-82.7347259521484,69.0073547363281,-140.019409179687,1545959082
iw,-45.7878761291503,-80.3468933105468,69.6090850830078,-158.755111694335,1545975749
iw,-46.925365447998,-78.0302200317382,81.1358871459961,-150.231246948242,1545992416
iw,-48.1991233825683,-75.9106750488281,88.2523956298828,-135.096450805664,1546009083
iw,-49.4674682617187,-73.7187347412109,85.8593826293945,-137.251388549804,1546025750
iw,-50.6525726318359,-71.2688827514648,78.5323257446289,-151.331604003906,1546042417
iw,-51.7643928527832,-68.5618820190429,71.9618301391601,-165.809829711914,1546059084
iw,-52.7879180908203,-65.816291809082,63.3201637268066,-167.585052490234,1546075751
iw,-53.8271293640136,-63.6160087585449,60.0482368469238,-134.48777770996,1546092418
iw,-55.0239334106445,-62.1745910644531,64.622314453125,-88.5294342041015,1546109085
iw,-56.447452545166,-60.8124885559082,75.1927719116211,-82.8095016479492,1546125752
iw,-57.9982872009277,-58.8572921752929,82.6507492065429,-117.513298034667,1546142419
iw,-59.4180755615234,-56.7639541625976,78.1738815307617,-125.788208007812,1546159086
iw,-60.5327224731445,-54.9740028381347,68.5648574829101,-108.344734191894,1546175753
iw,-61.4046020507812,-53.060432434082,63.4129371643066,-116.500175476074,1546192420
iw,-62.1361427307128,-51.2205047607421,60.6939353942871,-112.444099426269,1546209087
iw,-62.8726348876953,-49.8666839599609,64.5530090332031,-83.5854339599609,1546225754
iw,-63.6548423767089,-49.1093978881835,72.4172821044921,-47.9259490966796,1546242421
iw,-64.3466644287109,-48.8237495422363,72.8964462280273,-19.5019798278808,1546259088
iw,-64.8773803710937,-48.8694114685058,67.4238586425781,0.579891324043273,1546275755
iw,-65.3358383178711,-49.2987060546875,65.2971420288086,23.6756935119628,1546292422
iw,-65.7850112915039,-49.9894790649414,61.5064468383789,39.7586631774902,1546309089
iw,-66.2007369995117,-50.4555511474609,52.5956382751464,26.5432987213134,1546325756
iw,-66.6449737548828,-50.9361724853515,49.3968200683593,27.3493671417236,1546342423
iw,-67.2347030639648,-51.3372001647949,57.1309165954589,22.4661750793457,1546359090
iw,-67.9314498901367,-51.2907943725585,61.0220298767089,-4.53013944625854,1546375757
iw,-68.5219802856445,-51.0377883911132,54.3494606018066,-17.3820419311523,1546392424
iw,-68.9552536010742,-50.9396286010742,48.9440536499023,-8.24312686920166,1546409091
iw,-69.2668991088867,-50.9219627380371,42.644432067871,-3.25577735900878,1546425758
iw,-69.5118865966796,-50.7459144592285,35.7088356018066,-13.1111125946044,1546442425
iw,-69.7514877319336,-50.4222106933593,35.033462524414,-22.4760837554931,1546459092
iw,-70.0539627075195,-49.9773025512695,35.759105682373,-30.2421035766601,1546475759
iw,-70.3870773315429,-49.517032623291,28.8600845336914,-31.5855827331542,1546492426
iw,-70.723388671875,-49.1494483947753,22.4855365753173,-26.7303390502929,1546509093
iw,-71.0896911621093,-48.9478759765625,22.6193923950195,-17.0103530883789,1546525760
iw,-71.4397277832031,-49.0654487609863,21.5558624267578,2.93245792388916,1546542427
iw,-71.6974868774414,-49.170124053955,21.3990058898925,3.89659571647644,1546559094
iw,-71.9379196166992,-48.9891700744628,21.8182258605957,-14.2557611465454,1546575761
iw,-72.1951141357421,-48.5102081298828,20.2532920837402,-34.9052200317382,1546592428
iw,-72.350830078125,-47.9257774353027,13.0412111282348,-41.4802131652832,1546609095
iw,-72.4246444702148,-47.7888259887695,-8.57116413116455,-14.4106016159057,1546625762
iw,-72.5062561035156,-47.7949028015136,-39.4599685668945,-7.11895608901977,1546642429
iw,-72.5819778442382,-48.0739440917968,-74.0297393798828,9.46041870117187,1546659096
iw,-72.63671875,-49.018684387207,-94.6216278076171,51.8279495239257,1546675763
iw,-72.6184005737304,-50.4039802551269,-103.287742614746,80.8458099365234,1546692430
iw,-72.4957504272461,-51.7694664001464,-116.816497802734,79.2530670166015,1546709097
iw,-72.0958557128906,-52.9549369812011,-133.418899536132,67.2909545898437,1546725764
iw,-71.1929092407226,-54.1222839355468,-146.971755981445,65.7779312133789,1546742431
iw,-69.776382446289,-55.3736419677734,-153.593124389648,71.3349533081054,1546759098
iw,-68.1001052856445,-56.6559333801269,-150.045379638671,73.7024230957031,1546775765
iw,-66.3969421386718,-57.9629249572753,-139.264511108398,75.240982055664,1546792432
iw,-64.6388244628906,-59.3709068298339,-133.556777954101,81.4424591064453,1546809099
iw,-62.8069305419921,-60.8779754638671,-131.36294555664,87.8285598754882,1546825766
iw,-60.8276977539062,-62.4043922424316,-139.08396911621,89.5309371948242,1546842433
iw,-58.8204956054687,-63.8954696655273,-137.823974609375,87.6501312255859,1546859100
iw,-56.8463134765625,-65.4429779052734,-130.2265625,91.1344680786132,1546875767
iw,-54.8811492919921,-67.0186080932617,-123.479454040527,92.9384689331054,1546892434
iw,-52.8147544860839,-68.5487518310546,-122.880348205566,90.2713394165039,1546909101
iw,-50.629539489746,-70.0009078979492,-123.101539611816,85.5654144287109,1546925768
iw,-48.3746604919433,-71.4893264770507,-121.068054199218,87.7172470092773,1546942435
iw,-46.1840476989746,-73.0694427490234,-117.066955566406,93.3541946411132,1546959102
iw,-44.2408943176269,-74.6461105346679,-105.364051818847,93.4154815673828,1546975769
iw,-42.6335563659668,-76.1147079467773,-89.6052703857421,87.0718307495117,1546992436
iw,-41.3743705749511,-77.5134887695312,-72.3951873779296,82.7388687133789,1547009103
iw,-40.4916801452636,-78.8997039794921,-51.8575592041015,81.7780609130859,1547025770
iw,-39.8469543457031,-80.2814178466796,-38.6327056884765,81.3754119873046,1547042437
iw,-39.379653930664,-81.6968841552734,-29.1425399780273,83.1793212890625,1547059104
iw,-39.0615730285644,-83.1592330932617,-21.1807765960693,85.8518829345703,1547075771
iw,-38.7852554321289,-84.6182479858398,-19.4191951751709,85.5392379760742,1547092438
iw,-38.4688758850097,-85.9549484252929,-21.9883422851562,78.0532760620117,1547109105
iw,-38.1042442321777,-87.1689758300781,-23.3876991271972,70.5619888305664,1547125772
iw,-37.5675582885742,-88.39453125,-29.8661975860595,71.1645965576171,1547142439
iw,-36.7860069274902,-89.6505813598632,-42.814281463623,70.5632247924804,1547159106
iw,-36.5365715026855,-89.3810348510742,-10.9911422729492,63.2149925231933,1547175773
iw,-36.1217536926269,-88.2108535766601,-23.5373439788818,66.691909790039,1547192440
iw,-35.646240234375,-86.8890686035156,-29.1691532135009,76.6465377807617,1547209107
iw,-35.1991157531738,-85.569465637207,-28.0087947845459,76.5419235229492,1547225774
iw,-34.8554954528808,-84.3344192504882,-21.6621875762939,72.0054702758789,1547242441
iw,-34.5230979919433,-83.2440490722656,-19.9830951690673,63.767650604248,1547259108
iw,-34.2405929565429,-82.4059143066406,-16.0678634643554,47.993797302246,1547275775
iw,-34.0926780700683,-81.8075790405273,-7.60888481140136,32.9771690368652,1547292442
iw,-34.1727447509765,-81.2855758666992,6.12821722030639,27.7229957580566,1547309109
iw,-34.2367210388183,-80.7266159057617,4.9316668510437,29.3941192626953,1547325776
iw,-34.1914596557617,-80.1597900390625,-2.39419436454772,30.2826385498046,1547342443
iw,-33.7940216064453,-79.7852554321289,-22.9057350158691,19.1143436431884,1547359110
iw,-34.1152114868164,-79.7442398071289,22.6099014282226,-0.988000750541687,1547375777
iw,-35.5453071594238,-80.244400024414,86.5234451293945,-34.9962692260742,1547392444
iw,-36.8487434387207,-81.4750442504882,76.8064422607421,-81.7951583862304,1547409111
iw,-37.4067802429199,-83.28125,30.9376640319824,-123.179512023925,1547425778
iw,-37.8427009582519,-85.2073974609375,21.7677764892578,-147.834335327148,1547442445
iw,-38.6676216125488,-86.4270324707031,45.8658905029296,-153.07225036621,1547459112
iw,-40.1322593688964,-86.1274871826171,87.6264419555664,-131.571243286132,1547475779
iw,-41.7876815795898,-84.9477844238281,102.113426208496,-123.265518188476,1547492446
iw,-43.1074028015136,-83.1630706787109,84.1033020019531,-140.42088317871,1547509113
iw,-44.1373710632324,-80.9384994506836,71.1560440063476,-156.18325805664,1547525780
iw,-45.1529388427734,-78.7065963745117,73.939094543457,-147.576751708984,1547542447
iw,-46.4692916870117,-76.3846359252929,91.5589599609375,-147.835464477539,1547559114
iw,-47.8791313171386,-73.7072372436523,93.5112075805664,-166.127899169921,1547575781
iw,-49.1695289611816,-70.8367767333984,82.9284133911132,-175.648788452148,1547592448
iw,-50.3855056762695,-68.2272262573242,75.2150726318359,-159.13166809082,1547609115
iw,-51.5621261596679,-65.9772262573242,69.3377227783203,-138.146865844726,1547625782
iw,-52.7595100402832,-64.2450714111328,66.5200729370117,-107.742095947265,1547642449
iw,-54.0672531127929,-62.7818069458007,70.1628036499023,-91.3073806762695,1547659116
iw,-55.5177764892578,-61.0228652954101,77.3801651000976,-107.90574645996,1547675783
iw,-57.1251945495605,-58.8212623596191,89.1063995361328,-133.874267578125,1547692450
iw,-58.734390258789,-56.7046775817871,93.1188049316406,-128.971878051757,1547709117
iw,-60.1926345825195,-54.7976303100585,90.9467086791992,-117.032836914062,1547725784
iw,-61.4954605102539,-52.6913719177246,91.8693237304687,-129.319610595703,1547742451
iw,-62.6699790954589,-50.6392059326171,92.9834747314453,-125.82494354248,1547759118
iw,-63.6827087402343,-49.1283493041992,90.0319061279296,-93.0589981079101,1547775785
iw,-64.5074462890625,-48.1934738159179,87.2939529418945,-58.2419929504394,1547792452
iw,-65.1827850341796,-47.726390838623,87.1234512329101,-30.1540489196777,1547809119
iw,-65.8528289794921,-47.7481422424316,91.840461730957,-0.866299569606781,1547825786
iw,-66.5250930786132,-48.0339889526367,92.3229217529296,15.3943481445312,1547842453
iw,-67.0806579589843,-48.6973762512207,77.1066818237304,38.2954711914062,1547859120
iw,-67.420654296875,-49.455810546875,51.6728973388671,43.7619667053222,1547875787
iw,-67.6971054077148,-49.7739753723144,41.8331909179687,17.1664180755615,1547892454
