Label,Left_Hip_q,Right_Hip_q,Left_Hip_qd,Right_Hip_qd,SampleTimeFine
iw,-59.0604362487793,-51.6806335449218,88.2517395019531,-126.773315429687,1706162286
iw,-60.1404571533203,-50.0522422790527,85.147705078125,-100.454124450683,1706178953
iw,-61.0593643188476,-49.0300369262695,82.3716049194336,-63.7687110900878,1706195620
iw,-61.8901138305664,-48.5620193481445,81.0874557495117,-30.3860359191894,1706212287
iw,-62.5980644226074,-48.6600761413574,78.8527069091796,3.43774485588073,1706228954
iw,-63.1794776916503,-48.993797302246,77.1929321289062,17.6137542724609,1706245621
iw,-63.6927108764648,-49.5659027099609,73.9482116699218,32.2394256591796,1706262288
iw,-64.2094955444336,-49.8732299804687,72.4273147583007,16.3966121673584,1706278955
iw,-64.7187194824218,-49.9523391723632,66.2303695678711,2.78673553466796,1706295622
iw,-65.1625061035156,-49.9059028625488,51.9540214538574,-4.94059371948242,1706312289
iw,-65.6327362060546,-49.8073272705078,46.4589576721191,-8.56624507904052,1706328956
iw,-66.1807632446289,-49.5972862243652,50.9761390686035,-15.333906173706,1706345623
iw,-66.7072296142578,-49.292236328125,50.6866378784179,-21.1798381805419,1706362290
iw,-67.0881805419921,-48.9268379211425,41.8338737487793,-24.7990493774414,1706378957
iw,-67.3601837158203,-48.564037322998,38.8229904174804,-24.7766132354736,1706395624
iw,-67.6155242919921,-48.2917251586914,36.1569786071777,-19.2959861755371,1706412291
iw,-67.9037399291992,-48.1684913635253,31.6810474395751,-10.352705001831,1706428958
iw,-68.2257461547851,-48.0669517517089,28.452091217041,-9.03357410430908,1706445625
iw,-68.6064071655273,-47.8939170837402,26.7726707458496,-13.1174249649047,1706462292
iw,-69.0064163208007,-47.8317985534668,22.4694862365722,-6.41334772109985,1706478959
iw,-69.3993530273437,-48.0049095153808,21.0519332885742,7.82737874984741,1706495626
iw,-69.7557601928711,-48.1523780822753,24.7945938110351,6.30168724060058,1706512293
iw,-70.027229309082,-48.0590438842773,25.6820659637451,-8.91696739196777,1706528960
iw,-70.2173080444336,-48.0133552551269,25.0776653289794,-6.68739748001098,1706545627
iw,-70.3818893432617,-48.0433540344238,23.0742168426513,-2.56563329696655,1706562294
iw,-70.4579620361328,-48.2985916137695,17.2113647460937,9.94037342071533,1706578961
iw,-70.4319839477539,-48.8390617370605,-4.71542787551879,26.7634029388427,1706595628
iw,-70.445442199707,-49.7513961791992,-42.0526313781738,50.8117752075195,1706612295
iw,-70.6324996948242,-51.2279052734375,-84.9854354858398,86.8832321166992,1706628962
iw,-70.9992446899414,-52.7941207885742,-104.02091217041,92.2335891723632,1706645629
iw,-71.4288177490234,-54.2499237060546,-106.878723144531,85.1747970581054,1706662296
iw,-71.7176895141601,-55.6555595397949,-122.668670654296,82.1322708129882,1706678963
iw,-71.7003707885742,-57.1187591552734,-123.625602722167,85.6639862060546,1706695630
iw,-71.1933059692382,-58.5355911254882,-132.800674438476,82.9825973510742,1706712297
iw,-70.1921768188476,-59.8636245727539,-144.645706176757,77.745132446289,1706728964
iw,-68.7022323608398,-61.1856002807617,-154.132949829101,77.4018173217773,1706745631
iw,-66.9828872680664,-62.5907325744628,-146.256454467773,82.4187850952148,1706762298
iw,-65.0855941772461,-64.0534896850586,-139.252487182617,85.9616546630859,1706778965
iw,-63.1040306091308,-65.6101531982421,-135.588882446289,91.6214218139648,1706795632
iw,-60.989444732666,-67.1930465698242,-142.221069335937,93.1586380004882,1706812299
iw,-58.7713813781738,-68.7956619262695,-148.018142700195,94.1610794067382,1706828966
iw,-56.6278457641601,-70.3541870117187,-139.428390502929,91.0399169921875,1706845633
iw,-54.4848442077636,-71.8041381835937,-135.768722534179,83.8205642700195,1706862300
iw,-52.2249526977539,-73.1581115722656,-139.187454223632,77.5254516601562,1706878967
iw,-49.8276710510253,-74.423110961914,-142.68342590332,72.2745590209961,1706895634
iw,-47.5035705566406,-75.6231460571289,-135.739517211914,68.8975982666015,1706912301
iw,-45.4875526428222,-76.7688446044921,-116.399948120117,66.3992233276367,1706928968
iw,-43.9221038818359,-77.864631652832,-92.2966537475586,64.1617813110351,1706945635
iw,-42.725486755371,-78.9748077392578,-71.9891204833984,65.5030517578125,1706962302
iw,-41.871726989746,-80.1698684692382,-53.0401382446289,70.5061798095703,1706978969
iw,-41.1758193969726,-81.422607421875,-44.4144477844238,73.7255172729492,1706995636
iw,-40.537124633789,-82.6751251220703,-39.5899353027343,74.3240203857421,1707012303
iw,-39.7246932983398,-83.8802871704101,-47.7472839355468,73.4807510375976,1707028970
iw,-38.9354743957519,-85.0786895751953,-46.1937294006347,76.54296875,1707045637
iw,-38.1321105957031,-86.1944580078125,-47.222297668457,76.5165252685546,1707062304
iw,-37.8512725830078,-87.1417922973632,-11.4945926666259,75.094123840332,1707078971
iw,-38.0530548095703,-87.7953109741211,17.8592205047607,76.4467697143554,1707095638
iw,-38.1734008789062,-87.9236907958984,7.85252666473388,76.7854690551757,1707112305
iw,-38.0580520629882,-87.3790817260742,-8.12830352783203,78.6683197021484,1707128972
iw,-37.6322402954101,-86.3053588867187,-26.9088649749755,82.8049697875976,1707145639
iw,-37.1845321655273,-85.172492980957,-28.355842590332,73.7724533081054,1707162306
iw,-36.8272819519043,-84.2822494506836,-22.5290374755859,54.3096885681152,1707178973
iw,-36.4586639404296,-83.667236328125,-22.3150787353515,36.2214965820312,1707195640
iw,-36.0890960693359,-83.1883926391601,-21.1576747894287,27.5837078094482,1707212307
iw,-35.7808647155761,-82.6815032958984,-15.9346437454223,28.8654632568359,1707228974
iw,-35.7188606262207,-82.1164627075195,0.255917400121688,31.7806015014648,1707245641
iw,-35.7868843078613,-81.6083831787109,8.21189880371093,28.1237335205078,1707262308
iw,-35.8769760131835,-81.3543014526367,9.40411567687988,12.7087001800537,1707278975
iw,-35.960765838623,-81.4290008544921,11.4118385314941,-7.68342781066894,1707295642
iw,-36.3735046386718,-81.8787612915039,34.1793136596679,-30.1108684539794,1707312309
iw,-37.3794250488281,-82.8436050415039,67.7045135498046,-60.4314727783203,1707328976
iw,-38.6582069396972,-84.3811340332031,79.923713684082,-95.3562774658203,1707345643
iw,-39.447021484375,-86.2317886352539,48.0045280456543,-117.267860412597,1707362310
iw,-39.9047546386718,-87.9870529174804,24.9338550567626,-129.34097290039,1707378977
iw,-40.4577369689941,-87.9967041015625,27.3184814453125,-136.953994750976,1707395644
iw,-41.3960418701171,-86.1629409790039,51.7249679565429,-133.597442626953,1707412311
iw,-42.4763679504394,-83.9971389770507,62.9006538391113,-139.378936767578,1707428978
iw,-43.6062126159668,-81.7152099609375,69.7173767089843,-146.786193847656,1707445645
iw,-44.6404304504394,-79.3601150512695,67.4992218017578,-150.062606811523,1707462312
iw,-45.7465286254882,-77.1013641357421,77.4519424438476,-141.734954833984,1707478979
iw,-46.9692764282226,-74.8784408569336,90.4193115234375,-137.45783996582,1707495646
iw,-48.2187767028808,-72.4396362304687,91.7209548950195,-148.845672607421,1707512313
iw,-49.3420639038085,-69.7533416748046,80.8509140014648,-163.002700805664,1707528980
iw,-50.3356056213378,-67.1296005249023,70.1432495117187,-159.186004638671,1707545647
iw,-51.291763305664,-64.7498168945312,63.7084121704101,-144.682876586914,1707562314
iw,-52.2298851013183,-62.6487236022949,55.3620414733886,-128.011276245117,1707578981
iw,-53.1785507202148,-60.6906013488769,48.8175506591796,-119.050567626953,1707595648
iw,-54.2661933898925,-58.7236976623535,54.5245742797851,-118.782333374023,1707612315
iw,-55.4570846557617,-56.6582565307617,62.219139099121,-124.236473083496,1707628982
iw,-56.7474365234375,-54.7158241271972,70.3900604248046,-117.107299804687,1707645649
iw,-58.0493202209472,-52.8973197937011,71.3373413085937,-110.172821044921,1707662316
iw,-59.2644233703613,-50.9518356323242,70.4890518188476,-118.286544799804,1707678983
iw,-60.322093963623,-49.2876625061035,69.5170440673828,-101.604850769042,1707695650
iw,-61.1899032592773,-48.1983985900878,66.7989730834961,-66.9389495849609,1707712317
iw,-61.9212532043457,-47.7872123718261,66.1760787963867,-25.9774913787841,1707728984
iw,-62.6325073242187,-47.8793983459472,70.8601760864257,3.99371290206909,1707745651
iw,-63.3448143005371,-48.4750213623046,73.4744796752929,34.6208267211914,1707762318
iw,-64.0836181640625,-49.1543045043945,79.0345458984375,39.8583946228027,1707778985
iw,-64.8474655151367,-49.8384628295898,84.6539993286132,39.664810180664,1707795652
iw,-65.6190490722656,-49.980972290039,87.6724700927734,6.86061573028564,1707812319
iw,-66.382339477539,-49.8087196350097,88.1887512207031,-12.230031967163,1707828986
iw,-67.0667037963867,-49.8732757568359,84.3526229858398,2.08806324005126,1707845653
iw,-67.6618347167968,-49.9002494812011,78.1554260253906,-0.302046597003936,1707862320
iw,-68.1926727294921,-49.7610740661621,72.9116744995117,-11.2557439804077,1707878987
iw,-68.6250915527343,-49.5122909545898,60.9349250793457,-18.3009033203125,1707895654
iw,-68.9528503417968,-49.2537307739257,48.6912803649902,-18.5609226226806,1707912321
iw,-69.2230911254882,-49.1394309997558,45.5989227294921,-10.0352354049682,1707928988
iw,-69.494644165039,-49.3027458190918,44.3843994140625,6.58357000350952,1707945655
iw,-69.7719573974609,-49.466983795166,36.8167915344238,8.27323913574218,1707962322
iw,-70.0133056640625,-49.6314659118652,31.1304416656494,7.26981687545776,1707978989
iw,-70.2260055541992,-49.6824645996093,21.9121513366699,-2.09679627418518,1707995656
iw,-70.4572677612304,-49.3658752441406,15.7442893981933,-24.9139728546142,1708012323
iw,-70.7385177612304,-48.967601776123,15.2538375854492,-30.7986412048339,1708028990
iw,-70.9789352416992,-48.5713195800781,16.2518692016601,-31.0144901275634,1708045657
iw,-71.1021881103515,-48.4750137329101,5.10329055786132,-11.5713968276977,1708062324
iw,-71.1102600097656,-49.3791809082031,-20.5294246673584,49.8278007507324,1708078991
iw,-71.0084762573242,-50.9331436157226,-53.1260223388671,91.0440521240234,1708095658
iw,-70.878173828125,-52.3569412231445,-84.5487823486328,83.2855377197265,1708112325
iw,-70.818359375,-53.6213569641113,-98.2322463989257,72.5070037841796,1708128992
iw,-70.9150238037109,-54.8345413208007,-100.209739685058,68.2164077758789,1708145659
iw,-71.0668869018554,-56.1162490844726,-106.72174835205,72.7928619384765,1708162326
iw,-70.9322433471679,-57.3716850280761,-123.435874938964,72.5297012329101,1708178993
iw,-69.9942932128906,-58.5305404663085,-157.867523193359,66.9698333740234,1708195660
iw,-68.4720840454101,-59.7178001403808,-166.373123168945,68.4322204589843,1708212327
iw,-66.8682327270507,-61.0054664611816,-152.39533996582,74.7374420166015,1708228994
iw,-65.3141021728515,-62.3060188293457,-131.453231811523,75.8622512817382,1708245661
iw,-63.5943489074707,-63.5970878601074,-131.239639282226,75.4349899291992,1708262328
iw,-61.7023391723632,-64.9326553344726,-139.558273315429,78.3089065551757,1708278995
iw,-59.834358215332,-66.3270416259765,-135.499603271484,82.1482315063476,1708295662
iw,-57.872802734375,-67.7116165161132,-137.917892456054,81.808120727539,1708312329
iw,-55.9483222961425,-69.0415420532226,-129.296264648437,78.583625793457,1708328996
iw,-53.9478912353515,-70.3783187866211,-125.979682922363,79.0403518676757,1708345663
iw,-51.832420349121,-71.6979598999023,-127.346763610839,78.1277160644531,1708362330
iw,-49.6722602844238,-72.9978408813476,-126.882255554199,77.1724472045898,1708378997
iw,-47.5635986328125,-74.3492355346679,-121.20344543457,80.5951232910156,1708395664
iw,-45.6100044250488,-75.797134399414,-109.877029418945,86.8153839111328,1708412331
iw,-43.9451866149902,-77.3175430297851,-93.5599288940429,91.8895416259765,1708428998
iw,-42.5406188964843,-78.8761749267578,-79.7872695922851,95.4740219116211,1708445665
iw,-41.464916229248,-80.4898605346679,-62.8545722961425,100.342994689941,1708462332
iw,-40.7993507385253,-82.1776504516601,-40.4342041015625,106.70393371582,1708478999
iw,-40.4669151306152,-83.9239730834961,-21.8007526397705,112.690223693847,1708495666
iw,-40.3031692504882,-85.7465591430664,-12.5356321334838,122.22021484375,1708512333
iw,-40.1190299987793,-87.3022384643554,-13.3259077072143,125.363327026367,1708529000
iw,-39.7134780883789,-87.7954025268554,-25.0098247528076,108.513984680175,1708545667
iw,-39.0867843627929,-87.4537124633789,-35.5677947998046,73.5961608886718,1708562334
iw,-38.8586997985839,-87.1798553466796,-10.8431930541992,36.8059883117675,1708579001
iw,-39.1089134216308,-87.0686874389648,17.1239910125732,15.7822141647338,1708595668
iw,-39.3379287719726,-86.6902084350586,13.8928852081298,27.5285720825195,1708612335
iw,-39.3239364624023,-85.7082366943359,-2.52212929725646,61.7808799743652,1708629002
iw,-39.1054153442382,-84.3181457519531,-15.6501951217651,84.5187454223632,1708645669
iw,-38.5807228088378,-82.8953552246093,-34.2651672363281,85.6569900512695,1708662336
iw,-37.9097442626953,-81.5908050537109,-43.4405059814453,77.1303405761718,1708679003
iw,-37.2395515441894,-80.5863952636718,-43.2776412963867,56.626953125,1708695670
iw,-36.5883674621582,-79.9579391479492,-41.528522491455,31.7524433135986,1708712337
iw,-35.9564666748046,-79.5930252075195,-39.3133468627929,15.1169061660766,1708729004
iw,-35.5462226867675,-79.1967010498046,-23.7768726348876,19.0603008270263,1708745671
iw,-35.2587127685546,-78.7560043334961,-15.0580825805664,24.5189342498779,1708762338
iw,-35.0328750610351,-78.4341659545898,-9.36239051818847,20.3165550231933,1708779005
iw,-34.7752609252929,-78.4428024291992,-7.39421939849853,0.354857802391052,1708795672
iw,-34.8968696594238,-78.9719696044921,18.901195526123,-32.64888381958,1708812339
iw,-35.844627380371,-80.0821456909179,65.8883285522461,-69.6074066162109,1708829006
iw,-37.0262832641601,-81.736946105957,73.7195205688476,-105.885581970214,1708845673
iw,-37.861888885498,-83.6170883178711,49.9864120483398,-124.47883605957,1708862340
iw,-38.321475982666,-85.2600936889648,26.2339668273925,-120.861595153808,1708879007
iw,-38.7887687683105,-86.3653030395507,25.0351333618164,-117.688903808593,1708895674
iw,-39.713695526123,-86.4898910522461,53.3889846801757,-123.138900756835,1708912341
iw,-40.8015022277832,-85.5126724243164,64.0503005981445,-136.842636108398,1708929008
iw,-42.0148582458496,-83.7343063354492,72.9048843383789,-151.698013305664,1708945675
iw,-43.2417602539062,-81.6933898925781,77.3948516845703,-146.019729614257,1708962342
iw,-44.5500221252441,-79.6981964111328,85.8085098266601,-133.800872802734,1708979009
iw,-45.9663124084472,-77.5842895507812,96.8531417846679,-136.845062255859,1708995676
iw,-47.3687095642089,-75.2170791625976,96.4309921264648,-149.361251831054,1709012343
iw,-48.7394905090332,-72.6316986083984,91.8336944580078,-159.918304443359,1709029010
iw,-50.0484733581543,-70.1962432861328,86.6487045288086,-149.625305175781,1709045677
iw,-51.2633323669433,-68.1707687377929,79.0663604736328,-125.11619567871,1709062344
iw,-52.3652458190918,-66.4529647827148,69.4897384643554,-106.765007019042,1709079011
iw,-53.3583793640136,-64.7565002441406,58.5939254760742,-105.012313842773,1709095678
iw,-54.425121307373,-62.8252220153808,57.5381202697753,-118.021545410156,1709112345
iw,-55.6537742614746,-60.7189407348632,62.7137184143066,-127.851348876953,1709129012
iw,-57.0536880493164,-58.6889190673828,72.0508193969726,-123.254234313964,1709145679
iw,-58.5756492614746,-56.7693252563476,83.217414855957,-116.867202758789,1709162346
iw,-60.0087051391601,-54.7850761413574,83.1211776733398,-120.954307556152,1709179013
iw,-61.2578163146972,-52.8100624084472,78.9509735107421,-120.432891845703,1709195680
iw,-62.3866882324218,-51.3418006896972,78.3481369018554,-89.9964065551757,1709212347
iw,-63.4361152648925,-50.6380653381347,81.7812881469726,-44.1269149780273,1709229014
iw,-64.3827743530273,-50.4057159423828,83.111831665039,-15.8687686920166,1709245681
iw,-65.1456146240234,-50.4074745178222,79.4887542724609,-1.84260368347167,1709262348
iw,-65.7107543945312,-50.6736602783203,76.7861557006836,14.4108572006225,1709279015
iw,-66.1532440185546,-51.214973449707,76.2345733642578,31.3615245819091,1709295682
iw,-66.5544204711914,-51.7445831298828,75.5629272460937,30.3846912384033,1709312349
iw,-66.9250793457031,-52.3679008483886,70.3503036499023,35.8555450439453,1709329016
iw,-67.3125076293945,-52.6734962463378,65.6613616943359,16.4654293060302,1709345683
iw,-67.8006439208984,-52.831932067871,65.830581665039,7.318124294281,1709362350
iw,-68.3564758300781,-52.9307708740234,63.9283638000488,3.44311237335205,1709379017
iw,-68.9637985229492,-52.7810859680175,67.2150726318359,-11.7913188934326,1709395684
iw,-69.5177688598632,-52.453254699707,67.4898605346679,-22.7807464599609,1709412351
iw,-69.8927154541015,-51.984691619873,51.7101135253906,-31.6085586547851,1709429018
iw,-70.1162643432617,-51.4650802612304,36.5455741882324,-34.6335639953613,1709445685
iw,-70.3152084350586,-51.1498985290527,27.5680065155029,-21.7712421417236,1709462352
iw,-70.5910568237304,-51.0016326904296,28.1454353332519,-10.3613052368164,1709479019
iw,-70.9021759033203,-50.9774589538574,25.5754661560058,-3.36932349205017,1709495686
iw,-71.1191101074218,-50.8134651184082,19.3376007080078,-12.4513111114501,1709512353
iw,-71.297378540039,-50.2505149841308,13.2261390686035,-36.6608047485351,1709529020
iw,-71.5132293701171,-49.6557006835937,1.53582191467285,-39.9278297424316,1709545687
iw,-71.7335510253906,-49.0895690917968,-10.2090911865234,-39.5576210021972,1709562354
iw,-71.940559387207,-49.1782073974609,-34.0803871154785,1.40472483634948,1709579021
iw,-72.1107559204101,-50.4774513244628,-75.2678604125976,75.3623428344726,1709595688
iw,-72.1219253540039,-52.1427459716796,-98.9714584350586,98.3695297241211,1709612355
iw,-71.9959487915039,-53.4184608459472,-105.274085998535,74.1982421875,1709629022
iw,-71.776123046875,-54.439956665039,-120.855865478515,58.2620468139648,1709645689
iw,-71.2069396972656,-55.5606269836425,-125.937812805175,64.2603149414062,1709662356
iw,-70.0106201171875,-56.9202880859375,-142.363662719726,79.2823410034179,1709679023
iw,-68.5047378540039,-58.3231353759765,-147.28173828125,82.0931320190429,1709695690
iw,-66.9043731689453,-59.6873359680175,-145.306106567382,79.6144866943359,1709712357
iw,-65.2703857421875,-61.0983085632324,-138.5341796875,82.43212890625,1709729024
iw,-63.5354652404785,-62.5951957702636,-137.162963867187,87.7967147827148,1709745691
iw,-61.8046150207519,-64.0917663574218,-132.262741088867,87.9750595092773,1709762358
iw,-59.9971618652343,-65.5716171264648,-132.333450317382,87.0171737670898,1709779025
iw,-58.0442123413085,-67.0793304443359,-136.904586791992,88.7088623046875,1709795692
iw,-56.1485748291015,-68.6008529663086,-126.911224365234,89.501724243164,1709812359
iw,-54.2804985046386,-70.0936203002929,-119.237411499023,87.5121002197265,1709829026
iw,-52.3520164489746,-71.6224060058593,-118.544105529785,89.2728652954101,1709845693
iw,-50.3319702148437,-73.20947265625,-120.071884155273,92.4559631347656,1709862360
iw,-48.1715011596679,-74.854621887207,-125.086143493652,95.98486328125,1709879027
iw,-46.0342216491699,-76.5604171752929,-121.440887451171,99.9936447143554,1709895694
iw,-44.1411743164062,-78.2869796752929,-107.22858428955,101.694076538085,1709912361
iw,-42.6428718566894,-79.9768753051757,-84.6434020996093,99.7728118896484,1709929028
iw,-41.4796829223632,-81.5384063720703,-67.1242980957031,92.2149276733398,1709945695
iw,-40.6661071777343,-82.9627990722656,-48.6966934204101,83.6696701049804,1709962362
iw,-40.2037010192871,-84.3706436157226,-28.6435546875,82.2449417114257,1709979029
iw,-39.8756484985351,-85.854751586914,-21.0256080627441,86.8199844360351,1709995696
iw,-39.5513000488281,-87.474624633789,-21.0130424499511,95.0576019287109,1710012363
iw,-39.0088996887207,-88.9517135620117,-32.8591194152832,85.8026504516601,1710029030
iw,-38.2392921447753,-90.0,-44.1487960815429,68.6579284667968,1710045697
iw,-37.7531242370605,-88.9908981323242,-25.2288646697998,54.5641365051269,1710062364
iw,-37.8585929870605,-88.1297836303711,12.8505020141601,49.0144004821777,1710079031
iw,-37.6964149475097,-87.0937728881836,-7.0747947692871,60.1635665893554,1710095698
iw,-37.4617767333984,-85.8891525268554,-14.1702661514282,70.3216781616211,1710112365
iw,-37.089256286621,-84.6917953491211,-23.0010471343994,69.950942993164,1710129032
iw,-36.6595458984375,-83.6220092773437,-26.1003513336181,62.3004989624023,1710145699
iw,-36.3182487487793,-82.7208251953125,-19.5453929901123,51.7743797302246,1710162366
iw,-35.9210510253906,-82.0218887329101,-21.8371105194091,38.5693016052246,1710179033
iw,-35.5365371704101,-81.5061569213867,-20.0637664794921,26.6528491973876,1710195700
iw,-35.2478256225585,-80.9832153320312,-13.1913890838623,27.3206100463867,1710212367
iw,-35.1157760620117,-80.5423965454101,-4.86764430999755,23.4414291381835,1710229034
iw,-34.9488525390625,-80.2857055664062,-8.57279586791992,13.6332969665527,1710245701
iw,-34.6520957946777,-80.2965393066406,-14.3881864547729,-2.79332256317138,1710262368
iw,-34.4366989135742,-80.7418441772461,-5.97550010681152,-29.1194324493408,1710279035
iw,-35.1187705993652,-81.7051696777343,47.9967155456543,-60.2479057312011,1710295702
iw,-36.3277130126953,-83.2425689697265,75.2858963012695,-97.2619094848632,1710312369
iw,-37.1839790344238,-85.1270904541015,51.1411666870117,-124.31330871582,1710329036
iw,-37.5742874145507,-86.8175277709961,19.0318603515625,-129.829620361328,1710345703
iw,-38.1470184326171,-87.4367752075195,26.0221424102783,-122.09016418457,1710362370
iw,-39.1665573120117,-86.594123840332,54.930076599121,-116.2827835083,1710379037
iw,-40.5154685974121,-84.9754257202148,79.0367355346679,-127.555915832519,1710395704
iw,-42.0816078186035,-82.8715133666992,96.9720382690429,-147.71142578125,1710412371
iw,-43.476993560791,-80.6613159179687,88.545181274414,-146.589431762695,1710429038
iw,-44.7248458862304,-78.6806945800781,83.8609619140625,-128.154891967773,1710445705
iw,-45.9187469482421,-76.7496261596679,83.7082366943359,-123.08479309082,1710462372
iw,-47.1966972351074,-74.5646438598632,86.3103790283203,-136.681259155273,1710479039
iw,-48.4724044799804,-72.1145477294921,82.4030609130859,-150.972061157226,1710495706
iw,-49.7692565917968,-69.7782669067382,82.7340545654296,-143.087371826171,1710512373
iw,-51.0482139587402,-67.7724609375,80.8542098999023,-123.41079711914,1710529040
iw,-52.195556640625,-66.1994171142578,70.8416290283203,-97.8933486938476,1710545707
iw,-53.2429237365722,-65.0006408691406,59.604248046875,-75.3153991699218,1710562374
iw,-54.4124526977539,-63.5124282836914,59.6725349426269,-91.8573608398437,1710579041
iw,-55.9146423339843,-61.6599769592285,72.2189865112304,-113.156913757324,1710595708
iw,-57.7208786010742,-59.7111549377441,88.9427032470703,-119.040145874023,1710612375
iw,-59.5687713623046,-57.8709983825683,97.7568206787109,-112.944862365722,1710629042
iw,-61.067642211914,-56.0142669677734,85.502944946289,-114.182693481445,1710645709
iw,-62.2699813842773,-54.3637084960937,79.9626388549804,-101.810195922851,1710662376
iw,-63.2785682678222,-53.2402954101562,79.1273193359375,-70.1647644042968,1710679043
iw,-64.2185516357421,-52.6410636901855,81.0999298095703,-38.5527648925781,1710695710
iw,-65.1334915161132,-52.4245452880859,83.0625534057617,-15.2119016647338,1710712377
iw,-65.8882446289062,-52.4438858032226,80.5308837890625,-0.737367033958435,1710729044
iw,-66.4739303588867,-52.6424713134765,82.467788696289,10.1323089599609,1710745711
iw,-66.9399719238281,-52.9954795837402,84.1345062255859,19.3883781433105,1710762378
iw,-67.3817443847656,-53.4253616333007,80.8572387695312,24.051471710205,1710779045
iw,-67.7977066040039,-53.835163116455,66.1373062133789,22.815408706665,1710795712
iw,-68.1552963256836,-54.1878318786621,51.3540878295898,19.4028186798095,1710812379
iw,-68.464126586914,-54.3438453674316,42.8822364807128,7.59304094314575,1710829046
iw,-68.7805633544921,-54.0019149780273,38.1060142517089,-22.6598968505859,1710845713
iw,-69.1401977539062,-53.9186897277832,39.0458374023437,-7.60195112228393,1710862380
iw,-69.5470123291015,-53.9357643127441,47.5812683105468,-1.11544966697692,1710879047
iw,-69.9288101196289,-53.7222900390625,47.427505493164,-14.8376216888427,1710895714
iw,-70.2239227294921,-53.2268638610839,35.8707466125488,-31.8680953979492,1710912381
iw,-70.5109024047851,-52.6258506774902,34.3803901672363,-38.1144752502441,1710929048
iw,-70.8220520019531,-52.1822547912597,33.832176208496,-28.579116821289,1710945715
iw,-71.1352005004882,-52.1259002685546,24.3156623840332,-5.33363437652587,1710962382
iw,-71.4269256591796,-52.1736946105957,12.2412500381469,1.06836342811584,1710979049
iw,-71.673599243164,-51.9687194824218,8.43455696105957,-14.1239748001098,1710995716
iw,-71.8778762817382,-51.1886100769043,11.010290145874,-48.7854957580566,1711012383
iw,-71.9905929565429,-50.0739860534668,12.0567445755004,-69.4281463623046,1711029050
iw,-72.0429458618164,-49.351146697998,7.89106512069702,-47.2786712646484,1711045717
iw,-72.0119705200195,-48.9753799438476,5.42401266098022,-27.5527725219726,1711062384
iw,-71.9171371459961,-49.319034576416,-12.5592365264892,16.7397842407226,1711079051
iw,-71.8209686279296,-50.6609268188476,-48.5110626220703,79.0332260131836,1711095718
iw,-71.748794555664,-52.5339698791503,-86.1363830566406,111.892105102539,1711112385
iw,-71.7068176269531,-54.3300170898437,-88.9629135131836,106.263633728027,1711129052
iw,-71.6736450195312,-55.6688957214355,-94.2434005737304,78.0704574584961,1711145719
iw,-71.5868835449218,-56.9239349365234,-111.503532409667,73.0245208740234,1711162386
iw,-71.0995483398437,-58.3437347412109,-124.79084777832,83.2103118896484,1711179053
iw,-69.9658279418945,-59.732608795166,-137.220092773437,81.4761962890625,1711195720
iw,-68.4407882690429,-60.9954490661621,-139.028778076171,73.9120330810546,1711212387
iw,-66.6569595336914,-62.2824554443359,-143.532257080078,75.3441772460937,1711229054
iw,-64.7969055175781,-63.6612281799316,-138.647750854492,80.8880462646484,1711245721
iw,-62.9373512268066,-65.0699844360351,-131.34878540039,82.7238616943359,1711262388
iw,-61.0778465270996,-66.4404144287109,-128.85774230957,80.4047622680664,1711279055
iw,-59.1769866943359,-67.8091430664062,-130.708053588867,80.2303924560546,1711295722
iw,-57.1610450744628,-69.20703125,-134.789474487304,81.7158203125,1711312389
iw,-55.1404457092285,-70.6231460571289,-128.040435791015,82.3647842407226,1711329056
iw,-53.1360778808593,-72.0051727294921,-122.19773864746,79.9879989624023,1711345723
iw,-51.172565460205,-73.3404006958007,-120.086227416992,77.0934829711914,1711362390
iw,-49.0832786560058,-74.7052917480468,-126.124526977539,79.122573852539,1711379057
iw,-47.0012283325195,-76.1284866333007,-121.626312255859,83.0322494506836,1711395724
iw,-45.0880050659179,-77.5297012329101,-109.210762023925,82.0878067016601,1711412391
iw,-43.5130996704101,-78.794563293457,-89.9006423950195,74.1003036499023,1711429058
iw,-42.2964973449707,-79.9210662841796,-70.2594451904296,65.8166809082031,1711445725
iw,-41.4567146301269,-81.0235977172851,-50.3385543823242,64.2967224121093,1711462392
iw,-40.8481101989746,-82.1146926879882,-37.6990280151367,63.6064529418945,1711479059
iw,-40.4216117858886,-83.1900405883789,-26.9125709533691,62.7189712524414,1711495726
iw,-40.0501060485839,-84.3041229248046,-23.7814674377441,65.1439895629882,1711512393
iw,-39.5275001525878,-85.4772338867187,-32.7829322814941,68.7684478759765,1711529060
iw,-38.8265914916992,-86.7985763549804,-41.9189529418945,77.8677062988281,1711545727
iw,-38.1806297302246,-88.2561645507812,-35.5141067504882,87.0090789794921,1711562394
iw,-37.7775611877441,-89.6713562011718,-20.1611251831054,92.2822952270507,1711579061
iw,-37.6701583862304,-88.5422286987304,-2.57229256629943,94.5716781616211,1711595728
iw,-37.3340225219726,-86.9641036987304,-19.7383251190185,92.7382431030273,1711612395
iw,-36.8075523376464,-85.4760589599609,-32.8168106079101,86.5018692016601,1711629062
iw,-36.272232055664,-84.1171035766601,-33.4917526245117,78.8727645874023,1711645729
iw,-35.7815208435058,-83.0332870483398,-30.7150802612304,62.6348571777343,1711662396
iw,-35.270393371582,-82.1642837524414,-31.1640605926513,50.2100486755371,1711679063
iw,-34.6541404724121,-81.4293212890625,-36.5556335449218,42.1507148742675,1711695730
iw,-34.0361099243164,-80.7857818603515,-36.0093574523925,35.8727226257324,1711712397
iw,-33.5653343200683,-80.1551361083984,-26.6793708801269,34.3605461120605,1711729064
iw,-33.4547309875488,-79.5327377319336,-4.15300130844116,33.8333168029785,1711745731
iw,-33.5357971191406,-79.1996154785156,7.05695438385009,16.3904075622558,1711762398
iw,-33.3773384094238,-79.4679565429687,-8.30698299407959,-20.8130989074707,1711779065
iw,-33.5757484436035,-80.4792785644531,15.7730808258056,-67.0479431152343,1711795732
iw,-34.760383605957,-82.2092132568359,77.0105972290039,-111.887580871582,1711812399
iw,-35.9982604980468,-84.3689804077148,75.5174255371093,-143.394668579101,1711829066
iw,-36.730842590332,-86.3020248413086,42.0585136413574,-147.658020019531,1711845733
iw,-37.2156066894531,-87.1133041381836,25.3664741516113,-141.528213500976,1711862400
iw,-37.9538459777832,-86.2637710571289,39.3106803894043,-138.76318359375,1711879067
iw,-39.2751808166503,-84.4504470825195,75.370376586914,-148.619689941406,1711895734
iw,-40.8644828796386,-81.9443359375,96.6560668945312,-172.859909057617,1711912401
iw,-42.3347549438476,-79.4063568115234,93.4074935913086,-162.89045715332,1711929068
iw,-43.6637840270996,-77.101821899414,87.5375671386718,-144.444076538085,1711945735
iw,-44.9027137756347,-74.7875518798828,85.6895294189453,-143.352005004882,1711962402
iw,-46.1594314575195,-72.2955703735351,88.0990219116211,-153.221633911132,1711979069
iw,-47.5068244934082,-69.6117858886718,91.5124282836914,-163.855041503906,1711995736
iw,-48.8626251220703,-66.9110336303711,89.0430221557617,-164.440078735351,1712012403
iw,-50.1220626831054,-64.5280532836914,82.1556777954101,-145.284408569335,1712029070
iw,-51.267406463623,-62.6869926452636,74.312141418457,-112.648117065429,1712045737
iw,-52.3232727050781,-61.3209953308105,66.4266738891601,-84.0015335083007,1712062404
iw,-53.3707542419433,-59.9706535339355,60.0962944030761,-82.1231460571289,1712079071
iw,-54.5413627624511,-58.2211265563964,63.1623992919921,-105.299423217773,1712095738
iw,-55.9678764343261,-56.350284576416,78.4799118041992,-112.81575012207,1712112405
iw,-57.4827079772949,-54.7466850280761,86.5298690795898,-97.4381866455078,1712129072
iw,-58.8235282897949,-53.110782623291,80.211685180664,-100.046012878417,1712145739
iw,-59.9309158325195,-51.5375480651855,72.4845657348632,-96.6059188842773,1712162406
iw,-60.881492614746,-50.3337821960449,69.1571578979492,-74.4563903808593,1712179073
iw,-61.7120285034179,-49.6974029541015,69.0753173828125,-40.4796638488769,1712195740
iw,-62.428482055664,-49.4242515563964,70.2199630737304,-18.5095558166503,1712212407
iw,-63.0037078857421,-49.40673828125,69.240608215332,-3.05081367492675,1712229074
iw,-63.4986495971679,-49.6241912841796,69.505630493164,11.0816841125488,1712245741
iw,-63.9668731689453,-50.0830383300781,67.9166183471679,25.7177143096923,1712262408
iw,-64.4530639648437,-50.4848556518554,63.8920288085937,22.350923538208,1712279075
iw,-65.0009155273437,-50.89790725708,62.7574882507324,23.0241603851318,1712295742
iw,-65.6601257324218,-51.4569091796875,67.1270294189453,31.7705707550048,1712312409
iw,-66.3227615356445,-51.8194427490234,65.2694473266601,20.0687713623046,1712329076
iw,-66.9183044433593,-51.8062629699707,58.8004493713378,-2.77401399612426,1712345743
iw,-67.4826965332031,-51.9447898864746,58.7093620300293,6.015709400177,1712362410
iw,-68.0014190673828,-52.1242599487304,55.6961135864257,8.54905414581298,1712379077
iw,-68.3745040893554,-52.1558876037597,45.3238639831543,-0.157402977347373,1712395744
iw,-68.652603149414,-52.0016784667968,39.5872077941894,-11.3194341659545,1712412411
iw,-68.9306411743164,-51.778263092041,36.4729537963867,-15.5114641189575,1712429078
iw,-69.2438125610351,-51.6374359130859,32.1086463928222,-10.5264949798583,1712445745
iw,-69.6091918945312,-51.6648025512695,28.9214057922363,-0.36874771118164,1712462412
iw,-70.0275421142578,-51.9900474548339,27.7864837646484,17.5913906097412,1712479079
iw,-70.5005264282226,-52.2779693603515,27.2531394958496,15.4283561706542,1712495746
iw,-70.9304733276367,-52.242691040039,25.6490592956542,-4.14637517929077,1712512413
iw,-71.2557983398437,-51.8707618713378,25.0424709320068,-24.4829216003417,1712529080
iw,-71.5423812866211,-51.4518165588378,20.2354068756103,-27.9701499938964,1712545747
iw,-71.7909240722656,-51.160343170166,14.6935348510742,-21.5984230041503,1712562414
iw,-71.9283370971679,-50.9612274169921,2.24155354499816,-16.4623489379882,1712579081
iw,-71.968391418457,-51.5616188049316,-21.7558460235595,32.090518951416,1712595748
iw,-71.9449615478515,-52.9567718505859,-57.2199974060058,80.7792129516601,1712612415
iw,-71.8648986816406,-54.2861785888671,-84.1509399414062,77.4450607299804,1712629082
iw,-71.7709350585937,-55.3425827026367,-81.1118011474609,60.794204711914,1712645749
iw,-71.7001647949218,-56.2898788452148,-93.9907989501953,54.2187538146972,1712662416
iw,-71.5320205688476,-57.3797760009765,-107.843383789062,62.9710655212402,1712679083
iw,-70.8708267211914,-58.6088638305664,-120.631629943847,71.6838455200195,1712695750
iw,-69.8778839111328,-59.8561325073242,-122.963340759277,72.9146881103515,1712712417
iw,-68.4878311157226,-61.039264678955,-136.035705566406,69.055793762207,1712729084
iw,-66.8078002929687,-62.2070541381835,-143.002258300781,68.1669464111328,1712745751
iw,-64.9970169067382,-63.4006042480468,-141.597763061523,69.7740097045898,1712762418
iw,-63.2063255310058,-64.61328125,-133.103302001953,70.9688949584961,1712779085
iw,-61.5106544494628,-65.8864822387695,-124.839370727539,74.6476211547851,1712795752
iw,-59.7858772277832,-67.2381896972656,-126.603279113769,79.3857498168945,1712812419
iw,-58.0895042419433,-68.6271514892578,-123.629035949707,81.3449020385742,1712829086
iw,-56.2289581298828,-69.9701080322265,-129.265502929687,78.0386581420898,1712845753
iw,-54.1340255737304,-71.2828598022461,-136.457595825195,76.068603515625,1712862420
iw,-51.9737129211425,-72.5771026611328,-132.937347412109,74.8347702026367,1712879087
iw,-49.7467765808105,-73.796646118164,-128.210479736328,70.323989868164,1712895754
iw,-47.5455093383789,-74.846321105957,-122.025184631347,60.4552268981933,1712912421
iw,-45.5548400878906,-75.7788696289062,-108.303512573242,53.8089256286621,1712929088
iw,-43.8899116516113,-76.6823806762695,-92.9606781005859,52.1478767395019,1712945755
iw,-42.5899085998535,-77.5983810424804,-75.2547912597656,52.9726600646972,1712962422
iw,-41.6680145263671,-78.5851516723632,-55.5665817260742,57.6722450256347,1712979089
iw,-40.9737815856933,-79.6572723388671,-44.0933074951171,63.0234260559082,1712995756
iw,-40.5402755737304,-80.794937133789,-29.4473056793212,66.7197723388671,1713012423
iw,-40.1427154541015,-81.9647369384765,-28.1702671051025,68.3924789428711,1713029090
iw,-39.6326866149902,-83.2272872924804,-35.5721702575683,73.9413223266601,1713045757
iw,-39.0679779052734,-84.6107177734375,-39.2184906005859,81.1903305053711,1713062424
iw,-38.6357955932617,-86.0781936645507,-29.697639465332,86.1466598510742,1713079091
iw,-38.2525100708007,-87.50048828125,-25.0446853637695,83.7001113891601,1713095758
iw,-37.8506622314453,-88.7405700683593,-25.2666416168212,75.4657745361328,1713112425
iw,-37.40571975708,-89.4300765991211,-26.3183822631835,65.2635040283203,1713129092
iw,-36.9044151306152,-88.810073852539,-28.3213024139404,57.8791465759277,1713145759
iw,-36.3670043945312,-87.7811584472656,-30.0333385467529,62.5657234191894,1713162426
iw,-35.8312950134277,-86.6081771850586,-30.2386989593505,69.1189880371093,1713179093
iw,-35.4532127380371,-85.4891128540039,-21.2709522247314,65.5425186157226,1713195760
iw,-35.3176956176757,-84.4788436889648,-6.53721714019775,58.9264335632324,1713212427
iw,-35.3042678833007,-83.5348892211914,0.865952968597412,54.8113670349121,1713229094
iw,-35.3285064697265,-82.6419296264648,3.17867255210876,50.983039855957,1713245761
iw,-35.2986984252929,-81.8020782470703,-0.0163538362830877,46.6508102416992,1713262428
iw,-35.1277770996093,-80.9519348144531,-8.71070957183837,46.7324867248535,1713279095
iw,-35.0306282043457,-80.0940628051757,-4.51908206939697,47.2287368774414,1713295762
iw,-34.8418045043945,-79.4642333984375,-10.866509437561,34.5704116821289,1713312429
iw,-34.7443923950195,-79.1607971191406,-5.68483448028564,16.1622924804687,1713329096
iw,-34.3560752868652,-79.317024230957,-22.111795425415,-11.2712593078613,1713345763
iw,-34.4200439453125,-80.0220031738281,6.44943761825561,-43.7828865051269,1713362430
iw,-35.0903358459472,-81.3377990722656,41.4622116088867,-80.4996871948242,1713379097
iw,-35.7707405090332,-83.1821746826171,39.9033126831054,-114.437850952148,1713395764
iw,-36.1031341552734,-85.1475219726562,17.0121154785156,-126.748886108398,1713412431
iw,-36.4567146301269,-86.7748184204101,16.2067909240722,-120.917861938476,1713429098
iw,-37.0558433532714,-87.5110855102539,31.0126857757568,-107.903442382812,1713445765
iw,-37.9495124816894,-87.1809616088867,52.119285583496,-104.455764770507,1713462432
iw,-38.9869384765625,-85.8432464599609,63.9287490844726,-130.433120727539,1713479099
iw,-40.0108375549316,-83.7128829956054,65.7527084350586,-153.001373291015,1713495766
iw,-41.0560646057128,-81.6112899780273,70.4638977050781,-137.755218505859,1713512433
iw,-42.2127075195312,-79.6060638427734,79.1854095458984,-127.889572143554,1713529100
iw,-43.5143241882324,-77.2773284912109,86.4318084716796,-144.892181396484,1713545767
iw,-44.8489837646484,-74.6721954345703,86.3275833129882,-159.903533935546,1713562434
iw,-46.1912727355957,-72.2606048583984,85.0243606567382,-147.432144165039,1713579101
iw,-47.554328918457,-70.2800369262695,85.9034729003906,-121.992805480957,1713595768
iw,-48.8935737609863,-68.6036605834961,83.6008605957031,-104.404457092285,1713612435
iw,-50.1524543762207,-67.0718841552734,76.3236846923828,-95.1385040283203,1713629102
iw,-51.4126510620117,-65.363037109375,73.7395477294921,-104.536666870117,1713645769
iw,-52.8272056579589,-63.3050498962402,82.6447296142578,-124.723541259765,1713662436
iw,-54.310432434082,-61.2259063720703,87.8023452758789,-125.925193786621,1713679103
iw,-55.7879791259765,-59.32763671875,88.0068740844726,-115.41438293457,1713695770
iw,-57.2566757202148,-57.3411064147949,90.1005706787109,-121.119079589843,1713712437
iw,-58.6976356506347,-55.3453941345214,92.2183227539062,-121.85814666748,1713729104
iw,-59.9126663208007,-53.634162902832,83.9583206176757,-104.78076171875,1713745771
iw,-60.875919342041,-52.4486694335937,76.3569259643554,-73.2089691162109,1713762438
iw,-61.6337165832519,-51.7056922912597,70.087890625,-46.5220680236816,1713779105
iw,-62.2351264953613,-51.2005996704101,64.5929336547851,-32.1569786071777,1713795772
iw,-62.7430419921875,-50.7899742126464,59.8546142578125,-26.4714603424072,1713812439
iw,-63.1744880676269,-50.4598999023437,56.1963577270507,-21.6389999389648,1713829106
iw,-63.5786933898925,-50.3484344482421,55.2831840515136,-8.43565845489502,1713845773
iw,-63.9747505187988,-50.419147491455,52.8582687377929,2.5202465057373,1713862440
iw,-64.4077224731445,-50.5523452758789,53.3757209777832,6.21293306350708,1713879107
iw,-64.9405975341796,-50.6597442626953,58.385986328125,4.66578483581543,1713895774
iw,-65.6274642944336,-50.7766189575195,64.0032043457031,5.21413564682006,1713912441
iw,-66.3913192749023,-50.8123245239257,63.5626716613769,0.330864965915679,1713929108
iw,-67.1279373168945,-50.7766799926757,63.7491760253906,-4.26343584060668,1713945775
iw,-67.7190551757812,-50.648380279541,59.9248580932617,-10.0705060958862,1713962442
iw,-68.0769500732421,-50.5629501342773,48.4957313537597,-7.52299737930297,1713979109
iw,-68.2853240966796,-50.3926200866699,42.5405807495117,-12.7984924316406,1713995776
iw,-68.4606781005859,-50.2023658752441,42.803123474121,-14.1728219985961,1714012443
iw,-68.6809539794921,-50.0329704284668,44.7540779113769,-13.2258548736572,1714029110
iw,-68.9732055664062,-49.8485450744628,43.5872688293457,-14.2205848693847,1714045777
iw,-69.3312454223632,-49.7636528015136,38.5334091186523,-8.17902565002441,1714062444
iw,-69.7742538452148,-49.9147796630859,31.394660949707,6.24292469024658,1714079111
iw,-70.2837982177734,-50.3397026062011,24.2206115722656,23.5631504058837,1714095778
iw,-70.787239074707,-50.6322021484375,23.1709537506103,16.0698451995849,1714112445
iw,-71.1884002685546,-50.5889320373535,23.9577331542968,-5.01208400726318,1714129112
iw,-71.4767684936523,-50.4223442077636,24.7191848754882,-13.1643466949462,1714145779
iw,-71.6946258544921,-50.4506607055664,16.6070652008056,-1.80610370635986,1714162446
iw,-71.7924575805664,-50.5543251037597,8.00041770935058,2.04704713821411,1714179113
iw,-71.8748168945312,-51.0440521240234,-10.595136642456,24.9126853942871,1714195780
iw,-72.120491027832,-52.1031074523925,-48.4253768920898,59.2574653625488,1714212447
iw,-72.4474334716796,-53.3595657348632,-90.4165954589843,72.1735458374023,1714229114
iw,-72.6925506591796,-54.5153160095214,-92.7433166503906,66.3135528564453,1714245781
iw,-72.8705749511718,-55.4743461608886,-82.8408660888671,54.161823272705,1714262448
iw,-72.9702911376953,-56.4489784240722,-107.482688903808,55.2999114990234,1714279115
iw,-72.6034469604492,-57.6375503540039,-121.723960876464,68.6141357421875,1714295782
iw,-71.6168594360351,-58.9118499755859,-136.245498657226,74.178970336914,1714312449
iw,-70.196533203125,-60.1854209899902,-142.310195922851,74.2613296508789,1714329116
iw,-68.5689697265625,-61.4620246887207,-141.823638916015,74.4561462402343,1714345783
iw,-66.8337478637695,-62.7720909118652,-140.564041137695,76.5724792480468,1714362450
iw,-64.9838104248046,-64.0900039672851,-141.108901977539,77.218032836914,1714379117
iw,-63.1795501708984,-65.4907913208007,-134.356369018554,82.24267578125,1714395784
iw,-61.3286247253418,-66.9777679443359,-136.391311645507,87.4178848266601,1714412451
iw,-59.3718643188476,-68.5588302612304,-138.160675048828,93.0544738769531,1714429118
iw,-57.4623260498046,-70.1592941284179,-129.691040039062,94.0511627197265,1714445785
iw,-55.5023231506347,-71.6969985961914,-127.936668395996,90.1115646362304,1714462452
iw,-53.4073448181152,-73.1685180664062,-128.800857543945,85.9214782714843,1714479119
iw,-51.1124076843261,-74.5704727172851,-134.191696166992,81.5892562866211,1714495786
iw,-48.8057250976562,-75.9215774536132,-130.359329223632,78.6884765625,1714512453
iw,-46.7527732849121,-77.1599655151367,-114.580001831054,72.0737915039062,1714529120
iw,-45.0137252807617,-78.3455123901367,-97.4502487182617,69.1320343017578,1714545787
iw,-43.665599822998,-79.4741744995117,-76.5594024658203,65.8967742919921,1714562454
iw,-42.5889015197753,-80.5865020751953,-63.685806274414,65.1214294433593,1714579121
iw,-41.6315765380859,-81.7538146972656,-59.0758361816406,68.523567199707,1714595788
iw,-40.878620147705,-82.9487380981445,-48.2473907470703,70.3718719482421,1714612455
iw,-40.1967811584472,-84.1383972167968,-45.1226806640625,70.2579345703125,1714629122
iw,-39.4431953430175,-85.3264770507812,-50.2971878051757,70.7712707519531,1714645789
iw,-38.7045974731445,-86.4498443603515,-49.440616607666,67.9042129516601,1714662456
iw,-38.2277565002441,-87.444580078125,-33.2177429199218,63.1327438354492,1714679123
iw,-37.805736541748,-88.2631378173828,-28.1415977478027,58.7149353027343,1714695790
iw,-37.2775115966796,-88.7798690795898,-32.8155326843261,60.7703590393066,1714712457
iw,-36.6322517395019,-88.5540924072265,-37.3800735473632,61.3726463317871,1714729124
iw,-35.9759826660156,-87.7316055297851,-36.1565856933593,64.9521026611328,1714745791
iw,-35.534439086914,-86.6566085815429,-23.5757656097412,68.7804565429687,1714762458
iw,-35.2842788696289,-85.5343246459961,-13.4778518676757,68.2360153198242,1714779125
iw,-35.1888618469238,-84.5477752685546,-5.53714084625244,59.0160026550293,1714795792
iw,-35.1919822692871,-83.6722259521484,0.312648057937622,52.144660949707,1714812459
iw,-35.1202049255371,-82.8413543701171,-2.79641532897949,49.2505378723144,1714829126
iw,-35.0676231384277,-82.065185546875,0.0443423353135585,45.0571174621582,1714845793
iw,-35.1369400024414,-81.281135559082,8.17228603363037,44.5434799194335,1714862460
iw,-35.2230148315429,-80.439697265625,9.56399154663086,47.6699180603027,1714879127
iw,-35.3944511413574,-79.6018905639648,15.172887802124,47.0427131652832,1714895794
iw,-35.653392791748,-78.8382415771484,19.9051837921142,42.3830108642578,1714912461
iw,-35.6960182189941,-78.3468704223632,3.68527007102966,26.6823921203613,1714929128
iw,-35.5711822509765,-78.0819015502929,-5.99617671966552,12.5220165252685,1714945795
iw,-35.4707527160644,-78.1236953735351,-0.960027515888214,-5.96917152404785,1714962462
iw,-35.7266731262207,-78.6138687133789,20.4733657836914,-31.3735790252685,1714979129
iw,-36.377685546875,-79.8288650512695,41.3791885375976,-74.9033584594726,1714995796
iw,-36.9287376403808,-81.651741027832,32.7188529968261,-113.869346618652,1715012463
iw,-37.0387306213378,-83.6637649536132,4.10634183883667,-130.161834716796,1715029130
iw,-37.2091369628906,-85.3939743041992,5.12701988220214,-124.791152954101,1715045797
iw,-37.752197265625,-86.4963607788086,27.6301040649414,-118.404502868652,1715062464
iw,-38.4029273986816,-86.6883163452148,37.7564582824707,-114.48966217041,1715079131
iw,-39.169677734375,-85.9156799316406,47.7148628234863,-132.702316284179,1715095798
iw,-40.1681022644043,-84.2393188476562,63.2119827270507,-146.7099609375,1715112465
iw,-41.3228073120117,-82.292251586914,75.6030960083007,-138.227005004882,1715129132
iw,-42.6032218933105,-80.1249847412109,87.6837921142578,-142.652511596679,1715145799
iw,-43.9597282409668,-77.485366821289,94.3499221801757,-166.778091430664,1715162466
iw,-45.3518753051757,-74.7305068969726,95.1738586425781,-169.884170532226,1715179133
iw,-46.7814712524414,-72.403335571289,94.4532623291015,-142.824783325195,1715195800
iw,-48.2434349060058,-70.3985748291015,94.1750717163086,-124.104621887207,1715212467
iw,-49.6786956787109,-68.5965728759765,92.9877319335937,-112.967651367187,1715229134
iw,-50.9783668518066,-66.6198425292968,83.7840499877929,-123.473976135253,1715245801
iw,-52.1283645629882,-64.501350402832,68.9541854858398,-130.752517700195,1715262468
iw,-53.3910446166992,-62.5115852355957,70.9068832397461,-122.096069335937,1715279135
iw,-54.8198280334472,-60.739631652832,80.6523513793945,-108.648651123046,1715295802
iw,-56.2768516540527,-59.0231895446777,84.3894271850586,-105.307693481445,1715312469
iw,-57.7604293823242,-57.0273933410644,90.7721786499023,-122.205543518066,1715329136
iw,-59.214599609375,-55.0548934936523,94.84716796875,-120.7841796875,1715345803
iw,-60.472801208496,-53.3807716369628,88.474983215332,-102.804916381835,1715362470
iw,-61.5175132751464,-52.0777282714843,83.1309051513671,-80.5369796752929,1715379137
iw,-62.4746475219726,-51.0176620483398,83.0762100219726,-65.8431930541992,1715395804
iw,-63.2951927185058,-50.2971115112304,82.6026000976562,-45.3653182983398,1715412471
iw,-63.9965515136718,-49.9314308166503,81.6322326660156,-24.0070266723632,1715429138
iw,-64.5977554321289,-49.8962326049804,78.5886764526367,-4.08987998962402,1715445805
iw,-65.1318206787109,-50.0663375854492,73.8343200683593,8.35107612609863,1715462472
iw,-65.6188125610351,-50.3813400268554,67.6671142578125,17.1660938262939,1715479139
iw,-66.075439453125,-50.549388885498,63.2280235290527,8.50042057037353,1715495806
iw,-66.5013122558593,-50.736213684082,57.2520332336425,9.68762588500976,1715512473
iw,-66.8729400634765,-50.7315979003906,49.266014099121,-2.08536839485168,1715529140
iw,-67.2295532226562,-50.3614425659179,47.3174476623535,-24.2739715576171,1715545807
iw,-67.5577316284179,-49.914134979248,44.812141418457,-28.8739929199218,1715562474
iw,-67.863655090332,-49.586929321289,39.5737152099609,-21.5773468017578,1715579141
iw,-68.1959381103515,-49.3690147399902,41.2878303527832,-15.3869543075561,1715595808
iw,-68.5546264648437,-49.233112335205,38.631549835205,-10.9578075408935,1715612475
iw,-68.9172134399414,-49.1103515625,32.5090751647949,-10.3490495681762,1715629142
iw,-69.2974014282226,-48.9768981933593,27.7345066070556,-11.1107845306396,1715645809
iw,-69.6926193237304,-48.9462890625,24.049783706665,-5.15975475311279,1715662476
iw,-70.1004486083984,-49.0963249206543,23.8569355010986,5.895592212677,1715679143
iw,-70.4455337524414,-49.1113014221191,22.4336071014404,-1.88600695133209,1715695810
iw,-70.6871795654296,-49.0528984069824,23.5822925567626,-7.69371223449707,1715712477
iw,-70.8447799682617,-48.8225631713867,26.913646697998,-18.9440059661865,1715729144
iw,-71.0188751220703,-48.4043922424316,23.8692207336425,-30.9011249542236,1715745811
iw,-71.2106781005859,-48.1626014709472,19.4695396423339,-20.961233139038,1715762478
iw,-71.4098434448242,-48.332275390625,8.22349739074707,3.8027024269104,1715779145
iw,-71.6347579956054,-49.135814666748,-16.7762279510498,42.2769012451171,1715795812
iw,-71.8826828002929,-50.3090515136718,-53.4599914550781,66.4401779174804,1715812479
iw,-72.1385803222656,-51.392650604248,-87.248664855957,61.9290924072265,1715829146
iw,-72.4467391967773,-52.3678741455078,-95.6702499389648,54.8921890258789,1715845813
iw,-72.8294448852539,-53.3668098449707,-103.659767150878,56.2819290161132,1715862480
iw,-73.0873794555664,-54.5306396484375,-114.142425537109,66.6989135742187,1715879147
iw,-72.8022994995117,-55.7983894348144,-126.852310180664,73.3040466308593,1715895814
iw,-71.8922805786132,-57.0532188415527,-135.18862915039,72.564712524414,1715912481
iw,-70.5179901123046,-58.3120307922363,-144.663528442382,72.7801513671875,1715929148
iw,-68.8256759643554,-59.6594543457031,-150.908050537109,78.20556640625,1715945815
iw,-66.8865051269531,-61.0740280151367,-149.825714111328,82.5180282592773,1715962482
iw,-64.7800674438476,-62.5796699523925,-148.734298706054,88.3020401000976,1715979149
iw,-62.6724624633789,-64.219009399414,-144.760345458984,96.5003662109375,1715995816
iw,-60.471019744873,-65.9073104858398,-151.021087646484,99.5126342773437,1716012483
iw,-58.1892166137695,-67.5767974853515,-158.281341552734,98.2430419921875,1716029150
iw,-55.9393806457519,-69.2337570190429,-152.555892944335,97.3685684204101,1716045817
iw,-53.7013244628906,-70.9052963256836,-143.032073974609,98.4707489013671,1716062484
iw,-51.4118614196777,-72.6070022583007,-139.18374633789,100.76187133789,1716079151
iw,-49.1012535095214,-74.2705841064453,-136.915252685546,99.0423583984375,1716095818
iw,-46.7940025329589,-75.9237060546875,-132.2705078125,99.1812057495117,1716112485
iw,-44.5477638244628,-77.6330642700195,-127.962242126464,102.788284301757,1716129152
iw,-42.4536476135253,-79.3365020751953,-123.243881225585,102.036460876464,1716145819
iw,-40.6371040344238,-81.0631484985351,-110.239051818847,102.888000488281,1716162486
iw,-39.3125343322753,-82.9887084960937,-83.0743865966796,115.288078308105,1716179153
iw,-38.3295631408691,-85.0439376831054,-64.881103515625,124.847732543945,1716195820
iw,-37.6384391784668,-87.0446853637695,-48.3791465759277,125.568397521972,1716212487
iw,-37.1201171875,-88.553955078125,-37.5839309692382,116.078079223632,1716229154
iw,-36.4387283325195,-88.3498077392578,-45.7463035583496,100.259773254394,1716245821
iw,-35.583381652832,-87.2411804199218,-51.9769325256347,81.3833923339843,1716262488
iw,-34.6159706115722,-86.1466979980468,-57.3817176818847,67.8439254760742,1716279155
iw,-34.2916221618652,-85.1174545288086,-17.1810340881347,61.0725402832031,1716295822
iw,-34.6371116638183,-84.1025619506836,23.353193283081,59.2407035827636,1716312489
iw,-35.0781707763671,-83.1283645629882,26.4697761535644,56.5829582214355,1716329156
iw,-35.2864532470703,-82.1257781982421,11.3733339309692,58.7227096557617,1716345823
iw,-35.1935806274414,-81.1902313232421,-6.79919910430908,55.1616783142089,1716362490
iw,-35.0072326660156,-80.4492263793945,-12.2908487319946,43.1927833557128,1716379157
iw,-34.8151245117187,-79.8178100585937,-12.4888696670532,35.6077346801757,1716395824
iw,-34.6441116333007,-79.143196105957,-10.9730024337768,37.3303184509277,1716412491
iw,-34.5768890380859,-78.4131851196289,-4.43202924728393,40.3309707641601,1716429158
iw,-34.4594345092773,-77.8475494384765,-7.49383926391601,30.936689376831,1716445825
iw,-34.2582283020019,-77.5217819213867,-12.5165300369262,17.382490158081,1716462492
iw,-34.0579605102539,-77.5267105102539,-11.5794687271118,-2.36316895484924,1716479159
iw,-33.9540328979492,-77.9863052368164,-4.97611665725708,-29.2739868164062,1716495826
iw,-34.4595298767089,-79.0176925659179,31.1671123504638,-63.4018859863281,1716512493
iw,-35.4419898986816,-80.6500244140625,58.1807479858398,-100.47361755371,1716529160
iw,-36.0501747131347,-82.6222686767578,35.0446472167968,-123.716735839843,1716545827
iw,-36.5040740966796,-84.620864868164,24.6529483795166,-133.09031677246,1716562494
iw,-36.9969482421875,-86.2731704711914,25.3997077941894,-141.204010009765,1716579161
iw,-37.8166389465332,-86.5782394409179,45.7127494812011,-138.757659912109,1716595828
iw,-38.9839324951171,-85.4870300292968,68.7068557739257,-140.45198059082,1716612495
iw,-40.2047080993652,-83.763442993164,74.2687377929687,-146.591888427734,1716629162
iw,-41.3874549865722,-81.7557907104492,76.3400955200195,-148.993988037109,1716645829
iw,-42.3891944885253,-79.6288299560546,71.1950073242187,-147.49900817871,1716662496
iw,-43.5015983581543,-77.2524871826171,80.4766235351562,-155.818618774414,1716679163
iw,-44.8383331298828,-74.7452774047851,92.833137512207,-157.931716918945,1716695830
iw,-46.1630897521972,-72.253433227539,90.5636978149414,-154.524276733398,1716712497
iw,-47.4221763610839,-69.9776382446289,84.7004165649414,-141.07209777832,1716729164
iw,-48.6521415710449,-68.0613479614257,80.0557022094726,-120.180305480957,1716745831
iw,-49.8597984313964,-66.2632369995117,76.121841430664,-113.528900146484,1716762498
iw,-51.0580749511718,-64.3565139770507,74.8133697509765,-118.694618225097,1716779165
iw,-52.2431526184082,-62.1650962829589,72.8571166992187,-134.632247924804,1716795832
iw,-53.5558547973632,-59.7417678833007,80.9140930175781,-148.274703979492,1716812499
iw,-54.9786338806152,-57.3935356140136,89.0356521606445,-143.801544189453,1716829166
iw,-56.3511047363281,-55.2453460693359,87.7123260498046,-131.911026000976,1716845833
iw,-57.7116165161132,-53.1415786743164,89.52783203125,-129.293594360351,1716862500
iw,-59.1545143127441,-51.1270332336425,97.421272277832,-123.77749633789,1716879167
iw,-60.4833488464355,-49.5787849426269,96.4593276977539,-95.4566650390625,1716895834
iw,-61.620376586914,-48.57612991333,89.8348312377929,-62.4002113342285,1716912501
iw,-62.6254234313964,-48.0194396972656,86.2627716064453,-35.3576965332031,1716929168
iw,-63.4950637817382,-47.8438835144043,83.8800735473632,-12.2972965240478,1716945835
iw,-64.2549438476562,-48.0171241760253,82.6932220458984,8.65299606323242,1716962502
iw,-64.9037017822265,-48.4947242736816,79.4169158935546,27.0191326141357,1716979169
iw,-65.4146194458007,-49.2766189575195,71.9015350341796,45.3220977783203,1716995836
iw,-65.8075485229492,-49.9482498168945,61.03125,38.624526977539,1717012503
iw,-66.1633682250976,-50.525104522705,53.009838104248,32.8013496398925,1717029170
iw,-66.5384292602539,-50.7739562988281,47.0149765014648,12.9169254302978,1717045837
iw,-66.9917831420898,-50.6763076782226,44.3525733947753,-8.41830158233642,1717062504
iw,-67.5685195922851,-50.554573059082,50.5102920532226,-10.1119213104248,1717079171
iw,-68.1842269897461,-50.5040321350097,52.3666610717773,-5.66550111770629,1717095838
iw,-68.7527694702148,-50.2627258300781,46.7344398498535,-16.673728942871,1717112505
iw,-69.1819381713867,-49.8146476745605,39.1014671325683,-29.258373260498,1717129172
iw,-69.4496307373046,-49.3618927001953,30.1317138671875,-30.1188678741455,1717145839
iw,-69.5816192626953,-49.1078262329101,18.2402820587158,-18.5987968444824,1717162506
iw,-69.7001647949218,-48.9308280944824,16.9523735046386,-14.0883169174194,1717179173
iw,-69.8974151611328,-48.967185974121,21.561803817749,-1.29672241210937,1717195840
iw,-70.1835784912109,-49.1673126220703,24.2484321594238,9.1996898651123,1717212507
iw,-70.5013580322265,-49.1428489685058,25.1422004699707,-3.44478321075439,1717229174
iw,-70.8272323608398,-48.821907043457,24.9763393402099,-22.8413562774658,1717245841
iw,-71.1604080200195,-48.2364234924316,25.8285198211669,-40.0727882385253,1717262508
iw,-71.5506362915039,-47.4489135742187,22.6643638610839,-52.9149703979492,1717279175
iw,-71.8647537231445,-47.0603828430175,19.0210304260253,-29.4152240753173,1717295842
iw,-71.9595336914062,-47.1640281677246,11.703311920166,-0.23634685575962,1717312509
iw,-71.9267501831054,-47.9512481689453,-8.85207176208496,41.8290176391601,1717329176
iw,-71.9021224975586,-49.0741844177246,-42.4325065612793,64.8952560424804,1717345843
iw,-71.964599609375,-50.3544578552246,-79.8640518188476,75.2901611328125,1717362510
iw,-72.1310882568359,-51.6252975463867,-92.7668991088867,73.3550109863281,1717379177
iw,-72.3738021850586,-52.6249465942382,-97.414306640625,55.7370414733886,1717395844
iw,-72.5453796386718,-53.6130981445312,-109.774559020996,55.0969696044921,1717412511
iw,-72.2619705200195,-54.711929321289,-131.755722045898,62.4277572631835,1717429178
iw,-71.4595565795898,-55.8214035034179,-142.010848999023,63.3597259521484,1717445845
iw,-70.3347930908203,-57.0201339721679,-138.669281005859,68.6361312866211,1717462512
iw,-69.0012664794921,-58.4099540710449,-135.116439819335,80.2934494018554,1717479179
iw,-67.441047668457,-59.9218711853027,-134.608764648437,88.091064453125,1717495846
iw,-65.6309432983398,-61.4327316284179,-138.598739624023,88.4358139038086,1717512513
iw,-63.5934524536132,-62.9524955749511,-144.642532348632,89.1968841552734,1717529180
iw,-61.4886894226074,-64.5111312866211,-143.78271484375,91.6857299804687,1717545847
iw,-59.2763290405273,-66.0291595458984,-146.470565795898,89.2524948120117,1717562514
iw,-57.0215835571289,-67.5106124877929,-144.914489746093,86.9158401489257,1717579181
iw,-54.677806854248,-69.0218353271484,-143.19627380371,88.5529327392578,1717595848
iw,-52.2473106384277,-70.5923995971679,-141.98420715332,91.9854583740234,1717612515
iw,-49.6824645996093,-72.1750869750976,-145.717895507812,92.6365509033203,1717629182
iw,-47.105972290039,-73.7899932861328,-144.84146118164,94.5508499145507,1717645849
iw,-44.6896629333496,-75.4790573120117,-135.216766357421,98.9724426269531,1717662516
iw,-42.6083908081054,-77.2625503540039,-119.680778503417,104.717025756835,1717679183
iw,-40.852741241455,-79.0518417358398,-103.579223632812,105.226684570312,1717695850
iw,-39.4777374267578,-80.8355865478515,-82.8501434326171,105.101806640625,1717712517
iw,-38.4273567199707,-82.7627487182617,-65.3126525878906,114.172393798828,1717729184
iw,-37.7029914855957,-84.6364822387695,-46.9613037109375,112.247428894042,1717745851
iw,-37.10693359375,-86.4097518920898,-39.7321586608886,109.42024230957,1717762518
iw,-36.341697692871,-88.0553970336914,-49.9144706726074,110.716316223144,1717779185
iw,-35.2984313964843,-88.8400573730468,-64.9381561279296,103.038734436035,1717795852
iw,-34.0969009399414,-88.1043167114257,-73.237548828125,80.5331802368164,1717812519
iw,-33.1400146484375,-87.2154693603515,-58.2524375915527,60.758186340332,1717829186
iw,-32.5576629638671,-86.3399200439453,-35.2178955078125,55.0564422607421,1717845853
iw,-32.2088623046875,-85.2714309692382,-20.991262435913,65.2003173828125,1717862520
iw,-32.0434761047363,-83.9000473022461,-9.96010017395019,81.8649520874023,1717879187
iw,-31.768117904663,-82.4336166381836,-16.4793338775634,86.5961303710937,1717895854
iw,-31.4641742706298,-81.1751022338867,-17.640001296997,73.9398345947265,1717912521
iw,-31.2745933532714,-80.2971649169921,-9.88441467285156,50.6925468444824,1717929188
iw,-31.269115447998,-79.6636123657226,2.01625370979309,34.961742401123,1717945855
iw,-31.4794063568115,-79.1048507690429,15.8576774597167,29.581163406372,1717962522
iw,-32.1185417175293,-78.5221862792968,42.695873260498,31.0421447753906,1717979189
iw,-32.8340301513671,-77.9945068359375,47.5738983154296,28.8368339538574,1717995856
iw,-33.3715209960937,-77.7540435791015,35.2906036376953,13.090292930603,1718012523
iw,-33.8132514953613,-78.0755615234375,30.3958930969238,-20.4535388946533,1718029190
iw,-34.6310691833496,-79.156867980957,53.847053527832,-66.6569061279296,1718045857
iw,-35.7692108154296,-80.9231414794921,69.4589385986328,-108.921638488769,1718062524
iw,-36.5885009765625,-83.085708618164,48.2615737915039,-136.409240722656,1718079191
iw,-37.0138893127441,-85.0996398925781,22.8506927490234,-136.581237792968,1718095858
iw,-37.751350402832,-86.5764617919921,38.9902305603027,-130.272964477539,1718112525
iw,-39.1320838928222,-87.0131225585937,76.6021423339843,-129.24560546875,1718129192
iw,-40.8777656555175,-86.0899353027343,101.91934967041,-142.943099975585,1718145859
iw,-42.3728981018066,-84.0403671264648,91.0753555297851,-167.418701171875,1718162526
iw,-43.5773048400878,-81.5554580688476,79.3082580566406,-169.085845947265,1718179193
iw,-44.6778182983398,-79.0840988159179,80.90576171875,-158.977844238281,1718195860
iw,-46.0552062988281,-76.4705657958984,102.002143859863,-163.901733398437,1718212527
iw,-47.6321296691894,-73.4850540161132,115.482231140136,-184.244171142578,1718229194
iw,-49.1047096252441,-70.3498458862304,108.618331909179,-191.565216064453,1718245861
iw,-50.3897094726562,-67.5916213989257,95.2343978881836,-168.320999145507,1718262528
iw,-51.5262565612793,-65.2314147949218,81.9415435791015,-144.27000427246,1718279195
iw,-52.6878089904785,-63.0293159484863,77.6491470336914,-134.291259765625,1718295862
iw,-54.0643081665039,-60.8425674438476,83.2499389648437,-132.47346496582,1718312529
iw,-55.6032371520996,-58.5955238342285,88.9825668334961,-134.922454833984,1718329196
iw,-57.2627067565918,-56.3634796142578,97.9488372802734,-133.678817749023,1718345863
iw,-58.9588775634765,-54.1943740844726,104.026634216308,-130.536575317382,1718362530
iw,-60.5104370117187,-51.9081764221191,96.0955047607421,-138.423400878906,1718379197
iw,-61.8209800720214,-49.7662162780761,86.8469314575195,-130.184677124023,1718395864
iw,-62.9488868713378,-48.1746139526367,86.4156875610351,-97.2109756469726,1718412531
iw,-63.9479751586914,-47.1580848693847,89.1506729125976,-62.7623825073242,1718429198
iw,-64.7918395996093,-46.9320831298828,90.3407135009765,-15.6500549316406,1718445865
iw,-65.3649444580078,-47.213451385498,84.9225616455078,15.792420387268,1718462532
iw,-65.7644882202148,-47.8167839050293,81.5679016113281,35.5481872558593,1718479199
iw,-66.2033386230468,-48.5684013366699,85.283950805664,44.2136039733886,1718495866
iw,-66.6200256347656,-48.8396186828613,73.6521530151367,14.7717628479003,1718512533
iw,-66.8947372436523,-48.8635787963867,46.1534347534179,-0.86646419763565,1718529200
iw,-67.219253540039,-49.1230735778808,39.8697166442871,13.235629081726,1718545867
iw,-67.7501144409179,-49.1945075988769,46.8595352172851,1.19491481781005,1718562534
iw,-68.4236373901367,-49.0370597839355,45.9626502990722,-14.6830425262451,1718579201
iw,-69.13525390625,-48.7450714111328,41.8090209960937,-23.9466915130615,1718595868
iw,-69.7388305664062,-48.5069427490234,33.7977104187011,-20.2988605499267,1718612535
iw,-70.1877746582031,-48.4069786071777,28.5321388244628,-11.0909824371337,1718629202
iw,-70.5252990722656,-48.6288146972656,23.7803020477294,7.97566652297973,1718645869
iw,-70.8493118286132,-48.9939727783203,24.4029636383056,18.6016159057617,1718662536
iw,-71.2057723999023,-49.346134185791,25.5213871002197,18.5020027160644,1718679203
iw,-71.4907531738281,-49.545310974121,20.4273967742919,4.7544560432434,1718695870
iw,-71.6920318603515,-49.3643531799316,21.1172409057617,-21.1501274108886,1718712537
iw,-71.9004592895507,-49.1258964538574,16.1913414001464,-25.8182067871093,1718729204
iw,-72.0991821289062,-48.9790153503418,9.94139385223388,-17.984052658081,1718745871
iw,-72.2677688598632,-49.2214393615722,-8.64328384399414,8.23549270629882,1718762538
iw,-72.4567413330078,-50.2914543151855,-45.0285186767578,59.4811553955078,1718779205
iw,-72.6183090209961,-51.8279724121093,-83.5936584472656,89.660774230957,1718795872
iw,-72.698860168457,-53.1578140258789,-100.851211547851,76.0176544189453,1718812539
iw,-72.833381652832,-54.2369079589843,-101.250930786132,59.24702835083,1718829206
iw,-73.0080261230468,-55.4209556579589,-105.243820190429,65.3404006958007,1718845873
iw,-72.7501449584961,-56.7388687133789,-124.171241760253,74.5611953735351,1718862540
iw,-71.6492843627929,-57.9827003479003,-156.44612121582,70.8633193969726,1718879207
iw,-70.0316390991211,-59.2833442687988,-164.277420043945,74.3646392822265,1718895874
iw,-68.2912139892578,-60.7134780883789,-151.474487304687,82.370849609375,1718912541
iw,-66.530517578125,-62.177261352539,-137.37368774414,84.8336791992187,1718929208
iw,-64.6855316162109,-63.6631507873535,-133.351242065429,86.5066909790039,1718945875
iw,-62.6903457641601,-65.2179718017578,-139.759826660156,90.8593521118164,1718962542
iw,-60.6591987609863,-66.8309707641601,-140.181320190429,94.6127166748046,1718979209
iw,-58.6135826110839,-68.4436111450195,-140.236221313476,94.8863983154296,1718995876
iw,-56.4771308898925,-69.9494018554687,-141.538848876953,88.6734771728515,1719012543
iw,-54.2232055664062,-71.3904800415039,-140.016525268554,84.8108978271484,1719029210
iw,-51.8706092834472,-72.8875732421875,-137.641983032226,88.1756286621093,1719045877
iw,-49.4320755004882,-74.4534759521484,-135.191146850585,92.3710250854492,1719062544
iw,-47.0354957580566,-75.9563751220703,-128.489227294921,88.7894287109375,1719079211
iw,-44.7856864929199,-77.3256683349609,-121.997261047363,81.164680480957,1719095878
iw,-42.7795639038085,-78.6635665893554,-114.730079650878,79.6411972045898,1719112545
iw,-41.0489387512207,-80.0940856933593,-102.659660339355,85.3873596191406,1719129212
iw,-39.8081550598144,-81.6349105834961,-76.0647964477539,92.1528778076171,1719145879
iw,-38.9667625427246,-83.3200378417968,-54.3476409912109,100.966072082519,1719162546
iw,-38.3886756896972,-85.1081161499023,-39.3279914855957,107.309356689453,1719179213
iw,-37.6518058776855,-86.8425369262695,-47.1012306213378,104.303688049316,1719195880
iw,-36.8579750061035,-88.325439453125,-48.1400032043457,87.7704238891601,1719212547
iw,-36.2563095092773,-89.4287033081054,-36.8319435119628,64.4248962402343,1719229214
iw,-36.1907272338867,-89.4492874145507,-1.90490782260894,55.2461204528808,1719245881
iw,-35.9291687011718,-88.4132919311523,-14.1974353790283,57.6516799926757,1719262548
iw,-35.8344116210937,-87.1132354736328,-6.4937720298767,72.478775024414,1719279215
iw,-35.8167724609375,-85.755500793457,-2.17321968078613,80.8960494995117,1719295882
iw,-35.5008964538574,-84.5622406005859,-20.229471206665,73.8531951904296,1719312549
iw,-35.1047134399414,-83.7584228515625,-25.2906856536865,49.8407440185546,1719329216
iw,-34.7314949035644,-83.2943725585937,-23.8405799865722,28.0670509338378,1719345883
iw,-34.4333190917968,-82.8879623413086,-19.1391315460205,23.3845424652099,1719362550
iw,-34.1945152282714,-82.4503860473632,-15.2630262374877,23.6756362915039,1719379217
iw,-34.05712890625,-81.903450012207,-9.02709197998046,27.9161148071289,1719395884
iw,-34.0689468383789,-81.2100372314453,-0.134313151240348,34.9065208435058,1719412551
iw,-33.986228942871,-80.5552520751953,-6.81362295150756,32.5372581481933,1719429218
iw,-33.8384017944335,-80.1276550292968,-10.9809083938598,19.3320865631103,1719445885
iw,-33.757827758789,-80.0743942260742,-4.20647001266479,-3.10278415679931,1719462552
iw,-34.3073577880859,-80.4634933471679,37.5159149169921,-28.7927951812744,1719479219
iw,-35.287986755371,-81.403076171875,62.8709297180175,-61.5312271118164,1719495886
iw,-36.2903480529785,-82.8886795043945,61.5632972717285,-98.5858993530273,1719512553
iw,-36.8787117004394,-84.5644760131836,34.5533943176269,-122.50698852539,1719529220
iw,-37.466739654541,-85.8548507690429,32.0421829223632,-132.978622436523,1719545887
iw,-38.51509475708,-85.9514617919921,59.6075401306152,-131.795532226562,1719562554
iw,-40.0025100708007,-84.9049224853515,88.4269714355468,-120.001846313476,1719579221
iw,-41.5896987915039,-83.4746017456054,98.8774032592773,-118.651123046875,1719595888
iw,-43.036808013916,-81.8340606689453,94.5042572021484,-126.804939270019,1719612555
iw,-44.2999801635742,-80.0192108154296,88.7800369262695,-130.095153808593,1719629222
iw,-45.4864921569824,-78.1867752075195,90.6717224121093,-123.869567871093,1719645889
iw,-46.843204498291,-76.104377746582,102.255142211914,-135.16047668457,1719662556
iw,-48.2082939147949,-73.709602355957,98.5985717773437,-151.126998901367,1719679223
iw,-49.4314155578613,-71.3827056884765,85.9858093261718,-144.414321899414,1719695890
iw,-50.6073913574218,-69.4994735717773,80.2428741455078,-117.099990844726,1719712557
iw,-51.8096847534179,-68.2023773193359,77.8945617675781,-84.7044296264648,1719729224
iw,-53.0263214111328,-66.8846588134765,74.1777267456054,-88.3889236450195,1719745891
iw,-54.3785095214843,-65.090087890625,78.3448944091796,-114.946701049804,1719762558
iw,-55.8811225891113,-62.938663482666,86.5113449096679,-133.710388183593,1719779225
iw,-57.4459266662597,-60.432258605957,92.3188781738281,-153.977096557617,1719795892
iw,-58.9911956787109,-57.93505859375,91.7562866210937,-153.015106201171,1719812559
iw,-60.4302711486816,-55.7062835693359,88.9480056762695,-136.639419555664,1719829226
iw,-61.5644493103027,-53.5985145568847,77.8436126708984,-129.194900512695,1719845893
iw,-62.3598403930664,-51.6554641723632,66.5473861694336,-119.177459716796,1719862560
iw,-62.9568748474121,-49.9117431640625,62.2741737365722,-106.944816589355,1719879227
iw,-63.4731674194335,-48.7044486999511,63.0266571044921,-74.49853515625,1719895894
iw,-63.977180480957,-48.2127990722656,65.1672286987304,-31.4905490875244,1719912561
iw,-64.5185012817382,-48.2293357849121,66.9612731933593,-1.06465625762939,1719929228
iw,-65.1230316162109,-48.4991722106933,66.6490249633789,14.0215969085693,1719945895
iw,-65.8178024291992,-49.1602249145507,67.6871261596679,37.8809700012207,1719962562
iw,-66.6539077758789,-49.9359321594238,77.4516830444336,44.9764976501464,1719979229
iw,-67.5450973510742,-50.5280723571777,83.3516616821289,33.6643524169921,1719995896
iw,-68.3061752319336,-50.9098320007324,78.8465423583984,20.6749515533447,1720012563
iw,-68.8924179077148,-50.7477226257324,69.6902542114257,-12.5319766998291,1720029230
iw,-69.2777252197265,-50.4094734191894,58.6067924499511,-22.8829612731933,1720045897
iw,-69.4794235229492,-50.1967964172363,46.2015380859375,-15.2232437133789,1720062564
iw,-69.5791015625,-49.9447326660156,40.926944732666,-18.2437191009521,1720079231
iw,-69.6320495605468,-49.4823722839355,37.4577560424804,-31.1858253479003,1720095898
iw,-69.688232421875,-48.8784866333007,33.8207511901855,-39.6192016601562,1720112565
iw,-69.7867431640625,-48.3573493957519,30.7457485198974,-34.5939102172851,1720129232
iw,-70.0239181518554,-48.1140594482421,28.7944831848144,-17.867935180664,1720145899
iw,-70.4406280517578,-48.2068214416503,21.6448364257812,2.88708734512329,1720162566
iw,-70.9804306030273,-48.2515525817871,18.5368747711181,0.358086258172988,1720179233
iw,-71.5458755493164,-48.0749397277832,19.5505905151367,-14.0548582077026,1720195900
iw,-71.9736633300781,-47.6114997863769,22.2726345062255,-32.4590644836425,1720212567
iw,-72.2794876098632,-47.0053749084472,19.1681480407714,-42.4169387817382,1720229234
iw,-72.4694213867187,-46.6626968383789,20.4002151489257,-27.8492641448974,1720245901
iw,-72.5223083496093,-46.6109275817871,19.6213607788085,-10.0327262878417,1720262568
iw,-72.5376739501953,-46.9528732299804,3.53206229209899,13.3750238418579,1720279235
iw,-72.5560073852539,-47.925853729248,-27.4117221832275,52.2204627990722,1720295902
iw,-72.5709075927734,-49.1528625488281,-59.4510269165039,68.7944641113281,1720312569
iw,-72.6348190307617,-50.3167457580566,-85.1604537963867,64.9511413574218,1720329236
iw,-72.8154830932617,-51.4059524536132,-84.0441055297851,60.0773963928222,1720345903
iw,-73.1361312866211,-52.5364646911621,-93.7334899902343,62.8028678894043,1720362570
iw,-73.4049072265625,-53.7342872619628,-98.5892715454101,67.9468994140625,1720379237
iw,-73.19921875,-54.9374771118164,-110.834327697753,69.0461044311523,1720395904
iw,-72.4988708496093,-56.1958236694335,-125.424896240234,72.2918624877929,1720412571
iw,-71.2365493774414,-57.5687561035156,-143.572875976562,78.880126953125,1720429238
iw,-69.4519500732421,-59.0356674194335,-154.10105895996,84.8318481445312,1720445905
iw,-67.4923477172851,-60.5204353332519,-142.922760009765,86.3246612548828,1720462572
iw,-65.5964965820312,-62.0428085327148,-131.018615722656,88.9210815429687,1720479239
iw,-63.6885910034179,-63.6139640808105,-137.436706542968,92.1985397338867,1720495906
iw,-61.6562194824218,-65.2182312011718,-149.818435668945,94.4452285766601,1720512573
iw,-59.5688133239746,-66.8405151367187,-152.811706542968,95.5719757080078,1720529240
iw,-57.3897628784179,-68.4830017089843,-151.339859008789,96.6533966064453,1720545907
iw,-55.2158088684082,-70.1633071899414,-137.428878784179,98.7038345336914,1720562574
iw,-52.962474822998,-71.9146957397461,-131.820053100585,102.790718078613,1720579241
iw,-50.5282821655273,-73.6995315551757,-135.319702148437,104.830337524414,1720595908
iw,-48.0971603393554,-75.5466918945312,-132.644332885742,108.743041992187,1720612575
iw,-45.7991371154785,-77.4316482543945,-126.430694580078,111.183494567871,1720629242
iw,-43.5514411926269,-79.3286590576171,-128.584381103515,112.060829162597,1720645909
iw,-41.3465003967285,-81.4087677001953,-130.733200073242,123.119338989257,1720662576
iw,-39.6877365112304,-83.6838836669921,-100.275299072265,134.979629516601,1720679243
iw,-38.6430130004882,-85.9192733764648,-65.1016006469726,133.183715820312,1720695910
iw,-37.8956260681152,-87.9040756225586,-48.6147880554199,119.489799499511,1720712577
iw,-37.1770668029785,-89.5702209472656,-47.624225616455,112.304718017578,1720729244
iw,-36.3484420776367,-88.3603973388671,-52.508861541748,104.335540771484,1720745911
iw,-35.5194702148437,-86.9834518432617,-52.3038101196289,81.9385528564453,1720762578
iw,-34.6648216247558,-85.9438247680664,-53.2603454589843,60.5605888366699,1720779245
iw,-33.6894035339355,-84.9912872314453,-58.1873588562011,55.0559883117675,1720795912
iw,-33.3439254760742,-83.9692840576171,-19.8590011596679,59.0922622680664,1720812579
iw,-33.3207969665527,-82.7432632446289,-1.55591344833374,71.4459075927734,1720829246
iw,-33.1839561462402,-81.3689193725586,-9.01812076568603,80.59716796875,1720845913
iw,-32.9768486022949,-80.1218338012695,-13.3692760467529,73.1372451782226,1720862580
iw,-32.6896324157714,-79.166145324707,-18.3136386871337,55.4916038513183,1720879247
iw,-32.4644966125488,-78.4957885742187,-14.5269536972045,37.7777786254882,1720895914
iw,-32.4810562133789,-77.935791015625,0.33516177535057,30.7293090820312,1720912581
iw,-32.433666229248,-77.6355819702148,-3.56449794769287,15.5295124053955,1720929248
iw,-32.14599609375,-77.7214965820312,-17.6459484100341,-6.31313467025756,1720945915
iw,-32.3812675476074,-78.4912796020507,15.2767219543457,-46.3686714172363,1720962582
iw,-33.1638221740722,-80.1116333007812,47.9470787048339,-97.2845230102539,1720979249
iw,-34.0339126586914,-82.2697830200195,52.1259269714355,-130.303939819335,1720995916
iw,-35.0164527893066,-84.5425338745117,57.1724319458007,-139.932235717773,1721012583
iw,-36.0575523376464,-86.5692672729492,59.2394523620605,-135.631240844726,1721029250
iw,-37.3716316223144,-87.861831665039,74.2464294433593,-137.051437377929,1721045917
iw,-38.7876625061035,-87.2989044189453,81.0000610351562,-137.420349121093,1721062584
iw,-40.1422653198242,-85.4009552001953,81.6274108886718,-151.632888793945,1721079251
iw,-41.3982543945312,-82.9542999267578,81.623306274414,-163.447845458984,1721095918
iw,-42.8655853271484,-80.466926574707,98.1780014038086,-156.813278198242,1721112585
iw,-44.5546989440918,-78.0146408081054,111.932487487792,-151.314453125,1721129252
iw,-46.1806945800781,-75.4597015380859,109.475601196289,-156.022674560546,1721145919
iw,-47.6160888671875,-72.6688385009765,99.5497894287109,-169.624099731445,1721162586
iw,-49.0497589111328,-69.6873626708984,99.2303161621093,-180.936538696289,1721179253
iw,-50.5041580200195,-66.8899841308593,97.1874160766601,-169.951690673828,1721195920
iw,-51.8374328613281,-64.4249114990234,85.9030380249023,-149.586730957031,1721212587
iw,-53.1192588806152,-62.235050201416,81.1854782104492,-132.277435302734,1721229254
iw,-54.4989624023437,-60.2688865661621,85.9890594482421,-118.297798156738,1721245921
iw,-55.933982849121,-58.2140159606933,84.890396118164,-123.003646850585,1721262588
iw,-57.4993476867675,-56.0762138366699,92.20947265625,-127.987060546875,1721279255
iw,-59.0494041442871,-53.8375587463378,95.0959167480468,-134.800750732421,1721295922
iw,-60.5391693115234,-51.5348739624023,97.0695190429687,-139.446151733398,1721312589
iw,-61.9823684692382,-49.4246292114257,99.1771697998046,-128.228424072265,1721329256
iw,-63.3761520385742,-47.8090286254882,100.767715454101,-98.6218566894531,1721345923
iw,-64.6163711547851,-46.8275451660156,100.887977600097,-61.0680541992187,1721362590
iw,-65.7096939086914,-46.6887588500976,104.828643798828,-10.0549974441528,1721379257
iw,-66.7271194458007,-46.7962341308593,113.274253845214,5.8538122177124,1721395924
iw,-67.5596237182617,-47.3018188476562,115.120803833007,29.9861469268798,1721412591
iw,-68.1640701293945,-47.4404983520507,110.122703552246,6.96745920181274,1721429258
iw,-68.4829635620117,-47.038589477539,93.8335647583007,-26.7032890319824,1721445925
iw,-68.5628509521484,-46.4856796264648,65.374038696289,-36.5886077880859,1721462592
iw,-68.6729049682617,-46.2313804626464,54.1045837402343,-19.5474624633789,1721479259
iw,-69.0126190185546,-46.1417922973632,55.873176574707,-11.0804405212402,1721495926
iw,-69.5543823242187,-45.952335357666,53.0249824523925,-18.2152690887451,1721512593
iw,-70.1852111816406,-45.7243995666503,38.8591804504394,-18.6931762695312,1721529260
iw,-70.7831878662109,-45.6616859436035,35.1707382202148,-6.6430640220642,1721545927
iw,-71.3020324707031,-45.8338088989257,31.4006175994873,7.68179607391357,1721562594
iw,-71.787368774414,-46.0160179138183,25.4113483428955,9.10284042358398,1721579261
iw,-72.2100219726562,-46.1507682800293,20.0697784423828,3.25584506988525,1721595928
iw,-72.4081573486328,-46.2241477966308,16.740213394165,-5.11128330230712,1721612595
iw,-72.4147644042968,-46.0386390686035,6.35506868362426,-22.5452919006347,1721629262
iw,-72.3429641723632,-45.9901008605957,-11.7488546371459,-13.1763401031494,1721645929
iw,-72.218505859375,-46.5165939331054,-43.2787055969238,25.7924556732177,1721662596
iw,-72.0593032836914,-47.7345886230468,-79.5499267578125,70.4451293945312,1721679263
iw,-71.9259338378906,-49.3212890625,-99.0045471191406,92.9462585449218,1721695930
iw,-71.9513626098632,-50.8235740661621,-109.310539245605,85.7456130981445,1721712597
iw,-72.1402740478515,-52.1486778259277,-116.218589782714,74.2515182495117,1721729264
iw,-72.1018981933593,-53.4363861083984,-127.677223205566,72.7159805297851,1721745931
iw,-71.1271896362304,-54.6676025390625,-166.166564941406,69.4229202270507,1721762598
iw,-69.3298645019531,-55.9006195068359,-186.466064453125,69.3419647216796,1721779265
iw,-67.4032745361328,-57.2448120117187,-170.444671630859,76.5009231567382,1721795932
iw,-65.706314086914,-58.6476783752441,-138.583206176757,81.0308990478515,1721812599
iw,-63.9722709655761,-60.0894775390625,-132.712463378906,84.1024703979492,1721829266
iw,-62.000675201416,-61.4670944213867,-143.679931640625,80.8198318481445,1721845933
iw,-59.9428672790527,-62.8320999145507,-144.334182739257,80.419204711914,1721862600
iw,-57.848159790039,-64.4243392944336,-143.497344970703,94.1161346435546,1721879267
iw,-55.7754859924316,-66.2997207641601,-139.161834716796,111.034400939941,1721895934
iw,-53.6131935119628,-68.2232437133789,-133.993072509765,113.959373474121,1721912601
iw,-51.2250823974609,-70.1248474121093,-137.427993774414,112.643699645996,1721929268
iw,-48.7885093688964,-71.9685363769531,-135.404373168945,109.149261474609,1721945935
iw,-46.527732849121,-73.8077239990234,-122.950164794921,108.856414794921,1721962602
iw,-44.4986267089843,-75.6530990600586,-111.159469604492,109.422470092773,1721979269
iw,-42.4092674255371,-77.5353775024414,-120.856880187988,112.04931640625,1721995936
iw,-40.2518424987793,-79.4838409423828,-128.176513671875,116.437339782714,1722012603
iw,-38.3905181884765,-81.544807434082,-111.140800476074,123.575004577636,1722029270
iw,-36.8890991210937,-83.6749496459961,-90.0969161987304,127.94766998291,1722045937
iw,-35.8085021972656,-85.714126586914,-65.8710403442382,125.13190460205,1722062604
iw,-34.8999366760253,-87.3996276855468,-56.150520324707,114.011520385742,1722079271
iw,-34.2862091064453,-88.3111267089843,-38.9864501953125,87.7498626708984,1722095938
iw,-33.8200759887695,-88.4142761230468,-30.1010475158691,60.3321075439453,1722112605
iw,-33.0180854797363,-88.0826568603515,-49.6104278564453,49.4784049987793,1722129272
iw,-32.1600914001464,-87.4095764160156,-52.375732421875,54.6292343139648,1722145939
iw,-31.7352619171142,-86.4985427856445,-26.2956523895263,62.1003112792968,1722162606
iw,-31.6270236968994,-85.4919815063476,-7.71611785888671,64.8334045410156,1722179273
iw,-31.5092277526855,-84.4584350585937,-8.62453651428222,63.5476646423339,1722195940
iw,-31.3847770690917,-83.6116867065429,-9.08552742004394,49.413230895996,1722212607
iw,-31.3437175750732,-83.0457077026367,-4.0550193786621,30.2036972045898,1722229274
iw,-31.6490478515625,-82.6491546630859,16.7684154510498,18.2489185333251,1722245941
iw,-32.3082313537597,-82.2494201660156,37.9712982177734,18.7674140930175,1722262608
iw,-32.7166366577148,-82.0181503295898,22.8486251831054,11.3859539031982,1722279275
iw,-33.1647720336914,-82.240737915039,25.7796611785888,-12.6374130249023,1722295942
iw,-33.9340286254882,-83.0507888793945,46.8942909240722,-48.5222511291503,1722312609
iw,-34.8084030151367,-84.5617370605468,52.7571678161621,-98.0489044189453,1722329276
iw,-35.3929100036621,-86.3141708374023,33.5798759460449,-132.886657714843,1722345943
iw,-36.1695022583007,-87.1628952026367,41.6317405700683,-145.193939208984,1722362610
iw,-37.3162307739257,-86.0618438720703,61.6035194396972,-141.90672302246,1722379277
iw,-38.9026145935058,-84.2880020141601,91.6865997314453,-124.42015838623,1722395944
iw,-40.6065330505371,-82.4514007568359,105.428520202636,-123.422691345214,1722412611
iw,-42.2173652648925,-80.3533782958984,105.418586730957,-141.832412719726,1722429278
iw,-43.6536216735839,-78.1314010620117,99.1169891357421,-146.78254699707,1722445945
iw,-44.8510513305664,-76.0274581909179,87.1518783569336,-135.649917602539,1722462612
iw,-46.0084609985351,-73.9468612670898,86.0323791503906,-131.831634521484,1722479279
iw,-47.1866264343261,-71.6055755615234,86.9400177001953,-145.621047973632,1722495946
iw,-48.4054641723632,-68.9674911499023,88.0326080322265,-161.91975402832,1722512613
iw,-49.6389961242675,-66.3064498901367,85.6908798217773,-162.654571533203,1722529280
iw,-50.8441543579101,-64.0350341796875,79.0582427978515,-139.775573730468,1722545947
iw,-51.9769287109375,-62.2271080017089,70.6513900756836,-112.22151184082,1722562614
iw,-53.2605171203613,-60.7401084899902,77.5288848876953,-91.985610961914,1722579281
iw,-54.6817932128906,-59.1926345825195,83.1769409179687,-93.990982055664,1722595948
iw,-56.1313591003418,-57.35640335083,82.7887954711914,-110.406059265136,1722612615
iw,-57.5740013122558,-55.3126640319824,84.4921646118164,-123.159858703613,1722629282
iw,-58.9931564331054,-53.25825881958,86.3809356689453,-124.723541259765,1722645949
iw,-60.3150100708007,-51.2001800537109,85.0045394897461,-125.660972595214,1722662616
iw,-61.398941040039,-49.2232093811035,77.9388275146484,-120.830749511718,1722679283
iw,-62.2086677551269,-47.7470054626464,72.8183517456054,-90.5845718383789,1722695950
iw,-62.930419921875,-47.0538749694824,77.1977844238281,-43.740436553955,1722712617
iw,-63.6530113220214,-47.0410194396972,82.5879592895507,-3.41280126571655,1722729284
iw,-64.3849945068359,-47.580467224121,87.4414825439453,30.8553485870361,1722745951
iw,-65.167366027832,-48.2807388305664,92.9578857421875,41.1563148498535,1722762618
iw,-65.8989944458007,-49.0087814331054,89.2220077514648,42.3911247253418,1722779285
iw,-66.5840301513671,-49.1936416625976,83.6580276489257,9.26975345611572,1722795952
iw,-67.1848526000976,-48.9819831848144,74.5209197998046,-14.8124227523803,1722812619
iw,-67.6225128173828,-48.9584274291992,55.3360023498535,-3.65721917152404,1722829286
iw,-67.9807052612304,-49.1629981994628,44.6660194396972,9.87065315246582,1722845953
iw,-68.4212341308593,-49.2107009887695,49.6231994628906,-0.111979328095912,1722862620
iw,-68.9342269897461,-49.0610771179199,52.0719718933105,-12.0801849365234,1722879287
iw,-69.3349075317382,-48.7480506896972,43.1250190734863,-21.4572868347167,1722895954
iw,-69.6372528076171,-48.5144309997558,36.9353446960449,-16.593822479248,1722912621
iw,-69.8887939453125,-48.4859199523925,30.3124351501464,-4.68268489837646,1722929288
iw,-70.1383514404296,-48.6008987426757,23.8286170959472,4.05141448974609,1722945955
iw,-70.4313507080078,-48.6597099304199,25.3209228515625,0.68528801202774,1722962622
iw,-70.7811431884765,-48.4500198364257,27.8122291564941,-16.8637771606445,1722979289
iw,-71.1528091430664,-47.8206634521484,28.3427391052246,-43.7340202331543,1722995956
iw,-71.5310897827148,-46.8689994812011,28.1064987182617,-64.7032165527343,1723012623
iw,-71.8325653076171,-46.164752960205,27.3986663818359,-51.3313484191894,1723029290
iw,-72.0062866210937,-46.048110961914,22.16841506958,-16.0840110778808,1723045957
iw,-72.1068038940429,-46.8739280700683,5.29115629196167,42.4171257019043,1723062624
iw,-72.1262054443359,-48.1057586669921,-20.715009689331,69.8675308227539,1723079291
iw,-72.0864639282226,-49.408878326416,-52.3280143737793,75.5112533569336,1723095958
iw,-72.0516967773437,-50.6488723754882,-83.7554473876953,70.8790740966796,1723112625
iw,-72.0982589721679,-51.7374420166015,-96.327278137207,61.2204895019531,1723129292
iw,-72.2832794189453,-52.9321136474609,-98.3145523071289,68.5837097167968,1723145959
iw,-72.4576721191406,-54.2638282775878,-111.506599426269,77.7824783325195,1723162626
iw,-72.1729583740234,-55.6004600524902,-123.205413818359,78.0878295898437,1723179293
iw,-71.2756958007812,-56.9198722839355,-134.948913574218,76.6845092773437,1723195960
iw,-69.9440231323242,-58.271198272705,-141.197036743164,78.4869995117187,1723212627
iw,-68.1238937377929,-59.6694908142089,-154.422500610351,81.480598449707,1723229294
iw,-65.9762115478515,-61.0183486938476,-157.974990844726,78.7361526489257,1723245961
iw,-63.7185554504394,-62.3159751892089,-154.049484252929,75.8557662963867,1723262628
iw,-61.4979171752929,-63.6771354675293,-146.478057861328,79.8317947387695,1723279295
iw,-59.2660293579101,-65.1893920898437,-147.752578735351,88.9158859252929,1723295962
iw,-57.0560188293457,-66.851936340332,-147.665390014648,97.8269729614257,1723312629
iw,-54.911506652832,-68.5614318847656,-141.341033935546,100.531837463378,1723329296
iw,-52.7551193237304,-70.2710037231445,-140.34732055664,100.441276550292,1723345963
iw,-50.3908576965332,-72.0244598388671,-146.451278686523,102.909515380859,1723362630
iw,-48.0413818359375,-73.8096466064453,-136.201873779296,104.646171569824,1723379297
iw,-45.7289199829101,-75.5645751953125,-127.775932312011,102.763526916503,1723395964
iw,-43.4797134399414,-77.2249374389648,-122.86954498291,97.0750732421875,1723412631
iw,-41.3103866577148,-78.8016815185546,-123.299560546875,92.1660461425781,1723429298
iw,-39.2345962524414,-80.4028549194336,-122.568145751953,94.0005187988281,1723445965
iw,-37.575626373291,-82.1266555786132,-98.1242370605468,101.883735656738,1723462632
iw,-36.5023460388183,-83.9346694946289,-63.9897956848144,107.370445251464,1723479299
iw,-35.8009223937988,-85.7649230957031,-43.630126953125,108.830291748046,1723495966
iw,-35.1380882263183,-87.5849990844726,-41.4317970275878,108.543563842773,1723512633
iw,-34.3594894409179,-89.2428207397461,-46.8860511779785,103.434471130371,1723529300
iw,-33.6606369018554,-88.8145294189453,-42.8388862609863,100.472869873046,1723545967
iw,-33.0511474609375,-87.2050247192382,-38.0900917053222,97.7249984741211,1723562634
iw,-32.3908920288085,-85.7582702636718,-40.6998825073242,85.7578582763671,1723579301
iw,-31.810302734375,-84.4176330566406,-36.1547203063964,78.8076782226562,1723595968
iw,-31.6823387145996,-83.1018142700195,-9.29293632507324,77.1246719360351,1723612635
iw,-31.5451679229736,-81.8450088500976,-9.97119522094726,73.6019897460937,1723629302
iw,-31.2726917266845,-80.7469406127929,-17.9772262573242,64.1246109008789,1723645969
iw,-30.973669052124,-79.8268203735351,-19.2840766906738,53.4994316101074,1723662636
iw,-30.8346099853515,-79.123046875,-9.29636764526367,40.4081993103027,1723679303
iw,-31.1082706451416,-78.6229171752929,15.956727027893,27.903938293457,1723695970
iw,-31.4241371154785,-78.3689880371093,18.2616844177246,13.2632884979248,1723712637
iw,-31.6490268707275,-78.6436386108398,11.4675140380859,-17.9540958404541,1723729304
iw,-32.0297393798828,-79.6415481567382,22.956974029541,-61.1163063049316,1723745971
iw,-32.9852142333984,-81.4158859252929,59.7852668762207,-107.993026733398,1723762638
iw,-34.0955963134765,-83.757827758789,66.8635330200195,-142.742553710937,1723779305
iw,-34.994213104248,-86.2376632690429,52.3191909790039,-154.310821533203,1723795972
iw,-35.8558654785156,-88.2580795288086,48.2281875610351,-153.732879638671,1723812639
iw,-37.0593948364257,-87.8010025024414,67.9791793823242,-140.301467895507,1723829306
iw,-38.6347007751464,-85.9266204833984,92.700454711914,-138.046142578125,1723845973
iw,-40.159812927246,-83.6201934814453,94.5680847167968,-150.808715820312,1723862640
iw,-41.4773063659668,-81.2725372314453,86.121955871582,-146.352188110351,1723879307
iw,-42.7832679748535,-79.0608520507812,89.2230377197265,-135.700057983398,1723895974
iw,-44.291332244873,-76.8125839233398,102.358291625976,-137.240829467773,1723912641
iw,-45.9155731201171,-74.2646102905273,107.717887878417,-154.816223144531,1723929308
iw,-47.4600677490234,-71.431640625,102.240669250488,-171.353317260742,1723945975
iw,-48.9253845214843,-68.8651885986328,97.5865402221679,-155.086944580078,1723962642
iw,-50.3088645935058,-66.7645645141601,92.5512390136718,-127.941864013671,1723979309
iw,-51.5480194091796,-65.0555801391601,81.9063568115234,-104.757484436035,1723995976
iw,-52.7159385681152,-63.5054893493652,75.3532638549804,-94.1662902832031,1724012643
iw,-53.953384399414,-61.5447196960449,75.5796890258789,-116.994110107421,1724029310
iw,-55.3369178771972,-59.1622047424316,79.5109939575195,-141.749267578125,1724045977
iw,-56.9216156005859,-56.8900527954101,90.0700302124023,-135.810821533203,1724062644
iw,-58.5735168457031,-54.7680549621582,97.6781616210937,-127.545600891113,1724079311
iw,-60.0671844482421,-52.5443382263183,93.0032119750976,-134.427124023437,1724095978
iw,-61.3787994384765,-50.5496368408203,88.7238464355468,-121.199645996093,1724112645
iw,-62.6199760437011,-49.12642288208,90.8619613647461,-87.1060180664062,1724129312
iw,-63.8603630065918,-48.3677330017089,98.0373764038086,-47.2955322265625,1724145979
iw,-65.043342590332,-48.4108924865722,104.776916503906,0.899867713451385,1724162646
iw,-66.1097183227539,-48.9268493652343,109.385314941406,29.8510646820068,1724179313
iw,-66.9621353149414,-49.2603187561035,107.317276000976,18.8178806304931,1724195980
iw,-67.5790405273437,-49.3061065673828,98.9394836425781,1.04874765872955,1724212647
iw,-67.9341583251953,-48.9069671630859,81.3415603637695,-25.6925640106201,1724229314
iw,-68.023193359375,-48.3394546508789,55.0968322753906,-35.8136672973632,1724245981
iw,-68.0494689941406,-48.1599731445312,42.175048828125,-12.5537891387939,1724262648
iw,-68.2289962768554,-48.0776443481445,42.1656150817871,-7.02296209335327,1724279315
iw,-68.6643981933593,-48.0515098571777,42.3634033203125,-4.16254806518554,1724295982
iw,-69.2982940673828,-47.9303970336914,38.3614387512207,-9.84435558319091,1724312649
iw,-70.0467529296875,-47.609504699707,36.8923416137695,-21.2137355804443,1724329316
iw,-70.7956848144531,-47.412296295166,32.8422126770019,-13.672607421875,1724345983
iw,-71.3987579345703,-47.6804733276367,21.204719543457,13.796513557434,1724362650
iw,-71.9037628173828,-48.1140556335449,18.2131767272949,23.8976440429687,1724379317
iw,-72.3363800048828,-48.4239845275878,21.2019786834716,16.0646114349365,1724395984
iw,-72.6176223754882,-48.3602600097656,23.7060108184814,-8.12581253051757,1724412651
iw,-72.7172164916992,-48.0446281433105,24.1757278442382,-26.2246360778808,1724429318
iw,-72.7235946655273,-47.8872985839843,23.1882266998291,-19.9058532714843,1724445985
iw,-72.6633529663086,-48.4703063964843,12.3856086730957,25.3235149383544,1724462652
iw,-72.5571823120117,-49.5772552490234,-17.6530971527099,60.8660850524902,1724479319
iw,-72.4748840332031,-50.9797973632812,-60.4136123657226,82.6360397338867,1724495986
iw,-72.4631042480468,-52.5696449279785,-91.5795974731445,94.3223190307617,1724512653
iw,-72.5813293457031,-54.0792655944824,-97.2743911743164,88.5070648193359,1724529320
iw,-72.8425064086914,-55.471939086914,-102.596504211425,80.7063293457031,1724545987
iw,-73.0008163452148,-56.8980064392089,-112.82078552246,82.7622604370117,1724562654
iw,-72.5131072998046,-58.2676124572753,-134.132980346679,79.4862823486328,1724579321
iw,-71.3440551757812,-59.5886688232421,-148.541961669921,76.5411682128906,1724595988
iw,-69.7770080566406,-60.9287986755371,-152.21760559082,77.8160018920898,1724612655
iw,-68.0650253295898,-62.3030128479003,-144.984130859375,80.1817474365234,1724629322
iw,-66.3409347534179,-63.6952171325683,-132.8486328125,81.5168914794921,1724645989
iw,-64.5203704833984,-65.0651168823242,-129.463348388671,80.3438949584961,1724662656
iw,-62.5825233459472,-66.4598541259765,-131.367523193359,81.9646835327148,1724679323
iw,-60.5115966796875,-67.9207305908203,-136.853302001953,86.0218658447265,1724695990
iw,-58.3952827453613,-69.4577941894531,-139.053649902343,90.5554962158203,1724712657
iw,-56.3881034851074,-71.0531005859375,-131.138229370117,93.9446945190429,1724729324
iw,-54.4845809936523,-72.6809692382812,-117.646987915039,95.8645706176757,1724745991
iw,-52.4832496643066,-74.280776977539,-115.398300170898,94.3934097290039,1724762658
iw,-50.3223495483398,-75.8456268310546,-118.116966247558,92.6518783569336,1724779325
iw,-48.2567176818847,-77.4161758422851,-107.322242736816,93.1934356689453,1724795992
iw,-46.2786216735839,-78.903694152832,-101.547470092773,88.0981903076171,1724812659
iw,-44.330078125,-80.2030334472656,-104.88816833496,76.4297943115234,1724829326
iw,-42.4010696411132,-81.4092483520507,-107.413772583007,70.4068832397461,1724845993
iw,-40.8401336669921,-82.6908340454101,-88.0602264404296,74.5137557983398,1724862660
iw,-39.7621192932128,-84.0682907104492,-60.2780990600585,80.1422882080078,1724879327
iw,-38.9840545654296,-85.5469818115234,-44.9315681457519,86.375747680664,1724895994
iw,-38.3954734802246,-87.1483688354492,-35.8525009155273,93.8669052124023,1724912661
iw,-37.7533912658691,-88.8099136352539,-39.8708763122558,97.0973281860351,1724929328
iw,-36.9601821899414,-89.7237548828125,-48.7880897521972,92.0111083984375,1724945995
iw,-36.0233726501464,-88.2876510620117,-55.8648986816406,80.6777114868164,1724962662
iw,-35.3981094360351,-87.1655197143554,-36.2823867797851,65.2583694458007,1724979329
iw,-34.9338836669921,-86.3828582763671,-26.2374229431152,45.07808303833,1724995996
iw,-34.3744659423828,-85.6408233642578,-32.5292320251464,42.7219734191894,1725012663
iw,-33.8982810974121,-84.7458877563476,-28.3973846435546,51.924934387207,1725029330
iw,-33.6149940490722,-83.7845077514648,-17.3489875793457,55.9213180541992,1725045997
iw,-33.4314537048339,-82.8553466796875,-11.3460025787353,54.0326499938964,1725062664
iw,-33.2341690063476,-82.0408325195312,-11.3841371536254,47.1239585876464,1725079331
iw,-33.071678161621,-81.4074172973632,-8.66890811920166,35.8531875610351,1725095998
iw,-33.0227546691894,-80.9837341308593,-1.52466356754302,22.3963909149169,1725112665
iw,-33.0940437316894,-80.6175765991211,6.17728233337402,18.4162940979003,1725129332
iw,-33.4177703857421,-80.2499313354492,22.2257289886474,19.0023555755615,1725145999
iw,-33.7590446472168,-80.0238418579101,23.1853580474853,11.5919485092163,1725162666
iw,-34.024169921875,-80.0964889526367,18.3292713165283,-5.07145500183105,1725179333
iw,-34.3811073303222,-80.6906814575195,26.4918041229248,-36.249828338623,1725196000
iw,-35.2549018859863,-81.9310913085937,58.1053085327148,-76.4208450317382,1725212667
iw,-36.2964439392089,-83.740005493164,64.3451690673828,-113.462142944335,1725229334
iw,-37.0295486450195,-85.8149795532226,42.9047584533691,-136.334976196289,1725246001
iw,-37.6645469665527,-87.4816131591796,34.9766235351562,-140.638687133789,1725262668
iw,-38.6169395446777,-87.4301376342773,53.6274147033691,-135.609405517578,1725279335
iw,-39.9689025878906,-86.0848388671875,78.4289779663086,-121.037536621093,1725296002
iw,-41.4439430236816,-84.2997512817382,88.9919204711914,-128.16567993164,1725312669
iw,-42.8070983886718,-82.0690460205078,86.3035888671875,-149.704376220703,1725329336
iw,-44.1761054992675,-79.6973342895507,91.4097137451171,-152.186691284179,1725346003
iw,-45.572898864746,-77.4084243774414,96.9726867675781,-143.784957885742,1725362670
iw,-47.1612319946289,-75.082893371582,108.139389038085,-144.098693847656,1725379337
iw,-48.7452430725097,-72.6138076782226,105.555297851562,-151.708755493164,1725396004
iw,-50.1577949523925,-69.9582977294921,93.8502883911132,-162.311264038085,1725412671
iw,-51.452163696289,-67.2848510742187,84.7183685302734,-163.175109863281,1725429338
iw,-52.6322517395019,-64.8789672851562,74.7139816284179,-147.130752563476,1725446005
iw,-53.6971931457519,-62.8932571411132,63.3509407043457,-121.530487060546,1725462672
iw,-54.7906990051269,-61.2890167236328,61.2815971374511,-97.9913558959961,1725479339
iw,-56.0659217834472,-59.6871185302734,69.4426116943359,-97.2186813354492,1725496006
iw,-57.5223312377929,-57.8381805419921,78.8330001831054,-111.439559936523,1725512673
iw,-59.0332298278808,-55.9210166931152,82.8448715209961,-115.610107421875,1725529340
iw,-60.4054145812988,-53.9868240356445,78.1269073486328,-117.202178955078,1725546007
iw,-61.6211051940918,-52.1532478332519,77.3253021240234,-111.627532958984,1725562674
iw,-62.6515655517578,-50.781452178955,75.4021911621093,-84.030517578125,1725579341
iw,-63.5013084411621,-50.0631256103515,72.4104995727539,-44.7887573242187,1725596008
iw,-64.2378845214843,-50.0235710144043,73.5805587768554,-4.1615834236145,1725612675
iw,-64.9019088745117,-50.4737854003906,75.8630218505859,26.2637920379638,1725629342
iw,-65.5387649536132,-50.9626159667968,80.4473114013671,29.0229911804199,1725646009
iw,-66.2352142333984,-51.594871520996,88.667121887207,37.149070739746,1725662676
iw,-66.8552551269531,-51.6020736694335,90.3096313476562,-1.04495584964752,1725679343
iw,-67.2435989379882,-51.2391510009765,81.2238616943359,-23.8708896636962,1725696010
iw,-67.4392929077148,-50.9208526611328,66.4638900756836,-20.3015670776367,1725712677
iw,-67.6455307006836,-50.6430206298828,62.0562362670898,-18.7865161895751,1725729344
iw,-68.04296875,-50.4330825805664,65.3858566284179,-16.4013900756835,1725746011
iw,-68.6807098388671,-50.2840499877929,66.6432571411132,-13.6237993240356,1725762678
iw,-69.3989181518554,-50.0897331237793,61.5154647827148,-15.6747636795043,1725779345
iw,-69.9607543945312,-49.8927841186523,47.1527557373046,-15.6455812454223,1725796012
iw,-70.2676773071289,-49.8850364685058,34.966381072998,-4.30904293060302,1725812679
iw,-70.4062194824218,-50.0123977661132,25.7598609924316,5.698983669281,1725829346
iw,-70.427619934082,-50.2159004211425,15.2359561920166,10.1812171936035,1725846013
iw,-70.4158630371093,-50.2985076904296,9.10341072082519,-1.70149219036102,1725862680
iw,-70.5019378662109,-50.0787277221679,7.40196323394775,-23.2963848114013,1725879347
iw,-70.7321472167968,-49.626609802246,10.2224493026733,-39.5072898864746,1725896014
iw,-71.0551147460937,-49.1998634338378,13.6799488067626,-36.1021575927734,1725912681
iw,-71.4104614257812,-49.2666053771972,4.51415824890136,-1.22691559791564,1725929348
iw,-71.746337890625,-50.0153465270996,-20.3648204803466,42.4196052551269,1725946015
iw,-71.9866867065429,-51.342544555664,-51.6529998779296,78.839973449707,1725962682
iw,-72.0806732177734,-52.6872215270996,-76.9840621948242,78.28564453125,1725979349
iw,-72.087890625,-53.8096504211425,-87.7643737792968,63.4008560180664,1725996016
iw,-72.1271438598632,-54.8590431213378,-92.9311370849609,58.8415603637695,1726012683
iw,-72.108283996582,-56.0808639526367,-102.569793701171,70.684944152832,1726029350
iw,-71.7102737426757,-57.3982620239257,-118.434921264648,77.3635711669921,1726046017
iw,-70.5749740600586,-58.7575073242187,-143.006210327148,79.6045379638671,1726062684
iw,-68.8026275634765,-60.2446327209472,-162.187713623046,86.7924041748046,1726079351
iw,-66.87744140625,-61.8297004699707,-158.818908691406,92.5656433105468,1726096018
iw,-65.0650482177734,-63.4301300048828,-141.559631347656,93.7484512329101,1726112685
iw,-63.2387351989746,-65.035903930664,-133.55076599121,94.1559753417968,1726129352
iw,-61.3916587829589,-66.7157821655273,-130.315368652343,98.7357025146484,1726146019
iw,-59.5876083374023,-68.5091552734375,-127.611366271972,105.927726745605,1726162686
iw,-57.8046646118164,-70.2908935546875,-128.017868041992,105.648460388183,1726179353
iw,-55.9550552368164,-72.0853500366211,-129.700469970703,106.797462463378,1726196020
iw,-54.0254287719726,-73.9718322753906,-131.217712402343,112.888214111328,1726212687
iw,-51.8708534240722,-75.927978515625,-143.903488159179,118.335189819335,1726229354
iw,-49.6572189331054,-77.7748107910156,-139.222091674804,113.703170776367,1726246021
iw,-47.5085716247558,-79.4576416015625,-126.154647827148,105.601600646972,1726262688
iw,-45.4121589660644,-81.0795364379882,-118.889457702636,101.913597106933,1726279355
iw,-43.3618850708007,-82.5541305541992,-116.348747253417,90.7969970703125,1726296022
iw,-41.3345756530761,-83.8066329956054,-118.413185119628,75.6285781860351,1726312689
iw,-39.5524711608886,-84.8951187133789,-104.720947265625,66.7245788574218,1726329356
iw,-38.1552696228027,-85.9161605834961,-82.8975448608398,64.8596649169921,1726346023
iw,-37.1941223144531,-86.8403091430664,-58.193546295166,60.6641235351562,1726362690
iw,-36.4143104553222,-87.668716430664,-46.8503494262695,59.9477996826171,1726379357
iw,-35.6402626037597,-88.2708206176757,-45.6289825439453,63.2311172485351,1726396024
iw,-35.3327903747558,-88.2443161010742,-19.1532440185546,66.3045883178711,1726412691
iw,-35.3737335205078,-87.5462417602539,1.3211863040924,66.5581588745117,1726429358
iw,-35.0668334960937,-86.5694351196289,-19.6401252746582,66.3488311767578,1726446025
iw,-35.008804321289,-85.5564498901367,-4.96957349777221,63.5262374877929,1726462692
iw,-35.06148147583,-84.554214477539,1.48873841762542,61.5918731689453,1726479359
iw,-34.9655265808105,-83.5346755981445,-7.39959573745727,61.9880180358886,1726496026
iw,-34.7773742675781,-82.6175155639648,-12.9002656936645,55.1088371276855,1726512693
iw,-34.5875663757324,-81.8426437377929,-12.9006919860839,45.9746780395507,1726529360
iw,-34.706485748291,-81.148811340332,5.64282464981079,40.4239082336425,1726546027
iw,-35.228832244873,-80.5076293945312,29.6936054229736,36.3669090270996,1726562694
iw,-35.4777488708496,-80.0739364624023,12.7494935989379,23.4190483093261,1726579361
iw,-35.2457389831543,-79.975830078125,-16.7834243774414,2.8405749797821,1726596028
iw,-35.3002433776855,-80.3515625,4.04705810546875,-26.3570804595947,1726612695
iw,-36.2089881896972,-81.4353942871093,57.8990287780761,-71.2333450317382,1726629362
iw,-37.0342864990234,-83.1492919921875,50.3080329895019,-114.093994140625,1726646029
iw,-37.8577651977539,-85.0155258178711,48.1359176635742,-135.012130737304,1726662696
iw,-38.905906677246,-86.3575057983398,58.7458229064941,-135.8876953125,1726679363
iw,-40.3528976440429,-86.430419921875,84.6832656860351,-137.239791870117,1726696030
iw,-42.0920944213867,-85.3471450805664,109.44229888916,-129.257369995117,1726712697
iw,-43.7141494750976,-83.7743682861328,107.268600463867,-132.536575317382,1726729364
iw,-45.1251831054687,-81.8268966674804,95.9514617919921,-140.799667358398,1726746031
iw,-46.3866424560546,-79.7379913330078,89.6800994873046,-139.077453613281,1726762698
iw,-47.7278251647949,-77.7178649902343,95.8934555053711,-129.785461425781,1726779365
iw,-49.2182159423828,-75.6183395385742,104.194717407226,-131.793975830078,1726796032
iw,-50.6498908996582,-73.1719131469726,97.1442489624023,-150.571823120117,1726812699
iw,-51.9193267822265,-70.5446090698242,83.7102508544921,-160.050338745117,1726829366
iw,-53.1907119750976,-68.0988006591796,83.3375396728515,-149.002471923828,1726846033
iw,-54.4692802429199,-65.9277038574218,81.8163986206054,-133.074752807617,1726862700
iw,-55.6719398498535,-64.0251312255859,73.4854583740234,-116.682922363281,1726879367
iw,-56.9359855651855,-62.2173271179199,73.9598083496093,-109.599937438964,1726896034
iw,-58.3884124755859,-60.3690299987793,83.6277542114257,-110.586074829101,1726912701
iw,-59.9733047485351,-58.3959465026855,91.4791183471679,-117.527641296386,1726929368
iw,-61.4693946838378,-56.4748458862304,88.9500885009765,-114.584243774414,1726946035
iw,-62.752384185791,-54.5583000183105,82.0074081420898,-115.098510742187,1726962702
iw,-63.7848205566406,-52.6596221923828,76.370979309082,-115.076873779296,1726979369
iw,-64.6503677368164,-51.0542907714843,74.9858856201171,-97.9465866088867,1726996036
iw,-65.4351196289062,-50.0508346557617,74.7350921630859,-61.8559341430664,1727012703
iw,-66.2038955688476,-49.5049438476562,77.6748352050781,-34.4786491394043,1727029370
iw,-66.9705352783203,-49.354019165039,81.8670806884765,-10.7308149337768,1727046037
iw,-67.6626968383789,-49.4886627197265,80.4359130859375,6.91404151916503,1727062704
iw,-68.2003173828125,-49.8700332641601,72.8087463378906,21.6892166137695,1727079371
iw,-68.6309585571289,-50.2310829162597,65.1210403442382,20.2684535980224,1727096038
iw,-68.9919967651367,-50.2415428161621,57.6728286743164,-1.29465949535369,1727112705
iw,-69.2432708740234,-50.5049858093261,43.662914276123,13.3153295516967,1727129372
iw,-69.5361938476562,-50.6280937194824,41.5599098205566,4.38045930862426,1727146039
iw,-69.9747467041015,-50.5922317504882,49.9032974243164,-5.87076616287231,1727162706
iw,-70.4902877807617,-50.5101623535156,53.0696029663085,-8.24730777740478,1727179373
iw,-70.9369964599609,-50.460693359375,50.5383377075195,-5.65286064147949,1727196040
iw,-71.2538604736328,-50.4549713134765,46.1688003540039,-2.66577863693237,1727212707
iw,-71.4764862060546,-50.6138267517089,42.5826835632324,8.04433441162109,1727229374
iw,-71.7201232910156,-50.7095909118652,37.1860008239746,5.05290603637695,1727246041
iw,-72.0254287719726,-50.6373748779296,37.391242980957,-8.05683422088623,1727262708
iw,-72.3559112548828,-50.2526931762695,35.180305480957,-29.0450172424316,1727279375
iw,-72.6964950561523,-49.4243659973144,27.6230525970459,-57.1114997863769,1727296042
iw,-72.9339141845703,-48.8314743041992,18.7736434936523,-43.3467559814453,1727312709
iw,-73.0541610717773,-49.0217094421386,8.71091556549072,5.83941602706909,1727329376
iw,-73.1610336303711,-50.0366783142089,-17.8355274200439,57.3761100769043,1727346043
iw,-73.2948989868164,-51.5012283325195,-55.0423965454101,85.9700469970703,1727362710
iw,-73.3810348510742,-53.1752052307128,-90.2957000732421,98.6426696777343,1727379377
iw,-73.4188690185546,-54.7881164550781,-103.433853149414,94.0138702392578,1727396044
iw,-73.4796142578125,-56.3050727844238,-109.601921081542,87.7864913940429,1727412711
iw,-73.4915313720703,-57.9104270935058,-121.924270629882,93.4134140014648,1727429378
iw,-73.0892868041992,-59.5250091552734,-135.689453125,94.3618469238281,1727446045
iw,-71.9426116943359,-61.0403900146484,-159.171325683593,88.4711380004882,1727462712
iw,-70.3086242675781,-62.5445404052734,-163.878295898437,87.8052368164062,1727479379
iw,-68.6052703857421,-64.1291809082031,-149.823852539062,92.9731216430664,1727496046
iw,-66.885986328125,-65.7227172851562,-137.90673828125,93.9194717407226,1727512713
iw,-64.9836044311523,-67.2497482299804,-140.690689086914,90.2686386108398,1727529380
iw,-62.8662109375,-68.7890243530273,-148.449676513671,91.3547134399414,1727546047
iw,-60.6237678527832,-70.4287338256836,-153.047164916992,97.6343612670898,1727562714
iw,-58.3589057922363,-72.0877914428711,-148.959915161132,99.0405731201171,1727579381
iw,-56.0634994506835,-73.7208557128906,-144.784057617187,97.6957321166992,1727596048
iw,-53.8443794250488,-75.3945617675781,-136.637329101562,100.487609863281,1727612715
iw,-51.58349609375,-77.0845565795898,-133.189620971679,101.819854736328,1727629382
iw,-49.3038902282714,-78.7880630493164,-127.701179504394,102.629135131835,1727646049
iw,-47.1174163818359,-80.4219284057617,-117.39793395996,97.7407302856445,1727662716
iw,-45.0037879943847,-81.9110946655273,-113.796974182128,87.6755294799804,1727679383
iw,-43.0726203918457,-83.3709335327148,-106.430145263671,85.3497619628906,1727696050
iw,-41.385498046875,-84.8347244262695,-95.3885955810546,86.510025024414,1727712717
iw,-40.0419845581054,-86.332275390625,-75.5281600952148,90.4083404541015,1727729384
iw,-38.9534759521484,-87.8360824584961,-60.4345054626464,94.4526748657226,1727746051
iw,-38.226089477539,-88.8884735107421,-41.578556060791,81.5093917846679,1727762718
iw,-37.6804542541503,-88.9237060546875,-34.1883430480957,61.8644409179687,1727779385
iw,-37.0790672302246,-88.3457794189453,-37.8273048400878,50.4594268798828,1727796052
iw,-36.4953384399414,-87.6680374145507,-34.7173500061035,44.7999649047851,1727812719
iw,-35.9528884887695,-86.9962539672851,-32.8525428771972,41.5074615478515,1727829386
iw,-35.6061286926269,-86.1922378540039,-18.4378013610839,48.2025108337402,1727846053
iw,-35.4445686340332,-85.1591186523437,-4.96874189376831,60.936237335205,1727862720
iw,-35.4657859802246,-83.99560546875,4.32070016860961,68.2418060302734,1727879387
iw,-35.5525360107421,-82.9186935424804,6.98358869552612,62.6820755004882,1727896054
iw,-35.6322212219238,-82.0662994384765,6.80653762817382,48.9551200866699,1727912721
iw,-35.778751373291,-81.548713684082,11.6221599578857,28.5243949890136,1727929388
iw,-36.0430107116699,-81.3460159301757,19.4909076690673,9.42001152038574,1727946055
iw,-36.4468078613281,-81.2888488769531,27.9559917449951,0.751139104366302,1727962722
iw,-36.9951515197753,-81.2871551513671,36.146484375,-2.82473731040954,1727979389
iw,-37.74853515625,-81.2749481201171,48.2725753784179,-2.82013773918151,1727996056
iw,-38.6244201660156,-81.2598724365234,54.4515151977539,-2.72440862655639,1728012723
iw,-39.1576309204101,-81.3722229003906,31.0634574890136,-10.4406080245971,1728029390
iw,-39.5043563842773,-81.8281021118164,19.902395248413,-32.905776977539,1728046057
iw,-40.1893196105957,-82.8605880737304,44.0350799560546,-72.3551712036132,1728062724
iw,-41.3386535644531,-84.4200897216796,71.6622467041015,-116.281990051269,1728079391
iw,-42.3332939147949,-85.9293212890625,59.109748840332,-145.991302490234,1728096058
iw,-43.0801696777343,-86.2426147460937,41.6414184570312,-153.412536621093,1728112725
iw,-44.0580596923828,-85.1120071411132,55.3414649963378,-140.836395263671,1728129392
iw,-45.4272079467773,-83.5457305908203,79.7788391113281,-125.176345825195,1728146059
iw,-47.1630859375,-81.7546844482421,103.950477600097,-132.183456420898,1728162726
iw,-48.8597106933593,-79.7991485595703,106.779846191406,-138.653594970703,1728179393
iw,-50.156997680664,-77.6546401977539,85.5213775634765,-143.953018188476,1728196060
iw,-51.1855888366699,-75.5412902832031,74.8389892578125,-135.678176879882,1728212727
iw,-52.1508293151855,-73.4374313354492,76.1655883789062,-132.043991088867,1728229394
iw,-53.1600265502929,-71.0589294433593,80.1962432861328,-146.815628051757,1728246061
iw,-54.1095504760742,-68.5095748901367,73.364273071289,-156.03076171875,1728262728
iw,-54.9739875793457,-66.1092910766601,61.9861793518066,-146.764236450195,1728279395
iw,-55.8572311401367,-63.9650077819824,56.3371963500976,-131.24739074707,1728296062
iw,-56.9093399047851,-62.0273857116699,59.1957817077636,-117.895408630371,1728312729
iw,-58.2572593688964,-60.3204879760742,70.2961273193359,-102.68952178955,1728329396
iw,-59.7455863952636,-58.5933647155761,76.6117477416992,-102.998550415039,1728346063
iw,-61.1419486999511,-56.7412490844726,73.9796829223632,-110.305671691894,1728362730
iw,-62.2641983032226,-54.8758964538574,63.110424041748,-111.963348388671,1728379397
iw,-63.1881637573242,-53.0316505432128,55.3836631774902,-111.929718017578,1728396064
iw,-63.8970832824707,-51.3147354125976,48.472858428955,-104.899261474609,1728412731
iw,-64.4573059082031,-50.2451515197753,48.3670921325683,-65.9245071411132,1728429398
iw,-64.9611587524414,-49.8866348266601,52.2872428894043,-22.8257789611816,1728446065
iw,-65.4007720947265,-49.9425086975097,55.1426544189453,2.46653461456298,1728462732
iw,-65.7538986206054,-50.2940979003906,54.5220985412597,20.2621593475341,1728479399
iw,-66.0343551635742,-50.7992134094238,49.484447479248,29.7994709014892,1728496066
iw,-66.3580093383789,-51.5499877929687,48.3439788818359,45.6052436828613,1728512733
iw,-66.7886199951171,-52.422019958496,54.0833053588867,52.085033416748,1728529400
iw,-67.3398666381836,-52.3707847595214,59.6838188171386,-4.9565896987915,1728546067
iw,-67.827766418457,-51.9086036682128,53.8559951782226,-29.836103439331,1728562734
iw,-68.3391952514648,-51.6316032409668,59.8614196777343,-16.903615951538,1728579401
iw,-68.9596939086914,-51.4951286315918,70.9821166992187,-8.04188251495361,1728596068
iw,-69.351089477539,-51.3250770568847,55.7522811889648,-11.134461402893,1728612735
iw,-69.5674972534179,-51.041088104248,49.1336059570312,-18.6979427337646,1728629402
iw,-69.7459106445312,-50.6939620971679,51.0972709655761,-22.7583656311035,1728646069
iw,-69.8341445922851,-50.2968406677246,40.2145462036132,-25.7328720092773,1728662736
iw,-69.9123001098632,-50.0061531066894,25.1070346832275,-19.6355533599853,1728679403
iw,-70.0302581787109,-50.1675491333007,17.7973976135253,7.57576084136962,1728696070
iw,-70.1518478393554,-50.6537628173828,5.02206659317016,28.6344947814941,1728712737
iw,-70.3591842651367,-51.1547012329101,-3.87556767463684,28.9529571533203,1728729404
iw,-70.7093048095703,-51.2216110229492,2.03111124038696,-0.307712644338607,1728746071
iw,-71.1892929077148,-50.877700805664,4.31047105789184,-27.0956707000732,1728762738
iw,-71.7985000610351,-50.5012702941894,-0.72274774312973,-31.0686225891113,1728779405
iw,-72.3751983642578,-50.7500419616699,-9.4011640548706,6.86442375183105,1728796072
iw,-72.7495574951171,-51.8697433471679,-30.9452610015869,64.1784439086914,1728812739
iw,-72.8269958496093,-53.3767204284668,-71.3463439941406,88.1591033935546,1728829406
iw,-72.6107177734375,-54.8569946289062,-90.8928604125976,87.5438003540039,1728846073
iw,-72.2147598266601,-56.4309425354003,-93.7130279541015,93.1851348876953,1728862740
iw,-71.7056121826171,-57.9466552734375,-99.1772155761718,88.4372329711914,1728879407
iw,-70.957534790039,-59.3074340820312,-116.877159118652,78.782730102539,1728896074
iw,-69.71435546875,-60.6094741821289,-141.056991577148,75.4701614379882,1728912741
iw,-68.1137771606445,-61.8671836853027,-147.586624145507,73.0688934326171,1728929408
iw,-66.5176010131836,-63.0595703125,-136.125885009765,69.2999496459961,1728946075
iw,-64.9564132690429,-64.2635650634765,-126.281143188476,70.2703018188476,1728962742
iw,-63.3239288330078,-65.5732269287109,-124.809349060058,77.1087951660156,1728979409
iw,-61.5013275146484,-66.951057434082,-134.508880615234,81.7902679443359,1728996076
iw,-59.6558494567871,-68.4442977905273,-128.230316162109,89.1016235351562,1729012743
iw,-57.9467315673828,-70.0440826416015,-113.371910095214,95.4093322753906,1729029410
iw,-56.4355545043945,-71.649787902832,-100.384735107421,95.6995468139648,1729046077
iw,-54.6635932922363,-73.2516250610351,-114.782913208007,95.6083145141601,1729062744
iw,-52.4775276184082,-74.9583740234375,-135.405990600585,101.877861022949,1729079411
iw,-50.0632286071777,-76.8557586669921,-141.417343139648,113.228759765625,1729096078
iw,-47.6898689270019,-78.7859191894531,-132.497421264648,115.430351257324,1729112745
iw,-45.5867843627929,-80.5766677856445,-115.059165954589,107.062187194824,1729129412
iw,-43.7905311584472,-82.1034317016601,-101.141761779785,90.3720169067382,1729146079
iw,-42.3542213439941,-83.4991149902343,-83.9091567993164,81.457893371582,1729162746
iw,-41.3729782104492,-84.8324127197265,-60.1632652282714,77.5405502319336,1729179413
iw,-40.5784072875976,-86.0251693725586,-48.9400558471679,69.3135223388671,1729196080
iw,-39.903205871582,-87.1030197143554,-39.6506690979003,62.2962760925293,1729212747
iw,-39.4199295043945,-88.129150390625,-27.9845008850097,59.5210075378418,1729229414
iw,-38.8004150390625,-89.0799560546875,-37.4314880371093,56.8763198852539,1729246081
iw,-37.8165397644043,-89.5550079345703,-58.6584434509277,61.3190002441406,1729262748
iw,-36.9324722290039,-88.4850921630859,-50.9584465026855,71.5502395629882,1729279415
iw,-36.4901008605957,-87.1854782104492,-27.0972023010253,76.241096496582,1729296082
iw,-36.2075767517089,-85.8852005004882,-19.06321144104,75.4697570800781,1729312749
iw,-35.8999061584472,-84.6155853271484,-21.0109004974365,73.3253707885742,1729329416
iw,-35.4432983398437,-83.4797439575195,-29.4037189483642,64.6756591796875,1729346083
iw,-35.0413742065429,-82.6085128784179,-22.8709297180175,48.5802192687988,1729362750
iw,-34.8669891357421,-81.9523620605468,-6.35832214355468,36.5431785583496,1729379417
iw,-34.8414115905761,-81.4091796875,4.21607828140258,30.1748161315917,1729396084
iw,-34.8007545471191,-80.9414138793945,4.0246787071228,25.4929771423339,1729412751
iw,-34.7942695617675,-80.4987335205078,6.24864721298217,23.8188381195068,1729429418
iw,-34.9656829833984,-80.0812683105468,16.644136428833,21.3208560943603,1729446085
iw,-35.3599853515625,-79.8570709228515,28.214542388916,8.33428287506103,1729462752
iw,-35.5705070495605,-79.9480361938476,15.052617073059,-11.2110004425048,1729479419
iw,-35.9401741027832,-80.5657730102539,26.1093521118164,-44.0729179382324,1729496086
iw,-36.7302551269531,-81.791015625,52.6871833801269,-85.7634582519531,1729512753
iw,-37.7342224121093,-83.4606399536132,62.2545776367187,-125.421234130859,1729529420
iw,-38.450454711914,-84.9411239624023,40.1677169799804,-143.17236328125,1729546087
iw,-39.032127380371,-85.4030075073242,28.6975326538085,-145.020156860351,1729562754
iw,-40.0341033935546,-84.6068572998046,54.0871124267578,-134.188980102539,1729579421
iw,-41.4831314086914,-83.2717132568359,83.4293670654296,-123.490341186523,1729596088
iw,-43.3025512695312,-81.6351699829101,108.93911743164,-133.875579833984,1729612755
iw,-44.8234176635742,-79.6863784790039,95.5861663818359,-145.796936035156,1729629422
iw,-45.9914627075195,-77.6774291992187,82.1835861206054,-139.483444213867,1729646089
iw,-47.0177345275878,-75.6758956909179,79.9568634033203,-133.825622558593,1729662756
iw,-48.2085914611816,-73.505989074707,87.7621765136718,-140.951538085937,1729679423
iw,-49.5984191894531,-71.0864639282226,94.4040832519531,-153.569854736328,1729696090
iw,-50.8160781860351,-68.619384765625,84.8944778442382,-154.098587036132,1729712757
iw,-51.7296600341796,-66.4325790405273,70.4616775512695,-135.964004516601,1729729424
iw,-52.4643020629882,-64.7574157714843,58.0975914001464,-105.632720947265,1729746091
iw,-53.3099021911621,-63.7040634155273,54.1855010986328,-69.1274948120117,1729762758
iw,-54.5355033874511,-62.7706336975097,65.1367721557617,-62.7746658325195,1729779425
iw,-56.1492080688476,-61.0955581665039,82.8056182861328,-107.036705017089,1729796092
iw,-57.9937171936035,-59.0515213012695,95.9878997802734,-128.132232666015,1729812759
iw,-59.867748260498,-57.2251968383789,100.136421203613,-114.925392150878,1729829426
