Label,Left_Hip_q,Right_Hip_q,Left_Hip_qd,Right_Hip_qd,SampleTimeFine
sw,-60.6263580322265,-18.5401077270507,-86.6178283691406,34.3779716491699,746584315
sw,-60.7753295898437,-20.6558227539062,-86.0594635009765,30.4007968902587,746600982
sw,-61.23042678833,-4.52604246139526,-85.436279296875,34.4293251037597,746617649
sw,-62.1586685180664,32.0862426757812,-84.7365341186523,39.0508728027343,746634316
sw,-63.434154510498,56.6556701660156,-84.0742721557617,36.4494094848632,746650983
sw,-64.8569259643554,71.5248413085937,-83.4761581420898,32.3501052856445,746667650
sw,-66.2223815917968,68.7250289916992,-82.918342590332,30.1558628082275,746684317
sw,-67.2952117919921,60.328815460205,-82.3842620849609,29.1257305145263,746700984
sw,-68.0321655273437,31.2609252929687,-81.9419708251953,23.8483161926269,746717651
sw,-68.7407455444336,22.6558094024658,-81.6024932861328,17.7221317291259,746734318
sw,-69.1983947753906,10.8891716003417,-81.3384170532226,13.0408143997192,746750985
sw,-69.4577178955078,-0.0430424436926841,-81.1231002807617,9.82819080352783,746767652
sw,-70.0115509033203,12.739200592041,-80.933235168457,8.01259708404541,746784319
sw,-71.1970672607421,53.8109016418457,-80.8834609985351,-0.466971188783645,746800986
sw,-72.5508422851562,76.5893783569336,-81.1359710693359,-18.7255115509033,746817653
sw,-73.3998184204101,51.7021408081054,-81.8485946655273,-45.9357566833496,746834320
sw,-73.9407730102539,28.4542140960693,-83.1686096191406,-82.0447235107421,746850987
sw,-74.5955963134765,29.589220046997,-84.9894104003906,-112.769378662109,746867654
sw,-75.5128021240234,30.7137794494628,-87.0348968505859,-129.785430908203,746884321
sw,-76.7774581909179,45.7703781127929,-88.8306503295898,-141.332443237304,746900988
sw,-78.02734375,48.1200485229492,-87.5335922241211,-158.966964721679,746917655
sw,-79.153823852539,28.1004180908203,-84.5592956542968,-181.211654663085,746934322
sw,-80.3100204467773,36.0630340576171,-81.2140579223632,-189.245712280273,746950989
sw,-81.4516906738281,50.1511497497558,-78.4008483886718,-158.559387207031,746967656
sw,-82.4788818359375,57.0774765014648,-76.0958786010742,-138.138748168945,746984323
sw,-83.4468078613281,48.4304389953613,-74.2222061157226,-116.912460327148,747000990
sw,-84.5264358520507,43.4872894287109,-72.4216613769531,-113.249595642089,747017657
sw,-85.5811080932617,47.4831085205078,-70.4318771362304,-123.739303588867,747034324
sw,-86.4462585449218,46.1621894836425,-68.295166015625,-131.909881591796,747050991
sw,-87.1370010375976,45.2494964599609,-66.2810745239257,-124.284378051757,747067658
sw,-87.6285095214843,37.0805549621582,-64.4476852416992,-113.262908935546,747084325
sw,-87.8896560668945,28.6038284301757,-62.9861068725585,-89.8079833984375,747100992
sw,-87.8616485595703,26.8669891357421,-61.7969970703125,-72.5768203735351,747117659
sw,-87.5244064331054,29.5965728759765,-60.6712341308593,-68.1736145019531,747134326
sw,-87.0326461791992,29.2105617523193,-59.5966186523437,-65.4409484863281,747150993
sw,-86.455581665039,29.0502777099609,-58.7809829711914,-51.0888023376464,747167660
sw,-85.8279571533203,29.2167320251464,-58.1126556396484,-43.99409866333,747184327
sw,-85.1893615722656,28.8205375671386,-57.4453697204589,-44.37788772583,747200994
sw,-84.5772933959961,26.5052165985107,-57.0348587036132,-27.1491241455078,747217661
sw,-83.9501953125,25.9986610412597,-57.0262832641601,-1.02678763866424,747234328
sw,-83.3083343505859,25.6286163330078,-57.3416595458984,21.0189571380615,747250995
sw,-82.6877975463867,23.2119903564453,-57.9506568908691,39.4772911071777,747267662
sw,-82.0723190307617,22.5559692382812,-59.9579429626464,125.109542846679,747284329
sw,-81.4112167358398,25.4273834228515,-62.0368347167968,124.39404296875,747300996
sw,-80.73193359375,27.8677310943603,-63.6404304504394,91.7540435791015,747317663
sw,-80.0665893554687,27.9660625457763,-64.9663696289062,73.1053390502929,747334330
sw,-79.455322265625,24.6203441619873,-66.1290588378906,63.8539657592773,747350997
sw,-78.9125366210937,20.0482521057128,-66.9018249511718,39.9446716308593,747367664
sw,-78.4585952758789,14.1259841918945,-67.5613937377929,32.5244140625,747384331
sw,-78.0372314453125,12.3742265701293,-67.9877471923828,19.4563598632812,747400998
sw,-77.6288452148437,13.3243017196655,-68.2904586791992,10.697678565979,747417665
sw,-77.2749557495117,11.8726253509521,-68.8518905639648,25.8910236358642,747434332
sw,-77.0484313964843,4.6985592842102,-70.0799255371093,67.6621551513671,747450999
sw,-76.8803253173828,1.90081560611724,-71.5060577392578,84.5607070922851,747467666
sw,-76.7613143920898,1.27969753742218,-72.2220687866211,45.8578376770019,747484333
sw,-76.7371597290039,-2.46584224700927,-72.2987213134765,7.26101541519165,747501000
sw,-76.9279861450195,-14.5219449996948,-72.5684432983398,14.836986541748,747517667
sw,-77.4669113159179,-33.3880157470703,-73.3207550048828,38.3494186401367,747534334
sw,-78.396987915039,-52.8338737487793,-74.2949905395507,45.7276916503906,747551001
sw,-79.728271484375,-69.8358306884765,-75.2349243164062,41.4661598205566,747567668
sw,-81.4268264770507,-80.6802902221679,-76.1681289672851,46.1008110046386,747584335
sw,-83.343391418457,-86.4897842407226,-77.1848983764648,54.2923507690429,747601002
sw,-85.4656372070312,-98.9065856933593,-78.2687454223632,59.7283058166503,747617669
sw,-87.2664108276367,-103.88621520996,-79.3201446533203,62.1186981201171,747634336
sw,-87.2024993896484,-107.027587890625,-80.3164138793945,61.6158866882324,747651003
sw,-85.3652725219726,-114.112396240234,-81.3622970581054,61.3925056457519,747667670
sw,-83.1708526611328,-121.410667419433,-82.6132659912109,68.7688293457031,747684337
sw,-81.0052490234375,-127.710250854492,-83.9065475463867,71.6682891845703,747701004
sw,-78.6683120727539,-144.802795410156,-85.0644607543945,67.2891769409179,747717671
sw,-76.2353134155273,-151.91323852539,-86.0512161254882,60.8165054321289,747734338
sw,-73.8867111206054,-140.955780029296,-87.0095825195312,60.9897575378418,747751005
sw,-71.7812576293945,-122.18985748291,-87.9019317626953,60.0820960998535,747767672
sw,-69.9158248901367,-102.638854980468,-88.5630569458007,50.4882164001464,747784339
sw,-68.4176940917968,-72.3718032836914,-88.8642654418945,47.4817123413085,747801006
sw,-67.2067184448242,-51.3983306884765,-88.6421737670898,47.87056350708,747817673
sw,-66.2323532104492,-37.2122840881347,-88.0539855957031,48.3457298278808,747834340
sw,-65.4034652709961,-31.9744205474853,-87.3780364990234,44.2488899230957,747851007
sw,-64.5466766357421,-45.0305824279785,-86.6816482543945,42.1093673706054,747867674
sw,-63.8463897705078,-43.7755622863769,-86.0436401367187,37.5199813842773,747884341
sw,-63.2302322387695,-48.2233200073242,-85.3807296752929,38.2319755554199,747901008
sw,-62.7983322143554,-41.1179733276367,-84.7228164672851,36.9962921142578,747917675
sw,-62.5454025268554,-35.063304901123,-84.1089096069336,34.0838890075683,747934342
sw,-62.4706649780273,-27.0970230102539,-83.4473114013671,37.2018013000488,747951009
sw,-62.6843948364257,-7.235933303833,-82.6708068847656,44.5582847595214,747967676
sw,-62.9352760314941,-10.5700788497924,-81.9239425659179,42.8607482910156,747984343
sw,-63.5788421630859,10.7262687683105,-81.334243774414,33.2036361694335,748001010
sw,-64.6075668334961,40.8433265686035,-80.8722839355468,25.282522201538,748017677
sw,-65.8436279296875,61.5245208740234,-80.4593353271484,22.3542537689209,748034344
sw,-67.0653915405273,65.0337371826171,-80.0705871582031,20.926134109497,748051011
sw,-68.0220336914062,48.4608459472656,-79.692886352539,20.4001655578613,748067678
sw,-68.80078125,28.1791553497314,-79.4252090454101,13.9195966720581,748084345
sw,-69.4076919555664,8.701171875,-79.3651580810546,1.41176319122314,748101012
sw,-69.6159973144531,-7.00429105758667,-79.5140838623046,-11.4841575622558,748117679
sw,-69.857192993164,3.36279487609863,-79.7511291503906,-17.1414680480957,748134346
sw,-70.7045135498046,35.0605239868164,-80.0849380493164,-23.0816249847412,748151013
sw,-72.134895324707,72.2130355834961,-80.7371520996093,-41.949649810791,748167680
sw,-73.44921875,83.6923065185546,-81.9026794433593,-71.8277435302734,748184347
sw,-74.0416641235351,39.9679107666015,-83.6190185546875,-103.828857421875,748201014
sw,-74.4932250976562,28.7854232788085,-85.9462356567382,-139.910018920898,748217681
sw,-75.2827453613281,34.3698616027832,-89.0504455566406,-187.638519287109,748234348
sw,-76.4901885986328,35.7087020874023,-87.321533203125,-213.320526123046,748251015
sw,-77.9092636108398,38.5058250427246,-83.6923675537109,-209.175582885742,748267682
sw,-79.2249755859375,41.8236923217773,-80.2427673339843,-191.163360595703,748284349
sw,-80.4921569824218,40.9751358032226,-77.73486328125,-143.554443359375,748301016
sw,-81.7299423217773,50.2252120971679,-75.7381439208984,-124.842239379882,748317683
sw,-82.8375701904296,58.1082534790039,-73.7661590576171,-126.590347290039,748334350
sw,-83.8689880371093,63.8573112487793,-71.5149917602539,-141.652450561523,748351017
sw,-84.9010314941406,55.4874038696289,-69.3991088867187,-131.591445922851,748367684
sw,-85.9396743774414,43.2274703979492,-67.3461608886718,-126.450042724609,748384351
sw,-86.8348617553711,33.7423858642578,-65.1308517456054,-135.72801208496,748401018
sw,-87.5164337158203,31.3539295196533,-63.2635955810546,-114.577011108398,748417685
sw,-87.914566040039,35.0810852050781,-61.7395896911621,-93.2366409301757,748434352
sw,-88.0504684448242,29.6601829528808,-60.5766677856445,-71.0022811889648,748451019
sw,-87.9527282714843,25.636619567871,-59.8855361938476,-42.2437896728515,748467686
sw,-87.5469665527343,30.5991992950439,-59.5717544555664,-20.6477165222167,748484353
sw,-86.9851989746093,32.0723724365234,-58.8862648010253,-44.6731719970703,748501020
sw,-86.4059906005859,29.1583175659179,-58.0325851440429,-55.3372192382812,748517687
sw,-85.8290863037109,26.2272243499755,-57.3014640808105,-48.0937576293945,748534354
sw,-85.2514572143554,25.0972957611084,-56.8626022338867,-30.6916027069091,748551021
sw,-84.6932983398437,23.3626518249511,-56.9684562683105,2.28526782989501,748567688
sw,-84.1630020141601,19.8932704925537,-57.7149009704589,43.1699447631835,748584355
sw,-83.606689453125,19.9334812164306,-59.7103424072265,123.816444396972,748601022
sw,-83.0228500366211,20.7775173187255,-61.9345512390136,132.916290283203,748617689
sw,-82.4120407104492,22.7497005462646,-63.8961868286132,112.054939270019,748634356
sw,-81.7514495849609,27.9456672668457,-65.4653244018554,88.0759048461914,748651023
sw,-81.1047058105468,28.7857265472412,-66.8419876098632,78.0073471069336,748667690
sw,-80.5336151123046,24.5591926574707,-67.7039566040039,48.6098251342773,748684357
sw,-80.0547943115234,18.1143474578857,-68.1641998291015,24.5931491851806,748701024
sw,-79.601821899414,15.6162509918212,-68.4305343627929,12.253511428833,748717691
sw,-79.1454086303711,16.6353530883789,-68.6115036010742,4.92008209228515,748734358
sw,-78.7414779663086,14.9942646026611,-68.9411315917968,12.8854494094848,748751025
sw,-78.4539031982421,8.37843704223632,-69.8476409912109,48.173412322998,748767692
sw,-78.277717590332,1.4737594127655,-71.1708984375,78.3473587036132,748784359
sw,-78.1465682983398,-0.337886363267898,-71.9417266845703,48.2078971862793,748801026
sw,-78.0761337280273,-2.15579605102539,-72.063247680664,7.77536869049072,748817693
sw,-78.1719207763671,-11.1098327636718,-72.3031768798828,10.5497779846191,748834360
sw,-78.5312805175781,-24.2404098510742,-73.0094604492187,34.2611618041992,748851027
sw,-79.2282943725586,-39.1902313232421,-73.9663009643554,46.2439346313476,748867694
sw,-80.3335266113281,-56.7629776000976,-74.9445648193359,46.8763351440429,748884361
sw,-81.8199081420898,-70.69384765625,-75.8905639648437,49.3405265808105,748901028
sw,-83.6540298461914,-84.7784576416015,-77.0125656127929,61.1545982360839,748917695
sw,-85.6836166381836,-94.1479187011718,-78.2067413330078,66.8810348510742,748934362
sw,-87.6141128540039,-104.761306762695,-79.2730331420898,63.0619888305664,748951029
sw,-87.5649032592773,-104.197372436523,-80.2196884155273,59.2304878234863,748967696
sw,-85.5643844604492,-100.371452331542,-81.1472778320312,57.2547264099121,748984363
sw,-83.2648391723632,-107.522644042968,-82.182746887207,58.7644691467285,749001030
sw,-81.0643157958984,-116.12937927246,-83.3535614013671,64.8102416992187,749017697
sw,-78.8926239013671,-126.313613891601,-84.4815826416015,64.1377410888671,749034364
sw,-76.7361679077148,-128.8310546875,-85.5365219116211,62.865005493164,749051031
sw,-74.5830764770507,-127.549072265625,-86.5133361816406,61.2318534851074,749067698
sw,-72.5478134155273,-117.188385009765,-87.4081420898437,57.62935256958,749084365
sw,-70.7179183959961,-103.274368286132,-88.1591033935546,50.4214248657226,749101032
sw,-69.1431427001953,-84.1021118164062,-88.7302017211914,44.9198493957519,749117699
sw,-67.8840103149414,-60.5062294006347,-88.9755020141601,44.2634124755859,749134366
sw,-66.8254013061523,-46.9129333496093,-88.6437606811523,46.0864448547363,749151033
sw,-65.9064483642578,-39.8043327331543,-88.0341720581054,43.4347801208496,749167700
sw,-65.0444869995117,-40.2482872009277,-87.3716964721679,40.643497467041,749184367
sw,-64.2033004760742,-47.2446899414062,-86.6561431884765,41.8505325317382,749201034
sw,-63.4711723327636,-48.3028907775878,-85.9227828979492,42.2006149291992,749217701
sw,-62.8899765014648,-45.2991485595703,-85.2350616455078,39.0291328430175,749234368
sw,-62.4939842224121,-41.003547668457,-84.5866622924804,36.3858222961425,749251035
sw,-62.3684043884277,-28.2279567718505,-83.8980865478515,38.7603797912597,749267702
sw,-62.5278968811035,-8.79367637634277,-83.2080001831054,39.0020790100097,749284369
sw,-62.8329391479492,-2.38249945640563,-82.53173828125,38.1857604980468,749301036
sw,-63.2593002319335,1.30056142807006,-81.8393936157226,39.2148323059082,749317703
sw,-63.9114608764648,20.123249053955,-81.1589126586914,38.6402740478515,749334370
sw,-64.9119644165039,50.0621109008789,-80.5463027954101,34.590835571289,749351037
sw,-66.218147277832,73.6118545532226,-79.9728546142578,32.254768371582,749367704
sw,-67.191177368164,48.4866790771484,-79.3683471679687,34.3334312438964,749384371
sw,-67.9649353027343,26.9506473541259,-78.9066543579101,26.0375804901123,749401038
sw,-68.6642150878906,14.6989583969116,-78.618293762207,15.6731157302856,749417705
sw,-68.9823837280273,-9.25458526611328,-78.4643173217773,7.42643928527832,749434372
sw,-69.0666580200195,-11.6163539886474,-78.3432846069336,5.26003217697143,749451039
sw,-69.3447647094726,7.57480859756469,-78.3181610107421,-0.56859415769577,749467706
sw,-70.1744155883789,29.0422916412353,-78.5181655883789,-14.1133089065551,749484373
sw,-71.6875457763671,70.6614837646484,-79.0771713256836,-35.718952178955,749501040
sw,-72.9891052246093,81.4382171630859,-80.1671447753906,-67.3038635253906,749517707
sw,-73.5194244384765,37.1831283569335,-81.7199020385742,-94.3265991210937,749534374
sw,-74.0351409912109,26.869514465332,-83.8046722412109,-125.981872558593,749551041
sw,-74.8281555175781,28.1183757781982,-86.4317932128906,-160.006973266601,749567708
sw,-75.8443374633789,12.3520412445068,-88.9876022338867,-195.394821166992,749584375
sw,-77.0996475219726,25.2602043151855,-86.3637466430664,-212.642852783203,749601042
sw,-78.4150314331054,42.713264465332,-82.7941589355468,-210.02391052246,749617709
sw,-79.614028930664,35.9805603027343,-79.8842315673828,-172.554061889648,749634376
sw,-80.819839477539,50.5357551574707,-77.5970001220703,-144.017913818359,749651043
sw,-82.0249481201171,66.2528381347656,-75.3398742675781,-144.868743896484,749667710
sw,-83.1121368408203,58.577293395996,-72.8892669677734,-154.89143371582,749684377
sw,-84.177864074707,39.0544776916503,-70.4836196899414,-150.115173339843,749701044
sw,-85.2800064086914,35.7509994506835,-68.2869186401367,-135.863403320312,749717711
sw,-86.3119354248046,43.5950088500976,-66.2882995605468,-121.931007385253,749734378
sw,-87.1893081665039,48.2274284362793,-64.4516525268554,-110.369415283203,749751045
sw,-87.8648529052734,45.4672698974609,-62.9907913208007,-86.9463653564453,749767712
sw,-88.2113037109375,37.5558815002441,-61.9015808105468,-64.372329711914,749784379
sw,-88.1794128417968,30.5322837829589,-61.101936340332,-46.9275817871093,749801046
sw,-87.8513259887695,28.6381893157959,-60.2458152770996,-51.363052368164,749817713
sw,-87.3492279052734,28.9290027618408,-59.2977027893066,-59.169075012207,749834380
sw,-86.7874679565429,27.8537425994873,-58.3137054443359,-63.364028930664,749851047
sw,-86.2518463134765,23.6461143493652,-57.5006294250488,-54.5384445190429,749867714
sw,-85.7075119018554,22.8701877593994,-57.0745315551757,-31.8202495574951,749884381
sw,-85.1091995239257,25.9660491943359,-56.8905639648437,-15.2520017623901,749901048
sw,-84.4755096435546,27.6879367828369,-56.738670349121,-11.364538192749,749917715
sw,-83.8737564086914,23.7279815673828,-57.7809028625488,63.4292030334472,749934382
sw,-83.261116027832,22.1814384460449,-59.80269241333,124.483993530273,749951049
sw,-82.5990447998046,25.1620903015136,-61.5114288330078,102.943542480468,749967716
sw,-81.884536743164,29.2623195648193,-62.8518600463867,76.7162322998046,749984383
sw,-81.1789093017578,29.493631362915,-64.10498046875,72.8585510253906,750001050
sw,-80.4811782836914,29.9216175079345,-65.3570404052734,70.6829452514648,750017717
sw,-79.8499526977539,26.2550163269042,-66.3739242553711,54.4376716613769,750034384
sw,-79.2899627685546,21.9263172149658,-67.2636337280273,46.5193405151367,750051051
sw,-78.8099899291992,17.6373214721679,-67.8628311157226,29.8919029235839,750067718
sw,-78.3958511352539,15.0990810394287,-68.4051513671875,26.322639465332,750084385
sw,-78.0442657470703,12.5575590133667,-69.1895751953125,41.835880279541,750101052
sw,-77.7891387939453,8.03966045379638,-70.4640197753906,74.9162902832031,750117719
sw,-77.5702056884765,7.93344688415527,-71.6091918945312,72.1348342895507,750134386
sw,-77.3356552124023,10.7428655624389,-72.0065002441406,27.909719467163,750151053
sw,-77.2231216430664,3.14833807945251,-72.1075363159179,6.80502986907959,750167720
sw,-77.3605270385742,-12.8019876480102,-72.5137252807617,17.7664928436279,750184387
sw,-77.8657150268554,-34.2615203857421,-73.3316268920898,36.5969772338867,750201054
sw,-78.7984085083007,-55.6836433410644,-74.39990234375,50.7076339721679,750217721
sw,-80.1461715698242,-73.3268661499023,-75.4062271118164,49.819766998291,750234388
sw,-81.8888168334961,-87.6867065429687,-76.3318328857421,49.7156867980957,750251055
sw,-83.9010238647461,-96.4837570190429,-77.3348999023437,54.8186264038085,750267722
sw,-86.1005249023437,-103.922889709472,-78.3044281005859,54.5347747802734,750284389
sw,-88.0462646484375,-110.298591613769,-79.2081298828125,55.1179504394531,750301056
sw,-87.3998565673828,-106.936813354492,-79.9481735229492,47.632453918457,750317723
sw,-85.2080078125,-106.387733459472,-80.7408905029296,47.8705215454101,750334390
sw,-83.0140762329101,-106.165008544921,-81.7322158813476,54.1980400085449,750351057
sw,-80.8320236206054,-120.941001892089,-82.9099502563476,64.3469009399414,750367724
sw,-78.5764923095703,-133.73876953125,-84.2096557617187,74.2180709838867,750384391
sw,-76.2805938720703,-137.199386596679,-85.4912490844726,78.8909835815429,750401058
sw,-74.0737533569336,-126.070129394531,-86.6431655883789,76.1148605346679,750417725
sw,-72.0891876220703,-109.037933349609,-87.6203536987304,74.5426712036132,750434392
sw,-70.3329010009765,-91.5241394042968,-88.2343139648437,62.5014495849609,750451059
sw,-68.7344512939453,-75.8819961547851,-88.4146499633789,48.2868461608886,750467726
sw,-67.3631362915039,-58.6364593505859,-88.3067321777343,39.0233459472656,750484393
sw,-66.2413940429687,-43.8854942321777,-87.9845275878906,36.4730415344238,750501060
sw,-65.2825622558593,-37.6858711242675,-87.4586334228515,38.2013931274414,750517727
sw,-64.3809967041015,-41.5729675292968,-86.8102188110351,40.012409210205,750534394
sw,-63.5156784057617,-49.7941284179687,-86.1303176879882,39.5528335571289,750551061
sw,-62.7989234924316,-47.2675819396972,-85.3674774169921,43.9006233215332,750567728
sw,-62.2068099975585,-49.1829719543457,-84.5898132324218,44.6259956359863,750584395
sw,-61.8173789978027,-43.7978439331054,-83.8714828491211,40.923542022705,750601062
sw,-61.7153968811035,-29.9510517120361,-83.1591491699218,40.4476051330566,750617729
sw,-61.8265304565429,-19.6298294067382,-82.4723587036132,38.8928070068359,750634396
sw,-62.1327095031738,-10.4797391891479,-81.8797225952148,33.1572875976562,750651063
sw,-62.9988365173339,28.0226135253906,-81.2974014282226,32.5349464416503,750667730
sw,-64.1563262939453,56.0964775085449,-80.6492004394531,36.610855102539,750684397
sw,-65.2800827026367,57.9909362792968,-79.9850616455078,37.7235221862793,750701064
sw,-66.2322463989257,54.4672355651855,-79.3918762207031,33.6176376342773,750717731
sw,-66.8795166015625,27.1444664001464,-78.9382247924804,25.3600120544433,750734398
sw,-67.594009399414,20.339204788208,-78.672492980957,14.1338653564453,750751065
sw,-68.4363479614257,28.8730430603027,-78.5516128540039,5.43276691436767,750767732
sw,-68.9306640625,9.4665355682373,-78.5364303588867,-0.910991191864013,750784399
sw,-69.4717025756836,11.0716905593872,-78.6415939331054,-8.08799171447753,750801066
sw,-70.4802856445312,36.3562126159668,-78.9224700927734,-18.6532039642334,750817733
sw,-71.9190979003906,77.7274627685546,-79.5490646362304,-39.470588684082,750834400
sw,-72.9960632324218,71.9012298583984,-80.7605667114257,-74.4240112304687,750851067
sw,-73.483901977539,28.100975036621,-82.5379486083984,-108.016242980957,750867734
sw,-74.0006713867187,24.5286636352539,-84.8026962280273,-136.967727661132,750884401
sw,-74.8443527221679,26.7824115753173,-87.5980072021484,-170.533706665039,750901068
sw,-76.0641555786132,26.0455112457275,-88.6339874267578,-206.403335571289,750917735
sw,-77.4741897583007,41.0588645935058,-84.9016189575195,-227.064376831054,750934402
sw,-78.8067855834961,41.2666969299316,-81.1519165039062,-213.479034423828,750951069
sw,-80.0775451660156,36.4434127807617,-78.4136428833007,-157.137985229492,750967736
sw,-81.1992263793945,41.655345916748,-76.2687301635742,-133.7548828125,750984403
sw,-82.2641448974609,65.8941345214843,-74.0133361816406,-144.674255371093,751001070
sw,-83.2245407104492,60.6423263549804,-71.7972946166992,-140.098052978515,751017737
sw,-84.2003631591796,41.8870239257812,-69.6120223999023,-135.77880859375,751034404
sw,-85.2129592895507,30.814525604248,-67.4345932006836,-133.887619018554,751051071
sw,-86.1684036254882,35.9008598327636,-65.260139465332,-132.536804199218,751067738
sw,-86.9777374267578,45.0761642456054,-63.3483657836914,-115.79418182373,751084405
sw,-87.546890258789,42.0192909240722,-61.8056106567382,-94.0993881225586,751101072
sw,-87.8617401123046,34.4215469360351,-60.6730690002441,-69.6273498535156,751117739
sw,-87.8502349853515,31.0363292694091,-59.7386856079101,-57.2908172607421,751134406
sw,-87.5827331542968,28.0661449432373,-58.8567161560058,-53.97261428833,751151073
sw,-87.1498794555664,27.3925666809082,-58.0628585815429,-49.0437545776367,751167740
sw,-86.6289672851562,26.7755374908447,-57.3837547302246,-44.2966423034668,751184407
sw,-86.1080627441406,23.3552818298339,-56.7945480346679,-40.9570274353027,751201074
sw,-85.5986099243164,20.1987724304199,-56.6707725524902,-12.2512769699096,751217741
sw,-85.0400619506836,21.8353271484375,-56.7870063781738,3.27937459945678,751234408
sw,-84.4284210205078,24.0409336090087,-57.2712249755859,27.7521114349365,751251075
sw,-83.7937927246093,24.5457534790039,-59.2368240356445,121.104019165039,751267742
sw,-83.1563415527343,24.1901321411132,-61.4023628234863,130.011444091796,751284409
sw,-82.5010910034179,25.7408332824707,-62.8674926757812,82.5731048583984,751301076
sw,-81.8443374633789,26.7431621551513,-64.1849594116211,74.6168518066406,751317743
sw,-81.2366867065429,22.7450637817382,-65.2729187011718,60.3171157836914,751334410
sw,-80.6902542114257,18.3519382476806,-66.2119903564453,51.7682266235351,751351077
sw,-80.1921005249023,16.147024154663,-66.9480438232421,38.6301765441894,751367744
sw,-79.7330780029296,14.9258661270141,-67.4250106811523,21.9626560211181,751384411
sw,-79.2778778076171,16.8187503814697,-67.7056121826171,10.5360307693481,751401078
sw,-78.8446884155273,17.8300304412841,-68.0324096679687,13.9167366027832,751417745
sw,-78.4825210571289,14.9170017242431,-68.8330917358398,42.3597335815429,751434412
sw,-78.2300109863281,9.17013549804687,-70.4679641723632,94.3847045898437,751451079
sw,-78.0270080566406,6.90752220153808,-71.8124465942382,81.4251403808593,751467746
sw,-77.8823471069336,4.01986122131347,-72.203498840332,27.7921962738037,751484413
sw,-77.8783416748046,-5.13870811462402,-72.2982711791992,8.65105438232421,751501080
sw,-78.1225051879882,-20.5210494995117,-72.7596206665039,26.1900730133056,751517747
sw,-78.6864852905273,-35.9834022521972,-73.5475006103515,40.5096855163574,751534414
sw,-79.5998001098632,-49.2722816467285,-74.4312667846679,38.33345413208,751551081
sw,-80.9037933349609,-63.24365234375,-75.3172454833984,37.312385559082,751567748
sw,-82.6102066040039,-77.0085372924804,-76.1920776367187,43.0503807067871,751584415
sw,-84.51953125,-84.7891311645507,-77.1604690551757,51.6044883728027,751601082
sw,-86.4811935424804,-96.3305130004882,-78.1276550292968,54.1677055358886,751617749
sw,-87.4461822509765,-98.4692153930664,-79.0572204589843,55.0803718566894,751634416
sw,-86.2303848266601,-102.779273986816,-79.8926925659179,51.5566444396972,751651083
sw,-84.0247650146484,-111.644180297851,-80.7356719970703,50.4578857421875,751667750
sw,-81.8142929077148,-115.931701660156,-81.7454147338867,54.8001556396484,751684417
sw,-79.7062759399414,-126.780647277832,-82.9487075805664,64.356689453125,751701084
sw,-77.4421234130859,-142.972259521484,-84.217041015625,70.1922454833984,751717751
sw,-74.9449996948242,-158.87825012207,-85.4694900512695,72.0719299316406,751734418
sw,-72.4930877685546,-147.837142944335,-86.6651611328125,71.8657684326171,751751085
sw,-70.3616180419921,-122.430046081542,-87.82373046875,72.6670837402343,751767752
sw,-68.5819549560546,-93.7027740478515,-88.7809982299804,63.1897811889648,751784419
sw,-67.1307373046875,-69.0139541625976,-89.3265228271484,45.2742576599121,751801086
sw,-65.9462051391601,-48.8964118957519,-89.246711730957,36.1500282287597,751817753
sw,-65.0328903198242,-32.2544784545898,-88.714126586914,36.831916809082,751834420
sw,-64.2439346313476,-30.0464668273925,-88.0242385864257,39.2116317749023,751851087
sw,-63.4930839538574,-35.3633384704589,-87.3220443725586,38.7215881347656,751867754
sw,-62.793701171875,-44.9853706359863,-86.6187591552734,38.8357849121093,751884421
sw,-62.1581726074218,-50.9288673400878,-85.9236450195312,38.0755424499511,751901088
sw,-61.6449317932128,-51.4461212158203,-85.2342834472656,37.5967674255371,751917755
sw,-61.2656211853027,-49.6926803588867,-84.5915145874023,34.6615829467773,751934422
sw,-61.1437797546386,-36.8344001770019,-83.9943923950195,32.1610069274902,751951089
sw,-61.4747619628906,-3.06813645362854,-83.3483428955078,35.6890220642089,751967756
sw,-61.8384704589843,-7.49805307388305,-82.639533996582,39.8578262329101,751984423
sw,-62.456787109375,6.5311255455017,-81.9389495849609,39.4719123840332,752001090
sw,-63.508186340332,44.3974418640136,-81.2231826782226,40.2899513244628,752017757
sw,-64.6244735717773,51.0850181579589,-80.5398254394531,38.7433128356933,752034424
sw,-65.6001281738281,44.0764083862304,-79.898452758789,36.6124153137207,752051091
sw,-66.2620620727539,24.480842590332,-79.3263702392578,32.3918876647949,752067758
sw,-66.7870407104492,4.85074806213378,-78.9019927978515,23.6858787536621,752084425
sw,-67.2352676391601,-4.16173505783081,-78.6371002197265,13.953140258789,752101092
sw,-67.2310180664062,-21.407751083374,-78.4327697753906,9.77989482879638,752117759
sw,-67.2184829711914,-16.1634349822998,-78.2542724609375,7.78816843032836,752134426
sw,-67.5451126098632,-0.13489456474781,-78.2463073730468,-2.31738972663879,752151093
sw,-68.5783309936523,26.5620994567871,-78.533203125,-19.7358474731445,752167760
sw,-70.2570419311523,67.5128479003906,-79.1812744140625,-41.1607360839843,752184427
sw,-71.6815643310546,82.7685470581054,-80.3107299804687,-69.4668731689453,752201094
sw,-72.4063644409179,44.0745468139648,-81.9373245239257,-98.5298690795898,752217761
sw,-72.9365692138671,33.6863365173339,-84.0457000732421,-126.771949768066,752234428
sw,-73.7504577636718,41.2347908020019,-86.7351150512695,-161.27180480957,752251095
sw,-74.909927368164,45.3396644592285,-89.4717712402343,-199.612152099609,752267762
sw,-76.2546234130859,30.3226280212402,-86.107307434082,-213.005996704101,752284429
sw,-77.6634826660156,40.6355819702148,-82.6668472290039,-194.144256591796,752301096
sw,-79.1293487548828,51.754596710205,-80.0144348144531,-154.662796020507,752317763
sw,-80.5139694213867,60.6059417724609,-77.8027877807617,-138.629760742187,752334430
sw,-81.7395553588867,61.3182296752929,-75.5016860961914,-147.481231689453,752351097
sw,-82.8752822875976,57.6842956542968,-73.0323104858398,-156.317123413085,752367764
sw,-83.9621353149414,49.5043029785156,-70.554328918457,-154.404876708984,752384431
sw,-85.0308380126953,38.0664672851562,-68.1566467285156,-147.751693725585,752401098
sw,-86.0234451293945,34.1850509643554,-65.9381713867187,-136.16941833496,752417765
sw,-86.9309463500976,37.7457771301269,-64.0930786132812,-113.012062072753,752434432
sw,-87.7472763061523,42.8094329833984,-62.5704689025878,-92.7522201538086,752451099
sw,-88.4224395751953,34.5500564575195,-61.3717079162597,-72.9312210083007,752467766
sw,-88.9242553710937,28.0357036590576,-60.4312400817871,-57.2011489868164,752484433
sw,-88.9878005981445,26.1130237579345,-59.5814704895019,-52.1180343627929,752501100
sw,-88.5523376464843,27.375280380249,-58.838809967041,-47.3505401611328,752517767
sw,-87.9234008789062,28.9741306304931,-58.0999183654785,-50.1624031066894,752534434
sw,-87.2840881347656,26.9908752441406,-57.3691291809082,-51.8906707763671,752551101
sw,-86.6845397949218,23.5392761230468,-57.0573005676269,-26.222448348999,752567768
sw,-86.0965576171875,22.1834373474121,-57.1252250671386,-1.96704518795013,752584435
sw,-85.5166854858398,21.5643653869628,-57.4124069213867,14.0350322723388,752601102
sw,-84.948127746582,18.7129077911376,-57.8924446105957,29.2299861907959,752617769
sw,-84.3768463134765,16.6520633697509,-59.5096817016601,98.0022354125976,752634436
sw,-83.7835922241211,17.1711063385009,-61.5549240112304,120.394134521484,752651103
sw,-83.1375656127929,22.727346420288,-63.124828338623,89.9276351928711,752667770
sw,-82.4645156860351,26.1960296630859,-64.3819046020507,71.3978500366211,752684437
sw,-81.815689086914,25.6460857391357,-65.2804794311523,50.4890403747558,752701104
sw,-81.2269897460937,23.0573177337646,-66.1074905395507,43.0419387817382,752717771
sw,-80.6778564453125,21.7048225402832,-66.5098724365234,15.916015625,752734438
sw,-80.1450958251953,21.1803188323974,-66.4614944458007,-11.87047290802,752751105
sw,-79.6653366088867,18.8657627105712,-66.3327102661132,-14.8871164321899,752767772
sw,-79.2458572387695,17.4744815826416,-66.4843368530273,2.98355770111084,752784439
sw,-78.8798217773437,16.0282154083251,-67.0645065307617,28.136999130249,752801106
sw,-78.5570068359375,13.3376579284667,-68.4511337280273,77.6498107910156,752817773
sw,-78.2666244506836,11.273190498352,-70.2892990112304,108.267868041992,752834440
sw,-78.0495529174804,6.93438577651977,-71.4180297851562,70.0492858886718,752851107
sw,-77.9457321166992,0.580163240432739,-71.6636505126953,20.8574790954589,752867774
sw,-77.9907836914062,-7.08464097976684,-71.6857070922851,6.43268632888793,752884441
sw,-78.2468795776367,-17.3897819519042,-72.2305526733398,30.6582603454589,752901108
sw,-78.80029296875,-31.5721530914306,-73.0846633911132,47.5237007141113,752917775
sw,-79.7521133422851,-49.7336349487304,-74.0158615112304,46.3592453002929,752934442
sw,-81.2183074951171,-73.3282623291015,-74.9574279785156,42.3297538757324,752951109
sw,-83.0459594726562,-86.2179870605468,-76.0687637329101,58.7074317932128,752967776
sw,-85.1651153564453,-94.9827270507812,-77.2622680664062,68.1326065063476,752984443
sw,-87.4432754516601,-103.167854309082,-78.3280944824218,62.3471565246582,753001110
sw,-88.3970947265625,-106.398529052734,-79.1389541625976,49.3469734191894,753017777
sw,-86.4308166503906,-110.571144104003,-79.9489135742187,49.948917388916,753034444
sw,-83.9603805541992,-120.381774902343,-80.7765731811523,48.5144882202148,753051111
sw,-81.6806259155273,-118.007843017578,-81.6379165649414,47.0247650146484,753067778
sw,-79.3567886352539,-135.423629760742,-82.6819305419921,55.4911956787109,753084445
sw,-76.8337631225586,-153.063278198242,-83.8525466918945,63.7954483032226,753101112
sw,-74.2996597290039,-149.037445068359,-85.0341796875,66.5733871459961,753117779
sw,-72.0001220703125,-127.083320617675,-86.1702423095703,65.9011764526367,753134446
sw,-69.9681243896484,-106.871574401855,-87.2034759521484,60.1825790405273,753151113
sw,-68.2213363647461,-84.9118423461914,-88.3267288208007,65.6825714111328,753167780
sw,-66.751106262207,-63.9949035644531,-89.2244338989257,52.7560119628906,753184447
sw,-65.5387191772461,-46.5651702880859,-89.5403060913086,44.6325531005859,753201114
sw,-64.5305633544921,-36.357192993164,-88.9424133300781,40.0410995483398,753217781
sw,-63.6592636108398,-32.7421607971191,-88.2934951782226,36.5415725708007,753234448
sw,-62.8297424316406,-40.633445739746,-87.6493988037109,37.0142097473144,753251115
sw,-62.13765335083,-41.683006286621,-86.8973922729492,45.4426765441894,753267782
sw,-61.4887313842773,-46.7939224243164,-86.1350708007812,44.3177108764648,753284449
sw,-60.94140625,-47.06782913208,-85.3844604492187,41.3402290344238,753301116
sw,-60.661334991455,-37.9228210449218,-84.6413421630859,40.0296401977539,753317783
sw,-60.5610084533691,-32.5261650085449,-83.8592758178711,43.5603790283203,753334450
sw,-60.7843894958496,-12.1383399963378,-83.0984878540039,43.7079162597656,753351117
sw,-61.2248725891113,3.45003128051757,-82.3578720092773,43.2637672424316,753367784
sw,-61.9581565856933,23.3866996765136,-81.6084365844726,44.2513809204101,753384451
sw,-63.2166328430175,68.6005249023437,-80.9010925292968,41.8500671386718,753401118
sw,-64.6229934692382,77.5171127319336,-80.3024215698242,34.4697227478027,753417785
sw,-65.6463241577148,49.9333381652832,-79.7872009277343,28.5830535888671,753434452
sw,-66.487075805664,33.4982261657714,-79.4001007080078,20.5993213653564,753451119
sw,-67.2584838867187,20.7042732238769,-79.2620620727539,5.13624477386474,753467786
sw,-67.7272644042968,1.1759717464447,-79.2559967041015,-3.80760335922241,753484453
sw,-67.7942352294921,-18.3827857971191,-79.2547378540039,-4.64706802368164,753501120
sw,-68.3105392456054,5.20861959457397,-79.4014434814453,-13.0896167755126,753517787
sw,-69.6932678222656,43.7785339355468,-79.88818359375,-32.265396118164,753534454
sw,-71.5568008422851,94.3078994750976,-80.8401947021484,-59.5918045043945,753551121
sw,-72.7210693359375,74.4400100708007,-82.3096694946289,-90.2688674926757,753567788
sw,-73.1041717529296,33.4743537902832,-84.3165588378906,-123.069763183593,753584455
sw,-73.5191116333007,31.1818523406982,-86.8743820190429,-162.425399780273,753601122
sw,-74.2440490722656,34.0683937072753,-88.5351333618164,-209.9853515625,753617789
sw,-75.3882446289062,33.564655303955,-85.3629150390625,-227.350036621093,753634456
sw,-76.7454605102539,34.9577674865722,-81.1608734130859,-245.885421752929,753651123
sw,-78.1609420776367,49.4935073852539,-77.3727264404296,-212.410552978515,753667790
sw,-79.637451171875,50.0391807556152,-74.8747482299804,-146.58299255371,753684457
sw,-80.9934616088867,56.4181594848632,-72.8399963378906,-127.855651855468,753701124
sw,-82.0779647827148,59.861717224121,-70.4656295776367,-148.279525756835,753717791
sw,-83.1609191894531,70.1001892089843,-67.7052536010742,-170.188873291015,753734458
sw,-84.1961975097656,60.8936309814453,-65.2811203002929,-148.911804199218,753751125
sw,-85.1465911865234,34.3157844543457,-63.3143920898437,-120.516479492187,753767792
sw,-85.9686203002929,9.22920894622802,-61.5556335449218,-107.732994079589,753784459
sw,-86.6620025634765,-3.32059669494628,-60.0379371643066,-92.8304748535156,753801126
sw,-87.3762512207031,15.5794076919555,-58.9333572387695,-67.3999481201171,753817793
sw,-88.0985488891601,31.2055053710937,-58.0595397949218,-53.0193176269531,753834460
sw,-88.7744369506836,36.0357055664062,-57.5199470520019,-32.3814277648925,753851127
sw,-89.1395263671875,41.3072242736816,-57.3572998046875,-9.85669422149658,753867794
sw,-88.8193206787109,38.1655044555664,-57.0028762817382,-22.6717681884765,753884461
sw,-88.2858276367187,30.2060546875,-56.6422576904296,-23.6429748535156,753901128
sw,-87.7580795288086,24.8291492462158,-56.3870544433593,-19.8596973419189,753917795
sw,-87.2399063110351,22.1934127807617,-56.1494445800781,-21.580955505371,753934462
sw,-86.6811752319336,23.2571563720703,-56.5861091613769,21.4674320220947,753951129
sw,-86.0628890991211,24.6638927459716,-58.1819229125976,99.568862915039,753967796
sw,-85.4302749633789,22.2746410369873,-60.3602142333984,134.26838684082,753984463
sw,-84.803596496582,19.5334815979003,-62.2650756835937,112.606636047363,754001130
sw,-84.1401748657226,22.5081348419189,-64.1145782470703,104.36124420166,754017797
sw,-83.4750213623046,25.7918453216552,-65.6857833862304,86.3644561767578,754034464
sw,-82.8243331909179,26.1337451934814,-66.7521667480468,56.9197082519531,754051131
sw,-82.2401809692382,21.8121719360351,-67.1339416503906,17.1127300262451,754067798
sw,-81.7470550537109,17.0340766906738,-67.1509246826171,-3.78155517578125,754084465
sw,-81.2933349609375,16.116111755371,-67.085952758789,-8.19980144500732,754101132
sw,-80.8908386230468,14.7322349548339,-67.1581954956054,-0.250173538923263,754117799
sw,-80.5496749877929,12.7331237792968,-67.6258926391601,21.9351406097412,754134466
sw,-80.2315139770507,11.5532388687133,-68.7885208129882,63.9189949035644,754151133
sw,-79.9234848022461,9.80720901489257,-70.128921508789,76.7367401123046,754167800
sw,-79.7093887329101,2.9950852394104,-70.7882080078125,40.2983436584472,754184467
sw,-79.5987548828125,-3.41514658927917,-71.2175521850586,27.4835205078125,754201134
sw,-79.6262817382812,-10.6240472793579,-71.7177124023437,27.8877563476562,754217801
sw,-79.8614501953125,-17.0776481628417,-72.4981231689453,41.930809020996,754234468
sw,-80.3618545532226,-22.6959991455078,-73.3502578735351,43.3715171813964,754251135
sw,-81.2023468017578,-34.9133949279785,-74.2314682006836,39.0706100463867,754267802
sw,-82.5265426635742,-57.4958915710449,-75.0476913452148,36.4473114013671,754284469
sw,-84.2991409301757,-76.2519302368164,-75.9822311401367,48.4689788818359,754301136
sw,-86.3463363647461,-90.1916427612304,-77.1206741333007,63.8262214660644,754317803
sw,-88.1771545410156,-102.613975524902,-78.1936798095703,62.5522880554199,754334470
sw,-87.2592620849609,-100.14867401123,-79.2133483886718,61.943431854248,754351137
sw,-84.7937240600586,-99.4044036865234,-80.2438125610351,63.3245887756347,754367804
sw,-82.1576843261718,-110.93659210205,-81.3370056152343,65.120620727539,754384471
sw,-79.7728195190429,-115.164001464843,-82.5169677734375,65.7673416137695,754401138
sw,-77.7226486206054,-119.598693847656,-83.7666549682617,67.8496780395507,754417805
sw,-75.5997161865234,-134.256561279296,-84.9370193481445,64.2773818969726,754434472
sw,-73.3700637817382,-138.49575805664,-85.9684753417968,58.6822624206543,754451139
sw,-71.182632446289,-131.639709472656,-86.9265518188476,55.6210784912109,754467806
sw,-69.2707824707031,-110.401527404785,-87.904914855957,56.89741897583,754484473
sw,-67.7171554565429,-86.4195480346679,-88.7973175048828,51.8773307800293,754501140
sw,-66.4515075683593,-65.3278732299804,-89.3980178833007,42.4444618225097,754517807
sw,-65.5130996704101,-44.4629325866699,-89.2878341674804,36.8706626892089,754534474
sw,-64.7775955200195,-34.2022972106933,-88.7997589111328,31.3194122314453,754551141
sw,-64.1402282714843,-32.5755538940429,-88.2472152709961,34.5454368591308,754567808
sw,-63.5337791442871,-37.8000259399414,-87.6782150268554,35.1448364257812,754584475
sw,-63.0180854797363,-38.6972999572753,-87.0505828857421,37.6707725524902,754601142
sw,-62.513313293457,-46.4995956420898,-86.3615417480468,40.4900588989257,754617809
sw,-62.0469093322753,-51.432746887207,-85.6343994140625,41.8101005554199,754634476
sw,-61.7591590881347,-44.4428024291992,-84.8837738037109,43.0449447631835,754651143
sw,-61.7395439147949,-28.9203624725341,-84.1536331176757,41.9480895996093,754667810
sw,-62.3362121582031,20.5558395385742,-83.4577713012695,40.6211242675781,754684477
sw,-63.0849113464355,29.3136482238769,-82.7736587524414,40.3571128845214,754701144
sw,-63.6409835815429,1.63967978954315,-82.1135559082031,38.0952415466308,754717811
sw,-64.5256729125976,25.5726337432861,-81.43115234375,38.7413597106933,754734478
sw,-65.7015151977539,53.6199836730957,-80.812759399414,35.2512512207031,754751145
sw,-66.7799530029296,47.1382217407226,-80.2914352416992,29.5104541778564,754767812
sw,-67.6471862792968,35.1309547424316,-79.8780517578125,22.9382228851318,754784479
sw,-68.1932678222656,1.50026285648345,-79.6417083740234,12.5478458404541,754801146
sw,-68.5531311035156,-10.5534925460815,-79.524169921875,5.30607604980468,754817813
sw,-68.4794616699218,-25.3756370544433,-79.3314971923828,9.32392501831054,754834480
sw,-68.4935455322265,-14.1244783401489,-79.1062850952148,10.977159500122,754851147
sw,-69.0947723388671,7.19991779327392,-79.0939102172851,-1.56041359901428,754867814
sw,-70.4748458862304,40.2322463989257,-79.4809417724609,-25.0472965240478,754884481
sw,-72.2244720458984,83.4905395507812,-80.3551254272461,-53.9095191955566,754901148
sw,-73.4831466674804,73.9200973510742,-81.7810745239257,-86.5712738037109,754917815
sw,-74.1101989746093,37.6042404174804,-83.7148132324218,-116.703659057617,754934482
sw,-74.6839904785156,34.4449234008789,-86.1121444702148,-144.692825317382,754951149
sw,-75.5297241210937,34.7010650634765,-89.0142440795898,-175.006942749023,754967816
sw,-76.6417999267578,27.9923191070556,-87.3870086669921,-210.108596801757,754984483
sw,-77.8976974487304,30.0643577575683,-83.6304931640625,-218.107192993164,755001150
sw,-79.3021545410156,48.5662689208984,-80.0820007324218,-203.627716064453,755017817
sw,-80.6944580078125,50.9255447387695,-77.4968948364257,-154.191116333007,755034484
sw,-81.9957275390625,55.9309883117675,-75.1603927612304,-147.344604492187,755051151
sw,-83.2172775268554,65.2433319091796,-72.7129745483398,-155.816467285156,755067818
sw,-84.4424362182617,70.4366912841796,-70.3456573486328,-149.352813720703,755084485
sw,-85.6286544799804,59.8567314147949,-68.2158584594726,-132.343002319335,755101152
sw,-86.6921615600586,39.3770294189453,-66.2631683349609,-120.103881835937,755117819
sw,-87.5725555419921,23.6010150909423,-64.4313278198242,-112.354850769042,755134486
sw,-88.368049621582,23.9486370086669,-62.8298454284668,-98.6388854980468,755151153
sw,-89.1726760864257,32.0746307373046,-61.4452209472656,-86.0160827636718,755167820
sw,-90.0,31.7976284027099,-60.3085556030273,-71.5153732299804,755184487
sw,-89.4618682861328,22.3641834259033,-59.3288955688476,-62.8343391418457,755201154
sw,-88.8059768676757,20.6557960510253,-58.4412498474121,-58.5892524719238,755217821
sw,-88.1209106445312,26.0017013549804,-57.697769165039,-51.4044799804687,755234488
sw,-87.3981170654296,32.0602226257324,-56.7727737426757,-64.2207641601562,755251155
sw,-86.6971359252929,32.1378440856933,-56.0720138549804,-51.0717811584472,755267822
sw,-86.012336730957,32.4526557922363,-55.8138961791992,-23.6375179290771,755284489
sw,-85.3518524169921,31.8031158447265,-56.0882720947265,11.8024940490722,755301156
sw,-84.6855163574218,30.9641704559326,-56.5429306030273,26.2689723968505,755317823
sw,-84.0855407714843,23.5398998260498,-57.2821540832519,44.5188064575195,755334490
sw,-83.5277709960937,18.3797378540039,-58.9303131103515,99.8818588256836,755351157
sw,-82.9442062377929,18.9568481445312,-60.6741065979003,104.607841491699,755367824
sw,-82.3304367065429,21.0712852478027,-62.4124679565429,104.313194274902,755384491
sw,-81.6792373657226,24.4517936706542,-63.5378341674804,64.8000411987304,755401158
sw,-80.9881439208984,30.5692977905273,-64.6566696166992,59.7126007080078,755417825
sw,-80.2944107055664,33.6508026123046,-65.8605880737304,64.0963058471679,755434492
sw,-79.6471557617187,31.3363857269287,-66.5105743408203,30.2380027770996,755451159
sw,-79.1251831054687,22.5275783538818,-66.5761489868164,-2.8481707572937,755467826
sw,-78.7110290527343,16.4308967590332,-66.7167816162109,3.84492492675781,755484493
sw,-78.3512878417968,14.2474479675292,-67.1706085205078,23.2096309661865,755501160
sw,-78.0432891845703,10.8899374008178,-68.5269317626953,78.2831344604492,755517827
sw,-77.8006362915039,6.12826824188232,-70.0992279052734,93.8860931396484,755534494
sw,-77.6163864135742,3.72302174568176,-70.8350219726562,47.9494934082031,755551161
sw,-77.5368041992187,-1.74484300613403,-70.85400390625,8.8332290649414,755567828
sw,-77.5950775146484,-9.39447879791259,-70.9079360961914,6.11264133453369,755584495
sw,-77.8991928100586,-22.5138759613037,-71.53857421875,31.7294197082519,755601162
sw,-78.5447006225586,-37.2900276184082,-72.4761352539062,46.7350387573242,755617829
sw,-79.6505279541015,-57.0754776000976,-73.4389343261718,44.8963432312011,755634496
sw,-81.2968292236328,-79.2591247558593,-74.4026718139648,46.5425834655761,755651163
sw,-83.3049621582031,-88.0584411621093,-75.3951568603515,53.8365135192871,755667830
sw,-85.5155029296875,-90.3278732299804,-76.5483627319336,65.8991394042968,755684497
sw,-87.7475357055664,-95.1339263916015,-77.6640090942382,65.4171905517578,755701164
sw,-88.0455551147461,-102.084197998046,-78.7380599975586,64.3585891723632,755717831
sw,-85.8220977783203,-103.721939086914,-79.7374114990234,60.2410736083984,755734498
sw,-83.3480758666992,-116.172149658203,-80.7073287963867,57.2098083496093,755751165
sw,-81.136116027832,-118.181587219238,-81.7133865356445,56.463134765625,755767832
sw,-78.9722213745117,-133.197265625,-82.8177719116211,61.3862991333007,755784499
sw,-76.5746078491211,-151.781463623046,-84.045669555664,69.3141403198242,755801166
sw,-74.1153488159179,-147.671966552734,-85.2301788330078,68.15380859375,755817833
sw,-71.7646484375,-132.590103149414,-86.289810180664,61.9684143066406,755834500
sw,-69.7416152954101,-109.095405578613,-87.2482833862304,56.3430709838867,755851167
sw,-68.0286636352539,-87.5120239257812,-88.1266479492187,51.0566101074218,755867834
sw,-66.685791015625,-62.5830993652343,-88.9249877929687,44.939468383789,755884501
sw,-65.5804214477539,-47.0171775817871,-89.5352249145507,41.9062576293945,755901168
sw,-64.6408538818359,-40.82320022583,-89.2664489746093,36.9393348693847,755917835
sw,-63.7971153259277,-41.9068069458007,-88.676773071289,36.2550048828125,755934502
sw,-63.0182151794433,-45.3063926696777,-88.0601348876953,35.8875083923339,755951169
sw,-62.3511123657226,-45.3710021972656,-87.3434753417968,42.8649749755859,755967836
sw,-61.7140998840332,-54.400520324707,-86.5696105957031,45.5328674316406,755984503
sw,-61.2183456420898,-52.3586616516113,-85.8148422241211,42.647289276123,756001170
sw,-60.9032745361328,-45.7647285461425,-85.0731201171875,41.4179954528808,756017837
sw,-60.9222908020019,-23.2708187103271,-84.2197570800781,49.1768760681152,756034504
sw,-61.5020484924316,21.4785842895507,-83.422607421875,45.3081092834472,756051171
sw,-62.2024841308593,26.4657669067382,-82.6383285522461,45.0918884277343,756067838
sw,-63.0146713256835,31.2494468688964,-81.9349822998046,40.2740058898925,756084505
sw,-64.2064895629882,56.8708915710449,-81.3101348876953,35.6011009216308,756101172
sw,-65.3768234252929,60.1627388000488,-80.7276916503906,32.8482284545898,756117839
sw,-66.2218170166015,41.7958297729492,-80.2465362548828,26.9385833740234,756134506
sw,-66.9423294067382,18.8409690856933,-79.9137878417968,18.4558773040771,756151173
sw,-67.9114532470703,26.0838890075683,-79.7183227539062,9.67230987548828,756167840
sw,-68.0211105346679,-19.3615627288818,-79.5193481445312,9.24665164947509,756184507
sw,-67.7251205444336,-31.1722221374511,-79.3156127929687,9.32546615600586,756201174
sw,-67.8578872680664,-7.34467601776123,-79.2615356445312,0.8112513422966,756217841
sw,-68.9363250732421,31.9697494506835,-79.4914398193359,-15.711552619934,756234508
sw,-70.790901184082,80.5014038085937,-80.0570297241211,-35.822395324707,756251175
sw,-72.4500274658203,99.0716781616211,-81.0828399658203,-62.803855895996,756267842
sw,-73.1579208374023,48.4250717163085,-82.6567459106445,-94.4881820678711,756284509
sw,-73.5848312377929,31.2986793518066,-84.7121353149414,-123.201042175292,756301176
sw,-74.2561492919921,31.6279869079589,-87.3499679565429,-157.983673095703,756317843
sw,-75.2439498901367,28.6116180419921,-89.2771987915039,-196.740036010742,756334510
sw,-76.4515686035156,21.2037773132324,-85.6080932617187,-216.32046508789,756351177
sw,-77.7504653930664,37.8399009704589,-81.6784057617187,-224.862884521484,756367844
sw,-79.1140518188476,45.1838989257812,-78.3746490478515,-188.661148071289,756384511
sw,-80.4018783569336,45.7820968627929,-76.1442794799804,-135.549026489257,756401178
sw,-81.6296310424804,57.1098747253418,-74.1974945068359,-125.00405883789,756417845
sw,-82.7570877075195,63.1013946533203,-71.9578094482421,-142.140899658203,756434512
sw,-83.8606491088867,63.55464553833,-69.5460586547851,-150.713104248046,756451179
sw,-84.8928604125976,46.0551071166992,-67.3383407592773,-136.620895385742,756467846
sw,-85.8607177734375,30.0005683898925,-65.1878051757812,-132.297378540039,756484513
sw,-86.7382354736328,20.8343696594238,-63.2861442565918,-117.510185241699,756501180
sw,-87.561050415039,24.4942989349365,-61.8317489624023,-90.2726287841796,756517847
sw,-88.2867431640625,32.9550704956054,-60.7715530395507,-65.7618637084961,756534514
sw,-88.8471603393554,32.6128883361816,-59.9705009460449,-49.3051567077636,756551181
sw,-89.117073059082,29.229787826538,-59.4732780456543,-30.6734981536865,756567848
sw,-88.8288116455078,30.8619499206542,-59.0872688293457,-24.9784088134765,756584515
sw,-88.2589797973632,30.4231662750244,-58.2530097961425,-53.7201461791992,756601182
sw,-87.6479873657226,28.0564384460449,-57.2505378723144,-64.4936370849609,756617849
sw,-87.0279693603515,27.3821201324462,-56.491844177246,-50.7320404052734,756634516
sw,-86.3802642822265,29.2066307067871,-55.897403717041,-40.8095817565918,756651183
sw,-85.7204360961914,30.2139644622802,-55.5735664367675,-21.8520374298095,756667850
sw,-85.1009521484375,25.8679904937744,-55.7981185913085,14.4832878112792,756684517
sw,-84.5254669189453,20.3139858245849,-56.4991226196289,45.769359588623,756701184
sw,-83.9450225830078,18.7474784851074,-57.8175468444824,81.2126388549804,756717851
sw,-83.3267669677734,21.4601650238037,-59.8628120422363,123.146141052246,756734518
sw,-82.6765441894531,24.2342834472656,-61.6898803710937,107.766189575195,756751185
sw,-82.0103530883789,26.3278617858886,-63.1452713012695,80.7675247192382,756767852
sw,-81.3948593139648,25.3034324645996,-64.7016067504882,86.282356262207,756784519
sw,-80.8600387573242,22.2070865631103,-66.0275955200195,73.7913665771484,756801186
sw,-80.3643646240234,20.0221614837646,-66.8617095947265,45.1604881286621,756817853
sw,-79.9161682128906,16.6011314392089,-67.3810806274414,26.1358985900878,756834520
sw,-79.5063400268554,15.7656354904174,-67.7357711791992,15.7476539611816,756851187
sw,-79.1315383911132,14.3830585479736,-68.3373336791992,30.9857349395751,756867854
sw,-78.8118515014648,11.1501998901367,-69.5109786987304,67.5932159423828,756884521
sw,-78.5390243530273,8.76586437225341,-70.79296875,77.6408004760742,756901188
sw,-78.3729858398437,3.58078289031982,-71.264907836914,31.2769794464111,756917855
sw,-78.3497467041015,-5.17089462280273,-71.3355484008789,7.12805891036987,756934522
sw,-78.3810882568359,-9.47448348999023,-71.6086883544921,13.0776147842407,756951189
sw,-78.6006698608398,-19.2469596862792,-72.2932357788086,35.2618408203125,756967856
sw,-79.1290512084961,-33.2296600341796,-73.3187103271484,55.4612503051757,756984523
sw,-80.026123046875,-50.2056236267089,-74.4373931884765,59.1663360595703,757001190
sw,-81.3666915893554,-69.7332916259765,-75.5025100708007,57.2168464660644,757017857
sw,-83.1185531616211,-86.8375244140625,-76.6197052001953,61.7783432006835,757034524
sw,-85.2120590209961,-97.117431640625,-77.8068923950195,66.4398193359375,757051191
sw,-87.7819442749023,-112.744064331054,-78.8714294433593,61.910789489746,757067858
sw,-89.4636840820312,-107.673614501953,-79.7518005371093,54.2862930297851,757084525
sw,-86.631118774414,-99.744644165039,-80.5739822387695,51.7119674682617,757101192
sw,-83.9794998168945,-92.3937911987304,-81.4487762451171,52.1463584899902,757117859
sw,-81.5968551635742,-97.6141510009765,-82.418098449707,53.1005363464355,757134526
sw,-79.3518142700195,-110.544273376464,-83.548095703125,61.5556526184082,757151193
sw,-77.1251907348632,-122.257575988769,-84.7699203491211,69.5055465698242,757167860
sw,-74.8495254516601,-126.749282836914,-85.9505386352539,68.9904479980468,757184527
sw,-72.5517883300781,-126.956184387207,-87.0481262207031,67.3844604492187,757201194
sw,-70.3811950683593,-117.472496032714,-88.0202865600586,64.8378372192382,757217861
sw,-68.4478378295898,-99.7241058349609,-88.7725143432617,61.1627388000488,757234528
sw,-66.9156951904296,-71.798355102539,-89.0073165893554,48.3971786499023,757251195
sw,-65.716552734375,-49.5233116149902,-88.6977920532226,41.2014808654785,757267862
sw,-64.7823486328125,-34.1870079040527,-88.1648559570312,37.6932716369628,757284529
sw,-63.9867630004882,-32.8757057189941,-87.5853271484375,34.7799644470214,757301196
sw,-63.2487678527832,-36.2982444763183,-86.928970336914,37.6627235412597,757317863
sw,-62.6159324645996,-39.0950660705566,-86.1744384765625,42.8993530273437,757334530
sw,-62.1262550354003,-36.4945259094238,-85.468276977539,39.5597686767578,757351197
sw,-61.7435035705566,-36.9203262329101,-84.8180541992187,35.8883628845214,757367864
sw,-61.5298194885253,-34.0225028991699,-84.0953216552734,40.7098541259765,757384531
sw,-61.591941833496,-17.6421127319335,-83.3152542114257,44.7938232421875,757401198
sw,-62.1285285949707,15.7104988098144,-82.5642547607421,43.2931327819824,757417865
sw,-62.7915687561035,16.737958908081,-81.8077011108398,43.6878509521484,757434532
sw,-63.3572845458984,5.51935958862304,-81.0988998413086,40.7356529235839,757451199
sw,-64.5039978027343,55.8918228149414,-80.4772186279296,35.2933235168457,757467866
sw,-65.8142776489257,63.6281776428222,-79.8836669921875,33.4580039978027,757484533
sw,-66.8714141845703,52.1610260009765,-79.3802947998046,28.287275314331,757501200
sw,-67.6490249633789,23.6666240692138,-79.0726470947265,16.8149604797363,757517867
sw,-68.2669143676757,8.99067687988281,-78.8743591308593,10.13485622406,757534534
sw,-68.4483566284179,-9.49988555908203,-78.7384643554687,6.31694364547729,757551201
sw,-68.3636093139648,-12.4267835617065,-78.6356811523437,4.35782575607299,757567868
sw,-68.5756225585937,7.04160690307617,-78.6501998901367,-2.58067345619201,757584535
sw,-69.6707305908203,42.0408821105957,-78.9164581298828,-17.6517486572265,757601202
sw,-71.3964538574218,84.9071350097656,-79.6138839721679,-43.4820976257324,757617869
sw,-72.7113952636718,84.7674713134765,-80.8880538940429,-77.9130859375,757634536
sw,-73.1469650268554,37.3616752624511,-82.6568756103515,-107.493179321289,757651203
sw,-73.5027770996093,23.6760082244873,-84.9169692993164,-137.45881652832,757667870
sw,-74.2792358398437,28.683609008789,-87.6957397460937,-173.428024291992,757684537
sw,-75.5167617797851,26.7594051361084,-88.2430877685546,-211.155639648437,757701204
sw,-76.9045867919921,25.2004604339599,-84.5058135986328,-231.256103515625,757717871
sw,-78.3375244140625,45.9117279052734,-80.7006072998046,-219.061096191406,757734538
sw,-79.803108215332,54.0537033081054,-77.8748703002929,-163.817657470703,757751205
sw,-81.1302337646484,51.7395973205566,-75.673599243164,-137.63101196289,757767872
sw,-82.3174743652343,59.5036926269531,-73.6083526611328,-133.185638427734,757784539
sw,-83.3716735839843,62.9608421325683,-71.2850494384765,-146.827026367187,757801206
sw,-84.387451171875,61.2729721069335,-68.9229507446289,-146.580627441406,757817873
sw,-85.3683242797851,46.7364883422851,-66.6778106689453,-137.552932739257,757834540
sw,-86.2869110107421,26.1839027404785,-64.402229309082,-138.822494506835,757851207
sw,-87.1005859375,9.45870208740234,-62.3898582458496,-123.358726501464,757867874
sw,-87.8093872070312,12.8033924102783,-60.8425865173339,-95.8320159912109,757884541
sw,-88.3716583251953,28.6536655426025,-59.6703224182128,-73.0164260864257,757901208
sw,-88.6613311767578,31.925666809082,-58.7326126098632,-58.0708427429199,757917875
sw,-88.5608749389648,31.2738590240478,-58.0878372192382,-39.6080131530761,757934542
sw,-88.1458587646484,29.1279640197753,-57.6412773132324,-28.3335399627685,757951209
sw,-87.655403137207,23.7926578521728,-56.9977722167968,-42.2290802001953,757967876
sw,-87.151741027832,20.6653156280517,-56.4478492736816,-38.0508499145507,757984543
sw,-86.6267547607421,20.6382389068603,-56.2468605041503,-17.4758586883544,758001210
sw,-86.048599243164,23.5031414031982,-56.1430969238281,-11.8324279785156,758017877
sw,-85.4294967651367,25.4819545745849,-56.3638877868652,10.4350576400756,758034544
sw,-84.8152999877929,22.7955417633056,-57.3730506896972,61.7691459655761,758051211
sw,-84.204345703125,20.7455692291259,-59.5185165405273,128.806762695312,758067878
sw,-83.5874862670898,20.2965660095214,-61.5678939819335,118.734329223632,758084545
sw,-82.9288177490234,23.8650016784667,-63.2445526123046,94.393310546875,758101212
sw,-82.2490921020507,26.8928337097167,-64.6238555908203,75.7037353515625,758117879
sw,-81.6390762329101,24.9898872375488,-65.9574813842773,73.6778869628906,758134546
sw,-81.1146011352539,20.9069004058837,-66.6977767944336,38.8433837890625,758151213
sw,-80.6324615478515,18.0514068603515,-67.0134201049804,13.3375082015991,758167880
sw,-80.1613693237304,18.5655498504638,-67.095458984375,-0.0441183112561702,758184547
sw,-79.7208251953125,19.2918624877929,-67.2143249511718,2.87759637832641,758201214
sw,-79.3249893188476,17.9691638946533,-67.5951538085937,18.0060367584228,758217881
sw,-78.9728469848632,15.9835920333862,-68.7546691894531,64.8162078857421,758234548
sw,-78.6317596435546,15.839108467102,-70.3480377197265,93.5936126708984,758251215
sw,-78.3531951904296,11.7697706222534,-71.3197402954101,59.4295387268066,758267882
sw,-78.2226104736328,1.43878173828125,-71.5468215942382,18.2970256805419,758284549
sw,-78.2117767333984,-5.50213813781738,-71.6962814331054,10.0162544250488,758301216
sw,-78.4011688232421,-14.2950248718261,-72.3814697265625,36.934772491455,758317883
sw,-78.8542938232421,-24.1433410644531,-73.354995727539,50.6523513793945,758334550
sw,-79.6789779663086,-40.5711441040039,-74.3418960571289,47.2230682373046,758351217
sw,-80.9815368652343,-63.677001953125,-75.1819839477539,38.2652626037597,758367884
sw,-82.7119140625,-81.9091110229492,-76.0827026367187,47.3891716003418,758384551
sw,-84.7024307250976,-93.2132186889648,-77.1745147705078,61.5282363891601,758401218
sw,-86.7899627685546,-104.216369628906,-78.2289886474609,60.9880714416503,758417885
sw,-87.7690124511718,-108.316574096679,-79.1788711547851,56.4978790283203,758434552
sw,-86.1916275024414,-108.012130737304,-80.101692199707,55.6230773925781,758451219
sw,-83.7894668579101,-118.819297790527,-81.0199661254882,54.7215499877929,758467886
sw,-81.4666213989257,-119.419273376464,-82.0601196289062,58.3397064208984,758484553
sw,-79.3335266113281,-121.400505065917,-83.2736663818359,65.8993148803711,758501220
sw,-77.1649627685546,-130.587219238281,-84.6209411621093,75.1465606689453,758517887
sw,-74.9179000854492,-135.57925415039,-85.9548416137695,76.59814453125,758534554
sw,-72.7332153320312,-125.647216796875,-87.1377487182617,69.7008361816406,758551221
sw,-70.7836837768554,-108.747161865234,-88.2601013183593,68.7817459106445,758567888
sw,-69.0329055786132,-94.0426559448242,-89.2402420043945,65.084487915039,758584555
sw,-67.514289855957,-74.0831604003906,-89.4195327758789,52.733901977539,758601222
sw,-66.2238998413086,-60.3719482421875,-88.8727416992187,38.9173545837402,758617889
sw,-65.1798934936523,-47.9512252807617,-88.2091064453125,37.7796363830566,758634556
sw,-64.2757263183593,-43.5371742248535,-87.5607299804687,35.9241371154785,758651223
sw,-63.3603324890136,-51.2679214477539,-86.8742599487304,38.1587257385253,758667890
sw,-62.6519050598144,-44.2589149475097,-86.1219711303711,42.2616500854492,758684557
sw,-62.0439643859863,-46.8044357299804,-85.3597412109375,42.6295661926269,758701224
sw,-61.499038696289,-51.3930130004882,-84.5757064819336,43.8212738037109,758717891
sw,-61.1420783996582,-46.3257369995117,-83.7341232299804,47.3061828613281,758734558
sw,-61.0465583801269,-35.1377906799316,-82.8855361938476,48.190746307373,758751225
sw,-61.3554801940918,-5.34955835342407,-82.1294021606445,43.0098686218261,758767892
sw,-61.6630859375,-11.166332244873,-81.432388305664,39.3649253845214,758784559
sw,-62.2783699035644,10.4827947616577,-80.8072357177734,34.6632614135742,758801226
sw,-63.3886985778808,48.3888397216796,-80.3002090454101,27.3677959442138,758817893
sw,-64.7193069458007,72.1119155883789,-79.8615112304687,23.2650604248046,758834560
sw,-65.6804122924804,41.4150619506835,-79.356819152832,27.8908996582031,758851227
sw,-66.5068588256836,25.3080978393554,-78.9478225708007,22.858600616455,758867894
sw,-67.4768524169921,26.1366310119628,-78.6661071777343,15.0597190856933,758884561
sw,-68.006103515625,1.29087162017822,-78.5218200683593,6.45834255218505,758901228
sw,-68.0400772094726,-18.3987693786621,-78.4567565917968,1.42069816589355,758917895
sw,-68.2979049682617,1.6076990365982,-78.5089721679687,-5.44817113876342,758934562
sw,-69.3674392700195,39.218147277832,-78.7990493774414,-19.5425281524658,758951229
sw,-71.0202865600586,81.9115142822265,-79.4991378784179,-44.1635780334472,758967896
sw,-72.2140884399414,73.3678359985351,-80.8020248413086,-79.9668960571289,758984563
sw,-72.6753234863281,32.9478187561035,-82.630256652832,-110.591918945312,759001230
sw,-73.1641998291015,30.8702011108398,-84.9409637451171,-138.539779663085,759017897
sw,-74.0617294311523,27.330467224121,-88.0411529541015,-185.589950561523,759034564
sw,-75.3541717529296,27.468729019165,-88.1895446777343,-222.981185913085,759051231
sw,-76.824348449707,43.1631088256835,-84.2110443115234,-232.969970703125,759067898
sw,-78.1079635620117,46.2099914550781,-80.5515899658203,-210.096313476562,759084565
sw,-79.3572616577148,45.4171562194824,-78.1747360229492,-140.221206665039,759101232
sw,-80.5894241333007,53.8192405700683,-76.0363998413086,-134.334075927734,759117899
sw,-81.8131942749023,70.3703079223632,-73.576789855957,-154.633514404296,759134566
sw,-82.9787063598632,78.6737213134765,-70.8824920654296,-166.639816284179,759151233
sw,-84.0854339599609,60.8690071105957,-68.4021835327148,-151.859497070312,759167900
sw,-85.2020492553711,42.7497749328613,-66.0432739257812,-143.200851440429,759184567
sw,-86.2128143310546,36.3760261535644,-63.8832664489746,-129.924850463867,759201234
sw,-86.9646911621093,33.4437637329101,-61.9930305480957,-112.842620849609,759217901
sw,-87.3970642089843,40.4129676818847,-60.3867874145507,-95.7184982299804,759234568
sw,-87.5339889526367,39.9795417785644,-59.1134147644043,-75.7429504394531,759251235
sw,-87.5147857666015,31.5354213714599,-58.1001510620117,-59.443374633789,759267902
sw,-87.3170776367187,28.6648731231689,-57.1930084228515,-53.0024719238281,759284569
sw,-86.8672485351562,32.2379150390625,-56.4330177307128,-45.3850746154785,759301236
sw,-86.268814086914,34.0585784912109,-55.8563804626464,-37.8538589477539,759317903
sw,-85.6301345825195,32.1662292480468,-55.4642181396484,-28.488561630249,759334570
sw,-84.9083404541015,33.6644096374511,-55.4086074829101,-7.43230390548706,759351237
sw,-84.0357284545898,41.2185859680175,-56.4994049072265,64.4252624511718,759367904
sw,-83.176399230957,40.5321044921875,-58.6091651916503,129.495895385742,759384571
sw,-82.5032806396484,29.5554523468017,-60.9466514587402,142.44529724121,759401238
sw,-81.9781875610351,19.8525333404541,-63.2827224731445,136.731018066406,759417905
sw,-81.504768371582,16.2644729614257,-64.9996337890625,96.2264938354492,759434572
sw,-81.0136642456054,16.1717300415039,-66.3011322021484,71.2746505737304,759451239
sw,-80.5162277221679,15.5449047088623,-67.2834091186523,54.2485084533691,759467906
sw,-80.0597610473632,13.2700433731079,-68.1101455688476,46.4911003112793,759484573
sw,-79.6429443359375,11.7141532897949,-68.5177841186523,21.8561820983886,759501240
sw,-79.2535781860351,11.983431816101,-68.9148025512695,18.9787101745605,759517907
sw,-78.8971862792968,12.4543504714965,-69.3639831542968,21.6322593688964,759534574
sw,-78.6149520874023,9.50520133972168,-70.561408996582,67.3634567260742,759551241
sw,-78.4279174804687,4.47830915451049,-72.0303115844726,90.1072158813476,759567908
sw,-78.3128204345703,0.881410181522369,-72.4395294189453,28.4885692596435,759584575
sw,-78.2995529174804,-5.39378547668457,-72.362548828125,-7.15730762481689,759601242
sw,-78.4504089355468,-14.6726770401,-72.6633377075195,12.3225555419921,759617909
sw,-78.8862838745117,-30.5290069580078,-73.3700637817382,34.1399497985839,759634576
sw,-79.7046127319336,-49.6371421813964,-74.3446655273437,47.2851524353027,759651243
sw,-80.9506530761718,-68.7924728393554,-75.2895431518554,45.4516906738281,759667910
sw,-82.6059646606445,-83.3711471557617,-76.2242279052734,49.1070098876953,759684577
sw,-84.5856475830078,-93.8827438354492,-77.3696670532226,61.4281730651855,759701244
sw,-86.7468338012695,-101.102653503417,-78.5303726196289,63.8649940490722,759717911
sw,-88.6901473999023,-108.297286987304,-79.5260543823242,61.8063011169433,759734578
sw,-87.4023361206054,-109.210762023925,-80.4376602172851,61.9923667907714,759751245
sw,-84.8607406616211,-105.52904510498,-81.2723312377929,53.6270141601562,759767912
sw,-82.344856262207,-109.532676696777,-82.3084411621093,57.5030632019043,759784579
sw,-80.0328140258789,-113.41706085205,-83.6512832641601,74.1483688354492,759801246
sw,-77.761360168457,-126.025115966796,-84.9276580810546,75.582405090332,759817913
sw,-75.4488449096679,-133.166091918945,-85.9205245971679,71.2576675415039,759834580
sw,-73.1711273193359,-131.63621520996,-86.6187591552734,65.3701553344726,759851247
sw,-71.0570983886718,-118.01471710205,-87.1714630126953,67.0712890625,759867914
sw,-69.155532836914,-100.232765197753,-87.4709854125976,54.1296081542968,759884581
sw,-67.4438781738281,-81.2733078002929,-87.5735168457031,41.9679718017578,759901248
sw,-66.0268783569336,-61.0045509338378,-87.4632568359375,38.6305351257324,759917915
sw,-64.9764099121093,-40.2620735168457,-87.1371383666992,40.8318672180175,759934582
sw,-64.0929107666015,-36.5482711791992,-86.696907043457,38.3335380554199,759951249
sw,-63.2982864379882,-39.9769897460937,-86.1390838623046,39.4531707763671,759967916
sw,-62.579116821289,-45.0554847717285,-85.4966354370117,41.0965881347656,759984583
sw,-61.9440307617187,-45.9739990234375,-84.8579483032226,39.3498611450195,760001250
sw,-61.4504966735839,-43.3406829833984,-84.2252807617187,38.2517776489257,760017917
sw,-61.1183166503906,-43.0125732421875,-83.5775833129882,38.3933906555175,760034584
sw,-61.0536003112793,-30.1692466735839,-82.9985122680664,33.6622924804687,760051251
sw,-61.4795227050781,3.75598859786987,-82.4235534667968,33.0997314453125,760067918
sw,-62.1581230163574,16.1458988189697,-81.8137893676757,35.0877151489257,760084585
sw,-62.9707946777343,18.0990829467773,-81.2236938476562,33.8770179748535,760101252
sw,-64.2535095214843,53.7964630126953,-80.6697616577148,31.6631107330322,760117919
sw,-65.6948928833007,64.9746627807617,-80.1017761230468,32.4575309753418,760134586
sw,-67.1036834716796,68.969123840332,-79.5610122680664,30.8129329681396,760151253
sw,-68.0325317382812,30.9624423980712,-79.1301574707031,24.220287322998,760167920
sw,-68.862319946289,18.6100788116455,-78.78955078125,18.8228321075439,760184587
sw,-69.3622283935546,7.96840000152587,-78.5455780029296,13.046251296997,760201254
sw,-69.5047607421875,-6.00516843795776,-78.4141006469726,6.38860654830932,760217921
sw,-69.746353149414,3.48237776756286,-78.4033737182617,-0.792793631553649,760234588
sw,-70.7061462402343,38.0445480346679,-78.5805053710937,-12.0342073440551,760251255
sw,-72.1337890625,72.1218185424804,-79.1403656005859,-35.0034103393554,760267922
sw,-73.2484588623046,61.2862968444824,-80.3390121459961,-73.531509399414,760284589
sw,-73.9236450195312,35.1500511169433,-82.0717468261718,-105.997024536132,760301256
sw,-74.7971572875976,42.3174858093261,-84.1008682250976,-125.274002075195,760317923
sw,-75.8703689575195,34.803482055664,-86.6342468261718,-162.234603881835,760334590
sw,-77.1912765502929,34.5874671936035,-88.4187240600586,-198.683654785156,760351257
sw,-78.6657562255859,54.4169654846191,-85.6894302368164,-216.029312133789,760367924
sw,-80.0751037597656,55.4051170349121,-82.2997131347656,-203.292404174804,760384591
sw,-81.3237991333007,42.6762809753418,-79.6254577636718,-160.196502685546,760401258
sw,-82.483413696289,46.4397544860839,-77.3777618408203,-142.730361938476,760417925
sw,-83.7185287475586,66.7908859252929,-74.9118347167968,-159.013916015625,760434592
sw,-84.8617630004882,73.0460052490234,-72.4957504272461,-153.737564086914,760451259
sw,-85.8391952514648,52.8757972717285,-70.3038177490234,-137.372146606445,760467926
sw,-86.7490005493164,31.0200481414794,-68.299331665039,-123.9839553833,760484593
sw,-87.5669937133789,17.381700515747,-66.2970809936523,-122.65436553955,760501260
sw,-88.2648315429687,16.247013092041,-64.3872375488281,-116.242584228515,760517927
sw,-88.8904113769531,23.6299438476562,-62.7581558227539,-98.9083938598632,760534594
sw,-89.1879577636718,32.9336853027343,-61.4914169311523,-77.3651733398437,760551261
sw,-88.8156814575195,32.7197227478027,-60.532730102539,-59.5386009216308,760567928
sw,-88.2142486572265,28.3074264526367,-59.6295928955078,-56.815860748291,760584595
sw,-87.5687637329101,27.0491828918457,-58.8813934326171,-48.5810432434082,760601262
sw,-86.9032669067382,28.2593326568603,-58.1733970642089,-48.3354949951171,760617929
sw,-86.2163848876953,30.5687808990478,-57.3033065795898,-59.2319412231445,760634596
sw,-85.5252990722656,31.5744514465332,-56.8587608337402,-32.8679313659668,760651263
sw,-84.8197250366211,32.7681922912597,-56.9765853881835,2.32429814338684,760667930
sw,-84.1073226928711,32.56538772583,-57.5903396606445,34.245319366455,760684597
sw,-83.418228149414,29.4552364349365,-58.9775695800781,85.0275268554687,760701264
sw,-82.7743682861328,25.3189582824707,-60.8900718688964,114.578071594238,760717931
sw,-82.1423034667968,24.7483940124511,-62.7612037658691,109.143684387207,760734598
sw,-81.4783859252929,28.1905822753906,-64.2484054565429,83.7802581787109,760751265
sw,-80.8109588623046,29.4904136657714,-65.5703201293945,72.8351821899414,760767932
sw,-80.1906585693359,27.8410606384277,-66.4780044555664,47.7728118896484,760784599
sw,-79.6529388427734,23.7344608306884,-67.2838897705078,41.7932167053222,760801266
sw,-79.20458984375,18.1498832702636,-67.9336700439453,34.1351432800293,760817933
sw,-78.7918090820312,16.7321701049804,-68.2583694458007,15.5023832321167,760834600
sw,-78.4178237915039,16.398977279663,-68.5484237670898,13.6259546279907,760851267
sw,-78.1076126098632,13.3105916976928,-69.3754501342773,46.450138092041,760867934
sw,-77.8782958984375,8.57851982116699,-70.8715591430664,87.7975234985351,760884601
sw,-77.7191085815429,5.0070686340332,-71.9763412475586,67.3532028198242,760901268
sw,-77.691177368164,-2.35952401161193,-72.172737121582,16.8187828063964,760917935
sw,-77.9214859008789,-18.0994815826416,-72.2270126342773,7.69197368621826,760934602
sw,-78.3908767700195,-30.9277591705322,-72.6346588134765,21.6584148406982,760951269
sw,-79.1460723876953,-44.5725135803222,-73.5663986206054,45.7250671386718,760967936
sw,-80.3150939941406,-62.244041442871,-74.7011108398437,54.4212341308593,760984603
sw,-81.9522857666015,-78.6862258911132,-75.7861557006836,55.6216697692871,761001270
sw,-83.8819808959961,-85.8699035644531,-76.9637069702148,66.8727416992187,761017937
sw,-86.071304321289,-99.0624465942382,-78.1506652832031,69.2197723388671,761034604
sw,-87.9183197021484,-104.086524963378,-79.2862854003906,67.0874099731445,761051271
sw,-87.3232879638671,-109.855339050292,-80.4781036376953,72.6845397949218,761067938
sw,-85.0502243041992,-112.151260375976,-81.6259078979492,70.728157043457,761084605
sw,-82.7014770507812,-115.471687316894,-82.6464080810546,61.2041015625,761101272
sw,-80.5500030517578,-118.17406463623,-83.569465637207,50.0347251892089,761117939
sw,-78.3300094604492,-136.445510864257,-84.525650024414,49.1664390563964,761134606
sw,-75.9369049072265,-149.254791259765,-85.5269165039062,54.3050727844238,761151273
sw,-73.6619415283203,-137.211730957031,-86.5513916015625,58.6638755798339,761167940
sw,-71.5845794677734,-120.521842956542,-87.5354995727539,57.7464714050293,761184607
sw,-69.6702041625976,-105.696472167968,-88.4519958496093,53.9239692687988,761201274
sw,-67.9288024902343,-87.9192581176757,-89.4287033081054,57.1247749328613,761217941
sw,-66.4730758666992,-68.040786743164,-89.516242980957,47.2956390380859,761234608
sw,-65.2280731201171,-58.0944137573242,-88.8727416992187,31.1820888519287,761251275
sw,-64.1330413818359,-52.5147018432617,-88.3011932373046,26.9019966125488,761267942
sw,-63.058494567871,-57.5877227783203,-87.7335891723632,31.3508243560791,761284609
sw,-62.0255851745605,-60.0139770507812,-87.0708312988281,40.674201965332,761301276
sw,-61.190860748291,-50.475341796875,-86.2309036254882,51.374885559082,761317943
sw,-60.504596710205,-48.3407363891601,-85.2584762573242,57.2732048034668,761334610
sw,-60.0153770446777,-45.013126373291,-84.3089752197265,54.1761207580566,761351277
sw,-59.8321723937988,-31.0162963867187,-83.4639434814453,47.6454124450683,761367944
sw,-60.1025695800781,-2.89663672447204,-82.6532669067382,47.4449005126953,761384611
sw,-60.7779960632324,23.965440750122,-81.8868865966796,45.8460083007812,761401278
sw,-61.8485603332519,45.9068298339843,-81.1781997680664,41.9054298400878,761417945
sw,-63.2700576782226,71.7650985717773,-80.4897384643554,39.5031127929687,761434612
sw,-64.6485366821289,67.2632369995117,-79.8503952026367,35.5396423339843,761451279
sw,-66.0611724853515,71.0444793701171,-79.3307952880859,27.959903717041,761467946
sw,-67.2414321899414,43.5650558471679,-78.9343795776367,20.5939655303955,761484613
sw,-68.4184646606445,48.3863296508789,-78.657958984375,13.5552768707275,761501280
sw,-68.8180541992187,6.24011659622192,-78.4694442749023,8.83568668365478,761517947
sw,-68.8672180175781,-6.0621633529663,-78.4482269287109,-1.03947281837463,761534614
sw,-69.3478927612304,18.8322715759277,-78.5916748046875,-11.0286502838134,761551281
sw,-70.6263961791992,58.7105865478515,-78.9926986694336,-27.0805130004882,761567948
sw,-72.0839233398437,81.7918701171875,-79.9282455444336,-59.6775016784668,761584615
sw,-73.0343627929687,54.4892921447753,-81.5772933959961,-101.998123168945,761601282
sw,-73.5517654418945,33.4313430786132,-83.7305831909179,-131.862655639648,761617949
sw,-74.3720169067382,44.4209976196289,-86.3527221679687,-161.788253784179,761634616
sw,-75.4635238647461,40.7316017150878,-89.0100860595703,-194.932220458984,761651283
sw,-76.8018798828125,37.2540626525878,-86.5894699096679,-211.084747314453,761667950
sw,-78.1484680175781,42.1679306030273,-83.1518630981445,-200.607330322265,761684617
sw,-79.4874572753906,45.9905700683593,-80.1681518554687,-168.172882080078,761701284
sw,-80.8082046508789,48.0399055480957,-77.8603897094726,-137.942276000976,761717951
sw,-81.9701843261718,54.1623992919921,-75.7249069213867,-133.363800048828,761734618
sw,-83.0311737060546,67.0663452148437,-73.3010025024414,-151.042129516601,761751285
sw,-83.9872512817382,72.0472412109375,-70.9017333984375,-148.40625,761767952
sw,-84.8509445190429,57.6047782897949,-68.6559524536132,-137.692459106445,761784619
sw,-85.6972579956054,38.6093025207519,-66.4180068969726,-136.360641479492,761801286
sw,-86.4686965942382,22.0356197357177,-64.1087951660156,-139.762008666992,761817953
sw,-87.0835571289062,18.8969707489013,-62.1004295349121,-121.422706604003,761834620
sw,-87.4150238037109,31.5596199035644,-60.4318008422851,-100.838752746582,761851287
sw,-87.3522567749023,39.9536056518554,-59.1059799194335,-79.2060470581054,761867954
sw,-87.1615142822265,31.6522579193115,-57.9772491455078,-66.5046997070312,761884621
sw,-86.870002746582,27.2098121643066,-56.9457550048828,-59.9020156860351,761901288
sw,-86.4937362670898,25.1670665740966,-56.1419639587402,-45.830150604248,761917955
sw,-86.0428466796875,25.1028289794921,-55.6035957336425,-31.5772323608398,761934622
sw,-85.5130615234375,26.6897239685058,-55.271499633789,-20.5430507659912,761951289
sw,-84.9511642456054,26.1965980529785,-55.3874549865722,6.33132600784301,761967956
sw,-84.3604888916015,25.9922847747802,-56.7649002075195,85.0380935668945,761984623
sw,-83.7191848754882,27.5488395690917,-58.8414726257324,133.0771484375,762001290
sw,-83.0451202392578,28.5697650909423,-61.6811561584472,177.111404418945,762017957
sw,-82.3705368041992,28.0625782012939,-63.9200057983398,132.215881347656,762034624
sw,-81.7266616821289,26.0292835235595,-65.7026062011718,101.843696594238,762051291
sw,-81.1714096069336,20.3756256103515,-67.0365753173828,72.9733657836914,762067958
sw,-80.7346954345703,13.0321311950683,-68.0037002563476,52.11470413208,762084625
sw,-80.3308792114257,12.1710519790649,-68.4878463745117,25.0479850769042,762101292
sw,-79.9121704101562,15.7121839523315,-68.4788818359375,-3.59217762947082,762117959
sw,-79.5168838500976,16.5328254699707,-68.4270629882812,-4.40021514892578,762134626
sw,-79.189224243164,14.5867929458618,-68.6391220092773,9.38282108306884,762151293
sw,-78.9287948608398,12.0261259078979,-69.890396118164,69.1226730346679,762167960
sw,-78.701675415039,11.0294818878173,-71.5570983886718,97.2700729370117,762184627
sw,-78.5163497924804,8.77282238006591,-72.421401977539,54.1886596679687,762201294
sw,-78.4650497436523,-0.184693187475204,-72.4006042480468,2.6213002204895,762217961
sw,-78.590591430664,-10.9265251159667,-72.4542617797851,3.36816620826721,762234628
sw,-78.9390411376953,-20.7627143859863,-73.0200805664062,29.0748081207275,762251295
sw,-79.6309738159179,-34.3296356201171,-74.0340957641601,49.3792648315429,762267962
sw,-80.8058700561523,-56.0791397094726,-75.078010559082,44.5326881408691,762284629
sw,-82.5369415283203,-83.8457412719726,-76.0241012573242,43.0373191833496,762301296
sw,-84.656509399414,-104.166618347167,-77.0578689575195,53.890525817871,762317963
sw,-86.7193222045898,-115.021354675292,-78.4325103759765,77.2612152099609,762334630
sw,-87.3019485473632,-116.201858520507,-79.6853103637695,73.369140625,762351297
sw,-85.4446563720703,-119.216064453125,-80.6832122802734,61.493553161621,762367964
sw,-82.9712829589843,-112.379608154296,-81.4632186889648,49.2398605346679,762384631
sw,-80.5566482543945,-119.785903930664,-82.1741638183593,40.15864944458,762401298
sw,-78.4238128662109,-124.69334411621,-83.0664443969726,44.3619194030761,762417965
sw,-76.3369140625,-136.337738037109,-84.0305404663086,46.9965629577636,762434632
sw,-74.0051956176757,-151.730194091796,-85.0047988891601,50.5949554443359,762451299
sw,-71.5113449096679,-155.105972290039,-85.9197082519531,50.857982635498,762467966
sw,-69.2511749267578,-133.298706054687,-86.8173370361328,51.5521202087402,762484633
sw,-67.3276443481445,-103.561614990234,-87.9229278564453,64.4073867797851,762501300
sw,-65.7915420532226,-72.0146560668945,-89.0717010498046,68.0801086425781,762517967
sw,-64.5457000732421,-53.7121086120605,-89.5725021362304,51.9228439331054,762534634
sw,-63.6233482360839,-37.6486282348632,-89.0767745971679,36.3040695190429,762551301
sw,-62.9224624633789,-28.9759883880615,-88.471076965332,35.6778678894043,762567968
sw,-62.3304023742675,-30.2582778930664,-87.825698852539,38.8221588134765,762584635
sw,-61.7930831909179,-35.0804977416992,-87.1383056640625,40.4116821289062,762601302
sw,-61.3075256347656,-39.8742065429687,-86.4052276611328,42.0683555603027,762617969
sw,-60.9034805297851,-44.7367286682128,-85.6466217041015,43.0382423400878,762634636
sw,-60.7191581726074,-37.7543601989746,-84.9270782470703,40.6705360412597,762651303
sw,-60.825340270996,-22.2867012023925,-84.2192077636718,40.9684295654296,762667970
sw,-61.3064537048339,2.26992988586425,-83.4687805175781,44.8102302551269,762684637
sw,-61.829849243164,-4.80654668807983,-82.729995727539,44.1587257385253,762701304
sw,-62.9213142395019,37.0169143676757,-82.0226516723632,41.3522758483886,762717971
sw,-64.4144592285156,72.3111953735351,-81.3172378540039,40.5523414611816,762734638
sw,-65.6975021362304,56.2694435119628,-80.6619262695312,37.4426689147949,762751305
sw,-66.6906433105468,43.5962409973144,-80.1214370727539,30.7173423767089,762767972
sw,-67.2584228515625,3.42076659202575,-79.7553176879882,20.4820022583007,762784639
sw,-67.4698638916015,-22.9949722290039,-79.5889053344726,8.33624076843261,762801306
sw,-67.1585998535156,-38.7846336364746,-79.4705810546875,5.0404028892517,762817973
sw,-66.8602294921875,-22.4070434570312,-79.2305831909179,11.9901447296142,762834640
sw,-67.1666641235351,2.45425343513488,-79.0432357788086,9.01733303070068,762851307
sw,-68.2900390625,27.8681945800781,-79.1540756225586,-8.54456424713134,762867974
sw,-70.1003875732421,67.4683990478515,-79.7575073242187,-37.7911262512207,762884641
sw,-71.6839828491211,80.698257446289,-80.8899688720703,-69.1875762939453,762901308
sw,-72.5474548339843,55.1203727722168,-82.5986175537109,-103.607498168945,762917975
sw,-73.2676391601562,45.7155418395996,-84.8255157470703,-134.857223510742,762934642
sw,-74.195556640625,42.8715057373046,-87.5133666992187,-165.09504699707,762951309
sw,-75.4362258911132,40.3617210388183,-88.6917953491211,-194.864151000976,762967976
sw,-76.8092575073242,35.2788963317871,-85.1464691162109,-222.904571533203,762984643
sw,-78.1848220825195,50.4994964599609,-81.2064361572265,-227.581420898437,763001310
sw,-79.5458450317382,48.665786743164,-77.6965408325195,-202.31086730957,763017977
sw,-80.7093811035156,37.1062240600585,-75.2835998535156,-148.232162475585,763034644
sw,-81.8040161132812,48.08837890625,-73.2396545410156,-132.156173706054,763051311
sw,-82.9169235229492,61.6819915771484,-70.9116439819336,-148.480819702148,763067978
sw,-84.0339889526367,66.640884399414,-68.4055099487304,-156.776153564453,763084645
sw,-85.0400314331054,47.0693626403808,-66.0690002441406,-144.457168579101,763101312
sw,-85.9043273925781,21.6174869537353,-63.871238708496,-134.772003173828,763117979
sw,-86.6007995605468,5.29321956634521,-61.9140815734863,-119.82632446289,763134646
sw,-87.1862487792968,5.26494741439819,-60.318748474121,-97.7819366455078,763151313
sw,-87.8734893798828,22.6307678222656,-59.2069015502929,-68.1517257690429,763167980
sw,-88.7170181274414,37.80171585083,-58.3955154418945,-49.881534576416,763184647
sw,-89.5794219970703,37.5432739257812,-57.9372024536132,-28.7424945831298,763201314
sw,-89.6980438232421,31.1073493957519,-57.662296295166,-19.0433769226074,763217981
sw,-88.9400177001953,29.5672378540039,-57.1659965515136,-34.8521499633789,763234648
sw,-88.2294387817382,30.1151504516601,-56.5191688537597,-45.5994796752929,763251315
sw,-87.5219573974609,33.044921875,-56.1987495422363,-27.3417472839355,763267982
sw,-86.8302230834961,33.0804138183593,-56.2063179016113,-7.45264339447021,763284649
sw,-86.1253128051757,32.9599494934082,-57.0324096679687,45.8156967163085,763301316
sw,-85.4474029541015,28.8651657104492,-58.5197372436523,91.646125793457,763317983
sw,-84.8188095092773,22.7076511383056,-60.4710121154785,116.866897583007,763334650
sw,-84.2239227294921,18.7500743865966,-62.3906707763671,110.30606842041,763351317
sw,-83.6352081298828,18.4891777038574,-64.1376953125,99.2439804077148,763367984
sw,-83.0723648071289,17.8780517578125,-65.5082092285156,75.6587142944336,763384651
sw,-82.5314483642578,17.9908638000488,-66.383186340332,47.3231582641601,763401318
sw,-82.0236129760742,18.5095348358154,-67.0755081176757,37.476634979248,763417985
sw,-81.5466003417968,18.9180030822753,-67.7771759033203,37.2674026489257,763434652
sw,-81.068733215332,21.1809024810791,-68.3152313232421,26.6714935302734,763451319
sw,-80.6157302856445,21.5391941070556,-68.750373840332,19.2057437896728,763467986
sw,-80.2194595336914,19.4516677856445,-69.2535781860351,23.9344615936279,763484653
sw,-79.9042816162109,14.787612915039,-70.3611068725586,60.6717872619628,763501320
sw,-79.6807556152343,8.73032093048095,-71.9623489379882,92.8792495727539,763517987
sw,-79.5136032104492,5.39761924743652,-72.9683761596679,62.3300819396972,763534654
sw,-79.495246887207,-2.44610023498535,-72.9577560424804,2.65493965148925,763551321
sw,-79.6579437255859,-12.3487300872802,-72.9191741943359,-0.281515449285507,763567988
sw,-79.9917984008789,-19.9830989837646,-73.3551406860351,23.6136207580566,763584655
sw,-80.5750885009765,-30.6840209960937,-74.2577133178711,44.509593963623,763601322
sw,-81.5230255126953,-46.2365188598632,-75.2700881958007,44.082218170166,763617989
sw,-82.8519973754882,-60.090160369873,-76.2314987182617,45.1090049743652,763634656
sw,-84.5171279907226,-73.7443542480468,-77.1722183227539,50.7389793395996,763651323
sw,-86.477912902832,-90.6898956298828,-78.1678924560546,56.0047454833984,763667990
sw,-88.1829605102539,-103.526062011718,-79.09375,54.2812271118164,763684657
sw,-87.2703552246093,-116.549461364746,-80.134651184082,64.6004867553711,763701324
sw,-84.8283538818359,-110.735488891601,-81.0843429565429,58.453067779541,763717991
sw,-82.2821273803711,-114.157417297363,-82.0285873413086,54.0109825134277,763734658
sw,-79.9567413330078,-114.894325256347,-83.1852569580078,61.0299606323242,763751325
sw,-77.792610168457,-122.736381530761,-84.4671096801757,68.8962783813476,763767992
sw,-75.5170822143554,-138.072326660156,-85.6013717651367,64.9729232788086,763784659
sw,-73.2432861328125,-135.106018066406,-86.5158615112304,56.9517211914062,763801326
sw,-71.0871810913086,-123.753005981445,-87.4513244628906,61.1336021423339,763817993
sw,-69.0859298706054,-113.161567687988,-88.344009399414,61.4251403808593,763834660
sw,-67.2366561889648,-103.250190734863,-88.9764556884765,49.594856262207,763851327
sw,-65.7798614501953,-76.2472381591796,-89.1860275268554,35.1749649047851,763867994
sw,-64.6463775634765,-55.2057456970214,-88.9528350830078,32.1788368225097,763884661
sw,-63.6961326599121,-44.2477722167968,-88.3798522949218,39.1444091796875,763901328
sw,-62.8048553466796,-43.9326171875,-87.651985168457,43.9869651794433,763917995
sw,-61.9464149475097,-47.7448120117187,-86.9077606201171,43.7005805969238,763934662
sw,-61.285041809082,-41.1911468505859,-86.2064590454101,40.7419281005859,763951329
sw,-60.6884994506835,-45.8886413574218,-85.523941040039,39.1150550842285,763967996
sw,-60.2109680175781,-47.6252288818359,-84.9035034179687,34.8183555603027,763984663
sw,-60.0101661682128,-35.376365661621,-84.3273620605468,31.8421745300292,764001330
sw,-60.0245094299316,-25.3990821838378,-83.6467132568359,38.1325187683105,764017997
sw,-60.1638031005859,-23.106065750122,-82.8949127197265,42.7708396911621,764034664
sw,-60.8229789733886,12.6402645111083,-82.2193908691406,38.3788185119628,764051331
sw,-62.1494483947753,57.9253997802734,-81.664924621582,31.0104484558105,764067998
sw,-63.5653533935546,62.081932067871,-81.1683654785156,27.5309314727783,764084665
sw,-65.032958984375,68.6634521484375,-80.6140594482421,31.2176265716552,764101332
sw,-66.3206329345703,63.3780899047851,-80.0521240234375,31.9293518066406,764117999
sw,-67.4271926879882,38.563865661621,-79.6151428222656,24.5050888061523,764134666
sw,-68.5863342285156,36.3053092956543,-79.385627746582,11.8782911300659,764151333
sw,-68.9785995483398,-0.897352516651153,-79.4384536743164,-5.32441568374633,764168000
sw,-69.1857070922851,-1.49541020393371,-79.6167221069336,-12.9081649780273,764184667
sw,-69.9619140625,34.1899261474609,-79.7891235351562,-12.4469366073608,764201334
sw,-71.2982101440429,62.0223808288574,-80.1883239746093,-25.9661140441894,764218001
sw,-72.3154602050781,51.2660484313964,-81.1524047851562,-59.7478523254394,764234668
sw,-72.8899307250976,28.0185928344726,-82.8071517944336,-100.553878784179,764251335
sw,-73.4612426757812,28.4232368469238,-84.8657684326171,-123.875549316406,764268002
sw,-74.3152236938476,28.6495456695556,-87.5928726196289,-164.367233276367,764284669
sw,-75.5249252319336,37.2380027770996,-88.9535751342773,-205.455078125,764301336
sw,-76.9745788574218,58.3207168579101,-85.3412094116211,-215.141174316406,764318003
sw,-78.3970870971679,54.4150352478027,-81.6661300659179,-210.935485839843,764334670
sw,-79.7599258422851,49.0723571777343,-78.6915054321289,-166.701950073242,764351337
sw,-81.073860168457,54.375690460205,-76.5161895751953,-129.616317749023,764368004
sw,-82.4563980102539,73.6881637573242,-74.2876586914062,-140.579498291015,764384671
sw,-83.7512969970703,76.0589294433593,-72.0811920166015,-138.972534179687,764401338
sw,-84.823127746582,55.2924118041992,-70.0938568115234,-123.52635192871,764418005
sw,-85.7808685302734,38.2244567871093,-68.225227355957,-114.677581787109,764434672
sw,-86.6686859130859,33.7317504882812,-66.2336273193359,-121.119392395019,764451339
sw,-87.4550857543945,35.8981018066406,-64.2139434814453,-122.479934692382,764468006
sw,-88.119758605957,37.5143127441406,-62.4615898132324,-107.293838500976,764484673
sw,-88.6440505981445,34.901309967041,-61.1966590881347,-78.7283401489257,764501340
sw,-88.8837356567382,29.9935607910156,-60.2733993530273,-58.5566062927246,764518007
sw,-88.6536102294921,29.0987129211425,-59.4631614685058,-51.5670356750488,764534674
sw,-88.0700454711914,32.2615890502929,-58.846622467041,-39.9018325805664,764551341
sw,-87.349380493164,34.7816772460937,-58.380084991455,-32.0117111206054,764568008
sw,-86.6080017089843,33.9512786865234,-57.7350006103515,-44.2814407348632,764584675
sw,-85.8738861083984,33.0443611145019,-57.4184417724609,-25.1823043823242,764601342
sw,-85.1841506958007,31.6836910247802,-57.5513267517089,1.77019166946411,764618009
sw,-84.5262145996093,29.8266506195068,-58.0496292114257,24.8683166503906,764634676
sw,-83.8940811157226,26.8996238708496,-59.0784454345703,60.6014289855957,764651343
sw,-83.2906875610351,23.6817016601562,-61.2967224121093,131.531265258789,764668010
sw,-82.716682434082,21.0014247894287,-63.3497848510742,119.343162536621,764684677
sw,-82.1101684570312,23.8762760162353,-64.9531478881836,90.9790267944336,764701344
sw,-81.4905395507812,26.2135028839111,-66.2014846801757,69.0144958496093,764718011
sw,-80.9028015136718,25.4101676940917,-67.2471389770507,57.3023452758789,764734678
sw,-80.3357620239257,24.9692497253417,-67.7010955810546,20.5753936767578,764751345
sw,-79.8052444458007,23.9789333343505,-67.7991943359375,-1.07192814350128,764768012
sw,-79.3265762329101,21.3950176239013,-67.6073150634765,-16.1277713775634,764784679
sw,-78.8579177856445,21.9304332733154,-67.5867385864257,-4.23215055465698,764801346
sw,-78.4529190063476,19.123291015625,-67.9151916503906,16.4554367065429,764818013
sw,-78.1351928710937,13.9747905731201,-69.1300430297851,69.2085189819336,764834680
sw,-77.9314270019531,6.57517051696777,-71.1832199096679,120.237350463867,764851347
sw,-77.8899993896484,-3.28120589256286,-72.6610107421875,87.2005767822265,764868014
sw,-78.0258407592773,-11.4893970489501,-72.8788986206054,15.8490447998046,764884681
sw,-78.3604049682617,-20.3466205596923,-72.8195037841796,-0.656287193298339,764901348
sw,-78.9297180175781,-30.5528984069824,-73.2561721801757,23.5567169189453,764918015
sw,-79.8166351318359,-44.3608207702636,-74.0914230346679,42.8781013488769,764934682
sw,-81.1277236938476,-63.3514747619628,-74.8459930419921,32.7143096923828,764951349
sw,-82.8063659667968,-77.2752456665039,-75.5241775512695,30.0712985992431,764968016
sw,-84.5779037475586,-80.7020492553711,-76.5772552490234,59.0964279174804,764984683
sw,-86.1584548950195,-90.7374038696289,-77.8768157958984,75.9532241821289,765001350
sw,-86.5583267211914,-106.343521118164,-79.104263305664,71.9539184570312,765018017
sw,-85.1495361328125,-119.709922790527,-80.3258209228515,72.139778137207,765034684
sw,-82.9518508911132,-128.933151245117,-81.5417709350586,72.1404342651367,765051351
sw,-80.787124633789,-131.986251831054,-82.682388305664,66.750991821289,765068018
sw,-78.7664260864257,-136.028747558593,-83.7256851196289,59.629150390625,765084685
sw,-76.6066207885742,-152.760589599609,-84.7567138671875,60.2014465332031,765101352
sw,-74.2000579833984,-163.287887573242,-85.9388046264648,70.9144973754882,765118019
sw,-71.838752746582,-146.557357788085,-87.2725143432617,80.1674423217773,765134686
sw,-69.7837829589843,-117.644371032714,-88.4791564941406,73.910888671875,765151353
sw,-67.9777450561523,-98.9600753784179,-89.2624588012695,61.0589332580566,765168020
sw,-66.5221633911132,-75.3664932250976,-89.0653915405273,46.4427490234375,765184687
sw,-65.3962478637695,-53.6003532409668,-88.4072570800781,40.8066635131835,765201354
sw,-64.4234924316406,-48.596321105957,-87.6906509399414,39.7644004821777,765218021
sw,-63.5463676452636,-47.0094528198242,-86.9955368041992,37.3024253845214,765234688
sw,-62.7113761901855,-49.1421890258789,-86.2967834472656,38.1824798583984,765251355
sw,-62.0053253173828,-45.7303352355957,-85.6128692626953,38.3305549621582,765268022
sw,-61.368854522705,-49.1042022705078,-84.9216384887695,39.1783828735351,765284689
sw,-60.7755508422851,-58.5011940002441,-84.3025741577148,33.7431411743164,765301356
sw,-60.3400840759277,-59.9413986206054,-83.7334365844726,30.3322925567626,765318023
sw,-60.2156791687011,-43.2909126281738,-83.1595230102539,30.6202430725097,765334690
sw,-60.6385688781738,0.943821191787719,-82.5281906127929,35.2604904174804,765351357
sw,-61.1910934448242,9.63224506378173,-81.8304061889648,41.0126152038574,765368024
sw,-61.9494323730468,16.2909717559814,-81.1200256347656,42.9389152526855,765384691
sw,-63.4195518493652,66.5844573974609,-80.4874038696289,37.7867431640625,765401358
sw,-64.9172286987304,69.0368957519531,-80.0266189575195,26.071678161621,765418025
sw,-66.2427139282226,64.5412063598632,-79.7250595092773,15.8685512542724,765434692
sw,-67.3981399536132,38.3872909545898,-79.5761184692382,7.26742649078369,765451359
sw,-68.933609008789,49.383689880371,-79.4998703002929,2.89927887916564,765468026
sw,-69.5850982666015,9.10530281066894,-79.4770736694336,-1.28273403644561,765484693
sw,-69.2648391723632,-22.3431911468505,-79.549575805664,-7.44173383712768,765501360
sw,-69.527114868164,11.3339900970458,-79.8415069580078,-20.506212234497,765518027
sw,-70.7514038085937,44.8440132141113,-80.5174560546875,-43.3896369934082,765534694
sw,-72.4479446411132,76.6986312866211,-81.6718978881836,-71.4164123535156,765551361
sw,-73.6999816894531,73.6176528930664,-83.4321517944336,-106.882110595703,765568028
sw,-74.2928848266601,39.0477294921875,-85.8818206787109,-149.97590637207,765584695
sw,-74.8839797973632,32.5712165832519,-88.7177810668945,-201.104125976562,765601362
sw,-75.7659378051757,20.0809993743896,-86.6201477050781,-232.602340698242,765618029
sw,-76.9656829833984,19.0467853546142,-82.5274276733398,-249.075744628906,765634696
sw,-78.3006210327148,42.4005889892578,-78.2969131469726,-244.833358764648,765651363
sw,-79.7736663818359,60.825927734375,-75.0839920043945,-186.392166137695,765668030
sw,-81.1222839355468,50.40034866333,-72.8767013549804,-135.884155273437,765684697
sw,-82.4588394165039,62.3126907348632,-70.6704864501953,-138.128494262695,765701364
sw,-83.7326507568359,72.726806640625,-67.9813766479492,-165.82014465332,765718031
sw,-84.8744354248046,68.12890625,-65.5217132568359,-150.573684692382,765734698
sw,-85.8905868530273,45.2733078002929,-63.2336997985839,-139.108108520507,765751365
sw,-86.7524948120117,18.197582244873,-61.116355895996,-128.408248901367,765768032
sw,-87.4597854614257,4.15236806869506,-59.3445625305175,-107.512626647949,765784699
sw,-88.0952529907226,10.4423179626464,-57.9209327697753,-86.7552337646484,765801366
sw,-88.8015594482421,31.402717590332,-56.8387908935546,-66.2341766357421,765818033
sw,-89.375991821289,38.2067947387695,-56.0703773498535,-46.9057312011718,765834700
sw,-89.1833953857421,37.7774772644043,-55.677993774414,-22.2603149414062,765851367
sw,-88.4928588867187,36.3248023986816,-55.2493858337402,-24.1943759918212,765868034
sw,-87.7457122802734,34.6798629760742,-54.3857040405273,-54.9253120422363,765884701
sw,-87.0309371948242,32.9208068847656,-54.0721778869628,-25.1413536071777,765901368
sw,-86.3517608642578,31.4322242736816,-54.5596046447753,21.748155593872,765918035
sw,-85.6693115234375,31.3360786437988,-55.5924263000488,54.7187118530273,765934702
sw,-84.9723587036132,30.8418464660644,-57.9475364685058,140.973876953125,765951369
sw,-84.3401947021484,24.8070678710937,-60.9063072204589,179.339080810546,765968036
sw,-83.7295532226562,22.4563980102539,-63.4850730895996,153.759887695312,765984703
sw,-83.1179275512695,23.483205795288,-65.5824356079101,122.156967163085,766001370
sw,-82.4924850463867,25.4416809082031,-67.2039566040039,94.5472564697265,766018037
sw,-81.888427734375,24.4261112213134,-68.0351943969726,46.7607307434082,766034704
sw,-81.3500366210937,20.7944583892822,-68.2961120605468,9.41027069091796,766051371
sw,-80.8464660644531,20.5756645202636,-68.3640747070312,-4.40920734405517,766068038
sw,-80.3648910522461,22.471378326416,-68.3774871826171,-4.19289445877075,766084705
sw,-79.9059753417968,23.1118564605712,-68.4913864135742,2.06024408340454,766101372
sw,-79.4901504516601,21.4296493530273,-69.1213607788086,30.9493503570556,766118039
sw,-79.1545639038086,15.7499113082885,-70.7376480102539,92.3493118286132,766134706
sw,-78.937873840332,5.97293472290039,-71.9016723632812,70.8479690551757,766151373
sw,-78.8869018554687,-5.47113847732543,-72.1604843139648,22.0104579925537,766168040
sw,-78.9530410766601,-12.6713714599609,-72.196044921875,6.00269603729248,766184707
sw,-79.1291122436523,-16.0131454467773,-72.723274230957,28.9388523101806,766201374
sw,-79.5765686035156,-26.3378372192382,-73.684829711914,53.5049858093261,766218041
sw,-80.3833541870117,-40.2110061645507,-74.6471328735351,48.8110237121582,766234708
sw,-81.5573348999023,-55.1853218078613,-75.4533767700195,33.5020942687988,766251375
sw,-83.1347351074218,-72.3433685302734,-76.3007507324218,40.6931533813476,766268042
sw,-84.9587326049804,-83.9970703125,-77.3171691894531,54.4918174743652,766284709
sw,-86.9083251953125,-102.044166564941,-78.4297180175781,62.4309959411621,766301376
sw,-87.6962509155273,-113.155532836914,-79.4098129272461,57.8895072937011,766318043
sw,-85.9470138549804,-121.849044799804,-80.3581848144531,58.1612815856933,766334710
sw,-83.4014434814453,-128.191574096679,-81.2494277954101,54.3299598693847,766351377
sw,-80.8992309570312,-128.310440063476,-82.1971969604492,53.6962890625,766368044
sw,-78.6729354858398,-125.979972839355,-83.3631896972656,60.9180068969726,766384711
sw,-76.4421920776367,-138.290908813476,-84.6070785522461,65.4734268188476,766401378
sw,-73.9485855102539,-153.264343261718,-85.7996520996093,67.2995529174804,766418045
sw,-71.5111923217773,-137.975784301757,-86.7634201049804,60.0399093627929,766434712
sw,-69.370246887207,-113.390129089355,-87.6764450073242,65.058723449707,766451379
sw,-67.4808349609375,-93.9540863037109,-88.4342727661132,65.9867095947265,766468046
sw,-65.8259887695312,-79.0852279663086,-88.81982421875,53.4567756652832,766484713
sw,-64.4341430664062,-64.7452316284179,-88.6977920532226,44.6504478454589,766501380
sw,-63.2532501220703,-52.7124252319335,-88.1597366333007,42.2779922485351,766518047
sw,-62.2785415649414,-41.5010528564453,-87.6143569946289,33.7328567504882,766534714
sw,-61.3964958190918,-41.748664855957,-87.0336380004882,33.0903701782226,766551381
sw,-60.7073554992675,-38.136432647705,-86.3654174804687,37.2826614379882,766568048
sw,-60.1869850158691,-36.0870323181152,-85.6518859863281,39.5078697204589,766584715
sw,-59.7668075561523,-40.1719512939453,-84.8837356567382,42.55708694458,766601382
sw,-59.5872268676757,-34.6999130249023,-84.0631790161132,45.7936172485351,766618049
sw,-59.639045715332,-24.5800418853759,-83.2222213745117,47.5712013244628,766634716
sw,-60.0171661376953,-7.16544485092163,-82.4280700683593,45.5080604553222,766651383
sw,-60.7856712341308,14.3024263381958,-81.725471496582,40.2868194580078,766668050
sw,-62.179931640625,55.029296875,-81.0695419311523,37.5350837707519,766684717
sw,-63.821117401123,69.6937484741211,-80.4827270507812,32.9802627563476,766701384
sw,-65.5095748901367,72.5612335205078,-79.9153518676757,31.474998474121,766718051
sw,-67.0383682250976,66.9323425292968,-79.3996353149414,28.9376506805419,766734718
sw,-68.299819946289,34.9853897094726,-79.0130538940429,21.7523937225341,766751385
sw,-69.3358459472656,19.7511711120605,-78.8016281127929,10.8255586624145,766768052
sw,-69.2834548950195,-31.9275074005126,-78.6697158813476,5.69417238235473,766784719
sw,-69.083625793457,-15.9080352783203,-78.6289749145507,0.0409230254590511,766801386
sw,-69.4160385131836,18.6455707550048,-78.822151184082,-14.0444908142089,766818053
sw,-70.8143539428711,63.3578872680664,-79.3953475952148,-36.5970878601074,766834720
sw,-72.2936859130859,78.2373352050781,-80.5534210205078,-71.3608245849609,766851387
sw,-73.0912094116211,44.5196800231933,-82.3589782714843,-109.327201843261,766868054
sw,-73.7510604858398,30.9706401824951,-84.6456604003906,-136.881378173828,766884721
sw,-74.6758575439453,23.3524456024169,-87.6755294799804,-182.046524047851,766901388
sw,-75.8988418579101,22.5802001953125,-88.4512405395507,-230.297042846679,766918055
sw,-77.2196960449218,47.1133384704589,-84.3737106323242,-241.007278442382,766934722
sw,-78.4668960571289,48.7471656799316,-80.0888900756836,-246.035522460937,766951389
sw,-79.494400024414,24.6497459411621,-76.9093933105468,-182.34358215332,766968056
sw,-80.677978515625,46.471508026123,-74.6882781982421,-137.844146728515,766984723
sw,-82.1610870361328,89.2903976440429,-72.5061645507812,-138.600845336914,767001390
sw,-83.3804092407226,69.4825820922851,-70.1204681396484,-148.881576538085,767018057
sw,-84.478775024414,36.0947036743164,-67.6846694946289,-149.893508911132,767034724
sw,-85.6553039550781,41.1357498168945,-65.2789764404296,-146.524490356445,767051391
sw,-86.7163391113281,52.8985748291015,-62.9099311828613,-143.26106262207,767068058
sw,-87.5122604370117,49.09370803833,-60.7663078308105,-129.174102783203,767084725
sw,-88.1435470581054,37.0820274353027,-59.0026512145996,-105.825981140136,767101392
sw,-88.6090011596679,30.2396411895751,-57.7613258361816,-74.16796875,767118059
sw,-88.6630859375,28.7066631317138,-56.8568954467773,-54.0514068603515,767134726
sw,-88.2677688598632,29.5379428863525,-56.1515388488769,-42.3924827575683,767151393
sw,-87.5984954833984,33.8410758972168,-55.5938110351562,-34.6112937927246,767168060
sw,-86.894302368164,31.6793746948242,-54.948013305664,-42.4612274169921,767184727
sw,-86.2196502685546,27.4610900878906,-54.5437202453613,-28.3362922668457,767201394
sw,-85.5497970581054,26.1986293792724,-54.6140899658203,-0.369770675897598,767218061
sw,-84.8501434326171,28.7877960205078,-55.2584991455078,34.1688270568847,767234728
sw,-84.1577224731445,28.6514072418212,-57.0026893615722,103.393600463867,767251395
sw,-83.4939270019531,25.1409931182861,-59.5634422302246,154.842193603515,767268062
sw,-82.8188095092773,24.5814590454101,-62.1115951538085,150.024765014648,767284729
sw,-82.1660919189453,23.7482013702392,-64.2626495361328,122.54280090332,767301396
sw,-81.5771789550781,20.7551040649414,-66.0496978759765,100.409461975097,767318063
sw,-81.0496597290039,16.9254112243652,-67.209602355957,63.2628097534179,767334730
sw,-80.5446014404296,15.0627136230468,-68.0328750610351,43.5087814331054,767351397
sw,-80.0428619384765,15.7552585601806,-68.3727340698242,15.1358461380004,767368064
sw,-79.5771179199218,15.2511739730834,-68.2483215332031,-11.4874372482299,767384731
sw,-79.1220703125,17.0541706085205,-68.2833023071289,-1.08391916751861,767401398
sw,-78.7187347412109,16.4719467163085,-68.6620941162109,17.7652702331542,767418065
sw,-78.39501953125,12.6039628982543,-70.1095352172851,81.244155883789,767434732
sw,-78.1617660522461,6.30169010162353,-71.9020080566406,104.160346984863,767451399
sw,-78.005630493164,1.22818219661712,-72.6575851440429,46.5094604492187,767468066
sw,-77.9900588989257,-6.90984964370727,-72.6204071044921,2.7326054573059,767484733
sw,-78.1364135742187,-14.4334812164306,-72.8184280395507,13.6005764007568,767501400
sw,-78.5432662963867,-25.4551544189453,-73.5178756713867,38.8653030395507,767518067
sw,-79.3134155273437,-39.4207229614257,-74.3894729614257,44.443618774414,767534734
sw,-80.4243087768554,-50.2192993164062,-75.1736526489257,31.9783115386962,767551401
sw,-81.9381027221679,-65.3365631103515,-76.0694580078125,42.5793838500976,767568068
sw,-83.6769638061523,-70.4299545288086,-77.1884765625,61.7065658569335,767584735
sw,-85.4852523803711,-77.7492294311523,-78.4327697753906,71.1491546630859,767601402
sw,-87.0114212036132,-92.3968276977539,-79.5756454467773,67.971694946289,767618069
sw,-86.9048385620117,-101.452270507812,-80.6122970581054,64.2871856689453,767634736
sw,-85.2093200683593,-115.551460266113,-81.6049194335937,60.927146911621,767651403
sw,-82.9680404663086,-133.643692016601,-82.6712951660156,60.575870513916,767668070
sw,-80.6901092529296,-137.41682434082,-83.8315277099609,62.6767196655273,767684737
sw,-78.3929138183593,-145.220550537109,-85.0002136230468,64.4578247070312,767701404
sw,-75.9252853393554,-158.881713867187,-86.1117401123046,64.3886337280273,767718071
sw,-73.435546875,-150.376876831054,-87.1197509765625,61.3695526123046,767734738
sw,-71.2375793457031,-123.360649108886,-88.092788696289,62.6176719665527,767751405
sw,-69.2019805908203,-107.894889831542,-88.9008636474609,58.9494590759277,767768072
sw,-67.4648132324218,-84.54150390625,-89.2101898193359,47.7712936401367,767784739
sw,-66.1141738891601,-56.64302444458,-88.8835525512695,43.9121589660644,767801406
sw,-64.9962921142578,-45.9162254333496,-88.2914352416992,41.6174430847168,767818073
sw,-63.9982719421386,-43.4715499877929,-87.6656875610351,37.2612762451171,767834740
sw,-63.0178108215332,-48.8015098571777,-87.038459777832,35.2232398986816,767851407
sw,-62.1355628967285,-47.0645408630371,-86.380859375,36.5611915588378,767868074
sw,-61.3905868530273,-45.1292343139648,-85.7153625488281,36.6973686218261,767884741
sw,-60.7835884094238,-45.5912704467773,-85.0207443237304,38.1114501953125,767901408
sw,-60.3649749755859,-40.893440246582,-84.3393630981445,36.9767303466796,767918075
sw,-60.2426300048828,-29.6706218719482,-83.6299057006836,38.622314453125,767934742
sw,-60.5384483337402,-3.34805226325988,-82.8769378662109,42.1063194274902,767951409
sw,-61.1852531433105,21.1616497039794,-82.1301193237304,42.7290115356445,767968076
sw,-61.9006271362304,16.5370349884033,-81.4790573120117,37.1510429382324,767984743
sw,-63.0802536010742,48.2587966918945,-80.870132446289,34.2706756591796,768001410
sw,-64.5629959106445,67.1308059692382,-80.2878112792968,32.2463836669921,768018077
sw,-66.0289764404296,72.2417678833007,-79.7537994384765,29.5068035125732,768034744
sw,-67.1848526000976,50.8233299255371,-79.3074493408203,24.8717155456542,768051411
sw,-68.0293960571289,16.4702644348144,-78.992317199707,16.8574981689453,768068078
sw,-68.4603195190429,-8.35206699371337,-78.8453521728515,6.42977094650268,768084745
sw,-68.1904602050781,-31.5986099243164,-78.8231048583984,-1.58284282684326,768101412
sw,-68.05712890625,-11.7297439575195,-78.8788757324218,-6.53044080734252,768118079
sw,-68.6382217407226,11.4525032043457,-79.1342010498046,-18.4639053344726,768134746
sw,-70.2252502441406,55.9382095336914,-79.7407073974609,-39.0546569824218,768151413
sw,-71.8018417358398,79.1421813964843,-80.8415069580078,-67.8559341430664,768168080
sw,-72.5950317382812,47.7851066589355,-82.4403839111328,-96.8498306274414,768184747
sw,-73.2062911987304,38.3064918518066,-84.4864120483398,-122.483352661132,768201414
sw,-74.0686721801757,34.1514511108398,-87.1714630126953,-161.346130371093,768218081
sw,-75.2593765258789,31.8019828796386,-89.2755737304687,-205.394470214843,768234748
sw,-76.7232360839843,52.6690559387207,-85.564338684082,-222.668151855468,768251415
sw,-78.152229309082,56.7402076721191,-81.359619140625,-240.638748168945,768268082
sw,-79.6339721679687,55.736473083496,-78.0192108154296,-190.234817504882,768284749
sw,-80.9782943725586,52.7563591003418,-76.0270309448242,-120.743743896484,768301416
sw,-82.3439178466796,71.0120239257812,-73.9337844848632,-132.965301513671,768318083
sw,-83.595474243164,80.1373519897461,-71.5662384033203,-149.637649536132,768334750
sw,-84.6349105834961,65.9838104248046,-69.2557983398437,-143.893005371093,768351417
sw,-85.513671875,35.7200660705566,-67.1121215820312,-131.170547485351,768368084
sw,-86.3599777221679,19.6354446411132,-64.9514923095703,-131.262298583984,768384751
sw,-87.1264953613281,14.9747867584228,-62.9471931457519,-121.43302154541,768401418
sw,-87.831558227539,24.5677528381347,-61.1926002502441,-105.796600341796,768418085
sw,-88.3459014892578,39.5496559143066,-59.9458923339843,-74.7976531982421,768434752
sw,-88.522102355957,40.114948272705,-58.9793243408203,-57.6459846496582,768451419
sw,-88.2138137817382,39.4790306091308,-58.3092651367187,-39.1829452514648,768468086
sw,-87.5408248901367,41.2895355224609,-57.9081344604492,-23.1064167022705,768484753
sw,-86.8268890380859,36.734317779541,-57.2385215759277,-41.5170021057128,768501420
sw,-86.1702423095703,30.3425178527832,-56.4802703857421,-48.1753005981445,768518087
sw,-85.533935546875,27.1277275085449,-55.9822769165039,-33.4469985961914,768534754
sw,-84.8882980346679,26.9787712097167,-55.6951103210449,-22.4975814819335,768551421
sw,-84.2138900756836,28.4542140960693,-56.033348083496,16.1187667846679,768568088
sw,-83.5397796630859,27.7476253509521,-57.2423858642578,73.2475509643554,768584755
sw,-82.9288711547851,23.3444023132324,-59.3550605773925,126.430725097656,768601422
sw,-82.3716964721679,19.6088542938232,-61.7445068359375,140.884368896484,768618089
sw,-81.8015441894531,19.9790248870849,-63.4487686157226,96.9314804077148,768634756
sw,-81.1775131225586,23.733341217041,-64.9948425292968,86.5375518798828,768651423
sw,-80.5747909545898,23.1512374877929,-66.4818115234375,83.8045883178711,768668090
sw,-80.0101470947265,22.6318092346191,-67.431900024414,51.6823768615722,768684757
sw,-79.473274230957,21.7910232543945,-67.8946304321289,21.3538455963134,768701424
sw,-78.9576568603515,21.79758644104,-67.9552841186523,-1.54139292240142,768718091
sw,-78.4797592163086,21.0499725341796,-68.1229934692382,5.95950317382812,768734758
sw,-78.1092834472656,15.3042631149292,-68.6486740112304,26.7300357818603,768751425
sw,-77.8441696166992,8.25668430328369,-70.133674621582,85.0144882202148,768768092
sw,-77.6489715576171,3.73802733421325,-71.6119766235351,87.4506225585937,768784759
sw,-77.5243453979492,0.0688283368945121,-71.8984298706054,20.5785388946533,768801426
sw,-77.5198822021484,-6.79605197906494,-71.833740234375,3.08144617080688,768818093
sw,-77.6865768432617,-16.4240894317626,-72.0125579833984,13.1719398498535,768834760
sw,-78.0938491821289,-27.4418544769287,-72.7795944213867,38.2544479370117,768851427
sw,-78.8163757324218,-39.7476119995117,-73.9123840332031,54.9595413208007,768868094
sw,-79.8982391357421,-53.8458595275878,-75.08251953125,55.6865196228027,768884761
sw,-81.4265747070312,-73.7160415649414,-76.2738494873046,64.362922668457,768901428
sw,-83.3190155029296,-89.8292388916015,-77.5456390380859,72.4540252685546,768918095
sw,-85.4552841186523,-101.225227355957,-78.8036041259765,72.5753479003906,768934762
sw,-87.6434936523437,-110.667640686035,-79.9334869384765,67.0630111694336,768951429
sw,-87.9652938842773,-115.157020568847,-81.0148010253906,67.0830078125,768968096
sw,-85.7774810791015,-118.667335510253,-81.9437561035156,57.6754074096679,768984763
sw,-83.3232650756836,-117.785095214843,-82.8727493286132,53.4359970092773,769001430
sw,-80.9805831909179,-119.754119873046,-83.8767700195312,54.0955352783203,769018097
sw,-78.6183776855468,-130.00830078125,-84.9988403320312,61.7234725952148,769034764
sw,-76.2703704833984,-131.771377563476,-86.2353286743164,71.4472198486328,769051431
sw,-74.0883483886718,-117.154899597167,-87.3596649169921,67.286636352539,769068098
sw,-72.0510787963867,-101.945655822753,-88.3460159301757,59.2029113769531,769084765
sw,-70.1250305175781,-94.4524536132812,-89.1311492919921,49.3571052551269,769101432
sw,-68.4186859130859,-77.7256240844726,-89.5670471191406,40.7472648620605,769118099
sw,-66.9202728271484,-70.4819030761718,-89.1602401733398,41.3622207641601,769134766
sw,-65.6577377319336,-63.1994323730468,-88.3825149536132,45.569595336914,769151433
sw,-64.5830764770507,-58.7367668151855,-87.5532760620117,46.7048988342285,769168100
sw,-63.5384635925293,-63.5741806030273,-86.7743301391601,43.6686630249023,769184767
sw,-62.57515335083,-64.5436935424804,-86.0097351074218,43.4600601196289,769201434
sw,-61.8295860290527,-55.1337738037109,-85.2596740722656,42.8539810180664,769218101
sw,-61.2125778198242,-53.3699264526367,-84.6078796386718,36.710277557373,769234768
sw,-60.7868728637695,-50.3465690612793,-83.9863052368164,34.3827400207519,769251435
sw,-60.6409530639648,-39.4915885925293,-83.3990936279296,31.4183712005615,769268102
sw,-60.7758522033691,-23.363052368164,-82.8310012817382,30.0923080444335,769284769
sw,-61.0245933532714,-16.4352588653564,-82.2069396972656,34.4871368408203,769301436
sw,-61.5201301574707,0.038540955632925,-81.5752258300781,36.2146949768066,769318103
sw,-62.3443145751953,20.9791545867919,-80.9460983276367,36.5306930541992,769334770
sw,-63.5656013488769,50.7636184692382,-80.3587570190429,33.7027473449707,769351437
sw,-64.7516784667968,52.1670875549316,-79.8352966308593,29.6508426666259,769368104
sw,-65.6219482421875,33.0030632019043,-79.4583282470703,20.596580505371,769384771
sw,-66.254409790039,8.39112949371337,-79.2723693847656,8.76668262481689,769401438
sw,-67.1499786376953,14.4310474395751,-79.1409759521484,4.93056154251098,769418105
sw,-67.6093215942382,-2.4279305934906,-78.9127655029296,10.4856901168823,769434772
sw,-67.6601638793945,-13.7950277328491,-78.6555786132812,12.3614921569824,769451439
sw,-67.9282531738281,-0.412453651428222,-78.5563125610351,3.39824652671813,769468106
sw,-69.109390258789,45.4416007995605,-78.7330780029296,-12.5251092910766,769484773
sw,-70.8652954101562,85.377571105957,-79.2550811767578,-32.8380661010742,769501440
sw,-72.0337753295898,62.8772964477539,-80.2663116455078,-62.1641960144043,769518107
sw,-72.7924575805664,41.1337051391601,-81.8965454101562,-98.8827667236328,769534774
sw,-73.5141983032226,37.7126083374023,-84.0641937255859,-129.623962402343,769551441
sw,-74.2871170043945,22.5767650604248,-86.7946624755859,-163.392639160156,769568108
sw,-75.4617767333984,37.5425834655761,-89.737564086914,-202.155700683593,769584775
sw,-76.793701171875,49.7342224121093,-86.1631927490234,-215.298187255859,769601442
sw,-78.1116409301757,48.4796485900878,-82.4290771484375,-216.190460205078,769618109
sw,-79.3243408203125,43.0137290954589,-79.3136367797851,-182.544509887695,769634776
sw,-80.6595687866211,58.1087493896484,-76.7534713745117,-158.026672363281,769651443
sw,-82.2252197265625,82.0675048828125,-74.1761016845703,-162.41242980957,769668110
sw,-83.6915283203125,78.9115753173828,-71.8526153564453,-146.527084350585,769684777
sw,-84.9854660034179,54.4980010986328,-69.8279113769531,-126.398704528808,769701444
sw,-86.1714248657226,42.0867347717285,-67.8953704833984,-119.438697814941,769718111
sw,-87.2735824584961,44.3569297790527,-66.1490707397461,-107.111427307128,769734778
sw,-88.2345352172851,42.4094276428222,-64.6780319213867,-90.0498046875,769751445
sw,-89.0816574096679,39.0441398620605,-63.4386672973632,-77.0234298706054,769768112
sw,-90.0,32.9712982177734,-62.5223007202148,-58.4641799926757,769784779
sw,-89.3367691040039,30.1986942291259,-61.695930480957,-54.2615127563476,769801446
sw,-88.4350204467773,35.69287109375,-60.8207321166992,-58.5699119567871,769818113
sw,-87.5084838867187,40.9318313598632,-59.7307624816894,-72.535888671875,769834780
sw,-86.6896209716796,36.1286811828613,-58.5407333374023,-78.6269989013671,769851447
sw,-85.9697341918945,31.5072803497314,-57.5944175720214,-62.4861984252929,769868114
sw,-85.2689437866211,32.742748260498,-57.1456985473632,-30.8448066711425,769884781
sw,-84.5966644287109,31.5277881622314,-57.1831283569335,0.286049097776412,769901448
sw,-83.9432754516601,27.472915649414,-57.4836235046386,17.1787090301513,769918115
sw,-83.3102111816406,23.4533634185791,-58.3083267211914,51.2285728454589,769934782
sw,-82.7306671142578,17.2022800445556,-60.236831665039,119.947853088378,769951449
sw,-82.1513519287109,17.2026634216308,-62.0627479553222,112.285766601562,769968116
sw,-81.5412139892578,22.1958808898925,-63.5168113708496,85.6331329345703,769984783
sw,-80.9064254760742,25.6772689819335,-65.0177841186523,85.8599395751953,770001450
sw,-80.3478546142578,21.2049980163574,-66.1755676269531,63.2688369750976,770018117
sw,-79.8913497924804,15.4967470169067,-67.030517578125,44.5576477050781,770034784
sw,-79.5215988159179,10.8854341506958,-67.9713058471679,51.0802688598632,770051451
sw,-79.1648406982421,10.3488931655883,-68.5496139526367,30.4431190490722,770068118
sw,-78.8226776123046,10.0723934173583,-68.8428192138671,13.582067489624,770084785
sw,-78.5371551513671,6.63522863388061,-69.2417907714843,20.4395637512207,770101452
sw,-78.3350067138671,2.30632305145263,-70.3156204223632,61.8400001525878,770118119
sw,-78.2115402221679,-0.426469087600708,-71.8593521118164,91.9078216552734,770134786
sw,-78.1162643432617,0.771233618259429,-72.7196273803711,53.7419471740722,770151453
sw,-78.1169128417968,-2.3600058555603,-72.7288284301757,3.47678756713867,770168120
sw,-78.2933959960937,-12.9173231124877,-72.7932891845703,4.03935670852661,770184787
sw,-78.7082901000976,-27.2710723876953,-73.3764495849609,27.7265224456787,770201454
sw,-79.4484786987304,-42.0971755981445,-74.3311767578125,48.0935440063476,770218121
sw,-80.6493301391601,-60.1832427978515,-75.3468704223632,52.4335784912109,770234788
sw,-82.3285217285156,-78.5475845336914,-76.2869110107421,50.805076599121,770251455
sw,-84.3667526245117,-90.4325637817382,-77.3225631713867,58.8362274169921,770268122
sw,-86.7799758911132,-105.273391723632,-78.4272003173828,63.3916358947753,770284789
sw,-89.5042572021484,-106.82942199707,-79.4709014892578,61.7489013671875,770301456
sw,-87.6133728027343,-101.494972229003,-80.4895858764648,62.2571945190429,770318123
sw,-84.9209823608398,-86.5452651977539,-81.4883041381836,60.4602470397949,770334790
sw,-82.4364166259765,-93.6048507690429,-82.5174560546875,58.7030944824218,770351457
sw,-80.0644760131836,-114.297752380371,-83.7219924926757,66.7206344604492,770368124
sw,-77.669075012207,-133.633209228515,-85.1116027832031,79.7699356079101,770384791
sw,-75.2620849609375,-141.263153076171,-86.3786926269531,74.7539443969726,770401458
sw,-72.8740310668945,-137.152313232421,-87.4103393554687,62.8351402282714,770418125
sw,-70.5050964355468,-132.81721496582,-88.3492126464843,60.3319969177246,770434792
sw,-68.3504028320312,-116.826560974121,-89.1084747314453,55.8644065856933,770451459
sw,-66.581916809082,-90.4188003540039,-89.3382568359375,44.9963493347168,770468126
sw,-65.242805480957,-62.9844055175781,-88.876220703125,42.2482185363769,770484793
sw,-64.1891860961914,-44.9666366577148,-88.1029815673828,46.6417579650878,770501460
sw,-63.3308181762695,-34.7134437561035,-87.3143081665039,44.8159828186035,770518127
sw,-62.514720916748,-39.5851440429687,-86.5640182495117,42.1522979736328,770534794
sw,-61.7724304199218,-42.2851943969726,-85.9203796386718,35.6437149047851,770551461
sw,-61.1786460876464,-40.5422325134277,-85.2389373779296,38.2644271850585,770568128
sw,-60.6068725585937,-49.7976150512695,-84.5889053344726,36.0644454956054,770584795
