Label,Left_Hip_q,Right_Hip_q,Left_Hip_qd,Right_Hip_qd,SampleTimeFine
uw,-10.7525043487548,-37.6655158996582,1.32813584804534,-0.573237776756286,2341322591
uw,-10.3197841644287,-38.794090270996,1.4626688187529215,-0.1324940508886182,2341339258
uw,-9.8850421905517,-39.8452987670898,1.5536343477479766,-0.13958099012397684,2341355925
uw,-9.4684181213378,-40.853416442871,1.6581765496367664,-0.17096780902725242,2341372592
uw,-9.0892467498779,-41.8488807678222,1.7821506275448384,-0.2415606209692093,2341389259
uw,-8.7270622253417,-42.8003921508789,1.9242515055915521,-0.3516993080459829,2341405926
uw,-8.3951873779296,-43.6583442687988,2.0756888740913135,-0.48678902366328863,2341422593
uw,-8.0801486968994,-44.4494094848632,2.2221802458907205,-0.6220967109188396,2341439260
uw,-7.7447872161865,-45.1891403198242,2.347599885303231,-0.7306618304166876,2341455927
uw,-7.3406753540039,-45.9046516418457,2.438190424456355,-0.7914849002330968,2341472594
uw,-6.9182224273681,-46.62642288208,2.4863049615238837,-0.795490870371842,2341489261
uw,-6.509521484375,-47.3357734680175,2.4929790765627526,-0.7478065462642534,2341505928
uw,-6.0458850860595,-47.9400253295898,2.468840593770714,-0.6661565087141945,2341522595
uw,-5.5811290740966,-48.3358879089355,2.432840358619465,-0.5763222733192856,2341539262
uw,-5.1480808258056,-48.5297393798828,2.4083934691013513,-0.5063480500049836,2341555929
uw,-4.7441692352294,-48.5399131774902,2.4171697021987697,-0.4812397701768906,2341572596
uw,-4.3717060089111,-48.3628997802734,2.4718435621152723,-0.5191981220379939,2341589263
uw,-4.0324382781982,-48.0350112915039,2.569962047095185,-0.6292852077946769,2341605930
uw,-3.7724151611328,-47.5508460998535,2.6911337946729663,-0.8095643327800133,2341622597
uw,-3.5104694366455,-46.9316787719726,2.7989459969741515,-1.0448444769853031,2341639264
uw,-3.2022037506103,-46.2210350036621,2.8477549838795158,-1.3043133556311892,2341655931
uw,-2.8686447143554,-45.3590774536132,2.793158056890481,-1.5409140207202856,2341672598
uw,-2.4716701507568,-44.244514465332,2.6037840651314466,-1.695257357348429,2341689265
uw,-1.9319915771484,-43.0565567016601,2.2713413246575254,-1.7063176521751375,2341705932
uw,-1.4150676727294,-42.0716247558593,1.8160359859571786,-1.5289141362611127,2341722599
uw,-1.0386657714843,-40.9154090881347,1.2856521417772981,-1.1544648965863178,2341739266
uw,-0.762351989746001,-39.2994117736816,0.7483268194841258,-0.6275833973406603,2341755933
uw,-0.755382537841701,-38.2070350646972,0.2806102896518578,-0.048321168611125204,2341772600
uw,-0.931148529052699,-38.4086532592773,-0.04673720563522364,0.44879682027604345,2341789267
uw,-1.1718788146972,-38.6459274291992,-0.18255102720261165,0.7389137972268973,2341805934
uw,-1.7162494659423,-38.1328697204589,-0.10598337155096568,0.7587727054904093,2341822601
uw,-2.4544486999511,-36.5325088500976,0.1685644098303612,0.5393276277896264,2341839268
uw,-3.415901184082,-34.767292022705,0.5943203806855197,0.19693971790907952,2341855935
uw,-4.5231742858886,-33.3976020812988,1.1027029031333135,-0.11622210996082327,2341872602
uw,-5.8819675445556,-32.2177352905273,1.6184989180316272,-0.27763411713134617,2341889269
uw,-7.2920265197753,-31.0001144409179,2.0748587834219956,-0.24292026008184292,2341905936
uw,-8.5664405822753,-29.7352828979492,2.4239855615498174,-0.056476554433162476,2341922603
uw,-9.6713600158691,-28.4130191802978,2.6416174504253376,0.1758753466421868,2341939270
uw,-10.7541046142578,-27.0126857757568,2.7253917071168274,0.33534790229478195,2341955937
uw,-12.0271644592285,-25.7028732299804,2.68830649081119,0.33680486237255014,2341972604
uw,-13.5695304870605,-24.5538063049316,2.549481626717213,0.15562821962218853,2341989271
uw,-15.3254699707031,-23.5160026550292,2.3256229578895646,-0.17138978472137878,2342005938
uw,-17.1559982299804,-22.4841079711914,2.0269575686113535,-0.5657147638591044,2342022605
uw,-19.0486221313476,-21.4602794647216,1.6596016701265934,-0.9356550006937854,2342039272
uw,-20.8794288635253,-20.5028018951416,1.2327163523509868,-1.2026942657933306,2342055939
uw,-22.7287063598632,-19.6430530548095,0.7657231752740127,-1.3189432356312152,2342072606
uw,-24.7148513793945,-18.8878459930419,0.29062095199790466,-1.2739439904124275,2342089273
uw,-26.7571144104003,-18.2085819244384,-0.1526950617661372,-1.0921568674347584,2342105940
uw,-29.0159645080566,-17.4888343811035,-0.5262152140324221,-0.8238202257695927,2342122607
uw,-31.4351921081543,-16.7394180297851,-0.804141631004629,-0.5323463108397823,2342139274
uw,-33.7305564880371,-15.9801740646362,-0.9791967300455048,-0.2814062976951374,2342155941
uw,-35.976261138916,-15.2376327514648,-1.0626671343645298,-0.12422332970280091,2342172608
uw,-37.9794692993164,-14.5952157974243,-1.0790808077843057,-0.0963089710423018,2342189275
uw,-39.7756156921386,-13.9908542633056,-1.0586688521463603,-0.21150724698879786,2342205942
uw,-41.3991813659668,-13.2139492034912,-1.0310496448937094,-0.46062072189544795,2342222609
uw,-42.8532104492187,-12.3820466995239,-1.0219735012728046,-0.8124423963196488,2342239276
uw,-44.1966323852539,-11.6701793670654,-1.0526311281405452,-1.2179637851464826,2342255943
uw,-45.3971405029296,-11.0589094161987,-1.139469410372957,-1.6185367345756063,2342272610
uw,-46.5615768432617,-10.4429931640625,-1.2925730780114295,-1.9572999106478894,2342289277
uw,-47.6736221313476,-9.87902736663818,-1.5121869182457297,-2.1912013166591717,2342305944
uw,-48.612434387207,-9.34857177734375,-1.78476618464526,-2.3000060727002167,2342322611
uw,-49.5125961303711,-8.8780460357666,-2.0810062940481755,-2.289538385415702,2342339278
uw,-50.3669662475586,-8.43460655212402,-2.358170402556878,-2.188538218493539,2342355945
uw,-51.0569610595703,-7.95034456253051,-2.567780405916128,-2.04060326235552,2342372612
uw,-51.5592269897461,-7.41475009918212,-2.667734316636963,-1.89369682427156,2342389279
uw,-51.9237213134765,-6.85479497909545,-2.635780433874005,-1.7896305968675021,2342405946
uw,-52.1827087402343,-6.32784271240234,-2.479868480359248,-1.7554867218749852,2342422613
uw,-52.2887420654296,-5.84903287887573,-2.241037217491285,-1.7985687467708027,2342439280
uw,-52.1633148193359,-5.36725044250488,-1.9864734710859613,-1.9059784207751838,2342455947
uw,-51.6512374877929,-4.86965942382812,-1.7935719868923556,-2.0490121115736133,2342472614
uw,-50.7393417358398,-4.39282703399658,-1.728972281151077,-2.191374138099749,2342489281
uw,-49.7192077636718,-3.90465402603149,-1.8284729804704822,-2.2991536636080463,2342505948
uw,-48.7349548339843,-3.37167954444885,-2.083920308612425,-2.349995472831868,2342522615
uw,-47.9268417358398,-2.80883455276489,-2.4417846439458026,-2.339047565086257,2342539282
uw,-47.2245483398437,-2.19539308547973,-2.8155597133524886,-2.279994614700548,2342555949
uw,-46.4116744995117,-1.49846065044403,-3.1105683856316433,-2.2006044742742987,2342572616
uw,-45.5146713256836,-0.761659383773803,-3.2553023296328925,-2.133585854690734,2342589283
uw,-44.8992462158203,-0.0603703409433364,-3.228659666902069,-2.1050167075987853,2342605950
uw,-44.4512786865234,0.511027038097381,-3.069768503400238,-2.1237608737124023,2342622617
uw,-44.2188491821289,0.880598962306976,-2.8608042000213656,-2.1755356483762065,2342639284
uw,-44.0564346313476,0.801425993442535,-2.685914802027866,-2.2242179715824095,2342655951
uw,-42.8391876220703,0.324327319860458,-2.585879051429106,-2.2207987900960187,2342672618
uw,-41.6616630554199,-0.293658465147018,-2.5354037291156724,-2.117883585421039,2342689285
uw,-40.7491302490234,-1.1952006816864,-2.4585830322479385,-1.8856849790363366,2342705952
uw,-39.6367874145507,-2.53256797790527,-2.2741964679050453,-1.5247360006691923,2342722619
uw,-38.5489425659179,-4.29114055633544,-1.9440650245096331,-1.071310301680992,2342739286
uw,-37.3398971557617,-6.37255764007568,-1.4973988036675374,-0.5934369714193953,2342755953
uw,-36.0095520019531,-8.72353744506836,-1.0198991553630405,-0.17778439043407743,2342772620
uw,-34.6244583129882,-11.2077684402465,-0.6163555689930553,0.08992092231200827,2342789287
uw,-33.1653137207031,-13.670087814331,-0.3677793744229534,0.1461685094135704,2342805954
uw,-31.6894264221191,-15.9372386932373,-0.30345879649708024,-0.033337836635796834,2342822621
uw,-30.218894958496,-18.0039615631103,-0.397398453024999,-0.4262386833322204,2342839288
uw,-28.8849296569824,-20.015380859375,-0.5853308686829105,-0.9679618386689633,2342855955
uw,-27.6629066467285,-22.0616722106933,-0.7905035467310295,-1.566242771966199,2342872622
uw,-26.509708404541,-24.091718673706,-0.9465134408359134,-2.120713489262845,2342889289
uw,-25.4368362426757,-26.107322692871,-1.0109239211865706,-2.5418809847597976,2342905956
uw,-24.473949432373,-28.1638793945312,-0.9694065099616979,-2.7655271312256877,2342922623
uw,-23.6324119567871,-30.2958641052246,-0.8333622226905483,-2.7610007427474033,2342939290
uw,-22.8209419250488,-32.5507164001464,-0.6340119044993513,-2.533447711506748,2342955957
uw,-22.0156440734863,-34.7075767517089,-0.41444929411697645,-2.1205237082677044,2342972624
uw,-21.2164154052734,-36.7188720703125,-0.22006302494181193,-1.5844359141560136,2342989291
uw,-20.4551773071289,-38.7041625976562,-0.08801177611786222,-1.0008598141883815,2343005958
uw,-19.7424583435058,-40.5600318908691,-0.037689609122740865,-0.4469716351498968,2343022625
uw,-19.0072479248046,-42.445686340332,-0.06509957316049678,0.009211835279241538,2343039292
uw,-18.2831916809082,-44.2769470214843,-0.1436339256792147,0.3168697934833097,2343055959
uw,-17.662181854248,-45.9679412841796,-0.231759302378154,0.44749086891163936,2343072626
uw,-17.1723823547363,-47.5571060180664,-0.28546443221438017,0.39722338694377707,2343089293
uw,-16.7768440246582,-49.0803527832031,-0.271467624867313,0.18648179452372846,2343105960
uw,-16.4375877380371,-50.6813812255859,-0.1769948082753929,-0.14339972412408117,2343122627
uw,-16.2224426269531,-52.3474388122558,-0.013287918676223509,-0.5364984959198252,2343139294
uw,-16.0288467407226,-53.956314086914,0.18790403572505493,-0.9309754660130922,2343155961
uw,-15.6584701538085,-55.445686340332,0.3835682984102433,-1.268606922610457,2343172628
uw,-15.1923027038574,-56.7114295959472,0.5316946515788831,-1.5032749703029278,2343189295
uw,-14.6772384643554,-57.7874717712402,0.6032675063094193,-1.6069019025125102,2343205962
uw,-14.2998428344726,-58.6385345458984,0.5908972854077988,-1.572282154258382,2343222629
uw,-13.9121780395507,-59.2651405334472,0.5118231758736977,-1.4131204494908676,2343239296
uw,-13.4606590270996,-59.773323059082,0.4042900264507962,-1.1618259865638423,2343255963
uw,-12.9506568908691,-60.1606559753418,0.31788333640881333,-0.8653616209636966,2343272630
uw,-12.4397659301757,-60.4134330749511,0.30004251917503494,-0.579175556491271,2343289297
uw,-11.8794174194335,-60.5252304077148,0.38227237614478987,-0.3592734413999989,2343305964
uw,-11.2426490783691,-60.563117980957,0.5700844255869512,-0.2528737985188667,2343322631
uw,-10.6156196594238,-60.5156478881835,0.8400074167910552,-0.2887706560713128,2343339298
uw,-10.026683807373,-60.3750953674316,1.1449676441370833,-0.46933263053542157,2343355965
uw,-9.4670715332031,-60.1020317077636,1.426481475609783,-0.7665857499313912,2343372632
uw,-8.9176578521728,-59.6558837890625,1.6296766900726956,-1.1245351060573328,2343389299
uw,-8.401309967041,-59.0035171508789,1.7164227889474748,-1.468550616666794,2343405966
uw,-7.8301372528076,-58.0431861877441,1.6730873265138386,-1.7206269503043419,2343422633
uw,-7.1557598114013,-56.7063636779785,1.5117522259209397,-1.817425269802875,2343439300
uw,-6.4355525970459,-55.1540718078613,1.265829845532069,-1.726979632156351,2343455967
uw,-5.6604652404785,-53.6168251037597,0.9821361968842148,-1.460056975985699,2343472634
uw,-4.8884677886962,-52.1846351623535,0.7116097075412862,-1.0730355344379154,2343489301
uw,-4.1580638885498,-50.5516395568847,0.5004549928722787,-0.6602554604052747,2343505968
uw,-3.5495853424072,-48.6322937011718,0.3829809997743894,-0.33509391456109744,2343522635
uw,-3.1715545654296,-46.6062049865722,0.3769747885768542,-0.20134962585736926,2343539302
uw,-3.1238269805908,-45.3904800415039,0.48206615093103944,-0.3204491679355724,2343555969
uw,-3.3473052978515,-45.4294242858886,0.681097113674927,-0.6843341840289715,2343572636
uw,-3.8673057556152,-45.1831703186035,0.9439562493204227,-1.2060029829827819,2343589303
uw,-4.8119163513183,-44.4137420654296,1.2327485884661598,-1.736881464901808,2343605970
uw,-6.2269039154052,-43.2941207885742,1.506905638787914,-2.111033858509805,2343622637
uw,-8.0137863159179,-42.0175094604492,1.7273021339889294,-2.202837629772613,2343639304
uw,-9.7170505523681,-40.9495010375976,1.8594614047374836,-1.9747073319736912,2343655971
uw,-11.2261085510253,-39.9663543701171,1.8766872200281024,-1.4930978158630748,2343672638
uw,-12.6591453552246,-39.0081481933593,1.7638324194017179,-0.9049338037291543,2343689305
uw,-14.2019119262695,-38.0494308471679,1.5215036762765146,-0.3845039911391987,2343705972
uw,-16.0044517517089,-37.0660858154296,1.1693118369646969,-0.07311916057640915,2343722639
uw,-17.9583549499511,-36.0855293273925,0.7459409168332841,-0.035538263883132956,2343739306
uw,-19.9214324951171,-35.051643371582,0.3040985306546094,-0.24835355904147302,2343755973
uw,-22.0058097839355,-33.9070625305175,-0.09980026028215253,-0.6204205812565868,2343772640
uw,-24.2326889038085,-32.6639709472656,-0.41885829043709466,-1.031680997236379,2343789307
uw,-26.5871276855468,-31.2963848114013,-0.6277804365621186,-1.3716858604769373,2343805974
uw,-29.1671104431152,-29.7543220520019,-0.7298287682441191,-1.56445802195035,2343822641
uw,-31.8136940002441,-28.1099281311035,-0.756279294675317,-1.5767787592368285,2343839308
uw,-34.2833061218261,-26.4838562011718,-0.7583878283046848,-1.4149638891555831,2343855975
uw,-36.5731697082519,-24.9861812591552,-0.7941455039864432,-1.1167868516413915,2343872642
uw,-38.8166389465332,-23.570478439331,-0.9135032898744834,-0.7420824966124535,2343889309
uw,-41.0538787841796,-22.1839790344238,-1.1458441085617566,-0.3621155366391224,2343905976
uw,-43.2388916015625,-20.8572082519531,-1.4924611123115863,-0.04703245063315052,2343922643
uw,-45.2836227416992,-19.5640830993652,-1.9252827871327265,0.1475128726893,2343939310
uw,-47.2722549438476,-18.2944736480712,-2.3916731521218324,0.19138227585304057,2343955977
uw,-49.1621475219726,-17.0471820831298,-2.8240989000604237,0.0851075622453596,2343972644
uw,-50.9515991210937,-15.8692665100097,-3.1527722833566236,-0.14253241010787318,2343989311
uw,-52.599006652832,-14.7649993896484,-3.319009328149845,-0.4434707188239668,2344005978
uw,-54.0559997558593,-13.7926321029663,-3.2870462751131093,-0.7627518782894821,2344022645
uw,-55.2772750854492,-12.90265750885,-3.0523636908184257,-1.0507518677954504,2344039312
uw,-56.3312530517578,-12.0384616851806,-2.6449053441436834,-1.2723211820315907,2344055979
uw,-57.2542648315429,-11.2103223800659,-2.1258995135678647,-1.41119808531807,2344072646
uw,-57.9431991577148,-10.4390659332275,-1.5777426446291376,-1.4694181220493239,2344089313
uw,-58.4430236816406,-9.73020935058593,-1.0880080462896833,-1.4628364751301621,2344105980
uw,-58.7326583862304,-9.03894329071045,-0.7307584370905904,-1.4148674211167582,2344122647
uw,-58.8726119995117,-8.30068683624267,-0.5499379180141015,-1.3505534562098551,2344139314
uw,-58.8220672607421,-7.58359336853027,-0.549749852598393,-1.2921348271373672,2344155981
uw,-58.6901931762695,-6.90574502944946,-0.6953603878664435,-1.2561948618310395,2344172648
uw,-58.6553649902343,-6.26441621780395,-0.9244531624837249,-1.2520008129511666,2344189315
uw,-58.5956115722656,-5.62216329574585,-1.1668552186506358,-1.2809197361710474,2344205982
uw,-58.3495941162109,-5.01459455490112,-1.3665460692644806,-1.3372003516430178,2344222649
uw,-57.8685913085937,-4.44590711593627,-1.4988823961885978,-1.4103826729258093,2344239316
uw,-57.3460845947265,-3.88415956497192,-1.5767372067830336,-1.4890054345334975,2344255983
uw,-56.7531204223632,-3.31549072265625,-1.6426793838458902,-1.56450195284683,2344272650
uw,-56.0310134887695,-2.82905220985412,-1.7493797815765693,-1.6337609077421535,2344289317
uw,-55.0335083007812,-2.50755810737609,-1.9352076041712771,-1.6991707753596585,2344305984
uw,-53.7641296386718,-2.47491693496704,-2.2043635411057965,-1.766064920568849,2344322651
uw,-52.4844360351562,-2.53235864639282,-2.5196564420125998,-1.8388447944411626,2344339318
uw,-51.3126144409179,-2.46842837333679,-2.811544439163226,-1.9178790864904618,2344355985
uw,-50.1902999877929,-2.25411891937255,-3.0011042593912127,-1.9989438939641557,2344372652
uw,-48.8981170654296,-1.921839594841,-3.0293298960941253,-2.0755005644787397,2344389319
uw,-47.7294769287109,-1.68349409103393,-2.8821400721352757,-2.1422273255942734,2344405986
uw,-46.9914398193359,-1.61568748950958,-2.6004414056687275,-2.1970770508987423,2344422653
uw,-46.545669555664,-1.65403532981872,-2.2682419985913764,-2.239687260169891,2344439320
uw,-46.5868606567382,-1.89261364936828,-1.979973372706523,-2.266244746605243,2344455987
uw,-46.1229629516601,-2.53226232528686,-1.799537536687646,-2.263735300569166,2344472654
uw,-44.7831954956054,-3.54168248176574,-1.7317655474758071,-2.208100029941269,2344489321
uw,-43.2348403930664,-4.80084323883056,-1.7233708494201054,-2.069798130129063,2344505988
uw,-42.0598106384277,-6.3640923500061,-1.6938422244685913,-1.8265937307391507,2344522655
uw,-41.5020141601562,-7.96317672729492,-1.578080054259578,-1.478697343452522,2344539322
uw,-40.8811988830566,-9.62375164031982,-1.3564407820982347,-1.0584880066295896,2344555989
uw,-39.9151763916015,-11.3725090026855,-1.0582287120960823,-0.6282217768241074,2344572656
uw,-38.8503227233886,-13.1420173645019,-0.7421098623123539,-0.264381887423478,2344589323
uw,-37.8308219909668,-14.9702348709106,-0.46846962973645223,-0.03388289280322124,2344605990
uw,-36.7854309082031,-16.899356842041,-0.2786090153997573,0.028539788481203848,2344622657
uw,-35.7639427185058,-19.1501770019531,-0.18731820639479613,-0.06715034568279767,2344639324
uw,-34.7719192504882,-21.9292621612548,-0.18632865691455971,-0.2684927756252796,2344655991
uw,-33.7906074523925,-24.9611434936523,-0.25195545097400873,-0.4964446821249064,2344672658
uw,-32.8006591796875,-27.9085960388183,-0.3516476138666269,-0.6694203721716316,2344689325
uw,-31.8308792114257,-30.544319152832,-0.4482898742488664,-0.7276621908144866,2344705992
uw,-30.8468360900878,-32.7068061828613,-0.5043675698232105,-0.6505396393145152,2344722659
uw,-29.8766784667968,-34.5244674682617,-0.48846558703972803,-0.46188487035187925,2344739326
uw,-28.9041023254394,-36.4326820373535,-0.3841791586947878,-0.22220469030420684,2344755993
uw,-28.0048217773437,-38.7044830322265,-0.19828051621184528,-0.010419936943671111,2344772660
uw,-27.1826858520507,-41.030647277832,0.03659938437257559,0.09941170849180266,2344789327
uw,-26.3371429443359,-43.2262001037597,0.2679960842843251,0.0598020154805636,2344805994
uw,-25.496524810791,-45.3424415588378,0.43766676516635034,-0.13596966522412074,2344822661
uw,-24.7332382202148,-47.3104743957519,0.499145192095739,-0.45096671130492566,2344839328
uw,-23.9791793823242,-49.0185203552246,0.4327075840876297,-0.8137082470300003,2344855995
uw,-23.2369270324707,-50.7027626037597,0.25291277873607587,-1.1366306835286728,2344872662
uw,-22.4950828552246,-52.3375167846679,0.006770571696957152,-1.3385720277027764,2344889329
uw,-21.7180976867675,-53.8839874267578,-0.23654070978518182,-1.3648596740375138,2344905996
uw,-21.0046272277832,-55.3169593811035,-0.4016381106259991,-1.1995534315200391,2344922663
uw,-20.3472938537597,-56.7212944030761,-0.4249674466691857,-0.8671374331807004,2344939330
uw,-19.5641746520996,-58.1841430664062,-0.2709500149018893,-0.4243912683119864,2344955997
uw,-18.829231262207,-59.6836891174316,0.05774928887666075,0.054060659511108555,2344972664
uw,-18.182029724121,-61.1034469604492,0.5190858326664871,0.49185121825176953,2344989331
uw,-17.5563278198242,-62.3208580017089,1.0407700216217257,0.824456535917939,2345005998
uw,-16.8532447814941,-63.2991485595703,1.5375730228668416,1.0077264260918248,2345022665
uw,-16.1769638061523,-63.9640045166015,1.9317749804070918,1.0209130832835938,2345039332
uw,-15.5889549255371,-64.497314453125,2.17070530157274,0.8656444260282826,2345055999
uw,-15.008430480957,-64.8564529418945,2.2366362732096854,0.5631801085809124,2345072666
uw,-14.4371948242187,-64.9953536987304,2.147100894793321,0.15166227634707616,2345089333
uw,-13.8895797729492,-65.0026779174804,1.946803645784004,-0.3166174275218906,2345106000
uw,-13.4270324707031,-64.9714889526367,1.6946302416903984,-0.7793869053773792,2345122667
uw,-13.057559967041,-64.9578704833984,1.4500398206986094,-1.1716079889078577,2345139334
uw,-12.718578338623,-64.9071426391601,1.262170425079003,-1.4360521234650958,2345156001
uw,-12.3549995422363,-64.7545852661132,1.1631020730847614,-1.5355646328431845,2345172668
uw,-11.9342803955078,-64.4722213745117,1.165119795904334,-1.4637189554907208,2345189335
uw,-11.4362697601318,-64.0628051757812,1.26116268695171,-1.2501083161954458,2345206002
uw,-10.8790740966796,-63.5448493957519,1.4277450690342224,-0.957483785439952,2345222669
uw,-10.3186836242675,-62.8764266967773,1.629942947954728,-0.6699841908444519,2345239336
uw,-9.7424621582031,-62.0758895874023,1.8281467530498294,-0.47416736944008625,2345256003
uw,-9.1721782684326,-61.182876586914,1.9860261600157265,-0.43682907395890413,2345272670
uw,-8.5727367401123,-60.1442337036132,2.0785305420590197,-0.585208654599285,2345289337
uw,-7.8920860290527,-58.8578910827636,2.0979683695682665,-0.895648533104927,2345306004
uw,-7.1596927642822,-57.2608489990234,2.0558065814860553,-1.2955511768283423,2345322671
uw,-6.4796733856201,-55.4572830200195,1.9784800847587045,-1.6802711863256972,2345339338
uw,-5.8991222381591,-53.4798240661621,1.8974417910410606,-1.9418840324076612,2345356005
uw,-5.3274707794189,-51.4945755004882,1.8362646095604696,-2.0020719036800725,2345372672
uw,-4.6890659332275,-49.716941833496,1.7995326903925253,-1.838710778611131,2345389339
uw,-4.1671962738037,-48.1844940185546,1.7683862114625957,-1.4967700932423358,2345406006
uw,-3.7989692687988,-46.8221282958984,1.7055319831241216,-1.0789221074220616,2345422673
uw,-3.4858016967773,-45.3723945617675,1.5688621936507967,-0.7178207158176428,2345439340
uw,-3.4151268005371,-44.4652595520019,1.3290020973048524,-0.5374562002204055,2345456007
uw,-3.6232833862304,-45.3031768798828,0.984010524678783,-0.6138390478233606,2345472674
uw,-4.1869792938232,-46.2236824035644,0.5652947980054058,-0.9462431195110264,2345489341
uw,-5.0697860717773,-45.4392700195312,0.13231810880810155,-1.4497868747319325,2345506008
uw,-6.2327671051025,-44.1973457336425,-0.24174671870876205,-1.9760146434150567,2345522675
uw,-7.5064353942871,-42.9367866516113,-0.4879177281360365,-2.3583208617569067,2345539342
uw,-8.7787742614746,-41.8223648071289,-0.5570285310503795,-2.4670424179263284,2345556009
uw,-10.1489944458007,-40.8950691223144,-0.4297874526334764,-2.2528241865051326,2345572676
uw,-11.6825904846191,-40.0102500915527,-0.12112393834789568,-1.761226564102553,2345589343
uw,-13.2227325439453,-39.0131950378418,0.32005047120733926,-1.1138215774478473,2345606010
uw,-14.5751075744628,-37.8945808410644,0.8155114261279309,-0.46463393501907846,2345622677
uw,-15.7549819946289,-36.6498908996582,1.2680001278328792,0.05004893529582709,2345639344
uw,-16.9246253967285,-35.4416351318359,1.577848219004326,0.3492803786609796,2345656011
uw,-18.277847290039,-34.208511352539,1.664062987694426,0.4204863128387342,2345672678
uw,-19.7765922546386,-32.9112548828125,1.484747042197809,0.30778413964572265,2345689345
uw,-21.6008834838867,-31.5797958374023,1.0501543572156338,0.08542144910759894,2345706012
uw,-23.8264923095703,-30.2544422149658,0.42318153662594543,-0.17041628762035366,2345722679
uw,-26.2467727661132,-28.9846210479736,-0.29380413870264954,-0.40131749685494034,2345739346
uw,-28.5297584533691,-27.7523574829101,-0.9822442484609861,-0.5740396588267825,2345756013
uw,-30.7014350891113,-26.542797088623,-1.5341985488799206,-0.677506851393562,2345772680
uw,-32.5551452636718,-25.3507461547851,-1.8755831741643145,-0.7145205038549564,2345789347
uw,-34.3995628356933,-24.1924304962158,-1.9801857063285804,-0.6935656664368502,2345806014
uw,-36.3920936584472,-23.1160984039306,-1.8714064266052197,-0.6242023068765498,2345822681
uw,-37.9645919799804,-22.0667724609375,-1.6119753117844298,-0.5167439459619521,2345839348
uw,-39.5271263122558,-21.0134868621826,-1.2852774445434232,-0.38450365019573784,2345856015
uw,-41.5111274719238,-19.9987831115722,-0.9741602860975699,-0.24573161808677385,2345872682
uw,-43.6348114013671,-19.0575981140136,-0.7431215053213969,-0.12283817791280251,2345889349
uw,-45.717658996582,-18.1498317718505,-0.6277261415856452,-0.03829466534338672,2345906016
uw,-47.8120040893554,-17.2635498046875,-0.6322543163145163,-0.00877651817399347,2345922683
uw,-49.8272628784179,-16.3638839721679,-0.7342822400613969,-0.04035830895641217,2345939350
uw,-51.7150268554687,-15.4587316513061,-0.893719405621527,-0.1270566038692698,2345956017
uw,-53.4301528930664,-14.5572595596313,-1.0635625699635844,-0.2531648523005296,2345972684
uw,-54.8805694580078,-13.6187171936035,-1.1998645228296783,-0.3980192921942119,2345989351
uw,-56.2924423217773,-12.6726198196411,-1.268991183599568,-0.541126026391965,2346006018
uw,-57.4883651733398,-11.6877717971801,-1.2512587288849015,-0.6659420042888433,2346022685
uw,-58.4655838012695,-10.744662284851,-1.1414657085941995,-0.7614956911863295,2346039352
uw,-59.3739013671875,-9.82979202270507,-0.9480636768545115,-0.82208610050273,2346056019
uw,-60.1126861572265,-9.02015018463134,-0.6927851683812783,-0.846184998842529,2346072686
uw,-60.6198654174804,-8.36302661895752,-0.41112553421204573,-0.8358654179681415,2346089353
uw,-60.965950012207,-7.75446987152099,-0.1520870689645343,-0.7973091430356439,2346106020
uw,-61.1280136108398,-7.12144184112548,0.025461681784822648,-0.7417307643024795,2346122687
uw,-60.8630752563476,-6.43008613586425,0.06180745293641133,-0.6854242789307966,2346139354
uw,-60.1119842529296,-5.65039730072021,-0.08927200058538418,-0.6481000026738326,2346156021
uw,-58.8222961425781,-4.93811559677124,-0.4435958179988387,-0.649750935345916,2346172688
uw,-57.0606231689453,-4.31337547302246,-0.9722374676417656,-0.7071225605667949,2346189355
uw,-55.2395858764648,-3.63483166694641,-1.5961917124897052,-0.8310210768690603,2346206022
uw,-53.3934326171875,-2.90394473075866,-2.19589055893325,-1.0252032191555573,2346222689
uw,-51.2466659545898,-2.31985259056091,-2.6381755429942872,-1.2866639319606012,2346239356
uw,-49.1333236694336,-1.89054000377655,-2.8168113445870286,-1.6062222850373737,2346256023
uw,-48.6968307495117,-1.49334478378295,-2.6932906928584126,-1.9681063585828842,2346272690
uw,-47.8866195678711,-0.973321080207824,-2.3168676567990385,-2.3481909651900343,2346289357
uw,-48.8510360717773,-0.528881013393402,-1.805736487888879,-2.712121733284343,2346306024
uw,-49.0104598999023,-0.410906016826629,-1.2916185315125994,-3.015527570872583,2346322691
uw,-46.844970703125,-0.969205319881439,-0.8578764281612782,-3.2081675037976294,2346339358
uw,-45.0603790283203,-1.96941447257995,-0.5112627168634805,-3.242569951159995,2346356025
uw,-43.9910469055175,-3.40068507194519,-0.20462532751629356,-3.0860747090941403,2346372692
uw,-43.130256652832,-5.29420804977417,0.1101802089715357,-2.7332485143711716,2346389359
uw,-42.1956367492675,-7.7002854347229,0.43917873023790577,-2.2139056898359124,2346406026
uw,-40.7567138671875,-10.3091478347778,0.7391952764250517,-1.5919733874904598,2346422693
uw,-39.2937889099121,-12.7634687423706,0.943459809786802,-0.9533330981922596,2346439360
uw,-37.7535057067871,-15.0532217025756,0.9972166928825374,-0.3855603090588946,2346456027
uw,-36.2903747558593,-17.3498382568359,0.8818455939636439,0.043486275043455265,2346472694
uw,-34.9674186706543,-19.7592334747314,0.6196921020773358,0.30038486833858624,2346489361
uw,-33.6495475769043,-22.0634021759033,0.2645132798397223,0.389208885150552,2346506028
uw,-32.5117034912109,-24.3221855163574,-0.11338458222400032,0.34315493414739456,2346522695
uw,-31.4850845336914,-26.716173171997,-0.4413985102897841,0.20977789642582356,2346539362
uw,-30.5479278564453,-29.1457042694091,-0.6569912549872293,0.03673569721357804,2346556029
uw,-29.8245239257812,-31.5459232330322,-0.7185653923060378,-0.13695083008367068,2346572696
uw,-29.1602134704589,-33.8423805236816,-0.613979347386001,-0.28331376116848483,2346589363
uw,-28.5774345397949,-35.8800086975097,-0.3643670435875121,-0.38437857384756174,2346606030
uw,-28.0699462890625,-37.7744216918945,-0.021267713549220392,-0.43128975842749495,2346622697
uw,-27.6343345642089,-39.4748420715332,0.34307422189189124,-0.4251054323096974,2346639364
uw,-27.1342086791992,-41.0244178771972,0.6504781079047547,-0.3777052216036744,2346656031
uw,-26.5647735595703,-42.7535438537597,0.8338045350953194,-0.31005040717573606,2346672698
uw,-26.10595703125,-44.821491241455,0.8527966415660369,-0.24668917841453458,2346689365
uw,-25.5685310363769,-46.9640884399414,0.7051269305998559,-0.2083876876145382,2346706032
uw,-24.9213066101074,-48.9436416625976,0.429014552918671,-0.2064441514986136,2346722699
uw,-24.278076171875,-51.3180427551269,0.0950619761016405,-0.24128136234201497,2346739366
uw,-23.5373802185058,-53.3940315246582,-0.2117879613855703,-0.3052806951219822,2346756033
uw,-22.7746620178222,-55.2138481140136,-0.41499851798362286,-0.38755237225635936,2346772700
uw,-22.1219253540039,-57.0109748840332,-0.46603252957190056,-0.47778005439036264,2346789367
uw,-21.4967384338378,-58.5731353759765,-0.35404240992805147,-0.5674340049707817,2346806034
uw,-20.8442001342773,-59.793846130371,-0.10342904006583672,-0.6485645526378989,2346822701
uw,-20.1782722473144,-60.9291267395019,0.2377572971554058,-0.7119018841348332,2346839368
uw,-19.422679901123,-61.9590454101562,0.6126513068922675,-0.7463647177933822,2346856035
uw,-18.6539344787597,-63.03564453125,0.9681549460636013,-0.7412798230921699,2346872702
uw,-17.8634529113769,-64.3383331298828,1.262547057779662,-0.691138304316973,2346889369
uw,-17.117561340332,-65.7002639770507,1.4683657491208588,-0.6012738039868573,2346906036
uw,-16.422378540039,-66.5676651000976,1.572367466880831,-0.49202792203241474,2346922703
uw,-15.7811431884765,-66.7731552124023,1.5742819385098181,-0.39899626394293386,2346939370
uw,-15.0669326782226,-66.557861328125,1.4851029439156838,-0.36775537881455395,2346956037
uw,-14.2751655578613,-66.0331115722656,1.3247085226844568,-0.4429558612529474,2346972704
uw,-13.323673248291,-65.3066635131836,1.1183651062541642,-0.6536744926646549,2346989371
uw,-12.2226600646972,-64.4935913085937,0.892325036478346,-0.9988976739286705,2347006038
uw,-11.0933361053466,-63.5861778259277,0.6697366384424741,-1.4380522706078605,2347022705
uw,-10.053560256958,-62.4914436340332,0.4684440549301969,-1.890971186170245,2347039372
uw,-9.1867332458496,-60.9452781677246,0.3014062837677718,-2.2496859168804635,2347056039
uw,-8.4908370971679,-58.9823036193847,0.17896530147531578,-2.4016279157573766,2347072706
uw,-7.9428100585937,-56.5000686645507,0.11122635130244887,-2.260792792667027,2347089373
uw,-7.5156745910644,-53.5900077819824,0.10904664098629001,-1.8003018225117797,2347106040
uw,-7.3158302307128,-50.4604682922363,0.1831531378770348,-1.0766163328748157,2347122707
uw,-7.3200359344482,-47.386962890625,0.34178914020294315,-0.23357067872660434,2347139374
uw,-7.4703426361084,-44.436164855957,0.5875044497436768,0.5237182188329242,2347156041
uw,-8.012710571289,-44.5652389526367,0.9135225296532751,0.9860600256016714,2347172708
uw,-8.7499237060546,-46.5617408752441,1.3001441832597032,1.013848529223581,2347189375
uw,-9.8552894592285,-46.8885841369628,1.71213144335607,0.5973359186656526,2347206042
uw,-11.5874404907226,-44.9435272216796,2.0986147368418795,-0.12837233197411962,2347222709
uw,-13.1924247741699,-42.7320594787597,2.397167754960068,-0.9271473875151541,2347239376
uw,-14.803840637207,-41.1429481506347,2.54287567658055,-1.548182195932629,2347256043
uw,-16.7300682067871,-40.1097259521484,2.4815163020663347,-1.8169204955311056,2347272710
uw,-18.7824592590332,-39.071361541748,2.1839381374966087,-1.6918821736400511,2347289377
uw,-20.9173393249511,-37.8406982421875,1.6573211493973048,-1.2663387783651334,2347306044
uw,-22.7609672546386,-36.4919624328613,0.9491759678719301,-0.7191058653415813,2347322711
uw,-24.3414916992187,-34.9081344604492,0.14191760198821868,-0.23994126297147772,2347339378
uw,-25.7475776672363,-33.1815032958984,-0.6611273734480129,0.03735203236311899,2347356045
uw,-27.0166206359863,-31.5961284637451,-1.3547219173320388,0.0697109109034878,2347372712
uw,-28.6135902404785,-30.1204795837402,-1.8509096240960696,-0.09877601287668014,2347389379
uw,-30.7461738586425,-28.597692489624,-2.094063741300448,-0.3688153176042395,2347406046
uw,-33.0119094848632,-27.2064476013183,-2.069241330894135,-0.628950940471248,2347422713
uw,-35.3704223632812,-26.0213508605957,-1.8034452541944639,-0.793733600114506,2347439380
uw,-37.6043014526367,-25.0392723083496,-1.3608856276635548,-0.8265085332468378,2347456047
uw,-39.7829132080078,-24.143720626831,-0.8335781881382545,-0.742742834998926,2347472714
uw,-41.7554168701171,-23.2842864990234,-0.32804855194221155,-0.5960772552965851,2347489381
uw,-43.5193443298339,-22.4137706756591,0.05132706550287515,-0.4542587843853767,2347506048
uw,-44.8720932006836,-21.611909866333,0.22091286790541176,-0.37424986312360503,2347522715
uw,-45.9043731689453,-20.8580493927001,0.13518377781979057,-0.38461736403848573,2347539382
uw,-46.8839340209961,-20.0954704284667,-0.20154823486482026,-0.4797314261053069,2347556049
uw,-47.6566696166992,-19.3310470581054,-0.7330653192152219,-0.6258196642890196,2347572716
uw,-48.2482604980468,-18.6150188446044,-1.3605753586790459,-0.7749936404893465,2347589383
uw,-48.7292327880859,-17.8973770141601,-1.962105402656671,-0.8813426176320194,2347606050
uw,-49.0677032470703,-17.1832122802734,-2.418119124496952,-0.9136792657738464,2347622717
uw,-49.1580810546875,-16.4640102386474,-2.638207323089697,-0.8618547871395904,2347639384
uw,-49.1822891235351,-15.7310934066772,-2.5832512453638135,-0.7363222907923088,2347656051
uw,-49.0153732299804,-15.0269937515258,-2.277587049638896,-0.5626897184009817,2347672718
uw,-48.6146621704101,-14.3638792037963,-1.806815041636346,-0.3739737517138964,2347689385
uw,-48.1780014038086,-13.737205505371,-1.29956387656906,-0.20323565808300478,2347706052
uw,-47.5016326904296,-13.1615953445434,-0.8955998719928338,-0.07849663551696251,2347722719
uw,-46.3867492675781,-12.6827230453491,-0.7072112708709021,-0.020622079294070728,2347739386
uw,-44.9248657226562,-12.278221130371,-0.7844647948305887,-0.04364527117075582,2347756053
uw,-43.68310546875,-11.9170885086059,-1.096366768676196,-0.1561479780640412,2347772720
uw,-42.7015686035156,-11.6153898239135,-1.5378056841238588,-0.36201487325391785,2347789387
uw,-41.6278266906738,-11.4108877182006,-1.9650063703436222,-0.6591610830792617,2347806054
uw,-42.6438179016113,-11.4009532928466,-2.249720048872147,-1.0357436302082472,2347822721
uw,-41.5056571960449,-11.4491252899169,-2.3285807192697017,-1.4649219460650806,2347839388
uw,-41.504638671875,-11.7509994506835,-2.219859876253886,-1.9009769702964128,2347856055
uw,-41.2692031860351,-12.3953886032104,-1.9957808056718367,-2.280404612885498,2347872722
uw,-39.8041954040527,-13.5797243118286,-1.7290100379748516,-2.530464825938169,2347889389
uw,-38.9553298950195,-15.1106700897216,-1.4519561707821265,-2.584838943525875,2347906056
uw,-38.2602767944335,-17.0455951690673,-1.1563301313278749,-2.4028752120374155,2347922723
uw,-36.90425491333,-19.4856719970703,-0.8269030853643075,-1.9866741988777676,2347939390
uw,-35.659381866455,-22.2514915466308,-0.4781095572024633,-1.3897291114151444,2347956057
uw,-34.5782356262207,-25.1682338714599,-0.1650346980537942,-0.7124249413329585,2347972724
uw,-33.2365837097168,-28.1389770507812,0.03643804027715947,-0.08333725179350969,2347989391
uw,-31.9673881530761,-31.057632446289,0.06431608286796843,0.3700083745203594,2348006058
uw,-30.7732048034668,-33.9043083190918,-0.10102697328812808,0.5530977206579163,2348022725
uw,-29.6540794372558,-36.6289634704589,-0.4269012013224882,0.42944806243439837,2348039392
uw,-28.4742774963378,-39.0554847717285,-0.8373944461179699,0.030652314726497248,2348056059
uw,-27.3038024902343,-41.376781463623,-1.2348784585024344,-0.5517440478184271,2348072726
uw,-26.2935256958007,-43.4427680969238,-1.5256280260296835,-1.1896236364099844,2348089393
uw,-25.3920440673828,-45.3335037231445,-1.6424056012916715,-1.7493750329096265,2348106060
uw,-24.5280532836914,-47.3555068969726,-1.5587998455480603,-2.121676185211219,2348122727
uw,-23.7023849487304,-49.5715560913085,-1.2924421075139088,-2.2426908517119633,2348139394
uw,-22.9176750183105,-51.8060836791992,-0.8970631300877983,-2.102866398075234,2348156061
uw,-22.217472076416,-53.9175682067871,-0.446346140204703,-1.7433186479388754,2348172728
uw,-21.5586547851562,-56.0746994018554,-0.014822142134747692,-1.242769986117186,2348189395
uw,-20.868724822998,-58.2995643615722,0.3383789980951679,-0.6993728619686054,2348206062
uw,-20.2713241577148,-60.432804107666,0.5787739031292739,-0.21142210816618573,2348222729
uw,-19.7204856872558,-62.3296165466308,0.6978404487680945,0.14015587234111976,2348239396
uw,-19.1782684326171,-63.9950294494628,0.7085440774378946,0.30541833792258727,2348256063
uw,-18.5452003479003,-65.6587829589843,0.6385765639618375,0.27322043902689164,2348272730
uw,-17.9663429260253,-67.0771713256836,0.524115764304143,0.07172063858737264,2348289397
uw,-17.4696311950683,-68.2959442138671,0.405035237522492,-0.23875504024857794,2348306064
uw,-17.0036277770996,-69.2942428588867,0.3207151696777529,-0.5791436952210245,2348322731
uw,-16.5214309692382,-70.040657043457,0.30496083099203086,-0.8685848903423107,2348339398
uw,-16.1046638488769,-70.6108322143554,0.3794160499116793,-1.041377292161921,2348356065
uw,-15.7785682678222,-71.1679306030273,0.5467549383984425,-1.0605637202640907,2348372732
uw,-15.4897422790527,-71.7945327758789,0.7865400949793799,-0.9255399276111688,2348389399
uw,-15.156623840332,-72.4819869995117,1.0566972028000445,-0.6723795158708733,2348406066
uw,-14.8780288696289,-73.068733215332,1.3018243173491464,-0.3671190545056265,2348422733
uw,-14.6495666503906,-73.3767852783203,1.46685592296293,-0.09361785876555316,2348439400
uw,-14.1769371032714,-73.2440490722656,1.5121873587697658,0.06170725040867864,2348456067
uw,-13.4406242370605,-72.6186370849609,1.4253520081562587,0.02616256182981699,2348472734
uw,-12.5121192932128,-71.574104309082,1.2253240860337846,-0.2434101098461668,2348489401
uw,-11.5073146820068,-70.2167358398437,0.9581095345159089,-0.7465974445007245,2348506068
uw,-10.58078956604,-68.5309295654296,0.6851691178878702,-1.4293501952564645,2348522735
uw,-9.7478713989257,-66.4595489501953,0.4680613062269076,-2.1816582978333465,2348539402
uw,-9.0368003845214,-63.9927062988281,0.35309753532601973,-2.847605332891528,2348556069
uw,-8.5285167694091,-61.5673179626464,0.3592910064968837,-3.251081199949487,2348572736
uw,-8.2199192047119,-59.0532913208007,0.47212885192373866,-3.2362960977711848,2348589403
uw,-8.0264644622802,-56.2931785583496,0.6448986082846863,-2.7162623476246983,2348606070
uw,-7.8928852081298,-53.4908981323242,0.8081903215744979,-1.7165305310552312,2348622737
uw,-7.6951389312744,-50.3902893066406,0.8865447542415287,-0.3977337251313379,2348639404
uw,-7.5793285369873,-47.2578353881835,0.8192023849693509,0.9591884789983138,2348656071
uw,-7.8448295593261,-47.0002136230468,0.5800812302897422,2.014242079814827,2348672738
uw,-8.2050724029541,-49.1578979492187,0.1911582377474759,2.46881533348899,2348689405
uw,-9.2079391479492,-49.5921211242675,-0.27601692622761836,2.1745978209199377,2348706072
uw,-10.9929466247558,-47.4472770690918,-0.7134465350768444,1.2036114853515607,2348722739
uw,-13.0581130981445,-44.6624107360839,-1.0029179468652696,-0.16021984823481186,2348739406
uw,-14.939697265625,-42.4851722717285,-1.0489435642077534,-1.5128393854298483,2348756073
uw,-16.8112831115722,-41.121768951416,-0.808707207417511,-2.468820275220829,2348772740
uw,-18.396614074707,-40.1497573852539,-0.3094382901773932,-2.789037242782596,2348789407
uw,-19.8920021057128,-39.1404724121093,0.3526226420821968,-2.4473802704299183,2348806074
uw,-21.3736724853515,-37.5776939392089,1.0317990143996691,-1.6167077514770873,2348822741
uw,-22.9042930603027,-35.6414489746093,1.5659503189180464,-0.5891955928432476,2348839408
uw,-24.621353149414,-33.9412879943847,1.8145098977371585,0.3302215217807233,2348856075
uw,-26.5841598510742,-32.5564231872558,1.6924327280187208,0.915305850046151,2348872742
uw,-28.8077278137207,-31.2093029022216,1.1918837675289875,1.0675065269896862,2348889409
uw,-31.2816658020019,-29.7296314239501,0.3859459745033443,0.8171062497824382,2348906076
uw,-33.8225975036621,-28.212697982788,-0.587374021005115,0.28882980589082524,2348922743
uw,-36.1566886901855,-26.8025493621826,-1.5573524112799784,-0.34849451903013356,2348939410
uw,-38.1367797851562,-25.6484680175781,-2.3605425533443682,-0.9306469620704013,2348956077
uw,-39.8941955566406,-24.6402549743652,-2.8775755926382667,-1.3339516525961848,2348972744
uw,-41.633975982666,-23.6300182342529,-3.05690502448255,-1.4939275004400927,2348989411
uw,-43.395523071289,-22.6059551239013,-2.9200066799311326,-1.4072823562723185,2349006078
uw,-45.1800918579101,-21.6644783020019,-2.5483306377088444,-1.1212366855495963,2349022745
uw,-46.8982391357421,-20.8667125701904,-2.057346601954751,-0.7156881912188907,2349039412
uw,-48.4314041137695,-20.157974243164,-1.5658713498319936,-0.283489972638194,2349056079
uw,-49.9008636474609,-19.4754810333251,-1.169075979515826,0.08731840286647405,2349072746
uw,-51.3309860229492,-18.7347393035888,-0.9214966881970545,0.327211608904016,2349089413
uw,-52.6282196044921,-17.8828582763671,-0.8328410827817858,0.3940536319964665,2349106080
uw,-53.833625793457,-16.9334659576416,-0.8754821359691792,0.2771908240695687,2349122747
uw,-54.8623428344726,-15.9901456832885,-0.9994175786061557,-0.0029114692774615046,2349139414
uw,-55.6380996704101,-15.1600675582885,-1.149056931315109,-0.39923697314070966,2349156081
uw,-56.1833953857421,-14.4222383499145,-1.2768261323373413,-0.8467485110848203,2349172748
uw,-56.542724609375,-13.6668195724487,-1.3508456471037202,-1.2740883870063555,2349189415
uw,-56.8830795288086,-12.9424991607666,-1.3567968575237066,-1.6165603674686664,2349206082
uw,-57.1809616088867,-12.3872289657592,-1.2962761592262004,-1.8275931913660943,2349222749
uw,-57.4703750610351,-12.0770235061645,-1.1845050424708774,-1.886015871376763,2349239416
uw,-57.7517852783203,-11.9619464874267,-1.0490365664771022,-1.7977739612887011,2349256083
uw,-58.04638671875,-11.9124393463134,-0.9288220259257552,-1.5924180243538375,2349272750
uw,-58.2920303344726,-11.8921527862548,-0.8711232149430332,-1.3158406888611671,2349289417
uw,-58.541519165039,-11.8980693817138,-0.9236905083041579,-1.020998722393342,2349306084
uw,-58.7727890014648,-11.8190603256225,-1.1218011862655668,-0.7581601241742686,2349322751
uw,-58.608901977539,-11.5782842636108,-1.473139895833852,-0.5661226413583318,2349339418
uw,-58.0624923706054,-11.2081623077392,-1.946158353125304,-0.46593751560239777,2349356085
uw,-57.4480667114257,-10.8191499710083,-2.467841632921689,-0.45855942365607105,2349372752
uw,-56.8254165649414,-10.4784345626831,-2.934430364903088,-0.5271514414821785,2349389419
uw,-55.8467178344726,-10.2100830078125,-3.234636766178895,-0.6435198714493321,2349406086
uw,-54.6824264526367,-10.01362991333,-3.2807332079834324,-0.776838787923372,2349422753
uw,-53.5983123779296,-9.91175937652587,-3.039668873451173,-0.9021323164324437,2349439420
uw,-52.8164825439453,-9.92251300811767,-2.5545551131520607,-1.0062242230927294,2349456087
uw,-53.0754623413086,-9.95108890533447,-1.9466384815483193,-1.089725341910774,2349472754
uw,-52.6614685058593,-9.9892873764038,-1.3900947212192591,-1.1645834091304905,2349489421
uw,-53.0251541137695,-10.065463066101,-1.0590669181849344,-1.2475752313492892,2349506088
uw,-53.5338745117187,-10.1925477981567,-1.060165570778627,-1.351063217771547,2349522755
uw,-52.767822265625,-10.4296178817749,-1.3791089156118617,-1.4735385776984977,2349539422
uw,-51.1374282836914,-11.0096321105957,-1.873569373534048,-1.5935988342253675,2349556089
uw,-50.1404571533203,-11.7768201828002,-2.3248553759006882,-1.6710691619270595,2349572756
uw,-49.2403869628906,-12.9127492904663,-2.526987483242526,-1.6570532345922315,2349589423
uw,-48.4725341796875,-14.5272016525268,-2.368187154926901,-1.5110466115276773,2349606090
uw,-47.6428451538086,-16.2216987609863,-1.865764490131631,-1.2194663065854834,2349622757
uw,-46.4540176391601,-17.792724609375,-1.1449336623341868,-0.8080321683018851,2349639424
uw,-45.2523727416992,-19.2105865478515,-0.3816455825337055,-0.34168405297550164,2349656091
uw,-44.129409790039,-20.5214519500732,0.25932557413364743,0.08991495355377552,2349672758
uw,-42.9559288024902,-21.8590641021728,0.6676961442380415,0.3973750654633865,2349689425
uw,-41.8080406188964,-23.3901252746582,0.804491823783804,0.5184315451788012,2349706092
uw,-40.6018180847168,-25.2810001373291,0.6964560650009515,0.43675950438272393,2349722759
uw,-39.3417892456054,-27.1950798034667,0.416889664716967,0.1858839089959317,2349739426
uw,-38.0233306884765,-29.2516918182373,0.06137358795910124,-0.16270680532833176,2349756093
uw,-36.7559852600097,-31.2045879364013,-0.27548230980757005,-0.5220693785313896,2349772760
uw,-35.4955253601074,-33.0545043945312,-0.5185060374790288,-0.8144209413056536,2349789427
uw,-34.3064727783203,-34.8355979919433,-0.6236752232588662,-0.9898762728543367,2349806094
uw,-33.2075233459472,-36.6494140625,-0.5822213660109414,-1.0347731123632797,2349822761
uw,-32.2058486938476,-38.4372749328613,-0.41712229723403893,-0.9692682766230124,2349839428
uw,-31.2852706909179,-40.126106262207,-0.17307328206582195,-0.8369410625780456,2349856095
uw,-30.3446159362793,-41.9109001159668,0.09755818599907044,-0.6903205675800331,2349872762
uw,-29.4721870422363,-43.8596076965332,0.3490714260352007,-0.5760829589213451,2349889429
uw,-28.7102317810058,-45.9368553161621,0.5530481279496545,-0.5230607481751899,2349906096
uw,-27.9675521850585,-48.041088104248,0.7022682079669115,-0.5355625297811071,2349922763
uw,-27.2485046386718,-50.1339569091796,0.8071687950846157,-0.5935335089243635,2349939430
uw,-26.6222419738769,-52.2869491577148,0.8867908002272157,-0.6594971963423348,2349956097
uw,-26.0391311645507,-54.3085250854492,0.9582661352546613,-0.6903282665463454,2349972764
uw,-25.5772247314453,-56.2164115905761,1.0293244007290472,-0.6505110897652744,2349989431
uw,-25.1106185913085,-57.9917564392089,1.0966475909474767,-0.523239952029403,2350006098
uw,-24.6050987243652,-59.5595092773437,1.1500129207638687,-0.3165119653952995,2350022765
uw,-24.1531982421875,-60.9050979614257,1.1796470379060882,-0.06280026802528156,2350039432
uw,-23.792251586914,-62.04638671875,1.1832486467898493,0.18752927654226484,2350056099
uw,-23.4794006347656,-62.982624053955,1.1697832915040747,0.37751052276359276,2350072766
uw,-23.1833953857421,-63.8467102050781,1.1587224336681676,0.457025110146355,2350089433
uw,-22.9025077819824,-64.7156524658203,1.1751187848755131,0.3953721578793212,2350106100
uw,-22.6530075073242,-65.5675811767578,1.242240944429367,0.19009894745601622,2350122767
uw,-22.3877601623535,-66.3617324829101,1.374143853333148,-0.12994372846777877,2350139434
uw,-22.0964851379394,-67.0961227416992,1.5704586796088975,-0.508130097859688,2350156101
uw,-21.6908073425293,-67.7949142456054,1.814956997155231,-0.8697357466496412,2350172768
uw,-21.240005493164,-68.3638000488281,2.0783149316763163,-1.1362993241593573,2350189435
uw,-20.7883644104003,-68.7668914794921,2.324273108467794,-1.2423547188251773,2350206102
uw,-20.2632331848144,-68.9983444213867,2.517394206289767,-1.1514414245080355,2350222769
uw,-19.612018585205,-69.1072769165039,2.6302328906726373,-0.8677685314673994,2350239436
uw,-18.8893966674804,-69.1200180053711,2.6482086318926195,-0.4400711952766472,2350256103
uw,-18.1663246154785,-69.0213851928711,2.571626710730098,0.0445802740272492,2350272770
uw,-17.5566444396972,-68.7864837646484,2.415415180482945,0.4770599999278466,2350289437
uw,-17.0264892578125,-68.4406127929687,2.207468132300204,0.749929161303116,2350306104
uw,-16.5040130615234,-68.0229873657226,1.9858680534696629,0.7835776348129744,2350322771
uw,-16.0047531127929,-67.5529632568359,1.7943897886583215,0.5482119912992086,2350339438
uw,-15.4911918640136,-66.952766418457,1.6755273873673033,0.07522909324947061,2350356105
uw,-14.8784217834472,-66.2260360717773,1.6612374186155077,-0.5464818765052035,2350372772
uw,-14.1533889770507,-65.4735488891601,1.7631752054636383,-1.190015832718455,2350389439
uw,-13.3586807250976,-64.8744659423828,1.965467217567861,-1.7216267003983758,2350406106
uw,-12.5847663879394,-64.1501998901367,2.2232508875920445,-2.0349993266267177,2350422773
uw,-11.7639598846435,-62.9616622924804,2.4690468227265456,-2.0776769264253008,2350439440
uw,-10.8859691619873,-61.2278938293457,2.6267368514290514,-1.8604833158984708,2350456107
uw,-10.076093673706,-59.0576820373535,2.6302260191668765,-1.4471776861328034,2350472774
uw,-9.4153156280517,-56.6058959960937,2.4417919755029973,-0.9303024314121023,2350489441
uw,-8.9075870513916,-53.963768005371,2.0645304827484696,-0.40540301535340684,2350506108
uw,-8.4231262207031,-50.9653816223144,1.5445574861646134,0.045241209697754955,2350522775
uw,-8.0171756744384,-48.0521240234375,0.9616277092833838,0.3570295129088444,2350539442
uw,-8.0341510772705,-47.1757774353027,0.41087060098042605,0.48342152703686003,2350556109
uw,-7.9511394500732,-48.3724098205566,-0.018288256044358787,0.4020601150968246,2350572776
uw,-8.0319633483886,-48.2886886596679,-0.2593779043357918,0.12717438501915243,2350589443
uw,-8.8457088470459,-46.9037971496582,-0.2783706152068269,-0.28243152671159905,2350606110
uw,-9.9732608795166,-45.0959129333496,-0.07535129114747444,-0.7314951295713849,2350622777
uw,-11.140718460083,-43.9138717651367,0.31931810759195295,-1.1137601139422642,2350639444
uw,-12.3713150024414,-42.9503898620605,0.8518405479837329,-1.3441867581135283,2350656111
uw,-13.496223449707,-41.8174285888671,1.4531571274646211,-1.3831546311713507,2350672778
uw,-14.5404167175293,-40.7676734924316,2.0474542088902767,-1.2425108072843236,2350689445
uw,-15.5957412719726,-39.7518157958984,2.5603874622585816,-0.9727564509808784,2350706112
uw,-16.8489723205566,-38.5452766418457,2.926834854933676,-0.6398902818883019,2350722779
uw,-18.3236503601074,-37.2366905212402,3.0984045499398407,-0.3044509979285724,2350739446
uw,-20.1590690612793,-35.972183227539,3.050687654572653,-0.011563291600690452,2350756113
uw,-22.150779724121,-34.791030883789,2.789045726438792,0.20795616161933445,2350772780
uw,-24.1601104736328,-33.6002693176269,2.3503944205373917,0.3324436297106124,2350789447
uw,-26.1018180847168,-32.5104103088378,1.7984409974642563,0.3475451905546521,2350806114
uw,-28.0373306274414,-31.5844345092773,1.2117679222964084,0.24960557526165492,2350822781
uw,-30.0422019958496,-30.6156673431396,0.6671266929830294,0.05047014514917887,2350839448
uw,-32.1248397827148,-29.7507705688476,0.22267089176998892,-0.22155166050953853,2350856115
uw,-34.1545906066894,-28.9852294921875,-0.09362462431629534,-0.5268893119609681,2350872782
uw,-36.2476196289062,-28.2884349822998,-0.28673284732315124,-0.8243137575740878,2350889449
uw,-38.2323570251464,-27.5805168151855,-0.3879817487216487,-1.0807528671438535,2350906116
uw,-40.236156463623,-26.956838607788,-0.44175530976627114,-1.2772047753898508,2350922783
uw,-42.2421264648437,-26.4418125152587,-0.4902486152646418,-1.4086749561309382,2350939450
uw,-44.1905136108398,-25.9018535614013,-0.5614538159185597,-1.4790723613410224,2350956117
uw,-46.2109222412109,-25.293249130249,-0.6642516357731619,-1.4945692461242432,2350972784
uw,-48.2421188354492,-24.5916862487792,-0.7917311943577575,-1.4595353812394227,2350989451
uw,-50.1962966918945,-23.8749446868896,-0.9304260802298094,-1.3772016966366174,2351006118
uw,-52.0283126831054,-23.154104232788,-1.0705164731623524,-1.2538271506167962,2351022785
uw,-53.7053756713867,-22.3602981567382,-1.2117366587149376,-1.1027183300296315,2351039452
uw,-55.1785659790039,-21.4445304870605,-1.3620738271387476,-0.9448115541865851,2351056119
uw,-56.52587890625,-20.421911239624,-1.5300460823187487,-0.8052224994975475,2351072786
uw,-57.6647262573242,-19.3972511291503,-1.7144326147680735,-0.707796570129804,2351089453
uw,-58.8375244140625,-18.4453163146972,-1.896453724238886,-0.6702773510542935,2351106120
uw,-60.053970336914,-17.5738449096679,-2.0383702866738895,-0.7014648456007205,2351122787
uw,-61.233657836914,-16.7650279998779,-2.089982158494346,-0.8002877919782159,2351139454
uw,-62.4056320190429,-16.0136032104492,-2.001616195585977,-0.9561539134261978,2351156121
uw,-63.6049041748046,-15.292179107666,-1.739928042044876,-1.1501219725076315,2351172788
uw,-64.7942504882812,-14.5617589950561,-1.3019007517794954,-1.3567738749783589,2351189455
uw,-66.0262985229492,-13.8149013519287,-0.7229921089871527,-1.5468625493522998,2351206122
uw,-67.2931823730468,-13.0836277008056,-0.07708453114924091,-1.6908074459700941,2351222789
uw,-68.2442016601562,-12.3647937774658,0.5319912937640725,-1.762860976114413,2351239456
uw,-68.8763885498046,-11.6775150299072,0.9858274506607713,-1.745374774920628,2351256123
uw,-69.2099456787109,-11.0485544204711,1.1713331705779781,-1.6323390563731386,2351272790
uw,-69.164680480957,-10.4205570220947,1.0028085883237883,-1.4314471217425297,2351289457
uw,-68.6408767700195,-9.77142810821533,0.44387565719827826,-1.164268634165934,2351306124
uw,-67.5321655273437,-9.06993865966796,-0.47406864581853625,-0.864496844645648,2351322791
uw,-65.5980682373046,-8.36082172393798,-1.6422382063110808,-0.5745404872116983,2351339458
uw,-62.9208297729492,-7.81095647811889,-2.8805060826332087,-0.34090401648036905,2351356125
uw,-60.0293579101562,-7.46634006500244,-3.9646438832884736,-0.20880925361543637,2351372792
uw,-56.6441345214843,-7.23678636550903,-4.675134422372826,-0.21641385998372242,2351389459
uw,-52.8054885864257,-7.03062391281127,-4.859702343555173,-0.38892712303150884,2351406126
uw,-49.3876113891601,-6.86033535003662,-4.492196180518156,-0.7330158146208431,2351422793
uw,-47.7943572998046,-6.75693655014038,-3.7024732930231794,-1.232132759279385,2351439460
uw,-47.2770080566406,-6.78345012664794,-2.7518129710926384,-1.8437707112084532,2351456127
uw,-49.1451034545898,-7.12554931640625,-1.9456275304748245,-2.500053166871873,2351472794
uw,-49.3086853027343,-7.82862281799316,-1.5109433435223985,-3.113182510923069,2351489461
uw,-46.6333312988281,-8.49548625946045,-1.4991664982792894,-3.5866048672178654,2351506128
uw,-44.4285354614257,-9.33610916137695,-1.7720865498217855,-3.8311655565939815,2351522795
uw,-42.8962478637695,-10.5219011306762,-2.0818522097440817,-3.7835285189623526,2351539462
uw,-42.6235466003418,-11.9506206512451,-2.1970230401624145,-3.4227073909435117,2351556129
uw,-41.9537239074707,-13.5606756210327,-2.0030428741580173,-2.780403198132374,2351572796
uw,-40.727252960205,-15.2305965423583,-1.5308879476449027,-1.9417795343094488,2351589463
uw,-39.3606643676757,-16.6835193634033,-0.9158978277537808,-1.0347390701938306,2351606130
uw,-37.9879035949707,-17.6615486145019,-0.3235359793988373,-0.20770168778154197,2351622797
uw,-36.8632698059082,-18.2073554992675,0.11637704500381615,0.4010916412928322,2351639464
uw,-35.8579597473144,-18.546588897705,0.343030625645808,0.6958254267362312,2351656131
uw,-34.7759132385253,-19.015338897705,0.3641316881196795,0.6471896241660743,2351672798
uw,-33.6194763183593,-19.6665935516357,0.23419388482071476,0.29951039090245885,2351689465
uw,-32.576789855957,-20.564504623413,0.026898484847131594,-0.24238841464198058,2351706132
uw,-31.608528137207,-21.6394901275634,-0.18778512509143597,-0.8422063283334396,2351722799
uw,-30.6571769714355,-22.7325935363769,-0.35738051246197117,-1.3668245250638427,2351739466
uw,-29.7257041931152,-24.018835067749,-0.451972563099063,-1.71546103516457,2351756133
uw,-28.8052597045898,-25.5253047943115,-0.4630138570504488,-1.8362541332427371,2351772800
uw,-27.9280319213867,-27.1288566589355,-0.3983335517314427,-1.729249647874407,2351789467
uw,-27.1233520507812,-28.4776821136474,-0.2752096064893711,-1.4391232126699445,2351806134
uw,-26.3672981262207,-29.7485408782959,-0.11318071896764571,-1.041953707776083,2351822801
uw,-25.6290588378906,-31.2634487152099,0.07161472018931694,-0.6290538306146746,2351839468
uw,-24.9701385498046,-33.1251754760742,0.269131754781868,-0.2895751818609423,2351856135
uw,-24.39058303833,-35.1799087524414,0.47482096341507724,-0.09372674205139794,2351872802
uw,-23.894187927246,-37.1180191040039,0.6868113883855899,-0.07948059473092607,2351889469
uw,-23.4246711730957,-38.8269691467285,0.9027964482585995,-0.24601987576543627,2351906136
uw,-22.898582458496,-40.4219360351562,1.1183586304722293,-0.5558917754105346,2351922803
uw,-22.3435974121093,-42.0691452026367,1.3274060089694797,-0.945274876284886,2351939470
uw,-21.8493843078613,-43.7480506896972,1.524119999979183,-1.3393076293954687,2351956137
uw,-21.3681526184082,-45.438377380371,1.7050182210565124,-1.6682321619757503,2351972804
uw,-20.8242988586425,-47.1130828857421,1.8697405249604786,-1.880483953158108,2351989471
uw,-20.2377662658691,-48.7492866516113,2.0198995537538833,-1.9502629371262117,2352006138
uw,-19.6764259338378,-50.2761840820312,2.1564477866204923,-1.8787460650998085,2352022805
uw,-19.1685485839843,-51.6767082214355,2.276954707897266,-1.689482553851766,2352039472
uw,-18.6750259399414,-52.9019050598144,2.3744586634665565,-1.4196475118390905,2352056139
uw,-18.1696548461914,-53.8365478515625,2.438999213322853,-1.109740236532861,2352072806
uw,-17.6841583251953,-54.5431632995605,2.461760543780583,-0.7947106162958728,2352089473
uw,-17.200080871582,-55.1273918151855,2.440399408243963,-0.4990087682021891,2352106140
uw,-16.7097930908203,-55.645637512207,2.383168095806793,-0.23666909521909038,2352122807
uw,-16.1968383789062,-56.1448974609375,2.3094444945404535,-0.015704223609862605,2352139474
uw,-15.7025604248046,-56.5597305297851,2.2454671861462563,0.15555051772294784,2352156141
uw,-15.2485313415527,-56.8953781127929,2.2160698854269056,0.2633294986778108,2352172808
uw,-14.7820587158203,-57.2071266174316,2.2351861281789085,0.28738962119858247,2352189475
uw,-14.2693138122558,-57.5391311645507,2.298934068856652,0.20527717523638814,2352206142
uw,-13.7237854003906,-57.8703422546386,2.38455315596977,0.0008426854603307856,2352222809
uw,-13.1965103149414,-58.1353340148925,2.4563326333418822,-0.3262389914315946,2352239476
uw,-12.6972618103027,-58.2738571166992,2.4767695509826577,-0.7541535018834493,2352256143
uw,-12.3343963623046,-58.257526397705,2.4189183999779633,-1.2390963241632704,2352272810
uw,-12.0543975830078,-58.0417938232421,2.2754000309633016,-1.7224984184875343,2352289477
uw,-11.7914752960205,-57.5866355895996,2.0609695729959174,-2.1428614494102045,2352306144
uw,-11.5531997680664,-56.9327926635742,1.8080114771279034,-2.4478848564507443,2352322811
uw,-11.2707366943359,-56.1366310119628,1.5566076021549924,-2.6029168123667095,2352339478
uw,-10.8710823059082,-55.201000213623,1.3421314304270617,-2.593947424032601,2352356145
uw,-10.3945331573486,-54.1002197265625,1.183627762073856,-2.426018453552682,2352372812
uw,-9.8986167907714,-52.8460502624511,1.0759749476958,-2.1196715184752843,2352389479
uw,-9.446964263916,-51.4754295349121,0.9883253516558551,-1.7082693289698097,2352406146
uw,-9.1255054473876,-50.0204010009765,0.870479156962734,-1.2378392490384758,2352422813
uw,-8.7669429779052,-48.4668006896972,0.6673135755513208,-0.7689580693892868,2352439480
uw,-8.375410079956,-46.6744041442871,0.3390023230446444,-0.3775533811884292,2352456147
uw,-8.406774520874,-45.1038856506347,-0.11811412444362326,-0.14900141836322156,2352472814
uw,-8.7721824645996,-45.136302947998,-0.6575121044456839,-0.15962142087035452,2352489481
uw,-9.64400100708,-46.0688323974609,-1.1831391232606645,-0.44533898194035754,2352506148
uw,-10.9998245239257,-46.5318183898925,-1.5691997853006459,-0.9695727632686834,2352522815
uw,-12.5675659179687,-45.1291694641113,-1.6962125781055242,-1.6124158464419387,2352539482
uw,-13.9099617004394,-43.533447265625,-1.4919154424795271,-2.1976251065025196,2352556149
uw,-15.0795555114746,-42.4788589477539,-0.9610323369264021,-2.5517999561309144,2352572816
uw,-16.5354423522949,-41.42333984375,-0.19120893357513014,-2.568236658908978,2352589483
uw,-18.3804092407226,-40.3431816101074,0.6676686306991447,-2.2442041519107465,2352606150
uw,-20.5267791748046,-39.2238388061523,1.442680258151199,-1.6762430779766933,2352622817
uw,-22.9441871643066,-38.0129699707031,1.9812980121270074,-1.0201968542824047,2352639484
uw,-25.4224777221679,-36.7980117797851,2.185280618592401,-0.43689538487451846,2352656151
uw,-27.8128089904785,-35.696533203125,2.026882649154868,-0.045548709098547344,2352672818
uw,-30.1906433105468,-34.7271461486816,1.546250917527228,0.10136784105555265,2352689485
uw,-32.6754455566406,-33.7697105407714,0.8342284039785397,0.018814191346322576,2352706152
uw,-35.1635856628418,-32.7623977661132,0.007317778704770559,-0.22902491191898441,2352722819
uw,-37.6506919860839,-31.8514785766601,-0.8181733486805081,-0.5561667107370235,2352739486
uw,-40.0713691711425,-31.128173828125,-1.5469212881490995,-0.88151841270706,2352756153
uw,-42.4838066101074,-30.4864921569824,-2.1166226898713063,-1.1474730489665796,2352772820
uw,-44.8265151977539,-29.7702503204345,-2.5005516145818487,-1.327209663797942,2352789487
uw,-46.9180908203125,-28.9810352325439,-2.7027658776308425,-1.421729611190226,2352806154
uw,-49.0002899169921,-28.2080745697021,-2.749688229833832,-1.450636593787947,2352822821
uw,-51.0238723754882,-27.4290866851806,-2.6815386301322968,-1.4415595679482365,2352839488
uw,-53.0761337280273,-26.6419334411621,-2.545458548806477,-1.4219365041046128,2352856155
uw,-55.1363143920898,-25.7768421173095,-2.390328628155742,-1.4145080135764165,2352872822
uw,-57.2032089233398,-24.9385890960693,-2.262293107909952,-1.4356470564822255,2352889489
uw,-59.183967590332,-24.2023296356201,-2.2001230016032727,-1.4946502223490021,2352906156
uw,-61.0755996704101,-23.4967784881591,-2.2302845167026826,-1.5926360816539933,2352922823
uw,-62.7661972045898,-22.7222003936767,-2.3623327649049233,-1.721193127743875,2352939490
uw,-64.3085632324218,-21.9376735687255,-2.585784417915127,-1.8623325466409166,2352956157
uw,-65.6630630493164,-21.1053962707519,-2.8698910998418063,-1.991566931929371,2352972824
uw,-66.7442398071289,-20.2441253662109,-3.167533010555478,-2.084574982307588,2352989491
uw,-67.4474868774414,-19.3813076019287,-3.42352871541143,-2.1255428596730312,2353006158
uw,-67.5537567138671,-18.6660594940185,-3.586156869301458,-2.113526536665075,2353022825
uw,-66.9831924438476,-17.9975337982177,-3.619237931158368,-2.0635483307871976,2353039492
uw,-66.0689163208007,-17.3519897460937,-3.511439009340375,-2.0015923023662094,2353056159
uw,-65.1111602783203,-16.7149410247802,-3.2799224990005027,-1.9556016593530172,2353072826
uw,-64.1739883422851,-16.1290702819824,-2.9669596044153517,-1.946260393283286,2353089493
uw,-63.2889022827148,-15.5347681045532,-2.6301470612203564,-1.981112208570612,2353106160
uw,-62.5022964477539,-15.0062608718872,-2.3286964558775383,-2.053895317779357,2353122827
uw,-61.805908203125,-14.5535449981689,-2.1093661636478944,-2.1487559880003455,2353139494
uw,-61.1686477661132,-14.1038036346435,-1.9957153597048476,-2.2471247605623885,2353156161
uw,-60.552131652832,-13.5535621643066,-1.9834386796646888,-2.3341786259868615,2353172828
uw,-60.0010147094726,-12.9916563034057,-2.042833088296379,-2.4022670452259716,2353189495
uw,-59.5653762817382,-12.4735403060913,-2.127577473685645,-2.4501891196310104,2353206162
uw,-59.2456359863281,-11.9442424774169,-2.1876808052313383,-2.479072788001672,2353222829
uw,-59.0569152832031,-11.4127159118652,-2.183922512495447,-2.4870509568730172,2353239496
uw,-58.9636917114257,-10.9487152099609,-2.1010198889020195,-2.465428251972908,2353256163
uw,-58.937385559082,-10.5734014511108,-1.9566614567944327,-2.3984591966538757,2353272830
uw,-58.9769515991211,-10.292329788208,-1.8034127894594485,-2.2674897226261868,2353289497
uw,-59.0292205810546,-10.0639791488647,-1.7208083161944645,-2.0585620845281287,2353306164
uw,-58.9432983398437,-9.83213424682617,-1.7964210916186512,-1.7711714473908333,2353322831
uw,-58.6769180297851,-9.55112266540527,-2.097865442553647,-1.4251231168653515,2353339498
uw,-58.1864395141601,-9.33741760253906,-2.642189317045759,-1.0626613472088533,2353356165
uw,-57.6241226196289,-9.26143550872802,-3.3733900170809172,-0.7442117453351389,2353372832
uw,-56.7500457763671,-9.26434516906738,-4.160421677152576,-0.537819244242042,2353389499
uw,-55.6606216430664,-9.19586849212646,-4.824660386535838,-0.5041349414402146,2353406166
uw,-54.4785995483398,-8.96333885192871,-5.195905944121483,-0.6801850039103053,2353422833
uw,-55.2845840454101,-8.61918640136718,-5.180486136899167,-1.065901841321055,2353439500
uw,-54.4207611083984,-8.20591735839843,-4.80981078434107,-1.6173296533480428,2353456167
uw,-54.9557342529296,-7.80588197708129,-4.235584967446648,-2.2493103960018948,2353472834
uw,-55.5269088745117,-7.63638401031494,-3.661031481363544,-2.8482450289491794,2353489501
uw,-53.7925796508789,-7.78738641738891,-3.2394146670228325,-3.292720870162768,2353506168
uw,-52.5014419555664,-8.64729499816894,-3.0002113548817664,-3.4774745913271774,2353522835
uw,-51.8731079101562,-9.9345121383667,-2.8492476243609564,-3.3352459467536195,2353539502
uw,-50.9930114746093,-11.3889026641845,-2.6390207687567173,-2.851784642991417,2353556169
uw,-49.9937133789062,-13.1604671478271,-2.260305325540771,-2.0712169526539053,2353572836
uw,-48.9725646972656,-15.2116327285766,-1.7000327076287112,-1.0913294418943709,2353589503
uw,-47.71044921875,-17.1527099609375,-1.040884123366665,-0.04998265507555929,2353606170
uw,-46.4671630859375,-18.8775100708007,-0.41597280399419906,0.8956624325907483,2353622837
uw,-45.2883987426757,-20.7381858825683,0.04881874076301295,1.59525494488388,2353639504
uw,-44.1296997070312,-22.8842124938964,0.27708533639351046,1.9336651949979242,2353656171
uw,-42.9527626037597,-25.3001556396484,0.25772759745727863,1.8564999028061429,2353672838
uw,-41.7057876586914,-27.8874778747558,0.03770817270312064,1.3860520252442157,2353689505
uw,-40.4509315490722,-30.3466567993164,-0.2990431281187174,0.6218960437766741,2353706172
uw,-39.1167373657226,-32.6521644592285,-0.6576475667308853,-0.276194104341057,2353722839
uw,-37.843936920166,-34.7378463745117,-0.9562071560379356,-1.1204576263364474,2353739506
uw,-36.7466621398925,-36.3067321777343,-1.1423008752564612,-1.7353881242464078,2353756173
uw,-35.7724914550781,-37.7211532592773,-1.1989552104456644,-1.9961565247354136,2353772840
uw,-34.7869682312011,-39.2398223876953,-1.1404293440137256,-1.8553732001207615,2353789507
uw,-33.8484344482421,-40.9274940490722,-1.0014438396193364,-1.3513180657318058,2353806174
uw,-32.9379768371582,-42.912368774414,-0.8246766096580719,-0.5959352952162351,2353822841
uw,-32.1556663513183,-44.9000930786132,-0.6500615942507754,0.2535254700907421,2353839508
uw,-31.5432052612304,-46.7920112609863,-0.5071870713476514,1.031351103361951,2353856175
uw,-30.9024581909179,-48.6488456726074,-0.41070219329921714,1.5995176420003958,2353872842
uw,-30.1599426269531,-50.5633735656738,-0.35854780183638435,1.875114541204101,2353889509
uw,-29.5148124694824,-52.5586853027343,-0.33318502086450025,1.8436279542507952,2353906176
uw,-28.9500045776367,-54.6228866577148,-0.3059283211006621,1.5560003293506772,2353922843
uw,-28.3988456726074,-56.6466789245605,-0.24389253891753612,1.1109770740806513,2353939510
uw,-27.7490119934082,-58.5290031433105,-0.11830852471409663,0.6276507615674487,2353956177
uw,-27.0314865112304,-60.3502731323242,0.08762243538561271,0.21554818861856945,2353972844
uw,-26.2660598754882,-62.1310539245605,0.3733771981087081,-0.049827891729325405,2353989511
uw,-25.4624633789062,-63.7836608886718,0.7199645903240522,-0.13987181695215276,2354006178
uw,-24.7162055969238,-65.2939224243164,1.0937002199344459,-0.07174680083265081,2354022845
uw,-24.0103454589843,-66.6433944702148,1.4541476267525701,0.10477394867751061,2354039512
uw,-23.3194046020507,-67.8665466308593,1.7640273548219385,0.3270171384377697,2354056179
uw,-22.6825523376464,-68.9551696777343,1.9981302560983343,0.5387356108866228,2354072846
uw,-22.0666389465332,-69.8978881835937,2.148547922754744,0.7031086009843315,2354089513
uw,-21.4904556274414,-70.6948852539062,2.224712834797311,0.8064368688092343,2354106180
uw,-20.9974365234375,-71.3542938232421,2.2483832755102924,0.8533098058577464,2354122847
uw,-20.6045684814453,-71.8635025024414,2.2453426493205972,0.8570828561956277,2354139514
uw,-20.2866325378418,-72.1799240112304,2.236748155611743,0.8306552117875853,2354156181
uw,-19.9787635803222,-72.3439712524414,2.2332630229613057,0.7814467172033916,2354172848
uw,-19.6639900207519,-72.3833312988281,2.2339950423475257,0.7119029000164906,2354189515
uw,-19.3076667785644,-72.2952346801757,2.2300968927545775,0.6241778687892295,2354206182
uw,-18.8794708251953,-72.0796585083007,2.2107425689021984,0.5259775944579667,2354222849
uw,-18.3578453063964,-71.7654647827148,2.168413136336114,0.43429051395445667,2354239516
uw,-17.7889595031738,-71.3514938354492,2.1014723008801113,0.3747085302574748,2354256183
uw,-17.1638412475585,-70.8368072509765,2.014006304703452,0.37579186427538447,2354272850
uw,-16.5371437072753,-70.2866897583007,1.9143886476455518,0.4598526146382538,2354289517
uw,-15.9604797363281,-69.7808074951171,1.81416459169058,0.632991658005488,2354306184
uw,-15.4938735961914,-69.3699874877929,1.7278377325480954,0.8777634516865206,2354322851
uw,-15.033592224121,-69.0733795166015,1.67282478649091,1.1513077640838165,2354339518
uw,-14.4828147888183,-68.8559112548828,1.6680972466347213,1.3903475949105812,2354356185
uw,-13.8464660644531,-68.6685791015625,1.7303469121864927,1.5226004766482735,2354372852
uw,-13.1861763000488,-68.4266738891601,1.8678167703625757,1.4825288883986203,2354389519
uw,-12.5294113159179,-68.0312423706054,2.0735700046748278,1.2283914841983785,2354406186
uw,-11.8641948699951,-67.5099487304687,2.3210013890325767,0.7572224986349643,2354422853
uw,-11.1472129821777,-66.9037857055664,2.564173900306967,0.11431625704768124,2354439520
uw,-10.4272747039794,-66.3094406127929,2.7441015588875106,-0.6062030015724027,2354456187
uw,-9.6779880523681,-65.7743453979492,2.800028051980877,-1.272714305303558,2354472854
uw,-8.8704452514648,-65.1316146850586,2.682955283377919,-1.7404752395947725,2354489521
uw,-7.9701805114746,-64.2921981811523,2.367901559677102,-1.8862909076282797,2354506188
uw,-7.171142578125,-63.1448860168457,1.8618655281272245,-1.6458426975067841,2354522855
uw,-6.663963317871,-61.7294960021972,1.2058384558009136,-1.0426892928092892,2354539522
uw,-6.2992343902587,-60.0058212280273,0.47072782099318583,-0.1980516665839579,2354556189
uw,-6.0192070007324,-58.2706184387207,-0.2517608132385089,0.6862751974490876,2354572856
uw,-5.7385635375976,-58.2402572631835,-0.8615543001632472,1.3741462012453352,2354589523
uw,-5.6311874389648,-59.5350036621093,-1.2641380580021222,1.6639306713678472,2354606190
uw,-5.7748908996582,-60.6381111145019,-1.3845998005432802,1.4605209215013606,2354622857
uw,-6.4044036865234,-60.3580207824707,-1.1807800447842565,0.8202149641917014,2354639524
uw,-7.387393951416,-58.8158874511718,-0.6540760708954264,-0.05793730056643828,2354656191
uw,-8.37815284729,-57.3820266723632,0.14458138146029434,-0.8980061313879605,2354672858
uw,-9.3940887451171,-56.2780075073242,1.1164229615560834,-1.444855465061044,2354689525
uw,-10.4522991180419,-55.2684783935546,2.1259101322409246,-1.5517560540547637,2354706192
uw,-11.587739944458,-54.4334526062011,3.0206851894876903,-1.2219403678702512,2354722859
uw,-12.9048271179199,-53.2925987243652,3.65764194299672,-0.5914617554762015,2354739526
uw,-14.3950843811035,-51.7324905395507,3.93056713612501,0.13239768104398073,2354756193
uw,-16.0106086730957,-50.010986328125,3.7936135462946194,0.7466070813672081,2354772860
uw,-17.6666717529296,-48.3000144958496,3.2745549300921293,1.1116302010055046,2354789527
uw,-19.3202171325683,-46.5783653259277,2.4729654506829184,1.1776246866512172,2354806194
uw,-20.8599472045898,-44.8281593322753,1.5416379686150885,0.9775280358831271,2354822861
uw,-22.259349822998,-43.1117630004882,0.6542869861019317,0.598656931870807,2354839528
uw,-23.6262397766113,-41.4692611694335,-0.03267987185442467,0.14775468292386748,2354856195
uw,-25.16357421875,-39.8665161132812,-0.4138812204190423,-0.27876818563358335,2354872862
uw,-26.9120292663574,-38.2121086120605,-0.45468280876611966,-0.6132341775860419,2354889529
uw,-28.5414924621582,-36.5517196655273,-0.19198502022602523,-0.8225646827866956,2354906196
uw,-30.0203514099121,-34.7633514404296,0.2824825923085283,-0.9040220872350564,2354922863
uw,-31.3170204162597,-33.1374931335449,0.8494779097707267,-0.8754299626405934,2354939530
uw,-32.6968879699707,-31.5799503326416,1.3909769078179255,-0.7648270921954518,2354956197
uw,-34.0725746154785,-30.129051208496,1.812391453481806,-0.6028676272878133,2354972864
uw,-35.6222763061523,-28.856855392456,2.0540577819551715,-0.4189090738004682,2354989531
uw,-37.3597717285156,-27.7295989990234,2.092135626075396,-0.2401779083410418,2355006198
uw,-39.2430343627929,-26.7276344299316,1.9323820357490225,-0.09270665681678066,2355022865
uw,-41.174331665039,-25.7108860015869,1.6014971007970376,-0.0021858053807909776,2355039532
uw,-43.2282028198242,-24.7455768585205,1.139814403774344,0.007319945242937414,2355056199
uw,-45.3561172485351,-23.9680290222167,0.5968433083921193,-0.08206751694850416,2355072866
uw,-47.3922348022461,-23.3236579895019,0.028735413973169054,-0.2749852004044555,2355089533
uw,-49.2908325195312,-22.6863994598388,-0.5047741023958108,-0.5559747313297364,2355106200
uw,-51.1118774414062,-22.0314102172851,-0.9462876348648293,-0.8863981011756693,2355122867
uw,-52.9010620117187,-21.362018585205,-1.2500670919850752,-1.2081129938885717,2355139534
uw,-54.6169357299804,-20.6629829406738,-1.3926465837100752,-1.4548821474152778,2355156201
uw,-56.217903137207,-19.9268417358398,-1.3806194829226242,-1.5694364018142426,2355172868
uw,-57.7632446289062,-19.2401485443115,-1.2514733827847913,-1.5211307715172544,2355189535
uw,-59.2746124267578,-18.6831912994384,-1.0656479713616596,-1.3178707484557246,2355206202
uw,-60.6962509155273,-18.2292041778564,-0.8915364725075329,-1.0074682817678413,2355222869
uw,-61.9627609252929,-17.8811721801757,-0.7880703668731873,-0.6672874607553777,2355239536
uw,-62.9729843139648,-17.6638736724853,-0.7903310572667879,-0.3852055939686059,2355256203
uw,-63.6368179321289,-17.5140151977539,-0.9021534127297169,-0.23771628596458913,2355272870
uw,-63.9575958251953,-17.3825035095214,-1.0970409663898162,-0.271485400759223,2355289537
uw,-63.9849700927734,-17.2699184417724,-1.3263371081034523,-0.49302732820602296,2355306204
uw,-63.8220977783203,-17.1846885681152,-1.5322344840159112,-0.8683879778354245,2355322871
uw,-63.5843353271484,-17.1271648406982,-1.6627188123883738,-1.3319714872905333,2355339538
uw,-63.3063735961914,-17.0588970184326,-1.6854847084264981,-1.80170842823307,2355356205
uw,-62.9723129272461,-17.0043067932128,-1.598009418947252,-2.196825349891646,2355372872
uw,-62.5855636596679,-16.9747848510742,-1.431399811652636,-2.4543922894953805,2355389539
uw,-62.1498489379882,-16.9522323608398,-1.24651634691922,-2.541426442116284,2355406206
uw,-61.6995849609375,-16.938455581665,-1.122305897358901,-2.4604450049311155,2355422873
uw,-61.3077850341796,-16.9444389343261,-1.1380385056128943,-2.2477251782402834,2355439540
uw,-61.0581817626953,-16.9717197418212,-1.3527247610413904,-1.9648679764753139,2355456207
uw,-60.8975296020507,-16.9590091705322,-1.785898799321466,-1.685406247660386,2355472874
uw,-60.6971664428711,-16.8338279724121,-2.404149226143046,-1.4790602421596106,2355489541
uw,-60.3856506347656,-16.5887126922607,-3.1175924104533412,-1.3967570591735565,2355506208
uw,-59.8390274047851,-16.246280670166,-3.7899394568641473,-1.45961767576268,2355522875
uw,-59.0309829711914,-15.7628660202026,-4.2642272229126785,-1.6546166341692716,2355539542
uw,-57.969612121582,-15.2036733627319,-4.402708308222983,-1.9382968659108355,2355556209
uw,-56.4347610473632,-14.61847782135,-4.133419993603795,-2.247821572889782,2355572876
uw,-54.7190017700195,-14.0545330047607,-3.488498641680629,-2.5164462964647907,2355589543
uw,-54.4484100341796,-13.521164894104,-2.613967638898767,-2.6891746868348676,2355606210
uw,-55.5184326171875,-13.1410913467407,-1.734600516670262,-2.7344698976248263,2355622877
uw,-55.9761581420898,-12.993290901184,-1.076402785608512,-2.6493259854166444,2355639544
uw,-54.6595687866211,-12.8368062973022,-0.7771249943606152,-2.4571958290711837,2355656211
uw,-52.6948089599609,-12.7167129516601,-0.8311270814953134,-2.200294725236121,2355672878
uw,-51.463264465332,-13.0032081604003,-1.1007400950163606,-1.9287770657393433,2355689545
uw,-50.3416976928711,-13.7035875320434,-1.388177072683839,-1.6892109682146113,2355706212
uw,-49.5742874145507,-14.6730480194091,-1.5274529477275538,-1.514479960938065,2355722879
uw,-49.0009460449218,-15.8192405700683,-1.4482138701495875,-1.4171987685773304,2355739546
uw,-48.0709075927734,-17.0705966949462,-1.184491376850317,-1.3883923055591763,2355756213
uw,-46.8904418945312,-18.3148899078369,-0.8343086042964268,-1.401871260573879,2355772880
uw,-45.6948089599609,-19.5908031463623,-0.49998837313574485,-1.4228441773149083,2355789547
uw,-44.5536727905273,-21.023286819458,-0.24227700499218627,-1.4180627658336558,2355806214
uw,-43.490379333496,-22.6828441619873,-0.06655159538626025,-1.3648306387887648,2355822881
uw,-42.4613304138183,-24.5815258026123,0.06117281977199233,-1.2569525714935736,2355839548
uw,-41.3503723144531,-26.619888305664,0.18440563505664287,-1.1063995202301986,2355856215
uw,-40.1054458618164,-28.7337970733642,0.33018015967643644,-0.9401531807306192,2355872882
uw,-38.76021194458,-30.77876663208,0.4974607659318285,-0.7928325859898154,2355889549
uw,-37.4473419189453,-32.6715469360351,0.6613165210946309,-0.6971373598553545,2355906216
uw,-36.1826934814453,-34.5189361572265,0.7876534243905338,-0.6749757706325185,2355922883
uw,-34.9223899841308,-36.4173927307128,0.850538884129152,-0.7317302678594113,2355939550
uw,-33.6397132873535,-38.3411102294921,0.84452731987044,-0.8548003149826389,2355956217
uw,-32.3858299255371,-40.1983642578125,0.7872087824446022,-1.016306656892482,2355972884
uw,-31.1650505065918,-41.9393577575683,0.7116922253043245,-1.179178538720461,2355989551
uw,-30.0972099304199,-43.6321716308593,0.6532847213106948,-1.305484520023729,2356006218
uw,-29.2177581787109,-45.4002037048339,0.637015783304274,-1.3653355726906178,2356022885
uw,-28.3968124389648,-47.1647644042968,0.6715114724510233,-1.3441099925669382,2356039552
uw,-27.5548629760742,-48.911205291748,0.750790929243543,-1.245724509217502,2356056219
uw,-26.77095413208,-50.717845916748,0.861356947669211,-1.0905864769902347,2356072886
uw,-26.052734375,-52.5204277038574,0.9899267539329341,-0.9085423840613154,2356089553
uw,-25.3970642089843,-54.2352676391601,1.1279886407480801,-0.7290057530684632,2356106220
uw,-24.7174377441406,-55.8432159423828,1.2719332701261865,-0.5716967532178656,2356122887
uw,-24.0410804748535,-57.2860984802246,1.4200358845616485,-0.4413414548113605,2356139554
uw,-23.4126586914062,-58.6560859680175,1.5688489987801237,-0.3281554809525863,2356156221
uw,-22.8488845825195,-59.932144165039,1.7113420219157336,-0.21371655931650776,2356172888
uw,-22.3299903869628,-61.0659637451171,1.8378559004467454,-0.08002137104746708,2356189555
uw,-21.7876739501953,-62.0348052978515,1.9393669074702895,0.08121917060619802,2356206222
uw,-21.1946830749511,-62.8168678283691,2.0113467292924954,0.2618138714730691,2356222889
uw,-20.5474243164062,-63.3385314941406,2.056148005731775,0.435065340877488,2356239556
uw,-19.8723449707031,-63.7983741760253,2.0825312977789774,0.559962403838094,2356256223
uw,-19.1648635864257,-64.2131576538086,2.1023978597082995,0.5917786023962814,2356272890
uw,-18.4275970458984,-64.5452575683593,2.1262389644509843,0.4971045010713316,2356289557
uw,-17.7047843933105,-64.8765487670898,2.15944114728221,0.26891146225160195,2356306224
uw,-17.0239486694335,-65.240982055664,2.2010809203850092,-0.0640839147589703,2356322891
uw,-16.3985061645507,-65.5897674560546,2.245557675702129,-0.4385930725774944,2356339558
uw,-15.8394088745117,-65.8721160888671,2.2860782573397636,-0.770053568497695,2356356225
uw,-15.3388442993164,-64.8671340942382,2.3182694018652077,-0.9749365473398827,2356372892
uw,-14.8619194030761,-63.836082458496,2.3423210227872073,-0.9947049466750515,2356389559
uw,-14.3874473571777,-63.0121994018554,2.3628784581395483,-0.8127727690908121,2356406226
uw,-13.8758277893066,-62.370262145996,2.386940858550731,-0.45880752061014013,2356422893
uw,-13.3697357177734,-61.9468994140625,2.4208020996163797,-0.0002954104530804619,2356439560
uw,-12.8873481750488,-61.6200408935546,2.467313627448843,0.47422744711894754,2356456227
uw,-12.4623680114746,-61.3747901916503,2.52445689491409,0.8746604165972934,2356472894
uw,-12.0781173706054,-61.2055778503418,2.5856015129185295,1.127112755626961,2356489561
uw,-11.6932258605957,-61.1164169311523,2.641205289362678,1.1871206917317236,2356506228
uw,-11.3159561157226,-61.1329269409179,2.6813510023019917,1.046477091225573,2356522895
uw,-10.9231491088867,-61.3032646179199,2.6984973270001658,0.7326227540687352,2356539562
uw,-10.5142421722412,-61.5458526611328,2.6900100300451792,0.3007169233170308,2356556229
uw,-10.1086082458496,-61.851318359375,2.6601773255691477,-0.17981694842580193,2356572896
uw,-9.6898899078369,-62.2161865234375,2.6213057665624575,-0.6408261378022003,2356589563
uw,-9.2793178558349,-62.5616645812988,2.5931822142136913,-1.028815275655889,2356606230
uw,-8.8536567687988,-62.8698692321777,2.6000146865661287,-1.3125840521025758,2356622897
uw,-8.3850364685058,-63.1184272766113,2.6643782140953918,-1.4834583989942687,2356639564
uw,-7.8602714538574,-63.2224922180175,2.7988357846225083,-1.5490277385453668,2356656231
uw,-7.34153175354,-63.0789413452148,2.997354543488319,-1.5235565536332383,2356672898
uw,-6.8184833526611,-62.7432250976562,3.229608454308258,-1.4193623734787093,2356689565
uw,-6.3365573883056,-62.3192825317382,3.4411470476578314,-1.243035191431055,2356706232
uw,-5.9671077728271,-61.8419876098632,3.5611467428220602,-0.9984622156458918,2356722899
uw,-5.6866092681884,-61.0380210876464,3.5173820850604733,-0.6956188504840898,2356739566
uw,-5.5285453796386,-59.7448616027832,3.2556066422313967,-0.3608609288870059,2356756233
uw,-5.3802490234375,-58.1807670593261,2.7582857382328165,-0.04250749768363088,2356772900
uw,-5.2030372619628,-56.7363471984863,2.056526926436871,0.19368074037341831,2356789567
uw,-5.1499347686767,-55.4433937072753,1.2302804730275434,0.2808496901909959,2356806234
uw,-4.7963352203369,-55.505126953125,0.39564781822008416,0.17580682866917022,2356822901
uw,-4.5339546203613,-56.3630561828613,-0.31738304237651677,-0.11649555702925807,2356839568
uw,-4.709129333496,-56.7495079040527,-0.7909456214277107,-0.5312013561082037,2356856235
uw,-5.3646259307861,-56.215476989746,-0.9434969197253623,-0.9553706049266633,2356872902
uw,-6.4203033447265,-55.4072303771972,-0.7480901148113748,-1.2639751503539627,2356889569
uw,-7.7067813873291,-54.922508239746,-0.24142549305362787,-1.366172367675445,2356906236
uw,-8.9468193054199,-54.5405769348144,0.4792228973612933,-1.240255087242092,2356922903
uw,-10.0025730133056,-53.9216003417968,1.2726917315866695,-0.9410425891127955,2356939570
uw,-10.9512252807617,-53.2463607788085,1.982399959450014,-0.5773294307515457,2356956237
uw,-11.9885005950927,-52.6736793518066,2.4704867791632403,-0.2702939766679237,2356972904
uw,-13.2340774536132,-52.0330429077148,2.6484720006144427,-0.11075222966094539,2356989571
uw,-14.7367897033691,-51.1778182983398,2.4955420702711,-0.13216979141352905,2357006238
uw,-16.5311584472656,-50.1845512390136,2.0593505448624176,-0.3082462588393819,2357022905
uw,-18.4058036804199,-49.086799621582,1.4398767462531965,-0.5723517202498166,2357039572
uw,-20.2910270690918,-47.8581809997558,0.7619139267893225,-0.8470236467489819,2357056239
uw,-22.1475067138671,-46.5520477294921,0.1443469799887489,-1.0696494964419603,2357072906
uw,-24.0147247314453,-45.1627464294433,-0.32581798424621033,-1.205404525284198,2357089573
uw,-26.0572814941406,-43.761116027832,-0.6089270319705865,-1.246524876445021,2357106240
uw,-28.1691284179687,-42.3673362731933,-0.7151022868140539,-1.2032605899829516,2357122907
uw,-30.3315963745117,-41.0171279907226,-0.6944090916211472,-1.0936756126756297,2357139574
uw,-32.661018371582,-39.7331161499023,-0.6184362431496372,-0.9372197034846917,2357156241
uw,-34.9870986938476,-38.5469322204589,-0.5588161477589086,-0.753076727973918,2357172908
uw,-37.165958404541,-37.4023475646972,-0.5686279252692313,-0.5612078914724632,2357189575
uw,-39.1471862792968,-36.2966995239257,-0.6714497586222693,-0.38304219078231805,2357206242
uw,-41.0903892517089,-35.2014083862304,-0.8602802362475037,-0.2397543145792476,2357222909
uw,-42.8516273498535,-34.1183815002441,-1.1053691003323898,-0.14800204701852462,2357239576
uw,-44.3539962768554,-33.116283416748,-1.367353957108187,-0.11477159815089977,2357256243
uw,-45.9984436035156,-32.2015151977539,-1.6109804869103335,-0.13384927863535157,2357272910
uw,-47.7026290893554,-31.3583011627197,-1.8152518280707135,-0.1860971891704889,2357289577
uw,-49.1278991699218,-30.6064853668212,-1.9775236133421537,-0.2443004653767012,2357306244
uw,-50.4223175048828,-29.8691444396972,-2.1111139801068544,-0.2814515820194276,2357322911
uw,-51.4286956787109,-29.0913848876953,-2.2379088088941033,-0.27978052633156847,2357339578
uw,-52.3785247802734,-28.2533740997314,-2.378794475704973,-0.23732442475260915,2357356245
uw,-53.1538772583007,-27.4556255340576,-2.545197928960972,-0.16955283797828902,2357372912
uw,-53.7380981445312,-26.671983718872,-2.7344422452673327,-0.10519988679949728,2357389579
uw,-54.2647476196289,-25.9181823730468,-2.9302365866873195,-0.07740075259700933,2357406246
uw,-54.7710800170898,-25.148115158081,-3.1078733382087096,-0.1128521465953402,2357422913
uw,-55.2278976440429,-24.3218727111816,-3.2422173547602395,-0.2224909380592734,2357439580
uw,-55.5862503051757,-23.4749279022216,-3.315878071986287,-0.3968260817240532,2357456247
uw,-55.8250198364257,-22.6443138122558,-3.325184451091077,-0.6076238829084643,2357472914
uw,-55.8795547485351,-21.9009780883789,-3.282403298460607,-0.8155648483760819,2357489581
uw,-55.6962966918945,-21.3067588806152,-3.2136076932089606,-0.9814580857236428,2357506248
uw,-55.3284912109375,-20.7306480407714,-3.1525162659365416,-1.0773596972905213,2357522915
uw,-54.844741821289,-20.1534748077392,-3.1315217655312404,-1.0940189155680216,2357539582
uw,-54.3106918334961,-19.4847240447998,-3.171991826844038,-1.0424960901637226,2357556249
uw,-53.7239685058593,-18.7598476409912,-3.2765195854143734,-0.9499411787629233,2357572916
uw,-53.1233596801757,-17.9656505584716,-3.4257775491522953,-0.8513958788518778,2357589583
uw,-52.5522232055664,-17.1906566619873,-3.581723266762144,-0.7803526073127204,2357606250
uw,-52.0562973022461,-16.4699974060058,-3.697110496386981,-0.7606291894713434,2357622917
uw,-51.677505493164,-15.7843799591064,-3.7289794872504975,-0.801372886951818,2357639584
uw,-51.4271621704101,-15.1582632064819,-3.651906156816966,-0.8961408491836703,2357656251
uw,-51.298225402832,-14.5889701843261,-3.466330946686131,-1.0261202628730814,2357672918
uw,-51.320068359375,-14.0489425659179,-3.198860223224761,-1.1665595459431795,2357689585
uw,-51.5087661743164,-13.5387163162231,-2.8946020745147614,-1.2944727699221483,2357706252
uw,-51.8952255249023,-13.0821685791015,-2.6049092684586515,-1.3950759860594668,2357722919
uw,-52.5527648925781,-12.6622591018676,-2.3756525838950493,-1.4647008494397489,2357739586
uw,-53.4849624633789,-12.2687931060791,-2.2404214262548448,-1.5092191853326595,2357756253
uw,-54.6599426269531,-11.9211721420288,-2.2202318511406367,-1.5388532396862555,2357772920
uw,-56.0624923706054,-11.6668996810913,-2.3278198820177978,-1.5618352171164864,2357789587
uw,-57.6518020629882,-11.4614706039428,-2.572107701223438,-1.5799621900131453,2357806254
uw,-59.3644790649414,-11.1975288391113,-2.9582208579757583,-1.5883428340279802,2357822921
uw,-61.1888275146484,-10.8539581298828,-3.480820095832371,-1.5798404241920612,2357839588
uw,-63.1536712646484,-10.3922529220581,-4.1126213753596845,-1.5526352633266063,2357856255
uw,-64.9389877319336,-9.75547313690185,-4.793983051959364,-1.5177497670695286,2357872922
uw,-65.8272552490234,-8.97263145446777,-5.431292536809165,-1.502814900938652,2357889589
uw,-65.4107666015625,-8.14392280578613,-5.910294520982725,-1.549046794435082,2357906256
uw,-63.687271118164,-7.35152292251586,-6.125440039855951,-1.700356662498147,2357922923
uw,-62.0705108642578,-6.5426230430603,-6.018609318672664,-1.9864017448729254,2357939590
uw,-62.1293716430664,-5.70093727111816,-5.611682375062921,-2.404435084478021,2357956257
uw,-62.0817337036132,-4.99619579315185,-5.011840312548458,-2.9068976928587564,2357972924
uw,-64.0832824707031,-4.83439302444458,-4.374997003974144,-3.401541960971977,2357989591
uw,-64.2461624145507,-5.18680667877197,-3.83644087268112,-3.767664968274625,2358006258
uw,-62.1614151000976,-5.77038955688476,-3.445855847583943,-3.886316136212809,2358022925
uw,-60.63525390625,-6.55743694305419,-3.1496368335669245,-3.676284014748204,2358039592
uw,-59.5351791381836,-7.65474510192871,-2.8346710422473604,-3.1240268678800103,2358056259
uw,-58.8003997802734,-9.13220500946045,-2.4055884963488006,-2.2964253558751113,2358072926
uw,-58.0331878662109,-11.0059118270874,-1.8465023789597381,-1.3304452107446427,2358089593
uw,-57.0558395385742,-13.0972499847412,-1.2326209235392276,-0.40161169448343087,2358106260
uw,-55.530647277832,-15.1243238449096,-0.691428680213642,0.31953571147968424,2358122927
uw,-54.0179595947265,-16.9789104461669,-0.3410929068047953,0.7099024456434075,2358139594
uw,-52.6049118041992,-19.0105819702148,-0.23990798064248609,0.7226792876209726,2358156261
uw,-51.2704467773437,-21.4452571868896,-0.3674657051679705,0.3946385720196388,2358172928
uw,-49.9347610473632,-24.3700733184814,-0.6388591625144647,-0.169062833669327,2358189595
uw,-48.5314025878906,-27.4132480621337,-0.9394525955607107,-0.8265850224524902,2358206262
uw,-47.1138687133789,-30.363691329956,-1.1637156375404059,-1.4371425538004303,2358222929
uw,-45.7402038574218,-33.2093353271484,-1.2447715900101743,-1.8936532000983186,2358239596
uw,-44.3955764770507,-36.0081596374511,-1.1673323135385796,-2.1420574148522658,2358256263
uw,-43.0557212829589,-38.7048530578613,-0.9629473190783934,-2.183987790105033,2358272930
uw,-41.6975173950195,-41.1240158081054,-0.6919013685063001,-2.064622077192485,2358289597
uw,-40.3752746582031,-43.4253387451171,-0.4196769375032808,-1.851479462599105,2358306264
uw,-39.10009765625,-45.6205596923828,-0.19654487415176108,-1.6116913743561152,2358322931
uw,-37.913761138916,-47.7377586364746,-0.046305587033856815,-1.3945710204463664,2358339598
uw,-36.8338241577148,-49.831859588623,0.034238394967635095,-1.2235235030203604,2358356265
uw,-35.8271293640136,-51.806957244873,0.06760653393763752,-1.0976329364564297,2358372932
uw,-34.8949546813964,-53.8263359069824,0.08431402251219146,-1.0001165049150311,2358389599
uw,-33.9837684631347,-55.8400840759277,0.11213887509025502,-0.9092968227935534,2358406266
uw,-33.0761604309082,-57.739891052246,0.16864266265379318,-0.8079814977785673,2358422933
uw,-32.1887283325195,-59.4686965942382,0.2580194836429168,-0.6886501069495343,2358439600
uw,-31.4324913024902,-61.0008659362793,0.3722854737406529,-0.5538764878609598,2358456267
uw,-30.7521018981933,-62.241958618164,0.496047135595982,-0.41314776168758877,2358472934
uw,-30.0623512268066,-63.1006469726562,0.6133051134669166,-0.2780380575689451,2358489601
uw,-29.4045524597168,-63.600975036621,0.7141039185440194,-0.15748368224418027,2358506268
uw,-28.7976837158203,-63.7898559570312,0.798750632112047,-0.05428726236266548,2358522935
uw,-28.1887817382812,-63.7503242492675,0.8780426804460183,0.03637227724151956,2358539602
uw,-27.5770759582519,-63.5558815002441,0.969299307218897,0.12572613378084488,2358556269
uw,-26.9744071960449,-63.1982917785644,1.0895159073279612,0.22724445323928957,2358572936
uw,-26.3774795532226,-62.6617889404296,1.2481208117110727,0.3504378281127688,2358589603
uw,-25.7672958374023,-62.0665016174316,1.4421599354192756,0.49491438208139144,2358606270
uw,-25.1114387512207,-61.537239074707,1.6560178407229704,0.6474163321343451,2358622937
uw,-24.3898010253906,-60.9158630371093,1.8661200783076914,0.783571907273363,2358639604
uw,-23.6038055419921,-60.178611755371,2.0490081669008333,0.8741970426507151,2358656271
uw,-22.8367042541503,-59.5142593383789,2.1895871215734757,0.894190710444875,2358672938
uw,-22.1343994140625,-59.0768356323242,2.286029351276903,0.8311285631817867,2358689605
uw,-21.4722061157226,-58.8164520263671,2.3491454409085124,0.6907571155862863,2358706272
uw,-20.8855743408203,-58.5460891723632,2.396562379989501,0.49756672895428883,2358722939
uw,-20.3519554138183,-58.2154655456543,2.444527153005921,0.29012783364470923,2358739606
uw,-19.8396530151367,-57.6034317016601,2.501187263533712,0.11240181368719074,2358756273
uw,-19.3398361206054,-56.8186111450195,2.564273132567091,0.00333336913160529,2358772940
uw,-18.8487739562988,-56.0502815246582,2.623899041221806,-0.012484236940258537,2358789607
uw,-18.2418403625488,-55.4220085144043,2.6689068956834903,0.06953346150937596,2358806274
uw,-17.5541725158691,-54.8443527221679,2.693724749066016,0.23360693286195094,2358822941
uw,-16.9426116943359,-54.3937606811523,2.702559142230444,0.4484798431298642,2358839608
uw,-16.4102096557617,-54.0716934204101,2.7089591675886004,0.6757104738645916,2358856275
uw,-15.8654479980468,-53.883544921875,2.7309366256189422,0.8785050416123857,2358872942
uw,-15.3131675720214,-53.8541030883789,2.78388648364158,1.0284055092187998,2358889609
uw,-14.7471389770507,-53.9020233154296,2.8744335678281487,1.108301433865948,2358906276
uw,-14.1909942626953,-53.9452590942382,2.9976323676210117,1.1117805635531268,2358922943
uw,-13.6333236694335,-54.0322113037109,3.138223518171042,1.0401645499999705,2358939610
uw,-13.0616950988769,-54.285285949707,3.2749418538743242,0.899219717283508,2358956277
uw,-12.5005874633789,-54.7172660827636,3.385985681634876,0.697216914429168,2358972944
uw,-11.9536018371582,-55.3080520629882,3.4538775882307573,0.44487799328587146,2358989611
uw,-11.4147071838378,-56.0431175231933,3.4686732227642363,0.15641270984192177,2359006278
uw,-10.886812210083,-56.8834724426269,3.429202097257759,-0.14991185379048397,2359022945
uw,-10.3557319641113,-57.7418174743652,3.34242704092507,-0.45296688916581235,2359039612
uw,-9.8173065185546,-58.5189590454101,3.2212040482614626,-0.7318269601208619,2359056279
uw,-9.2805423736572,-59.1761436462402,3.080953499807412,-0.9693548017423029,2359072946
uw,-8.7483730316162,-59.7330093383789,2.9360096392716737,-1.1542933489075136,2359089613
uw,-8.2156467437744,-60.2302742004394,2.7965018186265063,-1.2806673336321628,2359106280
uw,-7.6991329193115,-60.6800842285156,2.6664772236153143,-1.3451300414542757,2359122947
uw,-7.2580261230468,-61.100959777832,2.5437185233252935,-1.3444265644899114,2359139614
uw,-6.8627185821533,-61.5112419128418,2.421363013920685,-1.2754079479496263,2359156281
uw,-6.4850521087646,-61.849609375,2.2908663442013895,-1.139035730833396,2359172948
uw,-6.1550960540771,-61.8676300048828,2.1451795236470357,-0.9480376818279561,2359189615
uw,-5.8558082580566,-61.3523941040039,1.9807926848031614,-0.7354766288448583,2359206282
uw,-5.8440914154052,-60.1941108703613,1.7981016798400467,-0.5585273993653733,2359222949
uw,-5.9230690002441,-60.1014022827148,1.6010371905625072,-0.48976485864705555,2359239616
uw,-6.1417942047119,-61.6149177551269,1.3976220377095447,-0.5914215205109514,2359256283
uw,-6.5020008087158,-63.377872467041,1.2018721335826807,-0.879353993528883,2359272950
uw,-7.5010623931884,-63.9437599182128,1.0350315675410076,-1.2968652536801872,2359289617
uw,-9.0383758544921,-63.5675659179687,0.9230600836314486,-1.7200348341447087,2359306284
uw,-10.5775623321533,-63.2395629882812,0.889149159527163,-1.9993576074480714,2359322951
uw,-11.949535369873,-62.9272766113281,0.943655725657913,-2.019300005043763,2359339618
uw,-13.203197479248,-62.3228149414062,1.0764408073394003,-1.746392580904058,2359356285
uw,-14.5813560485839,-61.6697654724121,1.2561738615495945,-1.243761636503134,2359372952
uw,-16.1686935424804,-61.0017395019531,1.4377926681522268,-0.6474612110338868,2359389619
uw,-18.0385665893554,-60.2162322998046,1.5750832504182628,-0.11662778113658767,2359406286
uw,-20.1889991760253,-59.2678413391113,1.6330024882303356,0.22138725089585234,2359422953
uw,-22.5849647521972,-58.2479553222656,1.595221885249918,0.3102489635987308,2359439620
uw,-25.139060974121,-57.2275619506835,1.465320192325762,0.17598080628043564,2359456287
uw,-27.627025604248,-56.053970336914,1.2628322857662586,-0.090026207004552,2359472954
uw,-29.9394416809082,-54.7759170532226,1.0165886231593728,-0.36673295924985494,2359489621
uw,-32.2946739196777,-53.3786964416503,0.7575504605215644,-0.5435694740048045,2359506288
uw,-34.8323440551757,-51.9566917419433,0.5124557270984045,-0.5518821389096831,2359522955
uw,-37.525951385498,-50.6848602294921,0.29882852836231827,-0.3799501163017394,2359539622
uw,-40.2260055541992,-49.5083427429199,0.12177545361271071,-0.07019538286311731,2359556289
uw,-42.8168869018554,-48.3205528259277,-0.026607285941606974,0.29763902256665414,2359572956
uw,-45.2137069702148,-47.0372200012207,-0.16424116553325743,0.6306728044301716,2359589623
uw,-47.3498077392578,-45.7469329833984,-0.31237492291616015,0.8471365988181447,2359606290
uw,-49.4171600341796,-44.5259475708007,-0.4868171825462981,0.8945884717154338,2359622957
uw,-51.5579681396484,-43.408878326416,-0.6902630675707861,0.758502052634196,2359639624
uw,-53.738166809082,-42.4643783569335,-0.9091423047868331,0.46075957650728444,2359656291
uw,-55.8612060546875,-41.4641876220703,-1.116977650748931,0.05040734323603579,2359672958
uw,-57.9412460327148,-40.3645820617675,-1.2835929419201144,-0.4093846075403496,2359689625
uw,-60.1226730346679,-39.3037605285644,-1.3867892958634167,-0.8542602005859412,2359706292
uw,-62.3583068847656,-38.2982559204101,-1.4216676463219096,-1.228906098849242,2359722959
uw,-64.463638305664,-37.316795349121,-1.4035162692216165,-1.4936518140421764,2359739626
uw,-66.1956939697265,-36.4436874389648,-1.362896274567984,-1.627771426399808,2359756293
uw,-67.2268142700195,-35.6557922363281,-1.3349046432696463,-1.6302318964674378,2359772960
uw,-66.9433517456054,-34.9160041809082,-1.3469298228395865,-1.518380296547268,2359789627
uw,-65.6463928222656,-34.1516342163085,-1.4095875089231562,-1.3246528931125154,2359806294
uw,-64.0763320922851,-33.3846588134765,-1.5140291664196919,-1.0912849140837304,2359822961
uw,-62.419937133789,-32.6447982788085,-1.6362791752593764,-0.8633578374106214,2359839628
uw,-60.7452163696289,-31.9032020568847,-1.7467090990885463,-0.6811565588778966,2359856295
uw,-59.1348876953125,-31.178123474121,-1.8210572125311555,-0.573322082076553,2359872962
uw,-57.4787521362304,-30.4464664459228,-1.849056981870418,-0.5523048236863447,2359889629
uw,-55.8904418945312,-29.7104415893554,-1.837805870400108,-0.6130570221678247,2359906296
uw,-54.4111862182617,-29.0220890045166,-1.8090348840942814,-0.7350170239998952,2359922963
uw,-53.0982131958007,-28.2987594604492,-1.7916157580625267,-0.8866794831642018,2359939630
uw,-52.1394577026367,-27.5996856689453,-1.8121376259578064,-1.031721537167775,2359956297
uw,-51.450698852539,-26.9927768707275,-1.886688018176578,-1.1357482950337978,2359972964
uw,-50.9060440063476,-26.4213047027587,-2.0160988263051007,-1.172959858011408,2359989631
uw,-50.6439590454101,-25.9238739013671,-2.185442216159015,-1.132096451526756,2360006298
uw,-50.6532974243164,-25.4804248809814,-2.367280689443835,-1.020715828487639,2360022965
uw,-50.999267578125,-25.0914096832275,-2.5275105220817835,-0.8664023832826225,2360039632
uw,-51.6564331054687,-24.7116317749023,-2.632432773722909,-0.7134693336834427,2360056299
uw,-52.6592636108398,-24.3532276153564,-2.65564980945774,-0.6145894812881835,2360072966
uw,-54.0233612060546,-24.0847663879394,-2.583571914257751,-0.6184891828294952,2360089633
uw,-55.6344528198242,-23.9166164398193,-2.418967664228788,-0.7566410266542124,2360106300
uw,-57.4047088623046,-23.8802433013916,-2.18287570222716,-1.0328634023090841,2360122967
uw,-59.2468490600586,-23.8215217590332,-1.915458633971043,-1.419295186362986,2360139634
uw,-61.0963592529296,-23.4895782470703,-1.6753940830170269,-1.8604476262326934,2360156301
uw,-62.8129730224609,-22.9151935577392,-1.5356958906011022,-2.284606005399577,2360172968
uw,-64.2373123168945,-22.1438999176025,-1.572950291170632,-2.6196146640938665,2360189635
uw,-65.0897674560546,-21.2661399841308,-1.8482338265331726,-2.808746042580352,2360206302
uw,-65.2635192871093,-20.3941841125488,-2.381785440687063,-2.822353681359852,2360222969
uw,-64.4859466552734,-19.5760898590087,-3.128777727491674,-2.662375161478775,2360239636
uw,-63.0563888549804,-18.7622013092041,-3.9679464467720034,-2.359054090360451,2360256303
uw,-61.341682434082,-18.0147323608398,-4.715297158948072,-1.9616923273655835,2360272970
uw,-59.5453186035156,-17.4406833648681,-5.168865932607353,-1.5269421014281381,2360289637
uw,-57.6423645019531,-17.0933418273925,-5.177045364169584,-1.1084429413676995,2360306304
uw,-56.0521774291992,-16.8684120178222,-4.706143335353925,-0.7503275511817648,2360322971
uw,-55.3162994384765,-16.5279369354248,-3.871958054663069,-0.4848017540222534,2360339638
uw,-56.1758041381836,-16.1537246704101,-2.907385626230564,-0.331852763734349,2360356305
uw,-56.5657730102539,-16.2274513244628,-2.0686513131503874,-0.29851208924897565,2360372972
uw,-54.6410217285156,-16.874677658081,-1.5228794007796405,-0.37664384691895814,2360389639
uw,-51.9943618774414,-17.5788307189941,-1.2792609208865664,-0.5411137508923345,2360406306
uw,-49.7945861816406,-18.8117790222167,-1.2040047623624917,-0.7521508517565982,2360422973
uw,-48.2939224243164,-20.5870475769042,-1.1079059752268834,-0.9645265857845522,2360439640
uw,-47.1945190429687,-22.6175746917724,-0.8525391852555998,-1.1418153893661283,2360456307
uw,-45.9945678710937,-24.6909980773925,-0.4162160462868614,-1.2693362094521652,2360472974
uw,-44.3450927734375,-26.7356071472167,0.10809273473032756,-1.3582133688765938,2360489641
uw,-42.4765625,-28.8373279571533,0.5697055716640853,-1.4368764641422183,2360506308
uw,-40.9912681579589,-30.9948005676269,0.8342191371638089,-1.5330844873624347,2360522975
uw,-39.9556694030761,-33.1569442749023,0.8377796655082124,-1.6550322970433455,2360539642
uw,-39.0094528198242,-35.3257369995117,0.603611488758699,-1.7810713507715623,2360556309
uw,-37.8775024414062,-37.7281265258789,0.22396320069307932,-1.8636288821532785,2360572976
uw,-36.6704483032226,-40.2324638366699,-0.17685414863149398,-1.846225988331786,2360589643
uw,-35.5564346313476,-42.6228408813476,-0.4811658262697551,-1.6864250413464275,2360606310
uw,-34.5866317749023,-44.8833198547363,-0.60669849532967,-1.374941099205926,2360622977
uw,-33.7191886901855,-47.0488243103027,-0.5208005730196799,-0.9431398433316487,2360639644
uw,-32.977367401123,-49.183982849121,-0.24064479801549793,-0.45650336157447446,2360656311
uw,-32.4020042419433,-51.2721862792968,0.1775463873239691,0.002549860902015177,2360672978
uw,-31.8357353210449,-53.2442970275878,0.6562706752192695,0.35569251150353726,2360689645
uw,-31.2416267395019,-55.070068359375,1.117036130910725,0.54678828935695,2360706312
uw,-30.6473541259765,-56.7790832519531,1.4984505098161172,0.5527389335238369,2360722979
uw,-30.092113494873,-58.3194427490234,1.7678981144200019,0.385752102923158,2360739646
uw,-29.5910339355468,-59.6458930969238,1.9242931579120417,0.08796196569225667,2360756313
uw,-29.1368446350097,-60.8212585449218,1.9920514707724915,-0.27930737714431453,2360772980
uw,-28.7329940795898,-61.9147911071777,2.0090732614465097,-0.6485856663427332,2360789647
uw,-28.3792457580566,-62.8650817871093,2.0130729261583173,-0.9584441755155476,2360806314
uw,-27.9948005676269,-63.6631813049316,2.0305055729104913,-1.1624354453542651,2360822981
uw,-27.5566978454589,-64.2470703125,2.0708967263857825,-1.2337984402519926,2360839648
uw,-27.1302108764648,-64.6148529052734,2.127288178889892,-1.1662419836630704,2360856315
uw,-26.6776466369628,-64.7770385742187,2.181537555906795,-0.9717956300441936,2360872982
uw,-26.2315216064453,-64.7008209228515,2.211996458399902,-0.67685401776728,2360889649
uw,-25.7531013488769,-64.3774795532226,2.2009554325836795,-0.3174375131856973,2360906316
uw,-25.2624588012695,-63.8216438293457,2.1399973638266663,0.06557461439244022,2360922983
uw,-24.7997589111328,-63.0876770019531,2.0324751182605034,0.4309160521093982,2360939650
uw,-24.3821945190429,-62.2681732177734,1.8931568515990955,0.7411514080567126,2360956317
uw,-23.9334411621093,-61.3480644226074,1.7454640699287978,0.9666613073088085,2360972984
uw,-23.432315826416,-60.2948532104492,1.6168711090080412,1.0890539246502768,2360989651
uw,-22.9156990051269,-59.2263069152832,1.5332379728733212,1.1033537666875646,2361006318
uw,-22.4353294372558,-58.3086166381835,1.5131657469996191,1.018389740295694,2361022985
uw,-22.0220031738281,-57.5248641967773,1.5636760640404335,0.8552472324691369,2361039652
uw,-21.6072540283203,-56.7460594177246,1.6783634885982224,0.6441807671354675,2361056319
uw,-21.1542739868164,-56.0835494995117,1.8385935540626204,0.4206283758923557,2361072986
uw,-20.6734962463378,-55.6247673034668,2.0175290020944745,0.22072291383627676,2361089653
uw,-20.2124786376953,-55.31392288208,2.1860960385166126,0.07624074150256745,2361106320
uw,-19.7840499877929,-55.0717735290527,2.3196569078425053,0.008952424444373837,2361122987
uw,-19.3772621154785,-54.8048591613769,2.4040706625588206,0.025200129380429443,2361139654
uw,-18.9364509582519,-54.5869255065918,2.439810931962417,0.1125800443004909,2361156321
uw,-18.4737472534179,-54.5081939697265,2.4428642532472042,0.24067390189682927,2361172988
uw,-18.06148147583,-54.5606536865234,2.441524647073784,0.3664183631640533,2361189655
uw,-17.6586036682128,-54.7222366333007,2.4691542201310184,0.4428060110669043,2361206322
uw,-17.1911239624023,-55.1221237182617,2.554313492653185,0.4285035220838176,2361222989
uw,-16.6781883239746,-55.78267288208,2.7108398470516786,0.2961612158178493,2361239656
uw,-16.1917266845703,-56.737922668457,2.9309352049978363,0.03808586045864004,2361256323
uw,-15.7144432067871,-57.9236717224121,3.1838205095533847,-0.3313211732732346,2361272990
uw,-15.2622261047363,-59.3030242919921,3.4210194456790424,-0.776681133826167,2361289657
uw,-14.8307838439941,-60.7392959594726,3.5872401482397325,-1.2464193111842847,2361306324
uw,-14.3440170288085,-62.0303573608398,3.6339363004423415,-1.6807686207139774,2361322991
uw,-13.7611007690429,-63.1022605895996,3.5317738860762145,-2.021833657359125,2361339658
uw,-13.0746421813964,-63.939109802246,3.278726164960731,-2.2241501921971185,2361356325
uw,-12.3210830688476,-64.398452758789,2.902045959646266,-2.2641055984323866,2361372992
uw,-11.5136604309082,-64.4302062988281,2.4542387353102972,-2.1463904022026483,2361389659
uw,-10.6880302429199,-64.1264343261718,2.0046505617128414,-1.9053427530599991,2361406326
uw,-9.861946105957,-63.8138771057128,1.6288084327884926,-1.5994916813997213,2361422993
uw,-9.025951385498,-63.5633544921875,1.3970437131993678,-1.2995312568461548,2361439660
uw,-8.2084007263183,-63.1605987548828,1.362790679034323,-1.0727787782953615,2361456327
uw,-7.4123077392578,-62.4999732971191,1.5505573604681164,-0.9690066593822882,2361472994
uw,-6.7036323547363,-61.4180030822753,1.9449684482918994,-1.0115641121686463,2361489661
uw,-5.8690395355224,-60.5760345458984,2.4849995948333294,-1.1939706424350218,2361506328
uw,-5.2947368621826,-61.5497589111328,3.0690594907178546,-1.4787953310801927,2361522995
uw,-4.9920272827148,-63.3469123840332,3.574087823714994,-1.7972301968418916,2361539662
uw,-5.1220645904541,-64.0049438476562,3.885375057903455,-2.054358411992369,2361556329
uw,-5.8575534820556,-63.3284568786621,3.927443845828411,-2.148465817763828,2361572996
uw,-7.0049304962158,-62.5695114135742,3.6847446722612465,-2.005025313368379,2361589663
uw,-8.4603481292724,-62.1214027404785,3.205056216040977,-1.6121935328259158,2361606330
uw,-10.1944942474365,-61.6547317504882,2.5853327870922,-1.0383475826721889,2361622997
uw,-11.8557567596435,-61.030532836914,1.9455744662523624,-0.4193585160090677,2361639664
uw,-13.1836128234863,-60.559341430664,1.3991257765013718,0.08208068728809026,2361656331
uw,-14.405044555664,-60.2699928283691,1.027545191394902,0.3298094298872986,2361672998
uw,-15.7416038513183,-59.9921531677246,0.8657394375730795,0.2594162341986001,2361689665
uw,-17.3303260803222,-59.5223121643066,0.8995548012861206,-0.10181365272943696,2361706332
uw,-19.2542686462402,-58.9491653442382,1.0744838513923252,-0.6464072633333863,2361722999
uw,-21.385009765625,-58.3860893249511,1.3115248745211165,-1.2230864345398622,2361739666
uw,-23.5049667358398,-57.7463607788085,1.5253252030856943,-1.6829084582925087,2361756333
uw,-25.6259841918945,-56.9353828430175,1.6406790392725705,-1.9189740789503997,2361773000
uw,-27.8462257385253,-56.0546989440918,1.6052563070355714,-1.8888476673563135,2361789667
uw,-30.2102584838867,-55.1985893249511,1.3976530367361746,-1.6166927134833624,2361806334
uw,-32.6621932983398,-54.427677154541,1.0299507701132564,-1.1786552502758454,2361823001
uw,-35.1451148986816,-53.6814384460449,0.5438974312190514,-0.6784211317722032,2361839668
uw,-37.6777725219726,-52.8542861938476,0.0008265605935286581,-0.22036419015905231,2361856335
uw,-40.201187133789,-51.9667282104492,-0.5324802611231968,0.11356812878084697,2361873002
uw,-42.7370567321777,-51.0900688171386,-0.9979873854851473,0.2790316024199419,2361889669
uw,-45.1230850219726,-50.2084236145019,-1.3565614575315628,0.27435793214946846,2361906336
uw,-47.4109191894531,-49.3000755310058,-1.5917966295671462,0.1354063014457634,2361923003
uw,-49.6210098266601,-48.3973999023437,-1.7078537486224374,-0.07780065843641099,2361939670
uw,-51.7369918823242,-47.5595245361328,-1.723698214590168,-0.2987700928156417,2361956337
uw,-53.7491149902343,-46.7782325744628,-1.666660152690175,-0.4717411261952959,2361973004
uw,-55.702033996582,-45.9604034423828,-1.567355127411527,-0.5641062610338496,2361989671
uw,-57.7026824951171,-45.0869827270507,-1.4565199005580933,-0.5715396213318468,2362006338
uw,-59.7623825073242,-44.2011337280273,-1.3631322404291637,-0.515520119164087,2362023005
uw,-61.8259124755859,-43.3736190795898,-1.3127369447317199,-0.43475161745280577,2362039672
uw,-63.77197265625,-42.6293487548828,-1.325162418088939,-0.37304483244457587,2362056339
uw,-65.5900726318359,-41.9435997009277,-1.411531466171428,-0.3666044410210066,2362073006
uw,-67.2045288085937,-41.2596931457519,-1.5713208235658351,-0.43361278052844965,2362089673
uw,-67.9800643920898,-40.5217971801757,-1.7908340678095813,-0.5686508923603024,2362106340
uw,-67.2660598754882,-39.6693840026855,-2.0444495586127713,-0.7437007613261725,2362123007
uw,-65.8468322753906,-38.7210311889648,-2.299189605752933,-0.9160049429142363,2362139674
uw,-64.1898574829101,-37.6850967407226,-2.521769801734873,-1.0410233261881952,2362156341
uw,-62.4074172973632,-36.5974960327148,-2.6860459340875864,-1.0867599860192299,2362173008
uw,-60.527099609375,-35.5101661682128,-2.778430646877601,-1.0447920562981223,2362189675
uw,-58.6751022338867,-34.4079971313476,-2.799612507324874,-0.9340900140538522,2362206342
uw,-56.8992767333984,-33.2799453735351,-2.76232917169207,-0.7960382127758363,2362223009
uw,-55.2583999633789,-32.1187477111816,-2.686326591947979,-0.6820719739998439,2362239676
uw,-53.6880874633789,-30.8773250579834,-2.592492380679302,-0.6379446124555196,2362256343
uw,-52.3250503540039,-29.565782546997,-2.4982981426845656,-0.6898941467480668,2362273010
uw,-51.1277236938476,-28.2552642822265,-2.416041241038728,-0.8373350036626578,2362289677
uw,-50.1248397827148,-26.955768585205,-2.3540090158767812,-1.0542392284661646,2362306344
uw,-49.3529968261718,-25.7173709869384,-2.3191561176870024,-1.298036391516,2362323011
uw,-48.7278366088867,-24.6422443389892,-2.3191250341754563,-1.522174246521009,2362339678
uw,-48.2656097412109,-23.8146953582763,-2.3619800633970334,-1.6877241661652331,2362356345
uw,-48.0346374511718,-23.2460536956787,-2.4534777613091143,-1.770788327975913,2362373012
uw,-48.0480041503906,-22.8492412567138,-2.5931507738698256,-1.7649276900736635,2362389679
uw,-48.2975006103515,-22.531623840332,-2.7712141601447615,-1.6798255827662187,2362406346
uw,-48.7744216918945,-22.2753620147705,-2.9680942687200247,-1.537963499104194,2362423013
uw,-49.5384063720703,-22.0717983245849,-3.157417347330701,-1.3704097996248668,2362439680
uw,-50.5820541381836,-21.938455581665,-3.3119801220691314,-1.2118895434337857,2362456347
uw,-51.8236389160156,-21.9195327758789,-3.4110493919119214,-1.0949988426235822,2362473014
uw,-53.1913070678711,-21.9695663452148,-3.4467749521131097,-1.0439402309887507,2362489681
uw,-54.5133743286132,-22.0347671508789,-3.427804717953308,-1.0689996948961002,2362506348
uw,-55.9214172363281,-22.0677547454834,-3.379194357385995,-1.163435888914031,2362523015
uw,-57.4279861450195,-22.0393905639648,-3.338842559570631,-1.3040750265360173,2362539682
uw,-59.053970336914,-21.938850402832,-3.35132186978007,-1.455864449479857,2362556349
uw,-60.6911697387695,-21.7550239562988,-3.459845577039122,-1.5795102111926491,2362573016
uw,-62.317886352539,-21.4915866851806,-3.6966153167096096,-1.6405720190947162,2362589683
uw,-63.931884765625,-21.2082443237304,-4.0718295822201815,-1.6180733271746182,2362606350
uw,-65.510139465332,-20.9233093261718,-4.562843949286425,-1.51068189554048,2362623017
uw,-67.0506439208984,-20.6123714447021,-5.107060231261669,-1.3388140986888815,2362639684
uw,-68.3743057250976,-20.2197875976562,-5.603906155978934,-1.141697558674842,2362656351
uw,-68.2418670654296,-19.7448101043701,-5.93118742390234,-0.9695097783699073,2362673018
uw,-66.4459838867187,-19.221529006958,-5.977478807385487,-0.8720655868058721,2362689685
uw,-64.6339645385742,-18.7184181213378,-5.684023334423062,-0.8868124578785656,2362706352
uw,-63.3915863037109,-18.1229953765869,-5.078970179499684,-1.0295088591703123,2362723019
uw,-64.2777252197265,-17.5433139801025,-4.281568001752908,-1.2902680268122033,2362739686
uw,-65.5596160888671,-17.1661434173584,-3.4638559386165695,-1.6356238822228415,2362756353
uw,-65.0670776367187,-17.1413459777832,-2.7822556243091245,-2.0149966301416193,2362773020
uw,-62.715705871582,-17.5554981231689,-2.3145322193168005,-2.3689479054212663,2362789687
uw,-60.62109375,-18.3391246795654,-2.038071957941109,-2.637470720536547,2362806354
uw,-59.3289337158203,-19.5859127044677,-1.8601510949771989,-2.7682225937037668,2362823021
uw,-58.5201416015625,-21.1705341339111,-1.6790568696053885,-2.725453943952456,2362839688
uw,-57.7434005737304,-22.8970012664794,-1.4395912196869733,-2.499557696006383,2362856355
uw,-56.7759246826171,-24.6185684204101,-1.1549326431064029,-2.1151183049339948,2362873022
uw,-55.2738800048828,-26.2643241882324,-0.8892548406503682,-1.6335099014091705,2362889689
uw,-53.6284484863281,-27.8865928649902,-0.7165536903503873,-1.1461200356301273,2362906356
uw,-52.1524276733398,-29.5581665039062,-0.6801741584974379,-0.7569013254602855,2362923023
uw,-50.844009399414,-31.3917140960693,-0.7725493206892167,-0.5573136634345642,2362939690
uw,-49.5767440795898,-33.483901977539,-0.9411579883121474,-0.6007208726372427,2362956357
uw,-48.2808685302734,-35.7124099731445,-1.1131916764453131,-0.8848463850275762,2362973024
uw,-46.9556198120117,-37.913028717041,-1.2243980913390473,-1.348984628808205,2362989691
uw,-45.6553726196289,-40.0493736267089,-1.2388485572955845,-1.8878806844252087,2363006358
uw,-44.4621887207031,-42.0525016784668,-1.1534359732854684,-2.378410426513148,2363023025
uw,-43.4186286926269,-43.9345817565918,-0.9891178531191133,-2.7107973721799943,2363039692
uw,-42.5415153503418,-45.7890014648437,-0.7761845148572848,-2.8148871815682357,2363056359
uw,-41.7613983154296,-47.5631141662597,-0.5414400736942454,-2.6742940923506144,2363073026
uw,-41.0032958984375,-49.2276268005371,-0.3020888243269652,-2.325742441866847,2363089693
uw,-40.2674522399902,-50.8034400939941,-0.06678471509408045,-1.845547392425195,2363106360
uw,-39.5774269104003,-52.302131652832,0.15898964587190745,-1.3282696835091463,2363123027
uw,-38.8819694519043,-53.7605094909668,0.3672399673669272,-0.8636736334774575,2363139694
uw,-38.2192573547363,-55.1600036621093,0.5447447827594266,-0.5176147471663177,2363156361
uw,-37.6063842773437,-56.4358901977539,0.6746629554735081,-0.32090968909515893,2363173028
uw,-37.0156555175781,-57.5550193786621,0.741665718773849,-0.2679356425427717,2363189695
uw,-36.3869094848632,-58.4963150024414,0.7382279437953487,-0.3240522597751438,2363206362
uw,-35.6854705810546,-59.2885437011718,0.6692853215422961,-0.43863135744523996,2363223029
uw,-34.9795227050781,-59.9491653442382,0.5532479088057808,-0.5593583729550862,2363239696
uw,-34.3197593688964,-60.4935874938964,0.4188917959610706,-0.6439611111235384,2363256363
uw,-33.6850433349609,-60.9553680419921,0.29918801195843325,-0.6671904564142931,2363273030
uw,-33.0983924865722,-61.3576545715332,0.22405494103014906,-0.6226955347287375,2363289697
uw,-32.5806350708007,-61.6504974365234,0.21409306785463944,-0.5206256790812721,2363306364
uw,-32.0589027404785,-61.8070259094238,0.2767391370799265,-0.3823181259629949,2363323031
uw,-31.4737396240234,-61.8414878845214,0.4053997030738117,-0.23363517328499783,2363339698
uw,-30.8899269104003,-61.7363166809082,0.5814230652040517,-0.0985458728829451,2363356365
uw,-30.3559455871582,-61.4785385131835,0.7783693354762211,0.005692753206787119,2363373032
uw,-29.8765449523925,-61.1459846496582,0.9677559348732381,0.07095050868373817,2363389699
uw,-29.4971084594726,-60.846923828125,1.1251238423189762,0.09811770404289247,2363406366
uw,-29.1573257446289,-60.6237335205078,1.2350165075992867,0.09493082032477691,2363423033
uw,-28.798828125,-60.4170684814453,1.2935917405600141,0.07252531982010178,2363439700
uw,-28.3916969299316,-60.1873970031738,1.308222542211595,0.0417113460224375,2363456367
uw,-27.9874839782714,-59.9053573608398,1.294375807047421,0.010093385420106408,2363473034
uw,-27.6124839782714,-59.6150169372558,1.2709000783774478,-0.018974973330538384,2363489701
uw,-27.2747726440429,-59.3992271423339,1.2552688104830974,-0.045254179958719803,2363506368
uw,-26.9789924621582,-59.2966918945312,1.2601539613356476,-0.06899632425937319,2363523035
uw,-26.6940841674804,-59.3238067626953,1.2920176047033274,-0.08839071610151332,2363539702
uw,-26.397289276123,-59.4206504821777,1.3515215902965922,-0.09874591298959332,2363556369
