Label,Left_Hip_q,Right_Hip_q,Left_Hip_qd,Right_Hip_qd,SampleTimeFine
uw,-63.6605796813964,-32.9986343383789,0.613671660423278,1.83609664440155,2454609058
uw,-63.7558288574218,-32.612133026123,0.2902313220094746,1.9881627953097423,2454625725
uw,-63.9114418029785,-32.1557731628418,0.02667194112367817,1.505582978115081,2454642392
uw,-64.0596313476562,-31.6787929534912,-0.13543420222287011,1.06721071530098,2454659059
uw,-64.3021469116211,-31.1425151824951,-0.12889980097015272,0.7174014501453786,2454675726
uw,-64.5196685791015,-30.5508728027343,0.06806943290417544,0.5038928006116492,2454692393
uw,-64.7354354858398,-30.1175308227539,0.42320038237057345,0.47076371708860454,2454709060
uw,-64.9720458984375,-29.7603569030761,0.8539501472847291,0.645021243233858,2454725727
uw,-65.1946487426757,-29.1866245269775,1.244233881659216,1.0209227794823712,2454742394
uw,-65.401496887207,-28.7414836883544,1.4721640019178046,1.5486776889080562,2454759061
uw,-65.36328125,-28.7914066314697,1.4437357768231538,2.1345850469961554,2454775728
uw,-66.5204620361328,-29.1776046752929,1.123643393213697,2.656945309505262,2454792395
uw,-66.1150360107421,-29.8001060485839,0.5521660590833435,2.9961076858278277,2454809062
uw,-65.7701568603515,-30.8201217651367,-0.16047089593776215,3.069678228661578,2454825729
uw,-66.1640548706054,-32.0794486999511,-0.8628726492554616,2.859225140068611,2454842396
uw,-66.9408187866211,-33.4650039672851,-1.4052297632609099,2.416626797278337,2454859063
uw,-67.7674331665039,-35.2559127807617,-1.6810285713634245,1.8467739071899179,2454875730
uw,-68.5137786865234,-37.4595222473144,-1.653801160715346,1.2741006193928854,2454892397
uw,-69.1442565917968,-39.9175834655761,-1.361730166375501,0.8069112868060573,2454909064
uw,-69.7374191284179,-42.3998947143554,-0.9013536334580218,0.5121909814732802,2454925731
uw,-70.3785629272461,-45.0226821899414,-0.39799461035941164,0.4064757910705526,2454942398
uw,-70.990608215332,-47.8984184265136,0.027017139944220916,0.4607779052424528,2454959065
uw,-71.5069351196289,-50.9372901916503,0.2835152143092274,0.61393023022303,2454975732
uw,-71.8537979125976,-53.916877746582,0.32862383268852735,0.7895532311377901,2454992399
uw,-72.0775909423828,-56.7494087219238,0.17020448999071733,0.9142664604716265,2455009066
uw,-72.381362915039,-59.5541343688964,-0.14091581073366474,0.9355561631508619,2455025733
uw,-72.7069778442382,-62.061954498291,-0.5265142688806465,0.8362369494881329,2455042400
uw,-72.9669570922851,-64.6272964477539,-0.9001361930541579,0.6409054836074268,2455059067
uw,-73.1839294433593,-67.1273498535156,-1.185807937625047,0.4107217111869195,2455075734
uw,-73.4294967651367,-69.34130859375,-1.332946135548329,0.2265725041502201,2455092401
uw,-73.7525100708007,-71.3344955444336,-1.3249925621926497,0.16510972283302658,2455109068
uw,-74.1259536743164,-73.1940460205078,-1.1803091223807245,0.27490309662387186,2455125735
uw,-74.5012817382812,-74.8108749389648,-0.9451523817944056,0.5599987579513905,2455142402
uw,-74.8455123901367,-75.9949951171875,-0.6802276194970243,0.9759314547691014,2455159069
uw,-75.1930923461914,-77.0851898193359,-0.4441748944351485,1.4396058515933676,2455175736
uw,-75.4906463623046,-78.423355102539,-0.27865282213927844,1.8503545521153295,2455192403
uw,-75.7717590332031,-79.8887100219726,-0.1995228941969137,2.1159745248751647,2455209070
uw,-76.0096893310546,-81.5592727661132,-0.19655879335819187,2.17589510398269,2455225737
uw,-76.1563491821289,-83.2759704589843,-0.24083175437747145,2.014679011002628,2455242404
uw,-76.2771759033203,-84.9483261108398,-0.2961421221260632,1.662516106521274,2455259071
uw,-76.4878463745117,-86.3391647338867,-0.3300724706460687,1.1838015798817325,2455275738
uw,-76.7599105834961,-87.4213943481445,-0.32159742573072003,0.6584834981679863,2455292405
uw,-77.0298843383789,-88.0281143188476,-0.264516488035222,0.16239415058105638,2455309072
uw,-77.2544479370117,-87.9532089233398,-0.16773016116261916,-0.24789349629100968,2455325739
uw,-77.4735031127929,-87.3313446044921,-0.053683262618892516,-0.5422923541238459,2455342406
uw,-77.6691055297851,-86.5462265014648,0.04462523959740566,-0.7157947563513756,2455359073
uw,-77.8616714477539,-85.7730255126953,0.08875906647173946,-0.7801923638659761,2455375740
uw,-78.0769958496093,-85.1062316894531,0.04286339123407013,-0.7524560198597123,2455392407
uw,-78.358154296875,-84.8117523193359,-0.11603668024541779,-0.6440253724800978,2455409074
uw,-78.5446472167968,-84.9032287597656,-0.38824799251755787,-0.45480882453377935,2455425741
uw,-78.598030090332,-85.3924484252929,-0.746272550106142,-0.17426696039809547,2455442408
uw,-78.608154296875,-86.2133331298828,-1.1376403780598814,0.21016400973951155,2455459075
uw,-78.6290969848632,-87.3872375488281,-1.496098143497307,0.6995731219024063,2455475742
uw,-78.6591567993164,-88.8912963867187,-1.7580550113174818,1.2696762987298118,2455492409
uw,-78.7155303955078,-89.793472290039,-1.8789672147378698,1.8625609943863208,2455509076
uw,-78.8386917114257,-87.9629898071289,-1.8442732283393932,2.389428083009464,2455525743
uw,-78.9922866821289,-86.1615142822265,-1.6714172117955095,2.746588917748081,2455542410
uw,-79.1513519287109,-84.183853149414,-1.4026659603516851,2.8421778314564534,2455559077
uw,-79.2836990356445,-82.1196975708007,-1.0917195388112606,2.626235254491631,2455575744
uw,-79.3739776611328,-80.150146484375,-0.789261536268674,2.11421716940934,2455592411
uw,-79.41162109375,-78.2923126220703,-0.5326186073845594,1.395124417690839,2455609078
uw,-79.3253021240234,-76.2107467651367,-0.34245766473099054,0.6198258812010834,2455625745
uw,-79.153694152832,-74.1453475952148,-0.2259236675374171,-0.029462878177833243,2455642412
uw,-78.8672180175781,-72.7516174316406,-0.18270268315586466,-0.3831620637706411,2455659079
uw,-78.3460388183593,-72.7078857421875,-0.20989597078094635,-0.3330388927884871,2455675746
uw,-77.5813827514648,-72.9374160766601,-0.30339777956242553,0.12657259505659638,2455692413
uw,-76.6258926391601,-72.4294815063476,-0.45601230485387356,0.8805808215000713,2455709080
uw,-75.5675201416015,-70.9289321899414,-0.6540772692218919,1.7123591525560162,2455725747
uw,-74.4225692749023,-69.0243682861328,-0.8745966022252798,2.363757051476431,2455742414
uw,-73.2387084960937,-67.364875793457,-1.0846250306921545,2.6198340525391237,2455759081
uw,-71.9382095336914,-66.7087860107421,-1.244327680504744,2.3856789511090066,2455775748
uw,-70.4660415649414,-66.5184478759765,-1.3142972058235878,1.7217905999623648,2455792415
uw,-68.8870773315429,-66.1696548461914,-1.2659199161314123,0.8219526840804904,2455809082
uw,-67.223762512207,-65.4865570068359,-1.0914542592471903,-0.056541842669543575,2455825749
uw,-65.5414123535156,-64.5767288208007,-0.8094490894281663,-0.6804698852621667,2455842416
uw,-63.9352226257324,-63.4635696411132,-0.46223698593651014,-0.9115195557111365,2455859083
uw,-62.3894271850585,-62.3358459472656,-0.10524893816616218,-0.7366373379293746,2455875750
uw,-60.9795684814453,-61.3227653503418,0.2086087615215887,-0.2532023489244287,2455892417
uw,-59.658519744873,-60.2746849060058,0.4440072442374722,0.37794770574245407,2455909084
uw,-58.4965629577636,-59.2425689697265,0.5922040141213748,0.9895255436224494,2455925751
uw,-57.3519096374511,-58.2813644409179,0.6708583089224796,1.4542381926544656,2455942418
uw,-56.3435478210449,-57.3531875610351,0.7150952025989834,1.7090341209006374,2455959085
uw,-55.4196968078613,-56.4992027282714,0.7635630185453082,1.7562019672419056,2455975752
uw,-54.6123008728027,-55.638988494873,0.8448343998222345,1.6477985497629184,2455992419
uw,-53.8149948120117,-54.75923538208,0.9688262271234478,1.4622237899296984,2456009086
uw,-52.9883728027343,-53.9269714355468,1.1254866598327948,1.280316714214677,2456025753
uw,-52.166446685791,-53.1400260925293,1.2901096218372827,1.1656485508425567,2456042420
uw,-51.3022956848144,-52.3567428588867,1.432545853072836,1.1515137173121828,2456059087
uw,-50.4694862365722,-51.5615730285644,1.5268831191294665,1.2358541029883552,2456075754
uw,-49.6778182983398,-50.7663803100585,1.5587337225187292,1.3844754660568952,2456092421
uw,-48.8668937683105,-49.9591789245605,1.5285467394127412,1.5418069550524987,2456109088
uw,-48.0976104736328,-49.1541328430175,1.4507375109363183,1.6469652831610677,2456125755
uw,-47.3799819946289,-48.4036979675293,1.3494489214884815,1.6513964098913556,2456142422
uw,-46.7170867919921,-47.7168083190918,1.252274065889928,1.533532909357852,2456159089
uw,-46.1008872985839,-47.0714416503906,1.1833973181030693,1.3063305071847437,2456175756
uw,-45.6304740905761,-46.4338340759277,1.1575801518392315,1.0153988641900884,2456192423
uw,-45.3521842956543,-45.7944869995117,1.1763558468279507,0.7281569484269104,2456209090
uw,-45.1617317199707,-45.1745910644531,1.227583867207662,0.5169825520039532,2456225757
uw,-45.0278511047363,-44.5500831604003,1.2888774549476847,0.44083771475367556,2456242424
uw,-44.9959182739257,-43.9814796447753,1.3342934815595877,0.5300706460393108,2456259091
uw,-45.0588188171386,-43.3968696594238,1.3424716809790547,0.7781943856789502,2456275758
uw,-45.2159194946289,-42.7934951782226,1.3037585734970958,1.1427338025616973,2456292425
uw,-45.5340156555175,-42.2423858642578,1.2240524021797627,1.555049855069023,2456309092
uw,-46.024429321289,-41.719383239746,1.1239780774457029,1.9368001972852606,2456325759
uw,-46.6881561279296,-41.2306480407714,1.0332191407362852,2.218903328270076,2456342426
uw,-47.5027847290039,-40.7725944519043,0.9811985788866068,2.3580969868772854,2456359093
uw,-48.336669921875,-40.3320236206054,0.986629471364261,2.3467613663277374,2456375760
uw,-49.0738220214843,-39.8711471557617,1.0493863638516063,2.21350216076586,2456392427
uw,-49.8765411376953,-39.3918495178222,1.148175401169246,2.014500423906073,2456409094
uw,-50.6885566711425,-38.892967224121,1.2461992344275492,1.8180699275246863,2456425761
uw,-51.2397575378418,-38.3543052673339,1.30438741192258,1.6865193747220601,2456442428
uw,-51.5852737426757,-37.771556854248,1.2983618408625244,1.6598813764927869,2456459095
uw,-52.0069046020507,-37.1616287231445,1.2323689454387834,1.7453453357413304,2456475762
uw,-52.5241165161132,-36.5524826049804,1.142595822285089,1.9147071806545757,2456492429
uw,-52.7719001770019,-35.9969673156738,1.084992840237787,2.1103628625624835,2456509096
uw,-53.2552452087402,-35.5617485046386,1.1090793989901124,2.2587115894374654,2456525763
uw,-53.6851921081543,-35.3271827697753,1.2273113272891476,2.2884140964836304,2456542430
uw,-54.1201210021972,-35.2659721374511,1.3955140636822896,2.149754405871245,2456559097
uw,-55.3742599487304,-35.333080291748,1.5188016183678326,1.8304949456486843,2456575764
uw,-56.6685829162597,-35.6270675659179,1.4866198314101307,1.3635090581799583,2456592431
uw,-57.7258491516113,-36.0987205505371,1.2238619844755254,0.8227515546868732,2456609098
uw,-58.5299415588378,-36.7832946777343,0.7329672345009568,0.3071683576603861,2456625765
uw,-59.3347206115722,-37.8857498168945,0.1041465642940083,-0.08364935108768604,2456642432
uw,-60.221019744873,-39.4742622375488,-0.5130370549611412,-0.2747296038794269,2456659099
uw,-61.0718231201171,-41.43696975708,-0.9639281163292036,-0.2337831739149974,2456675766
uw,-61.9655799865722,-43.6783981323242,-1.1444433741968727,0.023399868596757176,2456692433
uw,-62.9249420166015,-45.7301063537597,-1.0349751814909,0.4408622523300631,2456709100
uw,-63.8636894226074,-47.4188346862793,-0.7010019331628528,0.9395803127684536,2456725767
uw,-64.7579269409179,-49.0002212524414,-0.26403938524611276,1.4368734112605241,2456742434
uw,-65.598762512207,-50.7544174194335,0.1420451979404595,1.861525916399405,2456759101
uw,-66.325813293457,-52.6329193115234,0.4112382736762953,2.161170498393658,2456775768
uw,-66.9854125976562,-54.4600067138671,0.48911255141764354,2.3028329409743753,2456792435
uw,-67.63818359375,-56.2370071411132,0.37639967765844784,2.2705816530013356,2456809102
uw,-68.2449722290039,-58.0198135375976,0.11694397715876477,2.0642280442959406,2456825769
uw,-68.8204574584961,-59.9779968261718,-0.22164296617106483,1.7004088876567498,2456842436
uw,-69.4037628173828,-62.1769828796386,-0.5670936639430982,1.2143927570998163,2456859103
uw,-69.963134765625,-64.4036788940429,-0.8570014193399189,0.6597665233603327,2456875770
uw,-70.4999465942382,-66.5514450073242,-1.047528249210148,0.10417371943656356,2456892437
uw,-71.0235748291015,-68.5299301147461,-1.1169958378130782,-0.3788095285536427,2456909104
uw,-71.4557037353515,-70.2888793945312,-1.0657497636329716,-0.7202165942496562,2456925771
uw,-71.7614440917968,-71.7822265625,-0.9136585857658206,-0.8667847083462594,2456942438
uw,-72.0756912231445,-73.098403930664,-0.6961581217147761,-0.790750183712832,2456959105
uw,-72.383544921875,-74.2561645507812,-0.4590604642979921,-0.4964845750663441,2456975772
uw,-72.6878814697265,-75.1937408447265,-0.25180209478246374,-0.02217783616340743,2456992439
uw,-73.0447540283203,-75.8900756835937,-0.11894066648061129,0.5646670155783553,2457009106
uw,-73.3985595703125,-76.4250717163086,-0.09074011929501857,1.1779018558912493,2457025773
uw,-73.752815246582,-76.8081512451171,-0.17510101773660855,1.727836169679594,2457042440
uw,-74.0473098754882,-77.0584716796875,-0.3538216196293161,2.137522760002494,2457059107
uw,-74.2432022094726,-77.3027725219726,-0.585363004142383,2.3563210128904912,2457075774
uw,-74.4261932373046,-77.5911712646484,-0.8141145789382345,2.367468416174665,2457092441
uw,-74.6072387695312,-77.8345947265625,-0.9837721847620264,2.1881514059007974,2457109108
uw,-74.7980270385742,-78.0061111450195,-1.0510719500327237,1.8627381727523982,2457125775
uw,-74.980110168457,-78.1241455078125,-0.9962078462838156,1.451597570807676,2457142442
uw,-75.1764678955078,-78.2029495239257,-0.8274410314291714,1.0187456072898997,2457159109
uw,-75.4160232543945,-78.2684783935546,-0.5790847458327774,0.621265488878499,2457175776
uw,-75.6556396484375,-78.314826965332,-0.30373655210063993,0.3022144812543336,2457192443
uw,-75.884895324707,-78.3148727416992,-0.06092351955173346,0.08712461902339301,2457209110
uw,-76.1096878051757,-78.1975402832031,0.09511734143318548,-0.01694182839372212,2457225777
uw,-76.2994766235351,-77.7870864868164,0.12604348641389812,-0.020874884706910152,2457242444
uw,-76.4361267089843,-76.9882583618164,0.016626488815471352,0.04833623005514957,2457259111
uw,-76.5505447387695,-75.7052688598632,-0.22243821514731932,0.15184840053593626,2457275778
uw,-76.628921508789,-74.1487731933593,-0.5565013480517227,0.24697586084377476,2457292445
uw,-76.7231750488281,-73.0088653564453,-0.9333310790450048,0.29899891581664173,2457309112
uw,-76.8333435058593,-72.4236068725586,-1.292596449629015,0.29394176636699487,2457325779
uw,-76.9932708740234,-71.7221984863281,-1.5764005944278034,0.2467289234259376,2457342446
uw,-77.362434387207,-71.0467987060546,-1.7386172691807276,0.19895235783460777,2457359113
uw,-78.0259094238281,-70.1117324829101,-1.751392453518024,0.20421612573994813,2457375780
uw,-78.9180755615234,-68.7484359741211,-1.6083146729160362,0.3052379104198946,2457392447
uw,-79.8849945068359,-67.1210174560546,-1.3247902988228681,0.5120236824002499,2457409114
uw,-80.6167831420898,-65.7175521850586,-0.936422041274498,0.7911980075170537,2457425781
uw,-80.85595703125,-64.5358505249023,-0.49554970194921066,1.0722034699662129,2457442448
uw,-80.5026779174804,-63.2293281555175,-0.0652762189318455,1.2688684520471318,2457459115
uw,-79.592056274414,-61.8339576721191,0.2896497209471722,1.3084343298620593,2457475782
uw,-78.2934265136718,-60.6114768981933,0.5143871246178158,1.1571918940771595,2457492449
uw,-76.7249145507812,-59.7792778015136,0.5755257905923716,0.8332282732387895,2457509116
uw,-75.2548446655273,-59.1689376831054,0.46933001928908347,0.4018500775907229,2457525783
uw,-73.9609985351562,-58.6257400512695,0.22419128527879514,-0.04395584473345745,2457542450
uw,-72.8458709716796,-58.0022315979003,-0.10366037306410528,-0.4103348420938642,2457559117
uw,-71.7079086303711,-57.2552223205566,-0.44063798967637197,-0.6275218746335393,2457575784
uw,-70.5279998779296,-56.4927635192871,-0.7106115789510236,-0.6659231372447033,2457592451
uw,-69.2350311279296,-55.8358154296875,-0.8508570136461675,-0.5398394572523574,2457609118
uw,-67.9876632690429,-55.3027725219726,-0.8250120835980479,-0.29890577815300595,2457625785
uw,-66.7484588623046,-54.8358612060546,-0.6293399093797015,-0.010611640287659445,2457642452
uw,-65.489990234375,-54.407413482666,-0.2907097887092595,0.26019784593473544,2457659119
uw,-64.2723770141601,-53.9013519287109,0.14242091728353407,0.4682151030781242,2457675786
uw,-63.2829208374023,-53.2272796630859,0.6125740402901352,0.5959964320904367,2457692453
uw,-62.3891410827636,-52.528221130371,1.0653755799658502,0.6522020491143447,2457709120
uw,-61.4902763366699,-51.8437194824218,1.4582546457923091,0.6619879540422373,2457725787
uw,-60.6436653137207,-51.1839942932128,1.7645350038850403,0.6543232367646354,2457742454
uw,-59.8735771179199,-50.496223449707,1.9734333930760584,0.6513453833969812,2457759121
uw,-59.1677589416503,-49.7237129211425,2.0874177831198364,0.6630652374530344,2457775788
uw,-58.5637168884277,-48.8823738098144,2.1184014415564536,0.6879043364764799,2457792455
uw,-58.0272941589355,-48.0231437683105,2.0837252312801877,0.7171732543343433,2457809122
uw,-57.5250015258789,-47.2033882141113,2.0024108976202215,0.7406166427041053,2457825789
uw,-57.0083122253418,-46.4786491394043,1.8920703246584274,0.7505887219875681,2457842456
uw,-56.5434494018554,-45.8343963623046,1.7669416720947515,0.7437106208005705,2457859123
uw,-56.1309471130371,-45.2012977600097,1.6374089682112982,0.7202714380785972,2457875790
uw,-55.7429313659668,-44.5689048767089,1.5109283617843308,0.6825572460516997,2457892457
uw,-55.4229393005371,-43.9654731750488,1.3937812271295678,0.6334288053185315,2457909124
uw,-55.1772232055664,-43.4706993103027,1.2928307587677914,0.5759502438868385,2457925791
uw,-55.0412979125976,-43.0521430969238,1.2165727063484264,0.5140980275576547,2457942458
uw,-55.0780181884765,-42.7421646118164,1.175077003488902,0.4539110594498739,2457959125
uw,-55.2585945129394,-42.5668754577636,1.17870294321559,0.40408793112219465,2457975792
uw,-55.536018371582,-42.4289855957031,1.2356918197481257,0.3751464363397408,2457992459
uw,-55.898826599121,-42.295612335205,1.34900919670396,0.3768911738319006,2458009126
uw,-56.4021644592285,-42.1120567321777,1.5131763752948457,0.4148682905777717,2458025793
uw,-57.0579986572265,-41.8847541809082,1.7121397221751176,0.48722510355983895,2458042460
uw,-57.7864608764648,-41.6938209533691,1.9192224526708554,0.5834792249160061,2458059127
uw,-58.5713310241699,-41.5204582214355,2.099776260681775,0.6860525790146181,2458075794
uw,-59.3525886535644,-41.3570404052734,2.216430464280666,0.7743557720415122,2458092461
uw,-60.218894958496,-41.1658172607421,2.236090992500811,0.8302010158880833,2458109128
uw,-61.2249298095703,-40.8985633850097,2.1373271923607486,0.8427875947461888,2458125795
uw,-62.2091979980468,-40.5853004455566,1.9166409979716341,0.8116416186407287,2458142462
uw,-62.9371871948242,-40.2651062011718,1.5923005658435565,0.746619833801059,2458159129
uw,-63.6587562561035,-39.9904861450195,1.2047700960423344,0.6650705782090813,2458175796
uw,-64.3667907714843,-39.7584609985351,0.8131421039380895,0.5870833475281433,2458192463
uw,-65.1380844116211,-39.5478363037109,0.48737877975266164,0.5302096035628904,2458209130
uw,-65.857177734375,-39.3915252685546,0.2966967851094311,0.5050606115627979,2458225797
uw,-66.4013137817382,-39.1652374267578,0.2951789208103745,0.5128574853932207,2458242464
uw,-67.1115493774414,-38.8594589233398,0.5066553986405246,0.5454948135599401,2458259131
uw,-67.9245223999023,-38.8892593383789,0.9119489250099029,0.5882151195524089,2458275798
uw,-68.8588943481445,-39.2073516845703,1.4425551238517196,0.624630095225823,2458292465
uw,-70.1144714355468,-39.8428726196289,1.9852590048543193,0.6432813669637492,2458309132
uw,-71.6581497192382,-40.6524581909179,2.4008663673821053,0.6440103411642157,2458325799
uw,-73.3175506591796,-41.6532478332519,2.5559777842320224,0.6416001456246451,2458342466
uw,-74.8784561157226,-42.8240928649902,2.360440930462186,0.6644095376445583,2458359133
uw,-76.1958312988281,-44.197280883789,1.798325967363743,0.7474159663103728,2458375800
uw,-77.1706848144531,-45.7676963806152,0.9405629368780384,0.9214954810224177,2458392467
uw,-77.8694610595703,-47.43550491333,-0.06679689922991795,1.2025685604887684,2458409134
uw,-78.4877395629882,-49.0743827819824,-1.036312841308379,1.584430024201631,2458425801
uw,-79.1161346435546,-50.6294898986816,-1.7852675858343536,2.037578233456376,2458442468
uw,-79.7131958007812,-52.2135734558105,-2.180905260230884,2.514023290624749,2458459135
uw,-80.2173080444336,-53.7222785949707,-2.1721599298054564,2.956130858992947,2458475802
uw,-80.6664123535156,-55.0627326965332,-1.7996469099898822,3.3068763482057504,2458492469
uw,-81.1345291137695,-56.334545135498,-1.182379881745757,3.5193538821301065,2458509136
uw,-81.6118927001953,-57.5513648986816,-0.48629783746327493,3.564223850759821,2458525803
uw,-82.0282135009765,-58.7817840576171,0.11599199518060835,3.4343173217859815,2458542470
uw,-82.2730331420898,-60.0453605651855,0.48380556268303737,3.145839052273443,2458559137
uw,-82.3046112060546,-61.3541679382324,0.5366525287808094,2.7359264417260705,2458575804
uw,-82.1651382446289,-62.7481002807617,0.2670304952666067,2.256917653823595,2458592471
uw,-81.8936309814453,-64.3050308227539,-0.2633356376606913,1.768339746696539,2458609138
uw,-81.5986557006836,-66.1275634765625,-0.9411813687835605,1.3280191009152023,2458625805
uw,-81.3339462280273,-68.1073150634765,-1.6281419922357445,0.9837293199347166,2458642472
uw,-81.1365432739257,-70.0075378417968,-2.1898167808653004,0.7665922939288294,2458659139
uw,-80.9423217773437,-71.6878967285156,-2.521818184815623,0.6872538467303714,2458675806
uw,-80.7366027832031,-73.110122680664,-2.5684832092226664,0.7356390624397473,2458692473
uw,-80.5535659790039,-74.2580261230468,-2.3315075461455312,0.8845964068016001,2458709140
uw,-80.5036315917968,-75.2476043701171,-1.867428913053676,1.09683574619652,2458725807
uw,-80.5761260986328,-76.1589813232421,-1.2747023802832966,1.3335207927662422,2458742474
uw,-80.6590423583984,-77.0686645507812,-0.6730303749968469,1.5622153840922381,2458759141
uw,-80.7285003662109,-77.9547958374023,-0.179255280769922,1.7620025630803642,2458775808
uw,-80.7652893066406,-78.8283309936523,0.11508823415851437,1.924485961055404,2458792475
uw,-80.7725067138671,-79.715835571289,0.15994179901331776,2.050663347202135,2458809142
uw,-80.7521286010742,-80.5988311767578,-0.04635060187301208,2.1448886624174834,2458825809
uw,-80.7139892578125,-81.4063720703125,-0.46007591382051366,2.2080647344834645,2458842476
uw,-80.6243438720703,-81.9456329345703,-1.003728505017993,2.2326865001468708,2458859143
uw,-80.5151138305664,-82.2421798706054,-1.5831297722054853,2.2020901654183453,2458875810
uw,-80.4496383666992,-82.3561782836914,-2.1062482668948364,2.094975724813281,2458892477
uw,-80.4401931762695,-82.324836730957,-2.4999140632304337,1.8942001115217417,2458909144
uw,-80.4421691894531,-82.2260055541992,-2.7214859742117135,1.5968566359894523,2458925811
uw,-80.4088668823242,-82.0504379272461,-2.763825011864914,1.221705773177779,2458942478
uw,-80.3723678588867,-81.8600921630859,-2.653204413699771,0.8105536764132708,2458959145
uw,-80.3212738037109,-81.6322174072265,-2.4409224881716693,0.4220425936627236,2458975812
uw,-80.259895324707,-81.2744979858398,-2.1904556512872,0.11890895838252051,2458992479
uw,-80.1794738769531,-80.7173156738281,-1.9629010389375041,-0.047826910951745516,2459009146
uw,-80.0740814208984,-79.9412994384765,-1.8038879528656018,-0.0529468093693004,2459025813
uw,-79.9527282714843,-78.9677963256836,-1.7348123563100928,0.09513817232826376,2459042480
uw,-79.8432083129882,-77.8363265991211,-1.7501981619324913,0.3555971276916289,2459059147
uw,-79.7399444580078,-76.6254043579101,-1.821522468198963,0.6655498888722238,2459075814
uw,-79.6496276855468,-75.4003601074218,-1.9063358207548804,0.9569970358104772,2459092481
uw,-79.6018753051757,-74.2212142944336,-1.9602734958920103,1.175654230825727,2459109148
uw,-79.6208114624023,-73.0638198852539,-1.9488624484603683,1.296184365906436,2459125815
uw,-79.6709747314453,-71.883804321289,-1.8561125884256724,1.3289912402029227,2459142482
uw,-79.7000656127929,-70.8045501708984,-1.6877971921436785,1.315966564537214,2459159149
uw,-79.7145690917968,-69.8093872070312,-1.4688582212493835,1.3158934338660502,2459175816
uw,-79.7336959838867,-68.8198776245117,-1.2360775364973273,1.383560013620988,2459192483
uw,-79.7706298828125,-67.8573913574218,-1.0284898383814496,1.5488480615296896,2459209150
uw,-79.854995727539,-66.8588485717773,-0.8784854112352186,1.802452924328047,2459225817
uw,-79.9811782836914,-65.7741928100586,-0.8059530824861072,2.0934571201010295,2459242484
uw,-80.1076126098632,-64.6307373046875,-0.8164108224858958,2.34100138594539,2459259151
uw,-80.2548675537109,-63.573387145996,-0.9025483588812419,2.4581034712145695,2459275818
uw,-80.4463272094726,-62.8206520080566,-1.047722059936752,2.3810228815454795,2459292485
uw,-80.6808853149414,-62.1889839172363,-1.2300111564431377,2.0941324817820535,2459309152
uw,-80.9290924072265,-61.6357498168945,-1.4260623401671182,1.6402189329162933,2459325819
uw,-81.1227874755859,-61.2397766113281,-1.614391058238118,1.110705682825439,2459342486
uw,-81.2157821655273,-60.982421875,-1.7777743059979818,0.6182366165918355,2459359153
uw,-81.1911239624023,-60.578498840332,-1.9042343095122567,0.2616853753674984,2459375820
uw,-81.0387115478515,-59.9239273071289,-1.9863972322344963,0.09684393711683713,2459392487
uw,-80.7922439575195,-59.1511535644531,-2.019752555394733,0.12306738973943904,2459409154
uw,-80.5058517456054,-58.3619384765625,-2.001023606191694,0.28895113349368645,2459425821
uw,-80.1593780517578,-57.6339149475097,-1.9279081551063901,0.5127711814706141,2459442488
uw,-79.6559448242187,-57.0070190429687,-1.8007015612802666,0.7092186631407669,2459459155
uw,-78.9789886474609,-56.4322242736816,-1.6251386798967993,0.8136961945146118,2459475822
uw,-78.1798477172851,-55.8968658447265,-1.4148481694631143,0.797882602851717,2459492489
uw,-77.3462600708007,-55.4240989685058,-1.1916987772581016,0.6736714403411316,2459509156
uw,-76.4831161499023,-54.9914245605468,-0.9831744590182665,0.485816834171925,2459525823
uw,-75.612808227539,-54.5442771911621,-0.8172790797617442,0.29631152611168277,2459542490
uw,-74.6774063110351,-54.0728225708007,-0.7165711377901121,0.16547288863974552,2459559157
uw,-73.6586456298828,-53.5821380615234,-0.6932365619762837,0.1353864276470699,2459575824
uw,-72.5623168945312,-53.0383644104003,-0.7466210349611524,0.2202528183503407,2459592491
uw,-71.5123138427734,-52.4265518188476,-0.8637186372379545,0.40558547358214675,2459609158
uw,-70.5633697509765,-51.801025390625,-1.0221538336567864,0.6552060554498501,2459625825
uw,-69.7057952880859,-51.2068214416503,-1.1945054439971357,0.9227817729406914,2459642492
uw,-68.8763427734375,-50.6475830078125,-1.3526137808038305,1.163911102735222,2459659159
uw,-68.0454635620117,-50.1501312255859,-1.4708595288839779,1.345476709598285,2459675826
uw,-67.1991119384765,-49.6576271057128,-1.5281437749583147,1.4505803170183365,2459692493
uw,-66.3102493286132,-49.1216888427734,-1.5090353036143194,1.4790476154361063,2459709160
uw,-65.3654022216796,-48.6051025390625,-1.4048485903960073,1.4445901435456805,2459725827
uw,-64.3626251220703,-48.1843185424804,-1.2150782204068835,1.3700305536887205,2459742494
uw,-63.3379859924316,-47.7950019836425,-0.9488401764721257,1.2817904209219544,2459759161
uw,-62.3003616333007,-47.3944435119628,-0.625276215122223,1.204528685668146,2459775828
uw,-61.2984619140625,-46.9716644287109,-0.27181299223090716,1.1566368565210206,2459792495
uw,-60.3736686706543,-46.4921836853027,0.08007022238185903,1.1471942045253318,2459809162
uw,-59.5398178100585,-45.9486846923828,0.40067565890590967,1.1748344905857333,2459825829
uw,-58.7799530029296,-45.3971481323242,0.6676414849591311,1.2287302496863588,2459842496
uw,-58.1141471862793,-44.8646354675293,0.8692053201373842,1.291556644260112,2459859163
uw,-57.4928932189941,-44.3274688720703,1.0040132419604086,1.3438620263449008,2459875830
uw,-56.9185905456543,-43.7944984436035,1.0776973636560445,1.3688511997085282,2459892497
uw,-56.4067726135253,-43.285057067871,1.0977056547833124,1.3563922115831446,2459909164
uw,-55.9252815246582,-42.8029556274414,1.0685154593415394,1.3052652633069977,2459925831
uw,-55.495922088623,-42.3107757568359,0.9892358486300235,1.2232603955630459,2459942498
uw,-55.2095069885253,-41.8307380676269,0.8547704203802373,1.1254254615486556,2459959165
uw,-55.0051841735839,-41.3539695739746,0.6603934291909078,1.0311971721814048,2459975832
uw,-54.815933227539,-40.8924942016601,0.40818807047782923,0.9611520387907155,2459992499
uw,-54.6186332702636,-40.4572982788085,0.11283152103735371,0.9338621536802657,2460009166
uw,-54.4439468383789,-40.0266571044921,-0.195861588996761,0.9631094637837556,2460025833
uw,-54.2866630554199,-39.5578880310058,-0.47527330581897365,1.055620437669665,2460042500
uw,-54.2042083740234,-39.0275497436523,-0.6771807793433556,1.2095122052539917,2460059167
uw,-54.3473510742187,-38.4483337402343,-0.7581374723417094,1.4137464795576633,2460075834
uw,-54.7258834838867,-37.858226776123,-0.6903225270011527,1.648966072584494,2460092501
uw,-55.160774230957,-37.2768058776855,-0.47002384052217805,1.8899713818322328,2460109168
uw,-55.5626945495605,-36.7248001098632,-0.12155501883164745,2.109704426093918,2460125835
uw,-55.9468803405761,-36.2510871887207,0.3046001108975925,2.284079743465135,2460142502
uw,-56.3774070739746,-35.8973541259765,0.7396037415840961,2.3965835497446526,2460159169
uw,-56.8190307617187,-35.6190643310546,1.109228958308035,2.4414536738045824,2460175836
uw,-57.2654647827148,-35.3674850463867,1.349978368064279,2.4245284425651614,2460192503
uw,-57.7960968017578,-35.1023635864257,1.4249575935187586,2.3614529555384376,2460209170
uw,-58.382209777832,-34.8937225341796,1.3349786599991853,2.273666472502661,2460225837
uw,-58.7666053771972,-34.7745857238769,1.1203908833639025,2.1832184596501722,2460242504
uw,-59.3287315368652,-34.733959197998,0.8509449874199115,2.107788206463883,2460259171
uw,-60.0259170532226,-34.773826599121,0.6046068709529698,2.057227700284426,2460275838
uw,-60.2443237304687,-34.9048233032226,0.44098413150725146,2.032477906292321,2460292505
uw,-60.8748893737793,-35.1908340454101,0.3792012231742752,2.0268874124721603,2460309172
uw,-61.5203666687011,-35.686668395996,0.390702456071571,2.02907251487974,2460325839
uw,-62.0727462768554,-36.3860359191894,0.4121785013336033,2.0259551292749856,2460342506
uw,-62.9100646972656,-37.242259979248,0.3740426689917267,2.004826352330542,2460359173
uw,-63.5236701965332,-38.194580078125,0.23137091809057758,1.9541397801343594,2460375840
uw,-64.0716934204101,-39.293357849121,-0.017252577279570643,1.8637622965645297,2460392507
uw,-64.6952438354492,-40.7191658020019,-0.3308898940504113,1.7259303082549617,2460409174
uw,-65.3246078491211,-42.5647773742675,-0.6448078409624972,1.5377362721597516,2460425841
uw,-65.9092712402343,-44.6831588745117,-0.8959018310265138,1.3048090957046572,2460442508
uw,-66.4971542358398,-46.8217277526855,-1.0432633862821565,1.0446846758157842,2460459175
uw,-67.084243774414,-48.8135375976562,-1.077135987558869,0.787829302269479,2460475842
uw,-67.7060394287109,-50.7166137695312,-1.0162759896482234,0.574592509607913,2460492509
uw,-68.2850875854492,-52.6903991699218,-0.8980557847367707,0.447515033601366,2460509176
uw,-68.8360900878906,-54.6752433776855,-0.7663121556396726,0.4402431452081573,2460525843
uw,-69.3479919433593,-56.5340232849121,-0.6604985309316513,0.5662100332375475,2460542510
uw,-69.8363265991211,-58.208209991455,-0.6080782716883741,0.8112079515199462,2460559177
uw,-70.2842483520507,-59.7189064025878,-0.6210127744648449,1.1331942798515344,2460575844
uw,-70.6828536987304,-61.0258407592773,-0.6963748065027853,1.4703016476794786,2460592511
uw,-71.0680999755859,-62.1367530822753,-0.8202425894348593,1.7551027757326756,2460609178
uw,-71.4479293823242,-63.3229293823242,-0.9732225666349837,1.9309498425241909,2460625845
uw,-71.815315246582,-64.7637634277343,-1.1355949019497784,1.9654931750077456,2460642512
uw,-72.1442718505859,-66.3778991699218,-1.2904786856477,1.857496814396025,2460659179
uw,-72.4296493530273,-67.9310989379882,-1.4245170815071033,1.6353585354097184,2460675846
uw,-72.7108612060546,-69.2771987915039,-1.5268878136471502,1.3483447611917987,2460692513
uw,-72.9909973144531,-70.4839859008789,-1.5882466700844333,1.0534868833675732,2460709180
uw,-73.2519149780273,-71.6261215209961,-1.6010663605398927,0.8018763224921989,2460725847
uw,-73.5183792114257,-72.6955032348632,-1.561867658723994,0.6278246689145811,2460742514
uw,-73.7791671752929,-73.6861190795898,-1.4746124842293566,0.5433409825377838,2460759181
uw,-73.968391418457,-74.7417602539062,-1.3536240913485418,0.5389017047455653,2460775848
uw,-74.0811462402343,-75.8965606689453,-1.2241821073602572,0.5897951212010321,2460792515
uw,-74.1913833618164,-77.0286483764648,-1.1195198962543567,0.6657686180857268,2460809182
uw,-74.3129501342773,-78.1123504638671,-1.0741725328425802,0.7407914312423252,2460825849
uw,-74.4661331176757,-79.1676406860351,-1.1150913457013079,0.7998720155041344,2460842516
uw,-74.6058120727539,-80.1546401977539,-1.2531423501352135,0.8410287641523169,2460859183
uw,-74.7500305175781,-81.0164642333984,-1.4780173523377946,0.8722514276694648,2460875850
uw,-74.8709640502929,-81.8705139160156,-1.7588294745573183,0.9049885058920645,2460892517
uw,-74.9146041870117,-82.8178024291992,-2.050814924812501,0.9468288522228542,2460909184
uw,-74.9690856933593,-83.830581665039,-2.3063199386324396,0.9962747785016254,2460925851
uw,-75.0745468139648,-84.8478622436523,-2.4866252919986405,1.0417285581691205,2460942518
uw,-75.138671875,-85.8542861938476,-2.5708834349053316,1.0652466268318566,2460959185
uw,-75.1654663085937,-86.7499618530273,-2.5595953718348796,1.0497786358334478,2460975852
uw,-75.1329345703125,-87.4331817626953,-2.472080189903264,0.9871894390225996,2460992519
uw,-75.0589904785156,-87.9374923706054,-2.339411381624483,0.8839473501992029,2461009186
uw,-74.9723587036132,-88.2783050537109,-2.195535076944845,0.7621487787501717,2461025853
uw,-74.8506240844726,-88.416748046875,-2.069402091566545,0.6552122958527957,2461042520
uw,-74.6973495483398,-88.4635467529296,-1.9801073994400495,0.5994179854360934,2461059187
uw,-74.5419311523437,-88.5898666381836,-1.9357193811237827,0.6237797275456359,2461075854
uw,-74.4544296264648,-88.8041763305664,-1.9351881928486436,0.7411161510027457,2461092521
uw,-74.423110961914,-89.0240173339843,-1.9718191960432503,0.9426536868706585,2461109188
uw,-74.4010543823242,-89.1008224487304,-2.03656524366588,1.1974044490134497,2461125855
uw,-74.345832824707,-88.8199844360351,-2.1199358864408238,1.456376318611032,2461142522
uw,-74.274917602539,-88.2472152709961,-2.2123780558262114,1.6607639494517563,2461159189
uw,-74.2237701416015,-87.5624923706054,-2.3039499768067357,1.7527873835415513,2461175856
uw,-74.2053451538086,-86.8351669311523,-2.384419142578596,1.6876657262141468,2461192523
uw,-74.2157211303711,-86.167739868164,-2.4444424740539787,1.4450418723882377,2461209190
uw,-74.2258148193359,-85.4342575073242,-2.477621707967118,1.0378357087745187,2461225857
uw,-74.2373352050781,-84.7059860229492,-2.4825316327535165,0.5161838098593099,2461242524
uw,-74.2313995361328,-83.9990997314453,-2.463638368259878,-0.035739710544689315,2461259191
uw,-74.1946487426757,-83.1840515136718,-2.4303884692970423,-0.5113313236457633,2461275858
uw,-74.0800247192382,-82.276611328125,-2.39447293066171,-0.8012770317903505,2461292525
uw,-73.9396591186523,-81.3083267211914,-2.3660376598714956,-0.8188460284145823,2461309192
uw,-73.8836975097656,-80.2997589111328,-2.3500814462968402,-0.5255843586038073,2461325859
uw,-74.039192199707,-79.2726287841796,-2.344291697641791,0.0501585563768153,2461342526
uw,-74.4868469238281,-77.935791015625,-2.3392061662909067,0.8100487005375773,2461359193
uw,-74.9819412231445,-76.0365142822265,-2.3209600391121152,1.6032143719269532,2461375860
uw,-75.2845611572265,-74.0259323120117,-2.275993011509117,2.262796853365937,2461392527
uw,-75.4570999145507,-72.8425598144531,-2.1962146840662293,2.6515458653901547,2461409194
uw,-75.6046524047851,-72.8693237304687,-2.0828696755522316,2.700712123073072,2461425861
uw,-75.663589477539,-73.488540649414,-1.9479475989634505,2.427849127893744,2461442528
uw,-75.5768432617187,-73.0026779174804,-1.812835275227429,1.9274856637028823,2461459195
uw,-75.4509048461914,-72.0414428710937,-1.7043017956166338,1.3392177186826733,2461475862
uw,-75.3234100341796,-71.1392288208007,-1.6480335129803618,0.8053850317555158,2461492529
uw,-75.1947937011718,-70.2545318603515,-1.6605813329932202,0.43289787522728373,2461509196
uw,-74.9623641967773,-69.3667984008789,-1.7418695666596882,0.27095581411940317,2461525863
uw,-74.6019515991211,-68.5099029541015,-1.8713504680130117,0.30941589499051425,2461542530
uw,-74.1075286865234,-67.6459350585937,-2.01036384770598,0.49425118003787494,2461559197
uw,-73.7095870971679,-66.7351837158203,-2.1111365935735633,0.7509715335678032,2461575864
uw,-73.2534255981445,-65.7807159423828,-2.1299429679247828,1.0064947177481038,2461592531
uw,-72.8018569946289,-64.9096069335937,-2.039614292365514,1.2037319055948066,2461609198
uw,-72.1833190917968,-64.0863800048828,-1.8364043866573871,1.3079950863328527,2461625865
uw,-71.5201644897461,-63.2868537902832,-1.5387584128450047,1.3075855716356453,2461642532
uw,-70.8296127319336,-62.5697326660156,-1.1793421446850496,1.2115349469987078,2461659199
uw,-70.1828689575195,-61.8144302368164,-0.7943955175795339,1.0460299395318409,2461675866
uw,-69.5684814453125,-61.0977020263671,-0.4148397868621872,0.8492940720723554,2461692533
uw,-68.8869247436523,-60.4410705566406,-0.061948632118060315,0.6642372852305748,2461709200
uw,-68.1601867675781,-59.759593963623,0.2520960897018014,0.5292552886011813,2461725867
uw,-67.4754791259765,-59.0163383483886,0.5206004552619234,0.46915739083456093,2461742534
uw,-66.8706359863281,-58.200397491455,0.7384649891699289,0.48914818507611896,2461759201
uw,-66.3161926269531,-57.3355674743652,0.9002366118317237,0.5743897512722504,2461775868
uw,-65.7570343017578,-56.3882904052734,1.0009057982329441,0.6958828015088685,2461792535
uw,-65.1959686279296,-55.3864784240722,1.0387331563322266,0.8209318636765658,2461809202
uw,-64.6684265136718,-54.4065437316894,1.0184334295359905,0.9245366238779946,2461825869
uw,-64.1823196411132,-53.4729919433593,0.952922499265847,0.9977095777317813,2461842536
uw,-63.6799659729003,-52.6024169921875,0.8624785099886715,1.0500627308960242,2461859203
uw,-63.2018508911132,-51.7437934875488,0.7712318753248435,1.1061944371603025,2461875870
uw,-62.7329788208007,-50.8630218505859,0.7018935443437084,1.1973351222751845,2461892537
uw,-62.2746810913085,-49.9951133728027,0.6701916783990953,1.350731921591859,2461909204
uw,-61.8151130676269,-49.1894912719726,0.6805408929582859,1.5794265767396176,2461925871
uw,-61.3836059570312,-48.45796585083,0.7241665708657257,1.8748504355037496,2461942538
uw,-60.9863243103027,-47.7934913635253,0.7804384608257408,2.2043076143297653,2461959205
uw,-60.5906219482421,-47.2403030395507,0.8216215657230981,2.5148082506983016,2461975872
uw,-60.236156463623,-46.8508033752441,0.8205798047324322,2.7435113923974095,2461992539
uw,-59.8756446838378,-46.6190490722656,0.760084823010159,2.8331438783265925,2462009206
uw,-59.5735855102539,-46.5809135437011,0.6413913079969314,2.7486470223989357,2462025873
uw,-59.3665351867675,-46.5680923461914,0.48907449510270246,2.489951520987185,2462042540
uw,-59.2151870727539,-46.4447555541992,0.34937257823332957,2.0961710040860715,2462059207
uw,-59.2007064819335,-46.3570289611816,0.2807467011315382,1.6388951879308196,2462075874
uw,-59.391918182373,-46.298973083496,0.337801448703281,1.2058442021017195,2462092541
uw,-59.7596054077148,-46.1458549499511,0.5523478848021169,0.8794107271930394,2462109208
uw,-60.1649513244628,-45.8975868225097,0.9173232815507953,0.7162300948802987,2462125875
uw,-60.6058349609375,-45.6909408569335,1.3797759600347261,0.7334023147953156,2462142542
uw,-61.2507553100585,-45.5360260009765,1.8477862329928418,0.9047923947762156,2462159209
uw,-62.1576194763183,-45.4150009155273,2.2127502371491627,1.167914260882772,2462175876
uw,-63.167121887207,-45.3495063781738,2.382745723678489,1.43923172506015,2462192543
uw,-63.6933326721191,-45.3881530761718,2.3158102783240224,1.6339552185008002,2462209210
uw,-64.482666015625,-45.5232200622558,2.037605463961784,1.6858232164547924,2462225877
uw,-64.7207946777343,-45.7490882873535,1.6314095482092124,1.5628042387414087,2462242544
uw,-64.8129348754882,-46.0962829589843,1.2016877030420192,1.2757835465503897,2462259211
uw,-65.5864791870117,-46.5845603942871,0.8292075905246906,0.8786947128830214,2462275878
uw,-66.5646896362304,-47.2490081787109,0.542988421615188,0.4598799563385062,2462292545
uw,-67.410400390625,-48.0227241516113,0.3243118886519049,0.12558211178144854,2462309212
uw,-68.161262512207,-48.9449157714843,0.136896349563959,-0.022409887476088096,2462325879
uw,-68.8001556396484,-50.209358215332,-0.03883283603675296,0.08855801054258289,2462342546
uw,-69.3902282714843,-51.739631652832,-0.1894031560826779,0.4803200070085466,2462359213
uw,-70.0750427246093,-53.3728599548339,-0.2777788874394004,1.1116279306873933,2462375880
uw,-70.8897018432617,-54.9013977050781,-0.2696390109464296,1.8807406069559731,2462392547
uw,-71.7471008300781,-56.2645606994628,-0.15851969810863417,2.644626509510521,2462409214
uw,-72.5749969482421,-57.5035400390625,0.02503248430595107,3.2511749602137257,2462425881
uw,-73.3810958862304,-58.7678985595703,0.22387108844415313,3.5758834036017206,2462442548
uw,-74.1802749633789,-60.1412849426269,0.37640871140076865,3.5522638706778658,2462459215
uw,-74.9625549316406,-61.518196105957,0.43806558519314787,3.186939737382086,2462475882
uw,-75.8313217163086,-62.8278045654296,0.392934303644623,2.555522068134058,2462492549
uw,-76.7089385986328,-64.0286712646484,0.25377632054044513,1.7816423284746277,2462509216
uw,-77.4992980957031,-65.0954132080078,0.05395995295619556,1.0063370432769745,2462525883
uw,-78.2409896850586,-66.0854873657226,-0.16366740386234566,0.3567294324092666,2462542550
uw,-78.8958053588867,-67.0224151611328,-0.3573890757789973,-0.07834262549003071,2462559217
uw,-79.5429306030273,-67.9287872314453,-0.4948975037566873,-0.2612441662581182,2462575884
uw,-80.1472930908203,-68.794075012207,-0.5584054410778421,-0.2060093052183838,2462592551
uw,-80.7014007568359,-69.5983276367187,-0.5461871977703554,0.0317808702958906,2462609218
uw,-81.2100524902343,-70.3314208984375,-0.4705966885563558,0.3720055526299542,2462625885
uw,-81.6979522705078,-70.9367523193359,-0.35327247892299485,0.7293712590841058,2462642552
uw,-82.1388549804687,-71.4240951538086,-0.2189416145040501,1.0307540126580956,2462659219
uw,-82.5120315551757,-71.9219970703125,-0.08961957108285082,1.2271650269319896,2462675886
uw,-82.8120422363281,-72.3627243041992,0.019231909856961698,1.2986841456047558,2462692553
uw,-83.0493774414062,-72.7599105834961,0.09988253119467738,1.2526041164060977,2462709220
uw,-83.2487869262695,-73.0932693481445,0.15120767975947458,1.1165534976449554,2462725887
uw,-83.4297409057617,-73.2952499389648,0.17633097999662273,0.9290837107394517,2462742554
uw,-83.5902328491211,-73.3574905395507,0.1801544359796818,0.7300832901999358,2462759221
uw,-83.800048828125,-73.278564453125,0.1674324653622014,0.5527925568787476,2462775888
uw,-84.0047225952148,-73.0862121582031,0.14149104315307842,0.41857060440388516,2462792555
uw,-84.1727828979492,-72.8321304321289,0.10340850070888385,0.3350291560781296,2462809222
uw,-84.3238067626953,-72.5534362792968,0.05158019380885069,0.2975169200816107,2462825889
uw,-84.4243392944336,-72.3053512573242,-0.01809480731730228,0.29314365179132285,2462842556
uw,-84.4831390380859,-72.1238174438476,-0.11102603559620089,0.3058519295284676,2462859223
uw,-84.4925994873046,-72.0308380126953,-0.23166747021738268,0.32087673940742045,2462875890
uw,-84.465087890625,-72.0250244140625,-0.38070275262920067,0.32741950558089,2462892557
uw,-84.3772277832031,-72.0977020263671,-0.5526549072759893,0.31926719468387843,2462909224
uw,-84.2575454711914,-72.2297821044921,-0.7348750320327632,0.29397906814576463,2462925891
uw,-84.1249389648437,-72.4160537719726,-0.9084346658175857,0.2517703674826654,2462942558
uw,-83.994758605957,-72.6465988159179,-1.0508793430513794,0.19514997537115533,2462959225
uw,-83.8979949951171,-72.932258605957,-1.1403047734939287,0.1297269681691595,2462975892
uw,-83.8336334228515,-73.2906723022461,-1.1598793004351202,0.06565079766288036,2462992559
uw,-83.7916107177734,-73.7482986450195,-1.1018086192841252,0.018406667505255554,2463009226
uw,-83.7830047607421,-74.2518768310546,-0.9698557684003138,0.007635904478498351,2463025893
uw,-83.8156661987304,-74.7081604003906,-0.7798529685189396,0.05334130553482684,2463042560
uw,-83.8561477661132,-75.1140365600586,-0.5580495062335793,0.16989250681783152,2463059227
uw,-83.8919296264648,-75.5216217041015,-0.337494644361041,0.35926204570108106,2463075894
uw,-83.9177169799804,-75.9618377685546,-0.15291621653391035,0.6056669878641795,2463092561
uw,-83.9462509155273,-76.4485626220703,-0.0348184538744352,0.8740678474160241,2463109228
uw,-84.0451354980468,-76.9264297485351,-0.0038522459878453765,1.1145464056533323,2463125895
uw,-84.2630462646484,-77.2974319458007,-0.06673076963027648,1.2732602610697128,2463142562
uw,-84.620361328125,-77.3767929077148,-0.2147607955872633,1.308463803491196,2463159229
uw,-85.1602096557617,-77.1162414550781,-0.4253771278161134,1.2073402303656298,2463175896
uw,-85.8216781616211,-77.1302795410156,-0.6662477541846413,0.9969184731082115,2463192563
uw,-86.6480712890625,-77.3628921508789,-0.9009723551092554,0.7417077809529176,2463209230
uw,-87.3233642578125,-77.4268264770507,-1.0952186670333353,0.5242010966053309,2463225897
uw,-87.1365890502929,-76.9616622924804,-1.2221325544106392,0.41304091598641124,2463242564
uw,-85.9309539794921,-75.9005432128906,-1.2659057347801546,0.43319646130047035,2463259231
uw,-84.3851089477539,-74.6814651489257,-1.2226786349922238,0.5545626304383998,2463275898
uw,-82.8781967163086,-73.482192993164,-1.0987381638010794,0.7059526373418974,2463292565
uw,-81.3934631347656,-72.4920501708984,-0.9070930386618725,0.8068963719943892,2463309232
uw,-79.7361907958984,-71.72021484375,-0.6643143057560772,0.8007726231088951,2463325899
uw,-77.9912567138671,-70.9314727783203,-0.3892660938770998,0.6744798768248353,2463342566
uw,-76.3160018920898,-69.9991912841796,-0.1038716584259652,0.4587116536548513,2463359233
uw,-74.7525558471679,-69.000244140625,0.16578807133538564,0.21243241403206814,2463375900
uw,-73.329849243164,-67.9875946044921,0.39055030189653983,0.0005981001726329854,2463392567
uw,-71.978286743164,-66.954360961914,0.5428655362948511,-0.12573669896684633,2463409234
uw,-70.7001113891601,-65.9000396728515,0.6042198791859869,-0.14132740666661178,2463425901
uw,-69.4306640625,-64.8106155395507,0.572359822778413,-0.04939821536989801,2463442568
uw,-68.0760879516601,-63.7014579772949,0.46495560867199076,0.12312875548598996,2463459235
uw,-66.8224105834961,-62.6076850891113,0.317621580410696,0.3346798561059568,2463475902
uw,-65.6069717407226,-61.610855102539,0.17640132347496418,0.5392101758789599,2463492569
uw,-64.3764266967773,-60.6327018737793,0.08692795193561308,0.6952026863979205,2463509236
uw,-63.2429084777832,-59.6685943603515,0.08374752172642198,0.7723640710847425,2463525903
uw,-61.9224014282226,-58.7704811096191,0.1832631468108732,0.7559309323103536,2463542570
uw,-60.4442253112793,-57.9793739318847,0.382282377316786,0.6488313929211538,2463559237
uw,-58.9598197937011,-57.2642555236816,0.661763259944329,0.4714804403189301,2463575904
uw,-57.5076255798339,-56.6087951660156,0.9932437151851459,0.25841575605448425,2463592571
uw,-56.1786079406738,-55.9568824768066,1.3447387643614115,0.05126569089611356,2463609238
uw,-54.9847793579101,-55.270092010498,1.6838749698659938,-0.11106109371963079,2463625905
uw,-53.8985290527343,-54.5662727355957,1.978040237704533,-0.20235147454174385,2463642572
uw,-52.8710250854492,-53.8812751770019,2.193310473867051,-0.21578979113997107,2463659239
uw,-51.8592643737793,-53.2050819396972,2.2949335519104364,-0.16474474037723352,2463675906
uw,-50.8230209350585,-52.5876350402832,2.2516764210157434,-0.07715612166359206,2463692573
uw,-49.8321151733398,-52.0249290466308,2.0444971029227044,0.014474494546156888,2463709240
uw,-48.9976654052734,-51.5092391967773,1.6775549593629955,0.08380618063242323,2463725907
uw,-48.3003387451171,-51.039005279541,1.1875424025564105,0.1182950766046476,2463742574
uw,-47.7792320251464,-50.5810890197753,0.646562674769189,0.12143290139744362,2463759241
uw,-47.5246047973632,-50.0875511169433,0.15475184764552133,0.10957903015886865,2463775908
uw,-47.6169624328613,-49.567039489746,-0.17848324866775447,0.10531153912375465,2463792575
uw,-47.9565086364746,-49.0556488037109,-0.2619090674447136,0.1299921409082019,2463809242
uw,-48.5908775329589,-48.4886093139648,-0.05187981367951123,0.19783004380345795,2463825909
uw,-49.6045455932617,-47.8992309570312,0.42583752761360316,0.3126795999498041,2463842576
uw,-50.8032455444335,-47.3701782226562,1.0715483801781533,0.4677665920218626,2463859243
uw,-51.9339485168457,-46.9210014343261,1.7305318007800663,0.6479001996377127,2463875910
uw,-53.4390296936035,-46.5600433349609,2.234217780079279,0.833489442727632,2463892577
uw,-54.9946517944335,-46.3605575561523,2.4532381036609663,1.0056134943854815,2463909244
uw,-55.4556198120117,-46.3112258911132,2.3436822152848475,1.1512855737769543,2463925911
uw,-56.2417602539062,-46.402660369873,1.9652291100074852,1.267808753057911,2463942578
uw,-55.2123794555664,-46.6124610900878,1.457803385465036,1.364805686363529,2463959245
uw,-55.2770957946777,-46.9295959472656,0.9826193715384339,1.4624279970936604,2463975912
uw,-55.9256362915039,-47.2814712524414,0.6547743324736217,1.5849534262837603,2463992579
uw,-56.9831161499023,-47.8755378723144,0.5021188505967159,1.750725102725707,2464009246
uw,-58.1781120300293,-48.7755699157714,0.4702777670607523,1.9615633164022186,2464025913
uw,-59.1797904968261,-49.9190521240234,0.46575895456518934,2.1960263873742547,2464042580
uw,-60.0589065551757,-51.3557624816894,0.40858948448146826,2.4101151494543935,2464059247
uw,-61.0107612609863,-53.1180572509765,0.26595500713056075,2.5463263230034245,2464075914
uw,-62.1272239685058,-54.8614807128906,0.0548836452207951,2.548708682170646,2464092581
uw,-63.3196716308593,-56.6243591308593,-0.1789560091991427,2.379387503133691,2464109248
uw,-64.553482055664,-58.5129814147949,-0.3893396104910633,2.031719412328922,2464125915
uw,-65.7646560668945,-60.5724258422851,-0.5492766318431688,1.5365009659217403,2464142582
uw,-66.8789978027343,-62.7829284667968,-0.6561352160686457,0.9595890037873843,2464159249
uw,-67.8376998901367,-64.9351272583007,-0.7245844317762318,0.39122537151880765,2464175916
uw,-68.7317199707031,-66.8567962646484,-0.7743360347501891,-0.0709283810287375,2464192583
uw,-69.7257843017578,-68.6351776123046,-0.8194600468847394,-0.3416204164585624,2464209250
uw,-70.7004928588867,-70.3595809936523,-0.863247434462109,-0.36634294930247774,2464225917
uw,-71.4649200439453,-72.0166854858398,-0.8993887595622602,-0.1336975048713563,2464242584
uw,-72.0389251708984,-73.6326828002929,-0.9177458929788719,0.32162016067411503,2464259251
uw,-72.5060958862304,-75.0713348388671,-0.9115946032206618,0.9262792048491513,2464275918
uw,-72.9023895263671,-76.5148162841796,-0.8831166602530283,1.584208499296425,2464292585
uw,-73.3416976928711,-77.9858932495117,-0.8450412927212089,2.1963682965037443,2464309252
uw,-73.8423309326171,-79.5191345214843,-0.818056034270482,2.679019963929716,2464325919
uw,-74.3343200683593,-81.0015182495117,-0.8251064898446067,2.976304211692167,2464342586
uw,-74.7292404174804,-82.4424362182617,-0.8845107572653319,3.065321897004254,2464359253
uw,-75.0711669921875,-83.8755493164062,-1.0039040503622199,2.9542689590405393,2464375920
uw,-75.4094696044921,-85.2476654052734,-1.176613068734398,2.6757001395693414,2464392587
uw,-75.7186203002929,-86.669921875,-1.3813743200397364,2.2775479118611255,2464409254
uw,-76.0660705566406,-88.0509719848632,-1.5855059074085254,1.8143172602466693,2464425921
uw,-76.4009552001953,-88.8950042724609,-1.7508373933195969,1.3401067073313584,2464442588
uw,-76.7633895874023,-88.3232192993164,-1.8411067597256805,0.9039738625819292,2464459255
uw,-77.1603088378906,-87.3356781005859,-1.829345858209494,0.5471126142782353,2464475922
uw,-77.6088485717773,-86.5577011108398,-1.7039264212773728,0.3008870181929562,2464492589
uw,-78.1043243408203,-86.0937957763671,-1.4721243863352511,0.1851291235489801,2464509256
uw,-78.581558227539,-85.9212951660156,-1.160168998240352,0.20680445980902115,2464525923
uw,-79.083625793457,-86.0288162231445,-0.8090894196658645,0.35953800961877136,2464542590
uw,-79.6397705078125,-86.3533172607421,-0.46660968796912894,0.6243374047942984,2464559257
uw,-80.1228332519531,-86.9034576416015,-0.17674007293232807,0.9714508153770732,2464575924
uw,-80.4911575317382,-87.6677093505859,0.030057791945896594,1.363078786754521,2464592591
uw,-80.7723388671875,-88.6074600219726,0.14291147850716981,1.7567181034872619,2464609258
uw,-80.9462051391601,-89.5984649658203,0.17052850548622123,2.109020083953486,2464625925
uw,-81.0622253417968,-88.802864074707,0.1350070151984789,2.3799783215051287,2464642592
uw,-81.1765518188476,-87.4573211669921,0.06180872703828142,2.5370628281493177,2464659259
uw,-81.3008499145507,-86.0298995971679,-0.030111486672331517,2.5588196447161637,2464675926
uw,-81.4725112915039,-84.5438613891601,-0.13405316705368378,2.4376020468213313,2464692593
uw,-81.6863479614257,-83.0695266723632,-0.2549565927760744,2.181358061082584,2464709260
uw,-81.947021484375,-81.6581420898437,-0.40282364037543095,1.814501192635711,2464725927
uw,-82.2803192138671,-80.2737121582031,-0.5830129346429668,1.3777398555769138,2464742594
uw,-82.5546340942382,-78.7330627441406,-0.7876114322199992,0.9264184491706043,2464759261
uw,-82.6964721679687,-76.7844924926757,-0.9918785252375413,0.5264332319458711,2464775928
uw,-82.6608810424804,-75.1603088378906,-1.157975205512412,0.24615635451480739,2464792595
uw,-82.2877197265625,-74.1700668334961,-1.245371188042362,0.14279253018769095,2464809262
uw,-81.5734939575195,-73.7999954223632,-1.2244526163753635,0.24391040329512342,2464825929
uw,-80.4922180175781,-73.1629638671875,-1.0880989443610025,0.5301744544664461,2464842596
uw,-79.1708755493164,-71.5478363037109,-0.8563482583352336,0.9300813185139857,2464859263
uw,-77.9094619750976,-69.4205093383789,-0.5719113008139329,1.3354865059396714,2464875930
uw,-76.8610763549804,-67.4338607788086,-0.2881081396190583,1.6360512770510767,2464892597
uw,-75.7849884033203,-66.1174392700195,-0.053836446676583605,1.7584932091871526,2464909264
uw,-74.6772689819336,-65.0979309082031,0.0990495321400954,1.6924377077344357,2464925931
uw,-73.5240631103515,-63.9313278198242,0.16212606497507365,1.4914805996883496,2464942598
uw,-72.61865234375,-62.5135269165039,0.14939806376891765,1.2502379342427834,2464959265
uw,-71.6072845458984,-61.0902023315429,0.09008616473334158,1.0682980087720093,2464975932
uw,-70.5401992797851,-59.8075141906738,0.017730279364908914,1.016017721039205,2464992599
uw,-69.1791610717773,-58.6754646301269,-0.04124275914049495,1.1146614675665114,2465009266
uw,-67.4036331176757,-57.6600952148437,-0.0760974082230806,1.3364325099117267,2465025933
uw,-65.675666809082,-56.8051414489746,-0.09446249984287686,1.621679809708249,2465042600
uw,-64.2080688476562,-56.0979995727539,-0.11748449710456119,1.9043441506080316,2465059267
uw,-63.0424842834472,-55.4500541687011,-0.16843905833081713,2.1348095874925166,2465075934
uw,-62.04585647583,-54.7896575927734,-0.25867003075808465,2.291976285670722,2465092601
uw,-61.1041831970214,-54.1702423095703,-0.37646658700497265,2.3818325627311463,2465109268
uw,-60.0952224731445,-53.602294921875,-0.48397786297067874,2.4254863960079547,2465125935
uw,-59.0342254638671,-53.0105514526367,-0.5244985234863784,2.4433362051467475,2465142602
uw,-57.8911895751953,-52.3559761047363,-0.43851022602251355,2.4427112305322303,2465159269
uw,-56.9975357055664,-51.6852149963378,-0.18329841202192104,2.414007746571296,2465175936
uw,-56.4393844604492,-51.034324645996,0.25073227438371437,2.3362913361795026,2465192603
uw,-56.07710647583,-50.3735961914062,0.8328262545814055,2.189314227073307,2465209270
uw,-55.8041305541992,-49.7254409790039,1.4958342966861287,1.9664820089057418,2465225937
uw,-55.7037811279296,-49.0736541748046,2.1488677516940995,1.683233743985821,2465242604
uw,-55.8081169128418,-48.4350700378418,2.6931782719521387,1.3773412019775975,2465259271
uw,-56.3704605102539,-47.8060989379882,3.036307927622242,1.1008420211371508,2465275938
uw,-57.3740081787109,-47.2204856872558,3.103280365090382,0.9064644594140091,2465292605
uw,-58.6393661499023,-46.7488288879394,2.847812007905855,0.8333383784185481,2465309272
uw,-59.9161148071289,-46.3910636901855,2.267325196736703,0.896798367492143,2465325939
uw,-59.9842910766601,-46.1399803161621,1.420360936684189,1.085225365127873,2465342606
uw,-60.9523849487304,-46.0077285766601,0.4357824729142922,1.3641074516202463,2465359273
uw,-60.9935302734375,-46.0344924926757,-0.5018365459235741,1.6852184034884983,2465375940
uw,-61.2405624389648,-46.1414413452148,-1.197770302178661,1.9979307948819158,2465392607
uw,-63.068260192871,-46.3673973083496,-1.510354806632181,2.260091848740085,2465409274
uw,-64.1351928710937,-46.8177375793457,-1.4022351447011125,2.446715802418206,2465425941
uw,-64.5264816284179,-47.57857131958,-0.9533011339412958,2.555164308063796,2465442608
uw,-65.3013076782226,-48.5391426086425,-0.32968448939116807,2.6054835387512645,2465459275
uw,-66.3029479980468,-49.4848861694335,0.27509511461598407,2.6349008270778262,2465475942
uw,-67.4459609985351,-50.3425331115722,0.701253358595107,2.686795348149283,2465492609
uw,-68.5983352661132,-51.2469367980957,0.8644503092107592,2.7964852361713635,2465509276
uw,-69.5933837890625,-52.0466079711914,0.7676565422846375,2.9778931870942174,2465525943
uw,-70.6451644897461,-52.726993560791,0.48501035530113107,3.21551549872381,2465542610
uw,-71.7455825805664,-53.3048286437988,0.12831813345168275,3.4647152344344834,2465559277
uw,-72.6745147705078,-53.9589729309082,-0.19016656192883238,3.6607217737153244,2465575944
uw,-73.5240478515625,-55.0834045410156,-0.387539672955008,3.7340355306058353,2465592611
uw,-74.3118820190429,-56.6638641357421,-0.426640094410959,3.62822492187835,2465609278
uw,-75.0372467041015,-58.4383125305175,-0.3179472799216944,3.3156320300830737,2465625945
uw,-75.6464080810546,-60.1468772888183,-0.10929196300715607,2.8070346213014528,2465642612
uw,-76.1893615722656,-61.7790489196777,0.13217693170301958,2.1526224811359373,2465659279
uw,-76.7238159179687,-63.4679908752441,0.3401760545837084,1.4336358854196523,2465675946
uw,-77.3048858642578,-65.2660675048828,0.46605335421205774,0.7464360263513947,2465692613
uw,-77.9356307983398,-67.1185760498046,0.4880343647186877,0.18299771841576193,2465709280
uw,-78.5204010009765,-69.0474090576171,0.4115541944845172,-0.18707378143397294,2465725947
uw,-79.0559616088867,-71.0363159179687,0.2623180273680218,-0.3285252920148695,2465742614
uw,-79.6196594238281,-72.982192993164,0.07580398932372538,-0.24409035437599946,2465759281
uw,-80.2318725585937,-74.737678527832,-0.11283701011766621,0.029970050347831526,2465775948
uw,-80.8062133789062,-76.3558120727539,-0.27587841135197916,0.43418820180833145,2465792615
uw,-81.2864608764648,-77.7462158203125,-0.39633571037160314,0.8989650376033499,2465809282
uw,-81.7280197143554,-78.8544921875,-0.4680269197290253,1.3573545488880838,2465825949
uw,-82.1785049438476,-79.8002700805664,-0.4934366057103579,1.7551054137007205,2465842616
uw,-82.6455307006836,-80.6223983764648,-0.4805844494171496,2.056377405923538,2465859283
uw,-83.0977478027343,-81.4087905883789,-0.44013248855992493,2.2446567194068683,2465875950
uw,-83.4985656738281,-82.161506652832,-0.3837668673769373,2.319690549947717,2465892617
uw,-83.8297805786132,-82.8063125610351,-0.32418685180315576,2.2923901808423692,2465909284
uw,-84.1029586791992,-83.3223876953125,-0.27593495904389986,2.180011974822663,2465925951
uw,-84.3032608032226,-83.6880722045898,-0.25546719016127084,2.003213331246939,2465942618
uw,-84.4050369262695,-83.8814697265625,-0.2790167439349643,1.785206740061258,2465959285
uw,-84.3746871948242,-83.9021377563476,-0.35803477887848467,1.5520274515043073,2465975952
uw,-84.201675415039,-83.7976760864257,-0.49358318430538173,1.3324529936861909,2465992619
uw,-83.9232025146484,-83.6181716918945,-0.6720525991399928,1.1563773721269477,2466009286
uw,-83.5634307861328,-83.3779525756836,-0.8644745818488107,1.0511509980794909,2466025953
uw,-83.0917282104492,-83.1376190185546,-1.0306217382053444,1.0362441796086892,2466042620
uw,-82.5929412841796,-82.9183959960937,-1.127543245384408,1.1173522531383353,2466059287
uw,-82.1230697631836,-82.7010421752929,-1.1206895654453575,1.2815857704337168,2466075954
uw,-81.6575775146484,-82.4556884765625,-0.9947282094233018,1.4956173642746704,2466092621
uw,-81.1874465942382,-82.1649932861328,-0.7608216048879011,1.708546529124353,2466109288
uw,-80.7570571899414,-81.7693252563476,-0.4577593327377881,1.8606321869776667,2466125955
uw,-80.4282913208007,-81.1702270507812,-0.1459509242767997,1.8976373643843982,2466142622
uw,-80.1028442382812,-80.2598495483398,0.10457299677577615,1.7881936081994751,2466159289
uw,-79.8940353393554,-79.230239868164,0.2292366841529698,1.5387975402145468,2466175956
uw,-79.7337188720703,-78.7713394165039,0.18341139627184075,1.199183526963124,2466192623
uw,-79.7015304565429,-78.6801986694336,-0.04711734560169185,0.8519860648239387,2466209290
uw,-79.9028625488281,-78.5458602905273,-0.4422457080691326,0.5864091594082435,2466225957
uw,-80.2073059082031,-77.8703002929687,-0.9512175996769288,0.46472503785983865,2466242624
uw,-80.5612716674804,-76.42333984375,-1.5029000537467871,0.4972586421574903,2466259291
uw,-80.9439010620117,-75.0681610107421,-2.0199576330289917,0.6395903183576828,2466275958
uw,-81.3298263549804,-74.0470123291015,-2.433337796249523,0.8142879659172402,2466292625
uw,-81.6920166015625,-73.3388137817382,-2.693661032373348,0.9459026314789639,2466309292
uw,-82.0020370483398,-72.7008895874023,-2.777217342649643,0.9914970386034424,2466325959
uw,-82.2734832763671,-71.8851699829101,-2.686022960650864,0.9529034340450607,2466342626
uw,-82.3799591064453,-70.9329223632812,-2.4432136964119016,0.867352967142508,2466359293
uw,-82.2289352416992,-69.8911056518554,-2.086164908399239,0.7837084493537962,2466375960
uw,-81.7755737304687,-68.7271575927734,-1.6596881499527236,0.737433918828279,2466392627
uw,-81.0312805175781,-67.5207138061523,-1.210685572426027,0.7365167852294574,2466409294
uw,-80.0012588500976,-66.3696899414062,-0.7843713222725908,0.7636279719452247,2466425961
uw,-78.8862991333007,-65.2948684692382,-0.42120406123039433,0.7906854394953877,2466442628
uw,-77.6995162963867,-64.2355346679687,-0.1534457083905806,0.7959372000913879,2466459295
uw,-76.3711395263671,-63.1076278686523,-0.0009163565771583967,0.7740145761692004,2466475962
uw,-74.9585189819336,-61.9924659729003,0.0332696944921503,0.735099081705165,2466492629
uw,-73.5083389282226,-60.9356613159179,-0.03478889864241024,0.6961155448452231,2466509296
uw,-72.1956024169921,-59.8488159179687,-0.17079250793541062,0.6706214951054389,2466525963
uw,-70.9615097045898,-58.8038177490234,-0.32739324624756533,0.6634256683620844,2466542630
uw,-69.693115234375,-57.8758125305175,-0.45255856830341606,0.6722095100441239,2466559297
uw,-68.3738632202148,-57.0738487243652,-0.49920464087429456,0.6940195993215458,2466575964
uw,-67.0083389282226,-56.3602294921875,-0.4340605389906634,0.7318082431091748,2466592631
uw,-65.7609634399414,-55.7569198608398,-0.24419366370890488,0.7965025697448422,2466609298
uw,-64.5867538452148,-55.1813621520996,0.05984844471526422,0.9029353666057504,2466625965
uw,-63.3261070251464,-54.5875091552734,0.4449097752863415,1.0615133632318643,2466642632
uw,-62.1982765197753,-53.9944229125976,0.8602663019477931,1.2697293275572739,2466659299
uw,-61.1065940856933,-53.4329795837402,1.2462978825620148,1.5076020772766647,2466675966
uw,-60.0880851745605,-52.9178657531738,1.5454282566162694,1.7392657918305332,2466692633
uw,-59.2172164916992,-52.4043006896972,1.7132795512902248,1.920450820501526,2466709300
uw,-58.5227546691894,-51.9107551574707,1.727714357081109,2.0096639366750626,2466725967
uw,-57.9784507751464,-51.4698600769043,1.5937566626524808,1.9799598725429248,2466742634
uw,-57.5702781677246,-51.0695457458496,1.3432692230657024,1.8281296137956715,2466759301
uw,-57.1984596252441,-50.7050170898437,1.0294420999109148,1.578648078838458,2466775968
uw,-56.8870735168457,-50.3763008117675,0.7171902843112867,1.2808182860024602,2466792635
uw,-56.7100944519043,-50.0779571533203,0.4711535458858468,0.9992506741632423,2466809302
uw,-56.6405410766601,-49.7380790710449,0.3431331656526943,0.7997559527378406,2466825969
uw,-56.6620750427246,-49.3501243591308,0.360748256498441,0.7341540795103827,2466842636
uw,-56.7133178710937,-48.916202545166,0.5191398892341511,0.8278060898518921,2466859303
uw,-56.7976112365722,-48.4551315307617,0.777782914322179,1.0728528877839982,2466875970
uw,-57.1464958190918,-47.977554321289,1.0646444235710866,1.428684243492561,2466892637
uw,-57.8515396118164,-47.4973716735839,1.2894431455534976,1.8295788802465789,2466909304
uw,-58.6596794128418,-47.0613784790039,1.3658140556614167,2.197998256959787,2466925971
uw,-59.6152229309082,-46.6575393676757,1.2385150238487135,2.4607887581639027,2466942638
uw,-60.5899047851562,-46.2714538574218,0.9076708910516471,2.56478006506204,2466959305
uw,-61.3326759338378,-45.9275093078613,0.4398956945732469,2.4882801114323985,2466975972
uw,-62.0417251586914,-45.63862991333,-0.042175430614709526,2.24588600646156,2466992639
uw,-62.8595695495605,-45.3888053894043,-0.3945322017555188,1.885635757828639,2467009306
uw,-62.7698554992675,-45.153205871582,-0.5034548150700361,1.479345397582731,2467025973
uw,-63.1395683288574,-44.8748817443847,-0.33557100806096174,1.1084841007437807,2467042640
uw,-63.9652481079101,-44.5982818603515,0.038570923024586666,0.8487204686710463,2467059307
uw,-64.8245849609375,-44.4375648498535,0.4647056052615044,0.7561504478945821,2467075974
uw,-65.8816299438476,-44.50239944458,0.7646338555223919,0.8574017373981418,2467092641
uw,-66.6276626586914,-44.966941833496,0.8087182157219124,1.1448750765160265,2467109308
uw,-67.2054824829101,-45.8885803222656,0.5663080435622876,1.5777890262298897,2467125975
uw,-67.7660217285156,-47.1253204345703,0.11165879703919464,2.089237474015485,2467142642
uw,-68.5430908203125,-48.5450553894043,-0.4132155779240338,2.598531297719418,2467159309
uw,-69.3602676391601,-50.0210342407226,-0.857035614164171,3.026582711933018,2467175976
uw,-70.0976486206054,-51.3752212524414,-1.1113143476686211,3.310784375462164,2467192643
uw,-70.8280792236328,-52.6834335327148,-1.1368768404287755,3.4156528123136027,2467209310
uw,-71.6005325317382,-54.1007995605468,-0.961270823376418,3.3366901371119155,2467225977
uw,-72.4332962036132,-55.4883575439453,-0.6560957506440704,3.097019112083053,2467242644
uw,-73.2950439453125,-56.7268905639648,-0.3076674382485119,2.7385735151386954,2467259311
uw,-74.123420715332,-57.8952255249023,0.008203684534586496,2.311083857302394,2467275978
uw,-74.8875274658203,-59.1132316589355,0.2417735083583457,1.8621611436679677,2467292645
uw,-75.614143371582,-60.524787902832,0.374181601765759,1.4305813716236773,2467309312
uw,-76.3338775634765,-62.2243347167968,0.41329646832023953,1.043269573564803,2467325979
uw,-77.0545654296875,-64.3367538452148,0.38395556468453645,0.7153637352320882,2467342646
uw,-77.7206420898437,-66.6406631469726,0.31650051873619756,0.4523883581823262,2467359313
uw,-78.3076858520507,-68.9448928833007,0.2369676124310876,0.25366563498024786,2467375980
uw,-78.8006134033203,-71.0389099121093,0.16096140719613658,0.11618437628903043,2467392647
uw,-79.2092208862304,-72.9559783935546,0.09175736853836697,0.038044124152465844,2467409314
uw,-79.5348205566406,-74.7404174804687,0.022075504749320133,0.02044424131697612,2467425981
uw,-79.7930374145507,-76.5286407470703,-0.06169941219723256,0.0673120920311544,2467442648
uw,-80.0064468383789,-78.2339935302734,-0.1744684068576403,0.18229728176631746,2467459315
uw,-80.1356811523437,-79.7361297607421,-0.3282092439059028,0.36393833139385134,2467475982
uw,-80.1297454833984,-81.0087890625,-0.529723428473242,0.6008935268249959,2467492649
uw,-80.0739364624023,-82.0070419311523,-0.780320858004293,0.8695798138840533,2467509316
uw,-79.9924850463867,-82.8562545776367,-1.076292493058232,1.1359528683234121,2467525983
uw,-79.8582305908203,-83.3997802734375,-1.4086888081259004,1.361638598799743,2467542650
uw,-79.649299621582,-83.5859222412109,-1.7617550816075784,1.5129178366719873,2467559317
uw,-79.34521484375,-83.4627151489257,-2.1109332197757285,1.5699851252663704,2467575984
uw,-78.9452743530273,-83.1515197753906,-2.422575230172844,1.5337658348837948,2467592651
uw,-78.5000457763671,-82.8165740966796,-2.657458958319683,1.4281403082352893,2467609318
uw,-78.1035690307617,-82.5585021972656,-2.7786675002632757,1.2963536662254591,2467625985
uw,-77.7637023925781,-82.320442199707,-2.7621443196029465,1.1915825855309508,2467642652
uw,-77.4494400024414,-82.0386428833007,-2.606455825937187,1.1630660631031877,2467659319
uw,-77.1282272338867,-81.6864852905273,-2.3378831460856095,1.240688327903232,2467675986
uw,-76.8612899780273,-81.3493041992187,-2.0081535509219126,1.4220267108645481,2467692653
uw,-76.6496658325195,-81.1050338745117,-1.684515687237546,1.666204790889377,2467709320
uw,-76.4120101928711,-81.0735244750976,-1.434610882404037,1.8981035192181417,2467725987
uw,-76.083625793457,-81.3810806274414,-1.3105934591699735,2.02440906192258,2467742654
uw,-75.7303390502929,-81.9595413208007,-1.3373300309697125,1.959631895958847,2467759321
uw,-75.5318756103515,-82.4387512207031,-1.5081479947242566,1.656165663946196,2467775988
uw,-75.5456008911132,-82.3817596435546,-1.7891239753711357,1.1291049705237877,2467792655
uw,-75.5169067382812,-81.545181274414,-2.1301152608599354,0.46580727499500724,2467809322
uw,-75.5065689086914,-80.49267578125,-2.478478240380328,-0.18682735166039383,2467825989
uw,-75.796630859375,-80.1094055175781,-2.7907095257738934,-0.6581704962282242,2467842656
uw,-76.3697891235351,-79.8458404541015,-3.0386527302189155,-0.8056279721894433,2467859323
uw,-77.0693664550781,-79.6413040161132,-3.209572483671632,-0.5671206223348785,2467875990
uw,-77.760139465332,-78.8218307495117,-3.3016391021482603,0.006449138622704747,2467892657
uw,-78.3799057006836,-76.8046569824218,-3.3174112350928437,0.757388692506117,2467909324
uw,-78.921646118164,-74.5657882690429,-3.2581082560518633,1.4710130325838682,2467925991
uw,-79.3080596923828,-72.9559631347656,-3.121136274594595,1.952593151404512,2467942658
uw,-79.5053634643554,-71.7411117553711,-2.9022399019225276,2.098685455327236,2467959325
uw,-79.5566177368164,-70.6772079467773,-2.601737594111752,1.9308208245885838,2467975992
uw,-79.4811706542968,-69.6000823974609,-2.2322346679082017,1.5777815176958572,2467992659
uw,-79.2143478393554,-68.2379913330078,-1.8240554075578475,1.2172553215550785,2468009326
uw,-78.76220703125,-66.6648635864257,-1.4251075686947052,1.0047724426507996,2468025993
uw,-78.1002807617187,-65.1388244628906,-1.0938932551222218,1.0199438448782423,2468042660
uw,-77.3761596679687,-63.734764099121,-0.887021548564664,1.2485473935701827,2468059327
uw,-76.5451354980468,-62.3154029846191,-0.8446729771371856,1.60158057511831,2468075994
uw,-75.7030868530273,-60.8174819946289,-0.9782343258413464,1.9577693522861026,2468092661
uw,-74.9152603149414,-59.2756614685058,-1.2637237493933755,2.2097744716707157,2468109328
uw,-74.1878509521484,-57.8322982788085,-1.6430866601240524,2.297116032366343,2468125995
uw,-73.4977798461914,-56.5290184020996,-2.033464983504286,2.217332019997792,2468142662
uw,-72.6978073120117,-55.3283386230468,-2.3425946305714462,2.0163920657753267,2468159329
uw,-71.7575149536132,-54.1606903076171,-2.4870040087366925,1.7661574697233107,2468175996
uw,-70.6455154418945,-52.9895858764648,-2.408989637181562,1.539032605722112,2468192663
uw,-69.4125747680664,-51.8455162048339,-2.0885573291251722,1.3882711125639178,2468209330
uw,-68.2292327880859,-50.7500495910644,-1.547585250342635,1.3383970710418438,2468225997
uw,-67.1429901123046,-49.7300376892089,-0.845213882094652,1.3858769722108708,2468242664
uw,-66.1730651855468,-48.8304328918457,-0.06558615657994464,1.5070142286242563,2468259331
uw,-65.2910232543945,-48.0749206542968,0.6989670895342436,1.668717952988534,2468275998
uw,-64.5023651123046,-47.5388832092285,1.3650247900644585,1.838253175043179,2468292665
uw,-63.8062896728515,-47.2241249084472,1.8712892785989126,1.9896784052214131,2468309332
uw,-63.1206130981445,-47.0003662109375,2.1851464151342577,2.1065374316973484,2468325999
uw,-62.4253273010253,-46.7337188720703,2.301991761289096,2.1817083858028776,2468342666
uw,-61.7364349365234,-46.4776496887207,2.238953058596345,2.2157020902332345,2468359333
uw,-61.0698547363281,-46.2364196777343,2.026146589462939,2.2142744207265084,2468376000
uw,-60.3936386108398,-45.9836463928222,1.6989286393587766,2.1856160332620043,2468392667
uw,-59.7308311462402,-45.7247238159179,1.2936461945851707,2.1372841306303267,2468409334
uw,-58.9989776611328,-45.446361541748,0.8475522497527846,2.0735268314548088,2468426001
uw,-58.2136192321777,-45.1738891601562,0.4015953282779992,1.9941263219529397,2468442668
uw,-57.5585708618164,-44.9117927551269,0.0034032016956340424,1.89570291243805,2468459335
uw,-57.0032958984375,-44.7097206115722,-0.29275129945064016,1.7754817254559407,2468476002
uw,-56.4719085693359,-44.5499649047851,-0.43176809233864555,1.6362796959136499,2468492669
uw,-55.9298782348632,-44.4021186828613,-0.3703660835665246,1.4905457976393164,2468509336
uw,-55.6240882873535,-44.2974815368652,-0.09443948836661047,1.3611848614710955,2468526003
uw,-55.6714286804199,-44.21240234375,0.3647849264360157,1.2778262876055657,2468542670
uw,-56.0834884643554,-44.1627502441406,0.9240864987483958,1.2689151065145725,2468559337
uw,-56.6520500183105,-44.0953140258789,1.4582266046363253,1.3518074747072133,2468576004
uw,-57.544132232666,-44.0049057006835,1.828369600892606,1.5241556469047066,2468592671
uw,-58.5156059265136,-43.9886665344238,1.9228967403757948,1.7598188420205287,2468609338
uw,-59.6480140686035,-44.1999359130859,1.697511683673835,2.0113684934487743,2468626005
uw,-60.1205749511718,-44.6826210021972,1.1986197089630815,2.2193658110099115,2468642672
uw,-60.9076194763183,-45.3198852539062,0.5569887208066329,2.326579066463991,2468659339
uw,-61.27437210083,-46.0215339660644,-0.05198485682046577,2.2937808573898653,2468676006
uw,-60.8949813842773,-46.8539352416992,-0.47065114486478943,2.113062570722948,2468692673
uw,-61.760929107666,-47.758373260498,-0.6190828367896078,1.8147426525447816,2468709340
uw,-62.512638092041,-48.7602005004882,-0.5235368055266972,1.464891405011446,2468726007
uw,-63.2435073852539,-50.0501632690429,-0.29767267495707717,1.152378837128015,2468742674
uw,-64.1041793823242,-51.6564292907714,-0.0861139831528374,0.9672292538381474,2468759341
uw,-64.6803512573242,-53.4688453674316,-0.0004300559095056799,0.975385074552516,2468776008
uw,-65.0512924194336,-55.4021263122558,-0.0792584007961477,1.1974107050119882,2468792675
uw,-65.6318054199218,-57.3162765502929,-0.2874053252867826,1.598681808712942,2468809342
uw,-66.4101333618164,-59.0497131347656,-0.5463209813018766,2.095512570425911,2468826009
uw,-67.208984375,-60.7757148742675,-0.7746392659699958,2.5763158744431123,2468842676
uw,-67.9646759033203,-62.6243743896484,-0.9183242090729944,2.9314676547823098,2468859343
uw,-68.7189407348632,-64.5448837280273,-0.9610665622814386,3.0824705784901925,2468876010
uw,-69.4509353637695,-66.3191833496093,-0.917783813972352,3.001491715479709,2468892677
uw,-70.2611007690429,-67.8918151855468,-0.820365017310643,2.715842159253703,2468909344
uw,-71.0366134643554,-69.3581848144531,-0.7040165156975503,2.2968746453670685,2468926011
uw,-71.7236022949218,-70.7094650268554,-0.5982213484881093,1.837457903530361,2468942678
uw,-72.4516830444336,-71.9560852050781,-0.522529513306962,1.4253992204024803,2468959345
uw,-73.1384582519531,-73.2021331787109,-0.48585345981535427,1.1210684685539043,2468976012
uw,-73.7394714355468,-74.5337219238281,-0.4879982597024766,0.9456776102388236,2468992679
uw,-74.2590026855468,-75.904556274414,-0.5225282166331766,0.8827117356263309,2469009346
uw,-74.6650085449218,-77.1924362182617,-0.580140465103387,0.8903763451136589,2469026013
uw,-74.9783782958984,-78.4193878173828,-0.6516438822124501,0.9194705975626664,2469042680
uw,-75.239990234375,-79.5526809692382,-0.7298258051130898,0.9300573011097372,2469059347
uw,-75.4716873168945,-80.5273056030273,-0.8100271175758591,0.9017370776819964,2469076014
uw,-75.6947479248046,-81.3443374633789,-0.8898342752180401,0.8353268744484055,2469092681
uw,-75.9157485961914,-81.8929290771484,-0.9685485963339644,0.7470119730232107,2469109348
uw,-76.0359191894531,-82.2797393798828,-1.0468913393832546,0.6584625678075422,2469126015
uw,-76.130500793457,-82.5510177612304,-1.1269494312837565,0.5872765174593093,2469142682
uw,-76.2297744750976,-82.6863250732421,-1.2119892873445355,0.5412797883657454,2469159349
uw,-76.2817001342773,-82.6555709838867,-1.3057171796501923,0.5181420457345005,2469176016
uw,-76.3130111694336,-82.4503860473632,-1.4108918249113451,0.5093690861820881,2469192683
uw,-76.3627853393554,-82.0572509765625,-1.5276958538878236,0.5060456099810166,2469209350
uw,-76.4279632568359,-81.5245590209961,-1.652604351888652,0.5033965202491124,2469226017
uw,-76.5285263061523,-80.9294204711914,-1.7784045523512444,0.5022770052595525,2469242684
uw,-76.6425857543945,-80.3305358886718,-1.8955422043538976,0.5073756872386209,2469259351
uw,-76.7990112304687,-79.7973403930664,-1.994360194674318,0.5233334883745441,2469276018
uw,-76.9644775390625,-79.3752670288086,-2.06739391117302,0.5506542393680847,2469292685
uw,-77.0771179199218,-79.0678405761718,-2.1109155942087474,0.5832224588773316,2469309352
uw,-77.1452407836914,-78.8692855834961,-2.1253330892484565,0.6086435737428052,2469326019
uw,-77.2124404907226,-78.7637252807617,-2.1145552809538897,0.611644968051362,2469342686
uw,-77.2687530517578,-78.816162109375,-2.0847223115849953,0.5796511478879428,2469359353
uw,-77.3063278198242,-79.0294799804687,-2.042694299566704,0.5087464982179049,2469376020
uw,-77.3468933105468,-79.3386077880859,-1.9945840984875316,0.40790109245513373,2469392687
uw,-77.4220962524414,-79.7049789428711,-1.944573948357512,0.2996543145329971,2469409354
uw,-77.4810638427734,-80.1607360839843,-1.8942243256399003,0.21631247997845207,2469426021
uw,-77.4955749511718,-80.6861572265625,-1.8423440499955073,0.19191434302503071,2469442688
uw,-77.5152816772461,-81.2320938110351,-1.7852917134891093,0.25149332353090414,2469459355
uw,-77.5692977905273,-81.7348556518554,-1.7175228080487537,0.40026683573954464,2469476022
uw,-77.6242980957031,-82.1091766357421,-1.6323905938200758,0.6161380031458549,2469492689
uw,-77.6488037109375,-82.2965850830078,-1.5234979382932314,0.8490590527785496,2469509356
uw,-77.7010192871093,-82.3759384155273,-1.3869667850120175,1.0298842004255226,2469526023
uw,-77.8756561279296,-82.2333755493164,-1.2245880070893482,1.0888627832152895,2469542690
uw,-78.2901306152343,-81.6706466674804,-1.0469430714924202,0.9800694265894196,2469559357
uw,-78.7498703002929,-80.6417388916015,-0.8746802148272287,0.7040386145314841,2469576024
uw,-79.2262573242187,-79.7296905517578,-0.7360149610546567,0.3186745121402138,2469592691
uw,-79.6572341918945,-79.2900924682617,-0.6598705671221811,-0.06983260201093969,2469609358
uw,-79.8471221923828,-79.1484069824218,-0.6664548089996647,-0.33786440235543536,2469626025
uw,-79.8503799438476,-78.6280899047851,-0.758913440983806,-0.38868040557165767,2469642692
uw,-79.7298431396484,-77.3294906616211,-0.9196195105878702,-0.19255248504548406,2469659359
uw,-79.5027923583984,-76.1252975463867,-1.112728063645302,0.19664367740599836,2469676026
uw,-79.2417907714843,-74.866455078125,-1.2921458206628158,0.6582055289345391,2469692693
uw,-78.784194946289,-73.8274383544921,-1.4123458710980736,1.0483531529702899,2469709360
uw,-77.9905242919921,-73.0891189575195,-1.438998177871572,1.2519836515905713,2469726027
uw,-76.9788055419921,-72.4300460815429,-1.3568849830157301,1.2213705034887752,2469742694
uw,-76.0583343505859,-71.6791610717773,-1.1734466647200112,0.988034690773001,2469759361
uw,-75.288703918457,-70.8471145629882,-0.9172108355252369,0.6455226246721858,2469776028
uw,-74.621353149414,-69.9373626708984,-0.6312824087017336,0.3118589522626077,2469792695
uw,-73.9083862304687,-68.9602508544921,-0.3631084065678131,0.0873755211445844,2469809362
uw,-73.0202255249023,-67.9060974121093,-0.15281278556494876,0.023875511711079128,2469826029
uw,-71.9489364624023,-66.8163146972656,-0.02316152367314023,0.11471671547947018,2469842696
uw,-70.7669448852539,-65.7477035522461,0.025867891557121287,0.30583637267501157,2469859363
uw,-69.4488754272461,-64.7434768676757,0.016164576158137153,0.5199058339394873,2469876030
uw,-68.153694152832,-63.836124420166,-0.01550761875800195,0.6829302518529198,2469892697
uw,-66.8245391845703,-62.993782043457,-0.028306434582592008,0.7446221964304578,2469909364
uw,-65.5316467285156,-62.1713256835937,0.01146776599889924,0.6883095641550846,2469926031
uw,-64.2659606933593,-61.340576171875,0.122003096016026,0.5303252579652755,2469942698
uw,-63.0654792785644,-60.4814949035644,0.30258136304486405,0.3114413623927988,2469959365
uw,-61.8644866943359,-59.6268157958984,0.5355760670813754,0.08398236809496369,2469976032
uw,-60.8169555664062,-58.7734794616699,0.792630691390313,-0.10167577206745701,2469992699
uw,-59.8195152282714,-57.8421058654785,1.0427417955551512,-0.20805864719319403,2470009366
uw,-58.816535949707,-56.8702583312988,1.2597158138500213,-0.2168794164898055,2470026033
uw,-57.8003196716308,-55.9573822021484,1.4270226616447128,-0.12997018679322317,2470042700
uw,-56.8036842346191,-55.1585807800293,1.539189397278558,0.03433488690860088,2470059367
uw,-55.9100036621093,-54.4561157226562,1.6000598675003737,0.24747868903469275,2470076034
uw,-55.142951965332,-53.8163604736328,1.618980821044269,0.47741441534277296,2470092701
uw,-54.4520530700683,-53.2342185974121,1.6061575020516856,0.6940345690665815,2470109368
uw,-53.815673828125,-52.7432212829589,1.5684036324973514,0.872485057009398,2470126035
uw,-53.2597427368164,-52.3702888488769,1.5066131207497544,0.9945880075174508,2470142702
uw,-52.7933807373046,-52.0786705017089,1.4163159066917934,1.0493061331793119,2470159369
uw,-52.4092025756835,-51.8335609436035,1.2920816008568663,1.033284681340725,2470176036
uw,-52.1069755554199,-51.6473541259765,1.1350127910129393,0.9519492583855228,2470192703
uw,-51.9366035461425,-51.4608459472656,0.9606108680201917,0.8206660390980448,2470209370
uw,-51.8872947692871,-51.2380714416503,0.8029770119247586,0.6646708133783343,2470226037
uw,-51.9275474548339,-50.9496994018554,0.7115979768983333,0.5165008019218263,2470242704
uw,-51.9355201721191,-50.587345123291,0.739125483990107,0.41065551289174435,2470259371
uw,-52.0606384277343,-50.1599998474121,0.9220333343492935,0.37655568271252454,2470276038
uw,-52.4942169189453,-49.7207298278808,1.2597065218851025,0.4317341027299367,2470292705
uw,-53.051040649414,-49.2699470520019,1.7000916914570994,0.5772119312305876,2470309372
uw,-53.7883644104003,-48.8471603393554,2.140377842013259,0.7963749518432788,2470326039
uw,-54.8585700988769,-48.4997787475585,2.4483059492075143,1.0577490060373356,2470342706
uw,-55.3972282409668,-48.2527999877929,2.502818051820253,1.321164611118021,2470359373
uw,-55.6209602355957,-48.0774574279785,2.242303853341274,1.546040886029164,2470376040
uw,-56.8685836791992,-48.0047798156738,1.6990174685103958,1.7000215548375786,2470392707
uw,-56.6786880493164,-47.9227638244628,0.9980885049564986,1.766095847416418,2470409374
uw,-57.7121353149414,-47.8669891357421,0.31498350167151523,1.7466906504490747,2470426041
uw,-59.5828208923339,-48.0030364990234,-0.1908153370085554,1.6638568627988586,2470442708
uw,-60.229736328125,-48.4137992858886,-0.4336276571212337,1.555256873778807,2470459375
uw,-60.7284889221191,-49.0423240661621,-0.42463790154122333,1.466090535037503,2470476042
uw,-61.589973449707,-49.8720512390136,-0.25416451203514356,1.4377799693619318,2470492709
uw,-62.51904296875,-50.8459587097168,-0.046507280323582575,1.4955704780373162,2470509376
uw,-63.2628707885742,-52.123779296875,0.09024226593621755,1.6387440471212404,2470526043
uw,-64.0790328979492,-53.7815361022949,0.09930475481248614,1.837637809956806,2470542710
uw,-65.1891632080078,-55.7588462829589,-0.015187461307161487,2.0401339302039085,2470559377
uw,-66.2732696533203,-57.7283821105957,-0.20264176686643132,2.186899057451762,2470576044
uw,-67.3073196411132,-59.5748634338378,-0.3940489606909807,2.230738702574162,2470592711
uw,-68.2067947387695,-61.5530357360839,-0.5301869686605956,2.1530008672757286,2470609378
uw,-69.0279312133789,-63.7211723327636,-0.5797051198363858,1.9706615308970203,2470626045
uw,-69.8653259277343,-65.9171447753906,-0.5433338406607073,1.7314832317673587,2470642712
uw,-70.7654571533203,-68.0279006958007,-0.44661011298456665,1.4993624437561242,2470659379
uw,-71.6666870117187,-69.9232177734375,-0.3268009813811619,1.3351757726582787,2470676046
uw,-72.4698257446289,-71.6100082397461,-0.21985950407160038,1.2791163324007935,2470692713
uw,-73.1684417724609,-73.1611938476562,-0.1514022332287522,1.3393110239495727,2470709380
uw,-73.7781448364257,-74.5579528808593,-0.133239133240827,1.4894177092009828,2470726047
uw,-74.3466110229492,-75.8044357299804,-0.1648933283206558,1.675511716439761,2470742714
uw,-74.9109802246093,-76.900634765625,-0.23826946297815715,1.8302639678657848,2470759381
uw,-75.3900070190429,-78.0204620361328,-0.3432073891904947,1.8906298771483283,2470776048
uw,-75.7487258911132,-79.0819015502929,-0.47190752591533164,1.814430419242798,2470792715
uw,-76.1033859252929,-80.123550415039,-0.6208905425950358,1.591536341389268,2470809382
uw,-76.4459381103515,-81.0986785888671,-0.7900684255597499,1.2468149151391295,2470826049
uw,-76.7000350952148,-81.9840621948242,-0.9795163194237144,0.8342252961083518,2470842716
uw,-76.9001388549804,-82.6524963378906,-1.185418826462012,0.4238382110434932,2470859383
uw,-77.0591278076171,-82.9642486572265,-1.3970686680389128,0.0853749471034757,2470876050
uw,-77.1344299316406,-82.8630676269531,-1.5964576105293007,-0.12744361293607684,2470892717
uw,-77.1641769409179,-82.3945999145507,-1.7610160539306134,-0.18798868321064993,2470909384
uw,-77.2052536010742,-81.6458587646484,-1.8688741063095018,-0.10095961872764611,2470926051
uw,-77.2529754638671,-80.7003097534179,-1.905116723178625,0.1006913559921709,2470942718
uw,-77.2981872558593,-79.6769561767578,-1.8671261980535543,0.36486272218345844,2470959385
uw,-77.3369674682617,-78.6411437988281,-1.7672528149086733,0.6328828613444064,2470976052
uw,-77.3778228759765,-77.6061782836914,-1.631684039087141,0.8524221183291192,2470992719
uw,-77.4100494384765,-76.6670989990234,-1.4954264288175685,0.98773492963107,2471009386
uw,-77.4180755615234,-75.7995834350586,-1.3945337532890876,1.025040609719531,2471026053
uw,-77.399673461914,-74.9681701660156,-1.3576686116990035,0.9721751573708961,2471042720
uw,-77.3585662841796,-74.1417922973632,-1.3993578055685645,0.8531575084671276,2471059387
uw,-77.3131561279296,-73.3289489746093,-1.5167766224214676,0.6995674209461479,2471076054
uw,-77.2981262207031,-72.5820388793945,-1.6908099040785178,0.5412908268247801,2471092721
uw,-77.283706665039,-72.033462524414,-1.8909103910442338,0.3991683693816846,2471109388
uw,-77.2455368041992,-71.727668762207,-2.0823057226557875,0.28145105878998367,2471126055
uw,-77.1971130371093,-71.6387329101562,-2.2336432268087782,0.18482459703367687,2471142722
uw,-77.1527557373046,-71.7111434936523,-2.323265768588349,0.09935017676503315,2471159389
uw,-77.0978317260742,-71.9725494384765,-2.342865560546337,0.015466218060927088,2471176056
uw,-77.0072479248046,-72.4230194091796,-2.298027750685481,-0.06930950026110806,2471192723
uw,-76.9080352783203,-73.1473617553711,-2.2058911374898416,-0.14605516628630477,2471209390
uw,-76.8069229125976,-74.1172637939453,-2.0906511120640743,-0.1938506864067355,2471226057
uw,-76.7239151000976,-75.2946090698242,-1.9778848658829349,-0.18347333861203194,2471242724
uw,-76.6575622558593,-76.5786056518554,-1.888751599769333,-0.08516099780781404,2471259391
uw,-76.5867233276367,-77.9577407836914,-1.8350710387767923,0.12067747037273985,2471276058
uw,-76.5251007080078,-79.368179321289,-1.8161514667162137,0.43200943532025515,2471292725
uw,-76.5048751831054,-80.6331329345703,-1.818062206752932,0.8162898790422797,2471309392
uw,-76.5156631469726,-81.5820770263671,-1.8158488688005232,1.2081228387222458,2471326059
uw,-76.607666015625,-82.2446594238281,-1.7789238997255825,1.5171347725205322,2471342726
uw,-76.9535980224609,-82.5875167846679,-1.6793592480410646,1.6478693781783633,2471359393
uw,-77.3700866699218,-82.3399963378906,-1.5018473329587207,1.529807035203491,2471376060
uw,-77.6600341796875,-81.46923828125,-1.2527484096417338,1.150224944507281,2471392727
uw,-77.9530487060546,-81.1064071655273,-0.9646158266501604,0.5770147297536384,2471409394
uw,-78.2616882324218,-80.9643478393554,-0.6929918636386687,-0.043644885001460014,2471426061
uw,-78.4176559448242,-81.1423950195312,-0.5046128311049288,-0.5239525973963881,2471442728
uw,-78.4060897827148,-80.7044982910156,-0.4596207651943482,-0.6991075190498797,2471459395
uw,-78.2010955810546,-79.3312835693359,-0.5931685217282566,-0.4949913187250466,2471476062
uw,-77.8458938598632,-77.4410705566406,-0.9024403636703507,0.03418181992745998,2471492729
uw,-77.5377426147461,-75.8087387084961,-1.3433913993735116,0.720061181554232,2471509396
uw,-77.3227081298828,-74.6826705932617,-1.838440701136135,1.3421361928064726,2471526063
uw,-77.1168518066406,-74.2643890380859,-2.2931899291619056,1.7092676890506804,2471542730
uw,-76.7664489746093,-74.0746917724609,-2.6177756530891263,1.724789929376751,2471559397
uw,-76.2088088989257,-73.5347442626953,-2.74717585225572,1.4103332007294298,2471576064
uw,-75.588150024414,-72.5926742553711,-2.6550637033727895,0.8845044330519642,2471592731
uw,-74.7564620971679,-71.532600402832,-2.3576406632781586,0.31132130672487274,2471609398
uw,-73.9791107177734,-70.4999008178711,-1.9067991485555222,-0.15786162009629373,2471626065
uw,-73.1781005859375,-69.5051498413086,-1.3752050911219902,-0.4274834061628904,2471642732
uw,-72.3334579467773,-68.3356018066406,-0.8383243869466356,-0.47436135182462835,2471659399
uw,-71.2978820800781,-67.0768432617187,-0.358803427932844,-0.33799299580290587,2471676066
uw,-70.2821655273437,-65.7847747802734,0.023184227988759146,-0.0938079727959026,2471692733
uw,-69.2561874389648,-64.4714584350586,0.29264176713427165,0.17793952398886845,2471709400
uw,-68.1470718383789,-63.4915390014648,0.45654067640379786,0.4168261646102183,2471726067
uw,-67.0093460083007,-62.6507110595703,0.5367725929765851,0.5945748570559306,2471742734
uw,-65.8792877197265,-61.9042930603027,0.5616753047730065,0.7143743893323163,2471759401
uw,-64.7626800537109,-61.1581649780273,0.5584066161261084,0.8004266569732279,2471776068
uw,-63.7182540893554,-60.4319381713867,0.5478420083703877,0.8830032919548335,2471792735
uw,-62.6880302429199,-59.7095756530761,0.5426749739745992,0.9845515853249625,2471809402
uw,-61.6540832519531,-59.0682296752929,0.5482597853994969,1.1110555955055614,2471826069
uw,-60.6370544433593,-58.4980163574218,0.5649031727777358,1.2504725932732137,2471842736
uw,-59.6338233947753,-58.0080871582031,0.5901766604675974,1.377514605927162,2471859403
uw,-58.60640335083,-57.5796890258789,0.6203842413642127,1.4622703461880473,2471876070
uw,-57.7438011169433,-57.23872756958,0.6511357184202421,1.4796703290179325,2471892737
uw,-57.0027313232421,-56.8973999023437,0.6775137970783488,1.4173404716942013,2471909404
uw,-56.2639617919921,-56.4516716003418,0.6943677707328594,1.2802556494183794,2471926071
uw,-55.5510749816894,-55.8756523132324,0.6969942249884797,1.091312235849242,2471942738
uw,-54.9625740051269,-55.1150093078613,0.6821984075190518,0.8875520592613643,2471959405
uw,-54.4987716674804,-54.3453788757324,0.649608216342121,0.7125476290620194,2471976072
uw,-54.1927032470703,-53.7819023132324,0.602991042797772,0.6064041360030468,2471992739
uw,-54.0554809570312,-53.3919143676757,0.5510680429609247,0.5956867258880439,2472009406
uw,-54.0830993652343,-53.1393356323242,0.5071246818238314,0.6860038735835344,2472026073
uw,-54.2197380065918,-52.9017791748046,0.48692410372117506,0.8596166357269641,2472042740
uw,-54.5077934265136,-52.5871849060058,0.5050812693546056,1.0791254941881503,2472059407
uw,-54.9408454895019,-52.2012290954589,0.5707965375609536,1.2963891749189285,2472076074
uw,-55.4721946716308,-51.7790184020996,0.6842586295136086,1.4642182120136893,2472092741
uw,-56.1043815612793,-51.3304939270019,0.8349285257803709,1.5477636387728995,2472109408
uw,-56.8330764770507,-50.8808135986328,1.002401062943707,1.5329443489835952,2472126075
uw,-57.3682289123535,-50.4604225158691,1.1598525318202333,1.4302762840776293,2472142742
uw,-57.6562042236328,-50.1080894470214,1.2794690474946158,1.2735511665273547,2472159409
uw,-58.1387748718261,-49.8255310058593,1.3388224251102563,1.113640756159401,2472176076
uw,-58.937629699707,-49.5546531677246,1.3268528496531151,1.0082671161067822,2472192743
uw,-59.9298973083496,-49.2729301452636,1.2479310721903707,1.0091189461790115,2472209410
uw,-60.925724029541,-48.974021911621,1.1226632679929458,1.1484343423177632,2472226077
uw,-61.6314888000488,-48.6567649841308,0.9847428420856096,1.4280107834794544,2472242744
uw,-61.88911819458,-48.4020233154296,0.873677719674511,1.8140289794900732,2472259411
uw,-62.680305480957,-48.2399749755859,0.8233455014903733,2.240427037496917,2472276078
uw,-62.8181533813476,-48.1691055297851,0.8474349068762813,2.621525133468813,2472292745
uw,-62.7800254821777,-48.1590232849121,0.9264929486646547,2.871633552578157,2472309412
uw,-63.8056755065918,-48.2705574035644,1.005380837301528,2.9266276321675497,2472326079
uw,-64.949722290039,-48.6497993469238,1.008674078426683,2.7611751218688,2472342746
uw,-65.909065246582,-49.2792816162109,0.8721567557653336,2.3961502418641247,2472359413
uw,-66.4754867553711,-50.0807037353515,0.5765697103770749,1.8936778770762135,2472376080
uw,-66.8089752197265,-51.1946754455566,0.1649312299441485,1.341297123895308,2472392747
uw,-67.1873550415039,-52.7844924926757,-0.2681159250073039,0.830302346347891,2472409414
uw,-67.8401794433593,-54.8014373779296,-0.6115840668341921,0.4348636547297142,2472426081
uw,-68.6542053222656,-56.8963508605957,-0.7814552495881062,0.19757415906982662,2472442748
uw,-69.4810638427734,-58.8521537780761,-0.7516848640065041,0.1244063938223165,2472459415
uw,-70.3077850341796,-60.6447029113769,-0.5599344867766156,0.18895030975066862,2472476082
uw,-71.0381393432617,-62.4248619079589,-0.288489182851898,0.3432745596094698,2472492749
uw,-71.6576843261718,-64.1725234985351,-0.03203798471284198,0.5314674379088745,2472509416
uw,-72.2139434814453,-65.8019714355468,0.1326736632430837,0.7021430931382684,2472526083
uw,-72.9933776855468,-67.2098236083984,0.1648254008569775,0.8175618251351395,2472542750
uw,-73.6565017700195,-68.1587142944336,0.06254756431907484,0.8585608503304853,2472559417
uw,-74.2283554077148,-68.9651870727539,-0.1452566826749365,0.8254454097113215,2472576084
uw,-74.7863693237304,-70.4928512573242,-0.4121553698841628,0.7353521955701178,2472592751
uw,-75.3371810913086,-71.6506958007812,-0.6873581364578903,0.6167985112690789,2472609418
uw,-75.9761962890625,-72.7936096191406,-0.9260656169543993,0.5023581475651597,2472626085
uw,-76.5612716674804,-73.9567260742187,-1.096296587411142,0.42064135582872064,2472642752
uw,-76.980110168457,-75.1065673828125,-1.1824432481198222,0.38906111429069334,2472659419
uw,-77.210205078125,-76.1402893066406,-1.1859011332310156,0.40915032719160654,2472676086
uw,-77.3769149780273,-76.9435424804687,-1.1230939747773039,0.4660386594713625,2472692753
uw,-77.5336837768554,-77.5607223510742,-1.0215409897374796,0.5327600660665256,2472709420
uw,-77.6720275878906,-78.030044555664,-0.9150664752760227,0.578510271461537,2472726087
uw,-77.7632675170898,-78.3249435424804,-0.8391985133787244,0.5784594454339882,2472742754
uw,-77.7036819458007,-78.4600143432617,-0.8270069524063689,0.5220020579178812,2472759421
uw,-77.5770645141601,-78.4100570678711,-0.9047216236659752,0.4167913387916625,2472776088
uw,-77.4798355102539,-78.146987915039,-1.0864865865626634,0.28734438167546,2472792755
uw,-77.4557571411132,-77.717300415039,-1.3689141137201615,0.16874431224050554,2472809422
uw,-77.3966522216796,-77.1876907348632,-1.7277921326220806,0.09732995147640999,2472826089
uw,-77.2471694946289,-76.5877456665039,-2.1197601477048886,0.10088901450815779,2472842756
uw,-77.125617980957,-75.9767684936523,-2.490116817770333,0.19075516642694718,2472859423
uw,-77.1145706176757,-75.400894165039,-2.7849923714081215,0.3576165248579475,2472876090
uw,-77.2032241821289,-74.8765029907226,-2.963885412470175,0.5720852426423283,2472892757
uw,-77.3373565673828,-74.5235595703125,-3.0084257808232,0.7902361622308427,2472909424
uw,-77.46142578125,-74.4623718261718,-2.9249607649538576,0.9632885250772384,2472926091
uw,-77.5861282348632,-74.731330871582,-2.7408973798904204,1.0494616177242673,2472942758
uw,-77.7375564575195,-75.2245330810546,-2.496558534371617,1.0251963089733351,2472959425
uw,-77.8635559082031,-75.8630676269531,-2.2352187477208463,0.8928042533418253,2472976092
uw,-77.9374465942382,-76.6126937866211,-1.9940249063288353,0.6822772258965167,2472992759
uw,-77.9891204833984,-77.4055099487304,-1.7978503199455265,0.44628844184395394,2473009426
uw,-78.0472640991211,-78.1883926391601,-1.6570206400386756,0.2490428195836939,2473026093
uw,-78.112190246582,-78.9528274536132,-1.568643677335724,0.151197137638596,2473042760
uw,-78.1912765502929,-79.7480773925781,-1.5203411056766218,0.19418176224447878,2473059427
uw,-78.2689132690429,-80.5832214355468,-1.4947619366137954,0.3876388104262428,2473076094
uw,-78.3553085327148,-81.4461441040039,-1.4734370946258117,0.7032683607610345,2473092761
uw,-78.4725494384765,-82.2857131958007,-1.4392443772548102,1.0772692219547157,2473109428
uw,-78.6059646606445,-83.1083831787109,-1.3777315704506574,1.4220148331788118,2473126095
uw,-78.7773895263671,-83.8432388305664,-1.2782952118281883,1.6457982838772762,2473142762
uw,-78.9222869873046,-84.3152542114257,-1.1361838141123397,1.6774232910905607,2473159429
uw,-79.0861892700195,-84.2264709472656,-0.9553558731919458,1.4900966480436422,2473176096
uw,-79.3522720336914,-84.1643371582031,-0.7509914241885747,1.1168943878613211,2473192763
uw,-79.72216796875,-84.5232849121093,-0.5498864595592755,0.6494316930886049,2473209430
uw,-80.085952758789,-84.7038421630859,-0.38745589574534917,0.21468635992961155,2473226097
uw,-80.3236083984375,-84.2564926147461,-0.3012122209068335,-0.06631983135690457,2473242764
uw,-80.2722702026367,-83.1177825927734,-0.3217622386886785,-0.12310710547980312,2473259431
uw,-79.8897628784179,-81.3387603759765,-0.46330862706491094,0.03697199132533245,2473276098
uw,-79.2967071533203,-79.7454681396484,-0.716266705915654,0.3330588277643029,2473292765
uw,-78.5062179565429,-78.7137451171875,-1.0446709574977737,0.645204296668416,2473309432
uw,-77.6257019042968,-78.0995254516601,-1.3902318593019658,0.8620699282194496,2473326099
uw,-76.653694152832,-77.6065673828125,-1.683143930276089,0.9199041088897484,2473342766
uw,-75.5395431518554,-76.884651184082,-1.857481031743748,0.817569541036096,2473359433
uw,-74.2722702026367,-75.7778549194336,-1.867138985154557,0.6056811634105289,2473376100
uw,-72.9206314086914,-74.5228729248046,-1.6976942420556125,0.3596674649211072,2473392767
uw,-71.5838088989257,-73.3086013793945,-1.3705716435693216,0.1512187271759417,2473409434
uw,-70.3018569946289,-72.1542129516601,-0.9381436929444676,0.029391954135652747,2473426101
uw,-69.1069564819336,-70.9780960083007,-0.4709973935070209,0.015092309368550185,2473442768
uw,-67.9391021728515,-69.6982269287109,-0.040808375758706154,0.10574714073533098,2473459435
uw,-66.7305603027343,-68.4395446777343,0.29651802504261326,0.28405814026022613,2473476102
uw,-65.5210342407226,-67.2492141723632,0.5128742719168498,0.5258214074359364,2473492769
uw,-64.3754425048828,-66.1165542602539,0.6120151739721195,0.8047021584124824,2473509436
uw,-63.2467041015625,-65.0900802612304,0.6249112004320962,1.09423971321173,2473526103
uw,-62.1512718200683,-64.1945343017578,0.5982315837951443,1.3683471680472743,2473542770
uw,-61.0839385986328,-63.3847312927246,0.5797532577377098,1.6015635202223955,2473559437
uw,-60.0591926574707,-62.6470832824707,0.6051844270632762,1.7700208766889414,2473576104
uw,-59.080768585205,-61.9554100036621,0.6901180249758109,1.8537591158691447,2473592771
uw,-58.1336402893066,-61.2920341491699,0.828889501541005,1.8404654562874079,2473609438
uw,-57.2145347595214,-60.6739654541015,0.9997195116679015,1.729794534610657,2473626105
uw,-56.3191947937011,-60.0441513061523,1.1735474448910947,1.5364583693909684,2473642772
uw,-55.4508438110351,-59.4990425109863,1.3231120744916807,1.2900251941146077,2473659439
uw,-54.7274627685546,-59.1423645019531,1.4293642772977455,1.0304126660911832,2473676106
uw,-54.1449699401855,-58.8606300354003,1.4838535471273444,0.8000225281185419,2473692773
uw,-53.6891479492187,-58.5756225585937,1.487500695246153,0.6350539512916407,2473709440
uw,-53.3295173645019,-58.2910766601562,1.4473357413769516,0.5587077015062678,2473726107
uw,-53.0853729248046,-58.0259971618652,1.3729931803019355,0.5779000589121676,2473742774
uw,-52.9045066833496,-57.8025169372558,1.2742330395376857,0.6837134054112358,2473759441
uw,-52.8036842346191,-57.6054077148437,1.1599821504556376,0.8548608683977653,2473776108
uw,-52.7210235595703,-57.406005859375,1.0387614527043707,1.0630068263770274,2473792775
uw,-52.6636886596679,-57.2248611450195,0.9200164941486252,1.2786348600774502,2473809442
uw,-52.5756874084472,-57.1041259765625,0.8157160209919763,1.4761989177512445,2473826109
uw,-52.6857986450195,-56.9944725036621,0.7414997069278578,1.637596672999415,2473842776
uw,-52.9584197998046,-56.8899765014648,0.7166288880621929,1.7535576016783316,2473859443
uw,-53.3483848571777,-56.7555465698242,0.7621132958243418,1.8231360061652602,2473876110
uw,-53.9709701538085,-56.6127014160156,0.896681098374919,1.8518587317263313,2473892777
uw,-54.6427268981933,-56.4691886901855,1.1306556277109332,1.8490910477979425,2473909444
uw,-55.2667045593261,-56.3138542175293,1.4583492100878936,1.8250213850238897,2473926111
uw,-55.9402046203613,-56.1307220458984,1.8505843338384393,1.7875912345997047,2473942778
uw,-56.8353157043457,-55.9118423461914,2.2504956075797633,1.7398245110414037,2473959445
uw,-57.9762916564941,-55.6806297302246,2.5770134073041953,1.6782488163851768,2473976112
uw,-59.2217178344726,-55.4640655517578,2.739734359287329,1.5932446892683678,2473992779
uw,-60.4803161621093,-55.2615089416503,2.6650314435363684,1.4719848647402438,2474009446
uw,-61.17769241333,-55.0884208679199,2.3267602847727273,1.303986761962552,2474026113
uw,-62.1308288574218,-54.9487152099609,1.7685422924852734,1.0882554830632793,2474042780
uw,-62.4367866516113,-54.8321990966796,1.1030156800340851,0.8398811150293316,2474059447
uw,-62.9432945251464,-54.7216606140136,0.48089033255840613,0.5933052566065259,2474076114
uw,-63.8764266967773,-54.5973205566406,0.03813898824568149,0.39976347806425583,2474092781
uw,-64.9104461669921,-54.5311431884765,-0.15569957577496504,0.3178173796505378,2474109448
uw,-65.8268508911132,-54.6561470031738,-0.12262947985462755,0.3981948711636533,2474126115
uw,-66.6026611328125,-55.204734802246,0.037779057564803806,0.6667495067549866,2474142782
uw,-67.3251113891601,-56.4132270812988,0.19375839685264049,1.1111991679325832,2474159449
uw,-68.1847991943359,-58.1189346313476,0.23573164569273156,1.6771891311370308,2474176116
uw,-69.0501327514648,-60.0564727783203,0.11567283230495733,2.2765568070064446,2474192783
uw,-69.8770141601562,-61.8913993835449,-0.142614666802546,2.806342152001291,2474209450
uw,-70.6852645874023,-63.6324958801269,-0.46180729507147916,3.173137062768759,2474226117
uw,-71.5103378295898,-65.2831039428711,-0.7459883867227596,3.3155763203597095,2474242784
uw,-72.3399276733398,-66.7901306152343,-0.9161661311773359,3.21856205345486,2474259451
uw,-73.2231674194336,-68.288345336914,-0.9336834648854963,2.9154518831709115,2474276118
uw,-74.1981964111328,-69.8937835693359,-0.8062644929286527,2.4779074720936274,2474292785
uw,-75.1578979492187,-71.5612030029296,-0.5788145633596147,1.9965291320821745,2474309452
uw,-75.9853973388671,-73.2086563110351,-0.3155054061676224,1.5579653172333658,2474326119
uw,-76.7638702392578,-74.580322265625,-0.0804883686267281,1.2250642538382037,2474342786
uw,-77.5487747192382,-75.7803649902343,0.07717734671057395,1.025412608969487,2474359453
uw,-78.2587585449218,-76.9256515502929,0.13158498415710831,0.9506726279096105,2474376120
uw,-78.8120803833007,-78.0762710571289,0.08085176518329526,0.9655896714091639,2474392787
uw,-79.2288665771484,-79.3498001098632,-0.05755452223197784,1.0226964458056491,2474409454
uw,-79.5202255249023,-80.7109222412109,-0.25450922848932167,1.0775360740195887,2474426121
uw,-79.7190322875976,-82.0521163940429,-0.4773658195625258,1.0999160413541924,2474442788
uw,-79.9225921630859,-83.3274383544921,-0.6965246805567554,1.0787769882836513,2474459455
uw,-80.1647262573242,-84.343521118164,-0.8893692206050267,1.020709398662506,2474476122
uw,-80.4452514648437,-84.9586563110351,-1.041521299737562,0.9439986453865384,2474492789
uw,-80.717903137207,-85.17626953125,-1.146189985447435,0.8708302539816367,2474509456
uw,-80.903335571289,-85.0389633178711,-1.2027611680352401,0.820052923158767,2474526123
uw,-81.0232925415039,-84.5548248291015,-1.215555441099685,0.8021437633246484,2474542790
uw,-81.1046142578125,-83.6726608276367,-1.193047232991489,0.8171886976190345,2474559457
uw,-81.1702575683593,-82.4811706542968,-1.1472639722242257,0.8559612495972371,2474576124
uw,-81.1926574707031,-81.2243041992187,-1.0929091299536995,0.9035129385378191,2474592791
uw,-81.1699142456054,-80.0172348022461,-1.0459035208822325,0.9440576942067673,2474609458
uw,-81.1184768676757,-78.9330444335937,-1.021284073367565,0.9655441117197004,2474626125
uw,-81.041763305664,-77.9288635253906,-1.030673055904309,0.9624695539880689,2474642792
uw,-80.9657974243164,-77.0113830566406,-1.0798423986262873,0.9362490472630793,2474659459
uw,-80.8927383422851,-76.1566925048828,-1.1671037797021144,0.893444474963134,2474676126
uw,-80.8216857910156,-75.3821792602539,-1.283152858950351,0.8428731788890397,2474692793
uw,-80.7395095825195,-74.677993774414,-1.412591114987717,0.792786821628547,2474709460
uw,-80.6278915405273,-74.0553741455078,-1.5368638294665902,0.7490371880286413,2474726127
uw,-80.5230484008789,-73.487548828125,-1.6379853581714785,0.7146716995671067,2474742794
uw,-80.4488906860351,-72.983039855957,-1.7022312085992255,0.6909046431070248,2474759461
uw,-80.4178695678711,-72.5883331298828,-1.722982850580578,0.6789643228440555,2474776128
uw,-80.4010620117187,-72.376968383789,-1.7021377359827317,0.6819723095114952,2474792795
uw,-80.3594284057617,-72.3897857666015,-1.6498570598766855,0.7058625297909958,2474809462
uw,-80.2883987426757,-72.6270904541015,-1.582739633842574,0.7585209938444708,2474826129
uw,-80.2258758544921,-73.0710983276367,-1.520715289149349,0.8468814576029552,2474842796
uw,-80.1540603637695,-73.6256866455078,-1.4831375123778054,0.972541127973899,2474859463
uw,-80.0393676757812,-74.2963714599609,-1.48474722558617,1.1272993945505512,2474876130
uw,-79.8499526977539,-75.1296691894531,-1.5322320903079738,1.2905581076382981,2474892797
uw,-79.6229934692382,-76.1371536254882,-1.6219458742576578,1.4304800021070163,2474909464
uw,-79.4331588745117,-77.2683715820312,-1.7391594777369686,1.5099913937744696,2474926131
uw,-79.2605438232421,-78.3708572387695,-1.8591732487572405,1.497136823492641,2474942798
uw,-79.1340713500976,-79.3525314331054,-1.9505983111053022,1.377312014089495,2474959465
uw,-79.1165161132812,-80.2299575805664,-1.9807950018057203,1.163263451171455,2474976132
uw,-79.1743621826171,-81.0473556518554,-1.9227654156715488,0.8983106603467746,2474992799
uw,-79.2479934692382,-81.77734375,-1.7620731731800703,0.6496121464203053,2475009466
uw,-79.381607055664,-82.5214157104492,-1.5020673578563855,0.49143608845043973,2475026133
uw,-79.5990829467773,-83.3120574951171,-1.1659706346751348,0.48244683170122743,2475042800
uw,-79.9126205444336,-84.1868209838867,-0.7950044922905414,0.6443435778825086,2475059467
uw,-80.3836441040039,-84.9591217041015,-0.4423967241020422,0.9500077880551462,2475076134
uw,-80.9281234741211,-85.2344894409179,-0.16387447639545133,1.3267219216104091,2475092801
uw,-81.4142074584961,-85.1205062866211,-0.006205905387891751,1.6747614548808079,2475109468
uw,-81.8486175537109,-84.86279296875,0.003640411585879835,1.8959913146208889,2475126135
uw,-82.1650390625,-84.6306381225586,-0.1344178753701693,1.9234576508304044,2475142802
uw,-82.2759780883789,-84.6028289794921,-0.392861513775591,1.7424319867667226,2475159469
uw,-82.2567901611328,-84.7620239257812,-0.7229059756780359,1.3956374381417438,2475176136
uw,-82.2031097412109,-84.8374557495117,-1.0658785720048727,0.9700513807321086,2475192803
uw,-82.0252838134765,-84.6703872680664,-1.3657323572156588,0.5691404510262769,2475209470
uw,-81.6704406738281,-84.2593917846679,-1.5788669974221643,0.2804033003236039,2475226137
uw,-81.0247573852539,-83.6850967407226,-1.6792148919370153,0.150253389084492,2475242804
uw,-80.0186386108398,-82.9928283691406,-1.6587590684561553,0.1749169559150778,2475259471
uw,-78.7568740844726,-82.2466354370117,-1.525063765044,0.3089965312070009,2475276138
uw,-77.4014129638671,-81.5277557373046,-1.29757404620816,0.48643835648944417,2475292805
uw,-75.9036712646484,-80.8214645385742,-1.0037212067459613,0.6448371758873261,2475309472
uw,-74.4450912475586,-80.0694198608398,-0.6750111936769388,0.7442352390222442,2475326139
uw,-73.0770263671875,-79.2957153320312,-0.3429182567909696,0.7749838943369634,2475342806
uw,-71.6627044677734,-78.4904022216796,-0.03470334852959259,0.7540220161987493,2475359473
uw,-70.1459655761718,-77.6506195068359,0.2301637698925855,0.713049342201935,2475376140
uw,-68.5802688598632,-76.7632522583007,0.44207633820132597,0.6840833464581797,2475392807
uw,-66.8347930908203,-75.8462677001953,0.6013576919251234,0.687531290501713,2475409474
uw,-65.0948333740234,-74.8673553466796,0.7165697902326055,0.7260152840534541,2475426141
uw,-63.4081306457519,-73.8022232055664,0.8018147576094596,0.7848880502077988,2475442808
uw,-61.6992492675781,-72.6882553100586,0.8737433036968193,0.8383891052498567,2475459475
uw,-59.9897575378418,-71.6179504394531,0.9486364784357265,0.8589689632349666,2475476142
uw,-58.3508605957031,-70.6695022583007,1.0397285149617135,0.8266157562867642,2475492809
uw,-56.7431755065918,-69.8320770263671,1.1550479489273129,0.7352715318837661,2475509476
uw,-55.2505416870117,-69.0377502441406,1.2961966415803206,0.5946201649654459,2475526143
uw,-53.8424644470214,-68.2189102172851,1.4583363016222708,0.427206737387697,2475542810
uw,-52.4421463012695,-67.3934478759765,1.631246574885925,0.26230919918395074,2475559477
uw,-51.0319709777832,-66.574592590332,1.8010188988201834,0.12872062414515612,2475576144
uw,-49.574951171875,-65.8045043945312,1.952027410653437,0.048507296441804064,2475592811
uw,-48.1086082458496,-65.1136703491211,2.0691391605692573,0.033102614885774255,2475609478
uw,-46.7690773010253,-64.4670944213867,2.1402720210202513,0.08217523714430333,2475626145
uw,-45.5042991638183,-63.763874053955,2.1591024843209663,0.1849591737751902,2475642812
uw,-44.3787384033203,-62.992130279541,2.127155966548794,0.32332697823860335,2475659479
uw,-43.4155616760253,-62.2707328796386,2.054236720573083,0.4757595780249209,2475676146
uw,-42.5811920166015,-61.6928520202636,1.9566025646118912,0.6214031566260987,2475692813
uw,-41.9107322692871,-61.2555274963378,1.8533070029964713,0.7435629150136899,2475709480
uw,-41.4221000671386,-60.9050788879394,1.7620518158253722,0.8322206760032111,2475726147
uw,-40.995620727539,-60.5747413635253,1.6960886852726527,0.8853621804161733,2475742814
uw,-40.6440658569335,-60.2071266174316,1.6630744242043922,0.9089625024699078,2475759481
uw,-40.443748474121,-59.7883911132812,1.6657674168004895,0.9154698556190435,2475776148
uw,-40.4233436584472,-59.3874244689941,1.703676585490462,0.9207758203545897,2475792815
uw,-40.5757980346679,-59.0040435791015,1.7745997788732208,0.9401031903119916,2475809482
uw,-40.9161720275878,-58.5902786254882,1.8753501734312803,0.9837833754488325,2475826149
uw,-41.4154434204101,-58.1561584472656,2.001549178885051,1.0541284556495674,2475842816
uw,-42.1014175415039,-57.680362701416,2.146857184588089,1.1443268103223534,2475859483
uw,-42.971336364746,-57.1188697814941,2.302248767225671,1.239676098782155,2475876150
uw,-43.9341621398925,-56.4984016418457,2.4558825888720173,1.3208247979127685,2475892817
uw,-44.9056663513183,-55.8510665893554,2.5938638790225266,1.3682298606833485,2475909484
uw,-45.9338340759277,-55.2069587707519,2.701925269916407,1.366835519300141,2475926151
uw,-47.0594215393066,-54.6104431152343,2.7678530609911416,1.3100306427518846,2475942818
uw,-48.221866607666,-54.0814514160156,2.7842625163572445,1.2021543004692488,2475959485
uw,-49.2888145446777,-53.5760879516601,2.7509823067103754,1.0590943498504992,2475976152
uw,-50.2733840942382,-53.0058250427246,2.6760676186375116,0.9068449614359531,2475992819
uw,-51.2515220642089,-52.353660583496,2.574762352339373,0.7782184615448505,2476009486
uw,-52.172119140625,-51.671459197998,2.4666018689662574,0.7081124018128228,2476026153
uw,-52.8311691284179,-51.0255050659179,2.371489645593113,0.7277650031697196,2476042820
uw,-53.1540336608886,-50.4165878295898,2.305092466172649,0.8584721970294608,2476059487
uw,-53.3740158081054,-49.8242492675781,2.2729297524491336,1.1055058592568847,2476076154
uw,-53.1550903320312,-49.2598648071289,2.263518903659425,1.4534225698385448,2476092821
uw,-53.8622245788574,-48.7215919494628,2.2448053229244644,1.8642673945692603,2476109488
uw,-55.1212730407714,-48.1552124023437,2.170848960873736,2.2800249405175013,2476126155
uw,-56.2735595703125,-47.6251945495605,2.0016270052096092,2.629960439097449,2476142822
uw,-57.1070709228515,-47.3519554138183,1.7284366737543875,2.8424269874513666,2476159489
uw,-57.7411918640136,-47.457649230957,1.389384642419211,2.8595625294107436,2476176156
uw,-58.4091567993164,-47.8306045532226,1.0621148835179781,2.652172572060976,2476192823
uw,-59.2157173156738,-48.3777236938476,0.8337057030222788,2.231118366221362,2476209490
uw,-60.0999145507812,-49.0593109130859,0.7617757904088809,1.6512319876698334,2476226157
uw,-60.9781112670898,-50.0047645568847,0.8466949286412698,1.0049012904129295,2476242824
uw,-61.863914489746,-51.252685546875,1.0288757652367044,0.4051713791911306,2476259491
uw,-62.7940635681152,-52.6924972534179,1.2117213415130514,-0.038366094154448006,2476276158
uw,-63.7589988708496,-54.2783851623535,1.298405652072109,-0.24489127888364393,2476292825
uw,-64.7317581176757,-55.8504524230957,1.2259471616054067,-0.18193633884627844,2476309492
uw,-65.6618881225586,-57.2576026916503,0.9839397436409849,0.126519190135076,2476326159
uw,-66.6137924194336,-58.5257530212402,0.6137532714589793,0.6061144098727207,2476342826
uw,-67.5212478637695,-59.6861534118652,0.1917889009732668,1.1507992436216972,2476359493
uw,-68.4055099487304,-60.9820480346679,-0.19548183769565444,1.6485674598030027,2476376160
uw,-69.3252258300781,-62.5844917297363,-0.4764656638859539,2.006427930297537,2476392827
uw,-70.2349014282226,-64.4685897827148,-0.6128341662953027,2.167543814362556,2476409494
uw,-71.1245880126953,-66.5563354492187,-0.6073078672829803,2.1168602273639747,2476426161
uw,-71.9241180419921,-68.754768371582,-0.49951798758157173,1.8759924299767625,2476442828
uw,-72.6732101440429,-70.9756927490234,-0.3514683927130678,1.4916304316356428,2476459495
uw,-73.3094635009765,-73.0664138793945,-0.22693854358745486,1.0228035223883414,2476476162
uw,-73.9197540283203,-74.9761657714843,-0.17122649283316754,0.5309210747017657,2476492829
uw,-74.4030227661132,-76.702033996582,-0.1978614465402285,0.07373102124220232,2476509496
uw,-74.8136444091796,-78.2808380126953,-0.286858168667954,-0.298071885580615,2476526163
uw,-75.2856674194336,-80.2773742675781,-0.3952620964511569,-0.5436039151290883,2476542830
uw,-75.6610412597656,-82.0111236572265,-0.4763021244654722,-0.634936761804368,2476559497
uw,-76.0038223266601,-83.3672943115234,-0.5000242174456296,-0.5601230683937946,2476576164
uw,-76.2828063964843,-84.1950225830078,-0.4674499563477108,-0.3249400606207429,2476592831
uw,-76.4179763793945,-84.4283828735351,-0.41265221558631754,0.04733642801291171,2476609498
uw,-76.5350265502929,-84.1543350219726,-0.39162159250720263,0.5180270246576203,2476626165
uw,-76.713150024414,-83.4507904052734,-0.46160509083379425,1.0365820787554196,2476642832
uw,-76.7901611328125,-82.4262008666992,-0.6581763348743455,1.5452883240634532,2476659499
uw,-76.7106857299804,-81.2704238891601,-0.9784884559421484,1.9850882211445962,2476676166
uw,-76.5797576904296,-80.1797790527343,-1.3772505753869657,2.3022969230913035,2476692833
uw,-76.5004425048828,-79.1198577880859,-1.7773460005447346,2.4555179365860265,2476709500
uw,-76.4264678955078,-78.0661544799804,-2.091569109567079,2.421654189343765,2476726167
uw,-76.4049453735351,-77.1962890625,-2.248145560041908,2.1999658717080903,2476742834
uw,-76.4710235595703,-76.6638870239257,-2.211911475103963,1.8135732552458188,2476759501
uw,-76.6196594238281,-76.5446166992187,-1.9949803657875058,1.3081663020231082,2476776168
uw,-76.8307876586914,-76.7233428955078,-1.6541858506609335,0.7476501039289949,2476792835
uw,-77.0537796020507,-77.1923675537109,-1.2763404434909418,0.20636090472139082,2476809502
uw,-77.2659835815429,-78.0374908447265,-0.9555386177090547,-0.24200969100472045,2476826169
uw,-77.458999633789,-79.1249847412109,-0.7687015098139108,-0.5373968498880637,2476842836
uw,-77.6514282226562,-80.4460983276367,-0.755826225094482,-0.6454955176545327,2476859503
uw,-77.8335723876953,-81.6749649047851,-0.9099228807596654,-0.5656312035464384,2476876170
uw,-77.9872741699218,-82.9301528930664,-1.1789678779568413,-0.331503351338995,2476892837
uw,-78.1844863891601,-84.2851638793945,-1.4792580269805489,-0.003688913770566644,2476909504
uw,-78.5118942260742,-85.8083877563476,-1.7170135450300397,0.3448039802932217,2476926171
uw,-78.8297119140625,-87.5207748413086,-1.8132455948472623,0.6465194417981726,2476942838
