Label,Left_Hip_q,Right_Hip_q,Left_Hip_qd,Right_Hip_qd,SampleTimeFine
sw,-84.5302276611328,-59.048038482666,54.8108291625976,49.9177551269531,3017248983
sw,-83.4811859130859,-59.9977684020996,51.79110656124976,50.41087801918437,3017265650
sw,-82.5665283203125,-60.9152603149414,46.61959299293734,46.065549811109285,3017282317
sw,-81.8140869140625,-61.6133613586425,40.331951135899146,42.352791570069535,3017298984
sw,-81.228645324707,-61.9988632202148,31.99539995781108,39.6668195682799,3017315651
sw,-80.8119201660156,-62.3554191589355,20.931231140004453,38.165837904362135,3017332318
sw,-80.6909713745117,-63.7354316711425,6.828794316950666,37.79376644993473,3017348985
sw,-80.7884063720703,-65.1535186767578,-10.162019960724692,38.38093168984144,3017365652
sw,-81.2244110107421,-65.3645629882812,-29.389109839872766,39.75537895704856,3017382319
sw,-82.0027694702148,-65.5379638671875,-49.74062670119897,41.798412283959216,3017398986
sw,-83.1748733520507,-66.3748931884765,-69.7944498490983,44.436729565542414,3017415653
sw,-84.975357055664,-67.4309387207031,-88.06905031313259,47.61711932982743,3017432320
sw,-87.3769912719726,-68.5983810424804,-103.32813445606747,51.30221128385716,3017448987
sw,-88.6514282226562,-69.4427032470703,-114.85298086943659,55.47847755003432,3017465654
sw,-86.171630859375,-70.4449768066406,-122.58725400086509,60.14207452310289,3017482321
sw,-83.2955703735351,-71.6126174926757,-127.09681716312676,65.24597770204853,3017498988
sw,-80.5339202880859,-72.7697219848632,-129.36022924070434,70.62533760486716,3017515655
sw,-77.9461898803711,-73.8776168823242,-130.47377705238256,75.93773198134693,3017532322
sw,-75.5328826904296,-75.0437393188476,-131.37690706569674,80.65617878707405,3017548989
sw,-73.1187438964843,-76.3646163940429,-132.67019087160924,84.14006805670077,3017565656
sw,-70.7288742065429,-77.8277282714843,-134.53753126478256,85.78232867056519,3017582323
sw,-68.5083999633789,-79.5338668823242,-136.74154487336088,85.19323027429911,3017598990
sw,-66.3359680175781,-81.1938171386718,-138.66112746875726,82.34900384837675,3017615657
sw,-63.9488677978515,-82.4139328002929,-139.36983194534446,77.6311502337374,3017632324
sw,-61.4280052185058,-83.2306518554687,-137.77442993385682,71.72312002244159,3017648991
sw,-58.9955215454101,-83.8895492553711,-132.81890596012576,65.40051480840305,3017665658
sw,-57.057315826416,-84.5305862426757,-123.72151829927861,59.30838513610968,3017682325
sw,-55.3974647521972,-85.1967391967773,-110.18452985573786,53.825410059661486,3017698992
sw,-54.0126991271972,-85.7252960205078,-92.51711513117259,49.06483808971849,3017715659
sw,-53.0212135314941,-86.001838684082,-71.63561569326241,44.98952797631557,3017732326
sw,-52.5282897949218,-86.0579681396484,-48.937714754966706,41.56704624748618,3017748993
sw,-52.4346237182617,-85.9989929199218,-26.08011285765535,38.88335727951777,3017765660
sw,-52.6998214721679,-85.8138046264648,-4.715105198020019,37.163195770469095,3017782327
sw,-53.1766624450683,-85.5423126220703,13.75164995357931,36.68913400838784,3017798994
sw,-53.6768608093261,-85.173957824707,28.336971096051514,37.64977756245579,3017815661
sw,-54.6923713684082,-84.6912002563476,38.57335316296793,39.969876322517656,3017832328
sw,-56.1540641784668,-84.1309204101562,44.521953036552055,43.17787838150444,3017848995
sw,-57.3090362548828,-83.5281600952148,46.707439165215185,46.352490730660016,3017865662
sw,-58.0434074401855,-82.8619155883789,45.97626435172929,48.168244981453256,3017882329
sw,-58.9395523071289,-82.2015762329101,43.301758550611346,47.040590477997675,3017898996
sw,-59.9834671020507,-81.6445922851562,39.59177300645206,41.357819090055486,3017915663
sw,-60.7589302062988,-81.2094955444336,35.56123800434629,29.777756268882325,3017932330
sw,-61.474365234375,-80.8755569458007,31.70151604770488,11.554524429202754,3017948997
sw,-62.5477027893066,-80.6841354370117,28.334743657077407,-13.161754856709079,3017965664
sw,-63.7910575866699,-80.9064025878906,25.70763694684282,-43.13705217017078,3017982331
sw,-64.7647018432617,-81.7521209716796,24.063349868304403,-76.07300871362897,3017998998
sw,-65.133804321289,-83.3121185302734,23.64131086237293,-108.89768537150337,3018015665
sw,-65.382583618164,-85.2787628173828,24.599898007878366,-138.31031502612763,3018032332
sw,-65.9055786132812,-86.3828582763671,26.91276565279464,-161.4613219320884,3018048999
sw,-66.5752182006836,-84.8986206054687,30.312715836825944,-176.57609149592673,3018065666
sw,-67.2635803222656,-81.9793319702148,34.32781165220185,-183.32771148393002,3018082333
sw,-68.2292861938476,-78.9087905883789,38.39990114254388,-182.8369289391148,3018099000
sw,-69.3857650756836,-76.069839477539,42.036625180773406,-177.29742594444323,3018115667
sw,-70.5360870361328,-73.5556640625,44.93950184001445,-169.34422217750688,3018132334
sw,-71.5623779296875,-71.082893371582,47.06381454054654,-161.35967466874186,3018149001
sw,-72.5111846923828,-68.6097259521484,48.59084093756262,-154.919717507751,3018165668
sw,-73.4290542602539,-66.0705337524414,49.82437413141148,-150.52266777623316,3018182335
sw,-74.3072509765625,-63.5686111450195,51.05248456035902,-147.6414335941929,3018199002
sw,-75.2818222045898,-61.1215553283691,52.42906795750065,-145.03893180303055,3018215669
sw,-76.3702239990234,-58.308006286621,53.92053287273606,-141.2191184698787,3018232336
sw,-77.5465774536132,-56.0553817749023,55.33481838009977,-134.86554616012197,3018249003
sw,-78.7492599487304,-54.131549835205,56.41572862499508,-125.14519664263081,3018265670
sw,-79.9381942749023,-52.2789573669433,56.960756355313315,-111.81718360692521,3018282337
sw,-81.0944442749023,-51.0031661987304,56.914941185090676,-95.16016555397655,3018299004
sw,-82.1977996826171,-50.1215095520019,56.4065284477501,-75.79028357715856,3018315671
sw,-83.2481460571289,-49.6764259338378,55.71424301578273,-54.46669853408074,3018332338
sw,-84.231704711914,-49.3169555664062,55.18083406861115,-31.970802423553433,3018349005
sw,-85.2342834472656,-49.0902023315429,55.104808878646,-9.099162400470133,3018365672
sw,-86.2737426757812,-49.0898818969726,55.64676014252056,13.257567874813962,3018382339
sw,-87.3191986083984,-49.4520225524902,56.777906553722005,34.03414213770536,3018399006
sw,-88.2954406738281,-50.5812149047851,58.28152830847077,52.00259637509636,3018415673
sw,-88.8826828002929,-51.6133003234863,59.80107432176033,65.9241007182857,3018432340
sw,-88.5098419189453,-53.2679634094238,60.91764986375362,74.81264302925436,3018449007
sw,-87.5166702270507,-55.2000045776367,61.23476334899747,78.21771211843532,3018465674
sw,-86.3774490356445,-56.823989868164,60.447357342406974,76.40801009290172,3018482341
sw,-85.258316040039,-58.0482292175293,58.375048879487984,70.36397667291152,3018499008
sw,-84.2343521118164,-59.1577568054199,54.948317616229716,61.558657000185896,3018515675
sw,-83.3431854248046,-59.714672088623,50.1513992559377,51.596445179370264,3018532342
sw,-82.6139831542968,-60.0746345520019,43.94272429861586,41.84420263228361,3018549009
sw,-82.0349426269531,-60.3603782653808,36.18663378310909,33.19605681250728,3018565676
sw,-81.6687622070312,-61.0684776306152,26.63349561537895,26.054330110524607,3018582343
sw,-81.4503173828125,-62.5645751953125,14.975391946586162,20.503988356554633,3018599010
sw,-81.3583068847656,-63.3267745971679,0.9795765890992717,16.556212651472766,3018615677
sw,-81.4496002197265,-62.9797058105468,-15.33405501032693,14.305460576431818,3018632344
sw,-81.7744522094726,-62.9055862426757,-33.53900364022862,13.916676753170515,3018649011
sw,-82.5865097045898,-63.1684989929199,-52.75089874259697,15.484303471354078,3018665678
sw,-84.1390075683593,-63.5476493835449,-71.7317326384871,18.882485897804848,3018682345
sw,-86.269287109375,-64.0523910522461,-89.14026178986842,23.707303624394147,3018699012
sw,-88.4915618896484,-64.5514221191406,-103.84858132354745,29.337766943897485,3018715679
sw,-87.6163253784179,-65.2564163208007,-115.20615016207975,35.079717245122275,3018732346
sw,-85.0096664428711,-66.0247039794921,-123.1520955010593,40.33296066051982,3018749013
sw,-82.3508605957031,-66.9023132324218,-128.1451550526791,44.72660530960461,3018765680
sw,-79.7815551757812,-67.7899322509765,-130.95775616314776,48.185420456005644,3018782347
sw,-77.4596252441406,-68.5582733154296,-132.42379331528002,50.91460796741726,3018799014
sw,-75.1850433349609,-69.3274230957031,-133.2229800359499,53.31731551132953,3018815681
sw,-72.8418426513671,-70.2933731079101,-133.7451947146915,55.879183614541574,3018832348
sw,-70.4653015136718,-71.3822631835937,-134.03680983321217,59.05671243253288,3018849015
sw,-68.1634674072265,-72.513916015625,-133.81016744880722,63.190813021663196,3018865682
sw,-66.0125122070312,-73.6798706054687,-132.50095185274733,68.44694466690922,3018882349
sw,-63.7691040039062,-74.9329528808593,-129.37181995242707,74.7740844682941,3018899016
sw,-61.4652366638183,-76.287353515625,-123.66316949087322,81.87952556518336,3018915683
sw,-59.3631210327148,-77.7547302246093,-114.77462121091807,89.22644151973057,3018932350
sw,-57.6380615234375,-79.2886734008789,-102.43688447745039,96.06696374032722,3018949017
sw,-56.2568588256835,-80.8483352661132,-86.82517214054558,101.52185621630595,3018965684
sw,-55.1074447631835,-82.4185333251953,-68.58061774503427,104.70934417985018,3018982351
sw,-54.4757652282714,-83.8813781738281,-48.73473140113734,104.91146814838146,3018999018
sw,-54.2618064880371,-85.1102752685546,-28.559061471816324,101.74868376764007,3019015685
sw,-54.2344169616699,-86.0466079711914,-9.379354707691936,95.3174201727043,3019032352
sw,-54.2366714477539,-86.3228378295898,7.605218975563318,86.23890565366989,3019049019
sw,-54.6400108337402,-86.0790939331054,21.47284615175041,75.57928098960977,3019065686
sw,-55.5054054260253,-85.6565704345703,31.693020436503033,64.6348373103852,3019082353
sw,-56.6739959716796,-85.2638931274414,38.196444493348515,54.62393225303272,3019099020
sw,-57.848289489746,-84.8224792480468,41.37638428561621,46.366841689009824,3019115687
sw,-58.8025932312011,-84.1734161376953,41.99232045928039,40.04385944560852,3019132354
sw,-59.5949516296386,-83.483413696289,40.97794634880304,35.09556888495165,3019149021
sw,-60.3050880432128,-82.9701080322265,39.208016895078906,30.28586539367669,3019165688
sw,-60.9572792053222,-82.5525741577148,37.31093719201995,23.914055237525268,3019182355
sw,-61.7122840881347,-82.2119750976562,35.598645494869274,14.146541661711712,3019199022
sw,-62.4807815551757,-82.0972442626953,34.131864420269665,-0.57258433018157,3019215689
sw,-63.4753723144531,-82.2465057373046,32.87882734681386,-21.095491101026276,3019232356
sw,-64.8396530151367,-82.7369384765625,31.88472528682673,-47.22301076818283,3019249023
sw,-65.8956146240234,-83.5812530517578,31.360379995430616,-77.54572973065386,3019265690
sw,-66.2014541625976,-84.9462280273437,31.632460674959834,-109.56410109892428,3019282357
sw,-66.4684906005859,-86.6092147827148,32.973487907452785,-140.112773148097,3019299024
sw,-67.1605987548828,-86.4835357666015,35.411109255245364,-166.0147715027584,3019315691
sw,-68.0401306152343,-83.7374114990234,38.64007392933863,-184.79255991814355,3019332358
sw,-69.1595077514648,-80.2204818725586,42.09946935362905,-195.21632022356934,3019349025
sw,-70.3066177368164,-76.9216766357421,45.17647956042403,-197.51135754140455,3019365692
sw,-71.5098876953125,-73.854263305664,47.43030651769792,-193.16726319961833,3019382359
sw,-72.6503067016601,-71.0558929443359,48.731934347384055,-184.4358911970531,3019399026
sw,-73.7319564819336,-68.297134399414,49.26849356090961,-173.70355546359974,3019415693
sw,-74.8326187133789,-65.4026184082031,49.42539211312164,-162.93291408285216,3019432360
sw,-75.8821182250976,-62.7479248046875,49.606133075097844,-153.30212522658584,3019449027
sw,-76.9233856201171,-60.6446838378906,50.066848807217085,-145.0766392528374,3019465694
sw,-78.074966430664,-58.6402359008789,50.829403512443996,-137.68679672894334,3019482361
sw,-79.328140258789,-56.2396087646484,51.70059611307195,-129.96441801067468,3019499028
sw,-80.6082000732421,-54.3438682556152,52.3798850189989,-120.485786851356,3019515695
sw,-81.8060226440429,-52.3486061096191,52.60322645262507,-107.95312494347317,3019532362
sw,-82.9337539672851,-50.4684295654296,52.261258450877094,-91.53022868547995,3019549029
sw,-84.0143432617187,-49.427806854248,51.44753523493477,-71.05358986611135,3019565696
sw,-85.0360412597656,-49.0537490844726,50.42437123828387,-47.07933921455795,3019582363
sw,-85.9695434570312,-49.1402130126953,49.52457687141411,-20.78651347002574,3019599030
sw,-86.8408660888671,-49.2867698669433,49.027607697893274,6.197120528971916,3019615697
sw,-87.763931274414,-49.5932426452636,49.055115437468245,31.984238833769105,3019632364
sw,-88.7468032836914,-50.1783294677734,49.52255717258305,54.61836475339116,3019649031
sw,-89.7513427734375,-51.4698791503906,50.16208192698074,72.29647977367755,3019665698
sw,-89.1010437011718,-53.0047798156738,50.604615126604806,83.64824944017941,3019682365
sw,-88.0272216796875,-55.0893440246582,50.48704329429425,88.03779164183139,3019699032
sw,-87.0120773315429,-57.3057670593261,49.54264154769904,85.78866441194326,3019715699
sw,-86.0802383422851,-58.6582717895507,47.641759513800615,78.21445856996706,3019732366
sw,-85.2416534423828,-59.6706657409668,44.77085053143098,67.39098607284775,3019749033
sw,-84.4592132568359,-60.5931015014648,40.96223880346598,55.709273442593584,3019765700
sw,-83.7550964355468,-61.1038970947265,36.20488368477643,45.34335345502793,3019782367
sw,-83.1236801147461,-61.5532341003418,30.372076510047428,37.802154499253824,3019799034
sw,-82.6475830078125,-61.8585700988769,23.196217098309155,33.70124795976061,3019815701
sw,-82.3612365722656,-62.4802284240722,14.308270225192652,32.80935828974574,3019832368
sw,-82.2690658569336,-64.4165344238281,3.3435077266104707,34.3226235132171,3019849035
sw,-82.3505249023437,-65.6045379638671,-9.904572484312757,37.23088907303843,3019865702
sw,-82.702896118164,-65.3130340576171,-25.323386556780424,40.61691661685186,3019882369
sw,-83.2338714599609,-65.5325317382812,-42.37429160642746,43.80213309198563,3019899036
sw,-84.1338195800781,-66.6631622314453,-60.1023985987077,46.37017539308657,3019915703
sw,-85.745361328125,-67.8695449829101,-77.29724792263532,48.15679512774671,3019932370
sw,-88.0114059448242,-68.9387741088867,-92.77840493726312,49.251809179572405,3019949037
sw,-88.9650497436523,-69.7803878784179,-105.71185514578592,49.986035243825015,3019965704
sw,-86.2089920043945,-70.629898071289,-115.8278940880072,50.856530735038845,3019982371
sw,-83.4131393432617,-71.482437133789,-123.44074001172456,52.38162342320214,3019999038
sw,-80.7148208618164,-72.3296203613281,-129.25695727399054,54.924342492843934,3020015705
sw,-78.0823211669921,-73.2191085815429,-134.05656715346504,58.54392108909682,3020032372
sw,-75.5652694702148,-74.2103576660156,-138.38188473162938,62.928011189518415,3020049039
sw,-73.0681076049804,-75.3300857543945,-142.34905720374172,67.43407959899335,3020065706
sw,-70.4970169067382,-76.5306854248046,-145.62542592134082,71.23611812212732,3020082373
sw,-67.9530181884765,-77.8456802368164,-147.5398834316399,73.53987194033483,3020099040
sw,-65.4788818359375,-79.271728515625,-147.25553644669557,73.80505955241162,3020115707
sw,-62.9920196533203,-80.6969299316406,-143.9439314291477,71.90493495920714,3020132374
sw,-60.5152587890625,-81.8267364501953,-136.93339634339452,68.16797946157021,3020149041
sw,-58.260025024414,-82.6623306274414,-125.82791871208231,63.28416032499523,3020165708
sw,-56.3859405517578,-83.3558654785156,-110.59566630272654,58.108436078518025,3020182375
sw,-54.9323081970214,-84.0025634765625,-91.61965685050644,53.43410423962838,3020199042
sw,-53.8963737487793,-84.5830764770507,-69.70140754881503,49.81625620870839,3020215709
sw,-53.2404747009277,-85.1907958984375,-46.013262937988756,47.497468403866755,3020232376
sw,-52.8815956115722,-85.7528762817382,-22.000683999650512,46.44057564319897,3020249043
sw,-52.8872451782226,-86.1334533691406,0.7606542654999107,46.43038854654679,3020265710
sw,-53.2162857055664,-86.2604293823242,20.74423576206915,47.185073592474104,3020282377
sw,-53.9167861938476,-86.1341171264648,36.67268937581106,48.42456470776243,3020299044
sw,-54.892650604248,-85.7947616577148,47.71225532344728,49.870783774624385,3020315711
sw,-56.3032493591308,-85.3223724365234,53.62508750827003,51.18707973407223,3020332378
sw,-57.9740257263183,-84.8079757690429,54.835582702070916,51.888202366668274,3020349045
sw,-59.3471641540527,-84.2586059570312,52.36951045344074,51.262107976656985,3020365712
sw,-60.2545700073242,-83.6593170166015,47.648895011043585,48.3431665905566,3020382379
sw,-61.0184364318847,-83.0979766845703,42.176398544966354,41.96715726975286,3020399046
sw,-61.5636940002441,-82.7411804199218,37.199140331817055,30.924711096326725,3020415713
sw,-62.0825691223144,-82.5749816894531,33.46484369882168,14.21177874990275,3020432380
sw,-62.6075096130371,-82.6349182128906,31.153452545912078,-8.650120769722767,3020449047
sw,-63.4317016601562,-82.9615173339843,29.999860681411786,-37.2879703262012,3020465714
sw,-64.8518295288086,-83.6426696777343,29.547437055002543,-70.25015970522375,3020482381
sw,-66.1103286743164,-84.833511352539,29.41606771519815,-105.00173738022521,3020499048
sw,-66.4369735717773,-86.4542541503906,29.462919438874486,-138.23247560852423,3020515715
sw,-66.5755157470703,-86.881591796875,29.776201998386703,-166.47241720346756,3020532382
sw,-67.1154022216796,-84.0309982299804,30.541168547752488,-186.8778641630188,3020549049
sw,-67.764663696289,-79.9678726196289,31.883062842239575,-197.94305336951706,3020565716
sw,-68.4414749145507,-76.4321746826171,33.7803536428972,-199.8754308744613,3020582383
sw,-69.2517013549804,-73.3474044799804,36.078087086616556,-194.47734861044327,3020599050
sw,-70.2219543457031,-70.6987380981445,38.57023330199394,-184.56767705431446,3020615717
sw,-71.2789611816406,-68.1998596191406,41.09197650894201,-173.15700936832218,3020632384
sw,-72.2307510375976,-65.5674819946289,43.56842239326003,-162.66476924569642,3020649051
sw,-73.1878890991211,-62.942039489746,45.9956760411954,-154.40849087720537,3020665718
sw,-74.2292098999023,-60.420597076416,48.370124337273076,-148.45787440526857,3020682385
sw,-75.3052139282226,-58.0105934143066,50.61205680132642,-143.8135953342628,3020699052
sw,-76.4314880371093,-55.8215599060058,52.53311904258791,-138.79866005357377,3020715719
sw,-77.6695861816406,-53.9039421081543,53.87224918125184,-131.540264362821,3020732386
sw,-78.9754867553711,-51.7592620849609,54.387015147020826,-120.44018841714973,3020749053
sw,-80.1817398071289,-49.6200866699218,53.957649799224086,-104.55008202870887,3020765720
sw,-81.2054977416992,-48.0420494079589,52.65532565377303,-83.7794102007994,3020782387
sw,-82.1738128662109,-47.4467735290527,50.74643060803768,-58.89100509177204,3020799054
sw,-83.1875305175781,-47.5800170898437,48.63633650049177,-31.30155537957719,3020815721
sw,-84.1087799072265,-47.9364929199218,46.77868814533033,-2.780376862736685,3020832388
sw,-84.9248809814453,-48.4212570190429,45.58019802710522,24.826662757783776,3020849055
sw,-85.7910919189453,-48.8949966430664,45.32295174346427,49.765383234463165,3020865722
sw,-86.7116928100586,-49.7234230041503,46.11636108350121,70.44511235537809,3020882389
sw,-87.6753540039062,-51.0788421630859,47.882187475855645,85.49881643264496,3020899056
sw,-88.7032165527343,-52.7895317077636,50.36808472066274,93.9147426382067,3020915723
sw,-89.6450271606445,-55.1193695068359,53.17981430221366,95.24986839148659,3020932390
sw,-89.0583038330078,-57.0655517578125,55.82200939839003,89.84507539192208,3020949057
sw,-87.9878311157226,-58.4292984008789,57.74115106128356,78.91788482206951,3020965724
sw,-86.8640670776367,-59.7360916137695,58.36865596588844,64.4412262077293,3020982391
sw,-85.7229080200195,-60.5608367919921,57.1634510772481,48.80466150284762,3020999058
sw,-84.6155548095703,-60.928783416748,53.65192244633291,34.346069369028065,3021015725
sw,-83.656379699707,-61.0088958740234,47.46185289889104,22.895948782052457,3021032392
sw,-82.9725341796875,-60.8891563415527,38.349621318042765,15.47827758163596,3021049059
sw,-82.5117721557617,-61.2308502197265,26.226265715567525,12.259255556019752,3021065726
sw,-82.201904296875,-62.8437118530273,11.191796709094708,12.736804295199589,3021082393
sw,-82.1662445068359,-63.4416732788085,-6.419159029049745,16.057565170225548,3021099060
sw,-82.5011672973632,-63.1393547058105,-25.993711072597602,21.302300992539752,3021115727
sw,-83.1529235839843,-63.3713073730468,-46.62869708650807,27.637528856467085,3021132394
sw,-84.2684860229492,-64.0257720947265,-67.18383853219586,34.345703044887834,3021149061
sw,-85.9029388427734,-64.6774673461914,-86.41916735598231,40.818844753781256,3021165728
sw,-88.0511703491211,-65.5817794799804,-103.20524408351359,46.585064848058096,3021182395
sw,-88.9774169921875,-66.616455078125,-116.75725918296551,51.37577036881555,3021199062
sw,-86.0654830932617,-67.6858749389648,-126.81608054072231,55.19334046604303,3021215729
sw,-82.8877716064453,-68.8077087402343,-133.6989209544498,58.326648424689665,3021232396
sw,-79.8744583129882,-69.9039688110351,-138.17902286297652,61.27889701643484,3021249063
sw,-77.1124420166015,-70.9638977050781,-141.2180296161065,64.60704948789994,3021265730
sw,-74.4750595092773,-71.9548110961914,-143.6372181534276,68.71180610358842,3021282397
sw,-71.9469223022461,-72.9762191772461,-145.84054524623767,73.64724815852445,3021299064
sw,-69.3369750976562,-74.1182327270507,-147.67896781732225,79.02639094916849,3021315731
sw,-66.6955947875976,-75.4864120483398,-148.48816084771292,84.0747097078363,3021332398
sw,-64.0742492675781,-77.1873168945312,-147.27362262885,87.83166723538642,3021349065
sw,-61.5560646057128,-78.9828796386718,-142.98189765882782,89.43922102356409,3021365732
sw,-59.103286743164,-80.6632308959961,-134.78619866070997,88.41527928063093,3021382399
sw,-56.750316619873,-82.0290603637695,-122.31853504920204,84.8129232147991,3021399066
sw,-54.9601821899414,-83.1928329467773,-105.79302834087788,79.21390742534659,3021415733
sw,-53.6629600524902,-84.1975555419921,-85.99139032211329,72.57170008917319,3021432400
sw,-52.9162330627441,-84.9767532348632,-64.12340846200117,65.97007137455452,3021449067
sw,-52.3519134521484,-85.5200500488281,-41.61683476575395,60.378328096527554,3021465734
sw,-52.0499191284179,-85.9706649780273,-19.906548925875278,56.46766979160873,3021482401
sw,-52.0717468261718,-86.26513671875,-0.2718570787190949,54.52030697389806,3021499068
sw,-52.4610290527343,-86.3580474853515,16.26904042174268,54.42797485892136,3021515735
sw,-53.2229690551757,-86.1819229125976,29.026890654611655,55.750357327798405,3021532402
sw,-54.3156776428222,-85.7133483886718,37.691786476674814,57.79543018139469,3021549069
sw,-55.6041107177734,-85.0265808105468,42.36644140363368,59.6936636953259,3021565736
sw,-56.7535667419433,-84.2362594604492,43.561995151909606,60.45672950712371,3021582403
sw,-57.7610130310058,-83.4063873291015,42.1317054676628,59.026949352378004,3021599070
sw,-58.772590637207,-82.6001281738281,39.13419857761357,54.33161160560964,3021615737
sw,-59.6093826293945,-81.9245986938476,35.6455645272078,45.358615725172754,3021632404
sw,-60.3193283081054,-81.5083084106445,32.564120277358214,31.268638297158827,3021649071
sw,-60.9898414611816,-81.3658218383789,30.46290856783891,11.551956482582321,3021665738
sw,-61.6127471923828,-81.47998046875,29.538084450860193,-13.779550351195489,3021682405
sw,-62.5665550231933,-81.9252319335937,29.674119086383616,-44.00414475185017,3021699072
sw,-64.0692825317382,-82.9638595581054,30.60203705643206,-77.57612607116116,3021715739
sw,-65.3341293334961,-84.5651245117187,32.080285940944904,-112.16889178944389,3021732406
sw,-65.8800735473632,-86.5788116455078,34.00999974255863,-144.93275701433015,3021749073
sw,-66.321174621582,-87.5919799804687,36.43182803488664,-172.95961703663986,3021765740
sw,-67.1510391235351,-84.949104309082,39.42396898842075,-193.8606257122071,3021782407
sw,-67.9948425292968,-81.00048828125,42.976773973580336,-206.29258593742654,3021799074
sw,-68.9397201538086,-77.2030487060546,46.919495482496096,-210.25368865067261,3021815741
sw,-70.0362396240234,-73.8625869750976,50.931552792755525,-207.03235056344263,3021832408
sw,-71.2768402099609,-70.850959777832,54.6225692965299,-198.81650335815715,3021849075
sw,-72.521987915039,-68.0211868286132,57.637089639729965,-188.09597587321045,3021865742
sw,-73.7357330322265,-65.1191253662109,59.73597037193381,-177.05254316177616,3021882409
sw,-74.9136047363281,-62.3267211914062,60.824152216706985,-167.10583522054105,3021899076
sw,-76.0491561889648,-59.7228393554687,60.92554063284611,-158.69897641204443,3021915743
sw,-77.1777801513671,-57.0892448425293,60.13359047638497,-151.32181470979347,3021932410
sw,-78.3884124755859,-55.1371688842773,58.57431112198541,-143.72093039050415,3021949077
sw,-79.6365356445312,-53.1938247680664,56.402446934865395,-134.23646213468794,3021965744
sw,-80.8147430419921,-51.0393600463867,53.82311593629757,-121.2108654493966,3021982411
sw,-81.8375701904296,-49.0825996398925,51.110031648363965,-103.40696082270703,3021999078
sw,-82.7072525024414,-47.6345901489257,48.59202565764062,-80.3517960419443,3022015745
sw,-83.5446090698242,-46.9808959960937,46.60038558836025,-52.519959779826394,3022032412
sw,-84.3850784301757,-47.0717811584472,45.39480004251074,-21.311446362093772,3022049079
sw,-85.2008209228515,-47.6676292419433,45.09893555584991,11.150757727891504,3022065746
sw,-86.059211730957,-48.3314704895019,45.67217088456991,42.32755551847694,3022082413
sw,-87.0583572387695,-49.1950531005859,46.926691452253344,69.60186406006595,3022099080
sw,-88.0900268554687,-50.588623046875,48.577920375884304,90.61710450908495,3022115747
sw,-89.0660247802734,-52.1103286743164,50.30082445814864,103.61841977388649,3022132414
sw,-89.4035720825195,-54.6064834594726,51.763703588198574,107.78350901470294,3022149081
sw,-88.6616287231445,-57.4330406188964,52.626839348849614,103.47190916530438,3022165748
sw,-87.7633209228515,-59.3266143798828,52.51744799016598,92.27281790987045,3022182415
sw,-86.8367767333984,-60.4798774719238,51.01039811395221,76.75379716230738,3022199082
sw,-85.9118423461914,-61.314453125,47.64530550813108,59.921640007614975,3022215749
sw,-85.0392761230468,-61.7349510192871,41.99374596780313,44.54379201368869,3022232416
sw,-84.2558059692382,-61.9774436950683,33.76391240639459,32.555775669662296,3022249083
sw,-83.7221755981445,-62.0356178283691,22.90778612781588,24.753528938830723,3022265750
sw,-83.5200805664062,-62.607063293457,9.689645349419624,20.85877976096111,3022282417
sw,-83.5628204345703,-64.3109893798828,-5.312979165507404,19.898976611174117,3022299084
sw,-83.848403930664,-65.1669769287109,-21.282983786968277,20.718967636356478,3022315751
sw,-84.5640792846679,-64.8658828735351,-37.30020235637472,22.403691933480623,3022332418
sw,-85.5767669677734,-65.1251754760742,-52.51715221998987,24.470043834403462,3022349085
sw,-87.017578125,-65.6628494262695,-66.34044175820932,26.8274695898406,3022365752
sw,-89.0450973510742,-66.2579040527343,-78.57156483176142,29.606666638004672,3022382419
sw,-88.151252746582,-66.7745513916015,-89.45105410019188,32.965917329209965,3022399086
sw,-85.5146331787109,-67.0967712402343,-99.55951654666865,36.945291062899436,3022415753
sw,-82.7618789672851,-67.8518905639648,-109.57278563148617,41.40267066642859,3022432420
sw,-80.0924758911132,-68.8820343017578,-119.93846091973123,46.03892353550513,3022449087
sw,-77.6371459960937,-69.9325256347656,-130.59926267683957,50.48921837318612,3022465754
sw,-75.1926956176757,-70.9129333496093,-140.89005766986384,54.43148194854679,3022482421
sw,-72.5425796508789,-71.7595443725586,-149.66605103942925,57.66340094215251,3022499088
sw,-69.7964401245117,-72.5890426635742,-155.6131911609394,60.12886700047848,3022515755
sw,-67.1409683227539,-73.6070556640625,-157.61055333437434,61.908385428897745,3022532422
sw,-64.6439437866211,-74.8205184936523,-155.00526243449738,63.1983868019774,3022549089
sw,-62.2519493103027,-76.0727615356445,-147.72028629865656,64.28784661635473,3022565756
sw,-60.0152397155761,-77.2120361328125,-136.19777428731047,65.51816521995167,3022582423
sw,-57.9543113708496,-78.2548065185546,-121.23709710439601,67.20865520531493,3022599090
sw,-56.2688636779785,-79.2658386230468,-103.80092627283405,69.55117616832234,3022615757
sw,-54.9562492370605,-80.3382034301757,-84.84873577994955,72.50694041172703,3022632424
sw,-53.9363670349121,-81.411376953125,-65.23503967837483,75.7535152131548,3022649091
sw,-53.2542610168457,-82.5106201171875,-45.68695915458652,78.71938381985865,3022665758
sw,-52.8953742980957,-83.6595611572265,-26.849814328087387,80.71184771230482,3022682425
sw,-52.693000793457,-84.6478576660156,-9.36142257082342,81.10538999984794,3022699092
sw,-52.7683677673339,-85.2930221557617,6.1032350853799855,79.52761535144332,3022715759
sw,-53.3655471801757,-85.5820770263671,18.86939759623287,75.97197635752407,3022732426
sw,-54.4975814819335,-85.5275344848632,28.394688487181952,70.7864770318476,3022749093
sw,-55.6906051635742,-85.2012710571289,34.44857260936706,64.5287715457851,3022765760
sw,-56.8141441345214,-84.7743835449218,37.24851844248824,57.72470795384618,3022782427
sw,-57.7895698547363,-84.3563919067382,37.47080076151044,50.603907565495234,3022799094
sw,-58.7817420959472,-83.9270782470703,36.110835091254216,42.90235300058282,3022815761
sw,-59.6107482910156,-83.4478530883789,34.23560256948393,33.812013982391626,3022832428
sw,-60.228889465332,-83.0099258422851,32.713717154583264,22.120062597799276,3022849095
sw,-60.7988967895507,-82.7498092651367,32.016848572662,6.524213956623673,3022865762
sw,-61.4424476623535,-82.7837142944336,32.16436308555801,-13.94566561350698,3022882429
sw,-62.3946113586425,-83.1047668457031,32.835195279430785,-39.50899553481096,3022899096
sw,-63.9055671691894,-83.7901000976562,33.60372030528863,-69.34177938823298,3022915763
sw,-65.2451858520507,-84.7900772094726,34.19296143011506,-101.51713276528564,3022932430
sw,-65.6881256103515,-85.8439102172851,34.6191531095522,-133.23993738635073,3022949097
sw,-65.8548202514648,-85.663833618164,35.155738817176214,-161.3596551163381,3022965764
sw,-66.3576965332031,-83.2112960815429,36.15032221771748,-183.0508873133226,3022982431
sw,-67.0215148925781,-79.694091796875,37.812531043382954,-196.47190323666857,3022999098
sw,-67.86328125,-76.1747665405273,40.094066398359814,-201.191035623958,3023015765
sw,-68.962532043457,-72.9265518188476,42.71268421039236,-198.23583322701893,3023032432
sw,-70.1837844848632,-69.9162139892578,45.287877313049336,-189.75049815290654,3023049099
sw,-71.3275833129882,-67.1232757568359,47.5071895656869,-178.38193205895877,3023065766
sw,-72.3709030151367,-64.3762817382812,49.241711065410676,-166.59071722351015,3023082433
sw,-73.4583892822265,-61.79097366333,50.56540614230021,-156.07752583020002,3023099100
sw,-74.5538787841796,-59.4399871826171,51.68302369291345,-147.45126870741737,3023115767
sw,-75.6420822143554,-57.0463638305664,52.81097731827624,-140.1854034551575,3023132434
sw,-76.7923583984375,-55.0602493286132,54.06868779252238,-132.84345078654508,3023149101
sw,-78.0041961669921,-53.1762008666992,55.423641980032635,-123.5106790036776,3023165768
sw,-79.288459777832,-51.0743789672851,56.70314405238346,-110.33781535974693,3023182435
sw,-80.4950103759765,-49.0315170288085,57.655852808149525,-92.0764846434118,3023199102
sw,-81.6362762451171,-47.7155799865722,58.03124490856243,-68.47272853777159,3023215769
sw,-82.7922744750976,-47.2716331481933,57.64924727104034,-40.40940472584346,3023232436
sw,-83.9480361938476,-47.4342384338378,56.446212241914616,-9.763732628823465,3023249103
sw,-85.06494140625,-48.1114540100097,54.49405666652129,20.956511099376442,3023265770
sw,-86.1379623413086,-49.0033645629882,51.9920732945473,49.072033925836436,3023282437
sw,-87.1943283081054,-49.9204444885253,49.2304158909439,72.1652273341433,3023299104
sw,-88.17919921875,-51.3287353515625,46.52660912974041,88.42081485602849,3023315771
sw,-89.014045715332,-53.0291099548339,44.14355225159089,96.86085071630937,3023332438
sw,-89.7126541137695,-55.1257896423339,42.20730418900247,97.47539251523828,3023349105
sw,-89.4212188720703,-57.1577110290527,40.65018799665184,91.22935289877645,3023365772
sw,-88.6289825439453,-58.589370727539,39.20236825284741,79.90954565691816,3023382439
sw,-87.8073272705078,-59.6544914245605,37.43971027282956,65.79984653990245,3023399106
sw,-87.0121383666992,-60.6357765197753,34.87348798701098,51.233990682734884,3023415773
sw,-86.2785873413086,-61.0221824645996,31.051031858802254,38.13664929820812,3023432440
sw,-85.6413497924804,-61.1965026855468,25.634929740240416,27.686544245342553,3023449107
sw,-85.1526107788086,-61.3006973266601,18.441383804948536,20.20859293301417,3023465774
sw,-84.8871841430664,-61.7811584472656,9.43803917878082,15.331134341573822,3023482441
sw,-84.7842559814453,-63.1659126281738,-1.2814151505812705,12.343677200435858,3023499108
sw,-84.8297958374023,-64.1051483154296,-13.522189451608805,10.597512690917158,3023515775
sw,-85.2371292114257,-63.7620239257812,-26.996737365002538,9.767274807760556,3023532442
sw,-85.8612365722656,-63.5022926330566,-41.3176194134437,9.873212782935566,3023549109
sw,-86.7988815307617,-63.5513458251953,-55.99286616710531,11.106550844416764,3023565776
sw,-88.2098693847656,-63.8486442565918,-70.44772198696381,13.599407329564686,3023582443
sw,-90.0,-64.2590713500976,-84.08532477852378,17.273854591190922,3023599110
sw,-87.4464874267578,-64.5723495483398,-96.37374365986082,21.825887738516002,3023615777
sw,-84.8156814575195,-65.1471786499023,-106.92431344141465,26.82298975018579,3023632444
sw,-81.9829330444336,-65.964485168457,-115.5255888198334,31.854948007270792,3023649111
sw,-79.2449645996093,-66.769058227539,-122.1211685402482,36.669944605357,3023665778
sw,-76.6290206909179,-67.4645462036132,-126.75000971155283,41.24031611502395,3023682445
sw,-74.1342239379882,-68.112060546875,-129.48305638748795,45.73346892685207,3023699112
sw,-71.7637634277343,-68.8806991577148,-130.38270432626888,50.405972876087894,3023715779
sw,-69.396484375,-69.7831573486328,-129.49089593397645,55.471695359852475,3023732446
sw,-67.0483245849609,-70.8295516967773,-126.83336924138014,60.99970408261691,3023749113
sw,-64.7977218627929,-72.0055999755859,-122.42321596938845,66.8759803789084,3023765780
sw,-62.6441955566406,-73.252944946289,-116.25705608484373,72.83174884698865,3023782447
sw,-60.6452178955078,-74.6559066772461,-108.3123575426626,78.51711795874952,3023799114
sw,-58.7239875793457,-76.0613021850586,-98.5619393126048,83.58856034741952,3023815781
sw,-57.0263137817382,-77.6218643188476,-87.01452124380175,87.78084184442355,3023832448
sw,-55.7663803100585,-79.1736526489257,-73.77312158506493,90.94372770053917,3023849115
sw,-54.8022346496582,-80.6509857177734,-59.089496285428496,93.03748137516178,3023865782
sw,-54.0808219909668,-82.0085372924804,-43.39254479984662,94.09625752981414,3023882449
sw,-53.7656517028808,-83.3557205200195,-27.279690156872615,94.18063473402215,3023899116
sw,-53.7500915527343,-84.6861419677734,-11.473751252999302,93.34234514964665,3023915783
sw,-53.9292640686035,-85.7824935913086,3.243754677504604,91.61111917607715,3023932450
sw,-54.2449913024902,-86.320068359375,16.11272482686218,88.99197169356981,3023949117
sw,-54.9867706298828,-86.182388305664,26.485238813569158,85.4474371188988,3023965784
sw,-56.087303161621,-85.6508483886718,33.925597088649795,80.84620406040389,3023982451
sw,-57.3918342590332,-84.9900741577148,38.303052413001325,74.88546491723943,3023999118
sw,-58.5299949645996,-84.2851638793945,39.8393578481404,67.02337950315918,3024015785
sw,-59.509033203125,-83.5835723876953,39.07261602077096,56.47233185373513,3024032452
sw,-60.3011741638183,-83.0282211303711,36.73218324852932,42.29447530006865,3024049119
sw,-60.9529075622558,-82.6868896484375,33.56770851257091,23.611949431133652,3024065786
sw,-61.5694427490234,-82.5426254272461,30.203873033693583,-0.09544946481360125,3024082453
sw,-62.405029296875,-82.6993789672851,27.08013984516221,-28.673276296273823,3024099120
sw,-63.5917816162109,-83.3136138916015,24.487520373339574,-61.05590429264176,3024115787
sw,-64.8713073730468,-84.4751510620117,22.65761355548499,-95.21702689693475,3024132454
sw,-65.5888900756836,-86.1113357543945,21.827182709401175,-128.38061403222954,3024149121
sw,-65.7167129516601,-87.309944152832,22.22070417420511,-157.4906978491934,3024165788
sw,-65.9817123413086,-85.2199630737304,23.957131416665945,-179.84060652289344,3024182455
sw,-66.5579147338867,-81.6561660766601,26.948234269537718,-193.68053581574483,3024199122
sw,-67.1680374145507,-78.2070922851562,30.864070546057363,-198.60281190242733,3024215789
sw,-68.0705413818359,-75.0430908203125,35.19453839155581,-195.57291602897436,3024232456
sw,-69.0888519287109,-72.1645965576171,39.379151020605185,-186.60739776728602,3024249123
sw,-70.1444473266601,-69.4958419799804,42.94974879343788,-174.22757378875576,3024265790
sw,-71.1357955932617,-66.6882553100586,45.636415332570245,-160.87325402572418,3024282457
sw,-72.1151275634765,-64.002685546875,47.40901166834798,-148.42820785771283,3024299124
sw,-73.1213989257812,-61.8420753479003,48.45172852778538,-137.93049650903237,3024315791
sw,-74.1280746459961,-60.013442993164,49.0877348216835,-129.4760543192605,3024332458
sw,-75.1506423950195,-58.1356391906738,49.68039632974444,-122.30112738742409,3024349125
sw,-76.2020721435546,-56.4924049377441,50.537052606301565,-115.02833269630516,3024365792
sw,-77.2973098754882,-54.6195259094238,51.835785095199206,-106.04583686799612,3024382459
sw,-78.4350280761718,-52.5794105529785,53.58872454841624,-93.94866402986042,3024399126
sw,-79.5439071655273,-50.9464416503906,55.64785860316522,-77.92999104202983,3024415793
sw,-80.7546310424804,-50.2722091674804,57.7508271805726,-58.00795165346711,3024432460
sw,-82.0348434448242,-50.2034263610839,59.59521074460152,-35.03096566980961,3024449127
sw,-83.3225021362304,-50.3289375305175,60.921616302729966,-10.495989965442048,3024465794
sw,-84.5618820190429,-50.542984008789,61.58174036754226,13.722906618167386,3024482461
sw,-85.7646942138671,-50.8867797851562,61.57131693766727,35.6460439436484,3024499128
sw,-86.9615936279296,-51.535358428955,61.01902734408898,53.428767735285504,3024515795
sw,-88.1365966796875,-52.6592979431152,60.13551524903339,65.58953340748306,3024532462
sw,-89.2553253173828,-54.0547866821289,59.136257878113405,71.24109359745974,3024549129
sw,-89.6357727050781,-55.8030433654785,58.15728440380013,70.29348402280662,3024565796
sw,-88.6531753540039,-57.4690895080566,57.1850157319365,63.55033210173802,3024582463
sw,-87.6047821044921,-58.3078384399414,56.0202134975341,52.617740484795654,3024599130
sw,-86.5104751586914,-58.8179092407226,54.28863844115116,39.60287820974848,3024615797
sw,-85.4043655395507,-59.2685012817382,51.497549902003,26.66966587680408,3024632464
sw,-84.3152160644531,-59.3334503173828,47.12262987577588,15.587378318833968,3024649131
sw,-83.2903671264648,-59.2248725891113,40.701213043005716,7.4161933282599275,3024665798
sw,-82.5247497558593,-59.1494178771972,31.909295077697426,2.424298335943461,3024682465
sw,-82.0781860351562,-59.3889617919921,20.61160358983414,0.2495350887390108,3024699132
sw,-81.9188613891601,-60.3379859924316,6.8899042160331625,0.22884972689798017,3024715799
sw,-82.0253601074218,-61.0397224426269,-8.937214367833677,1.7493642617594987,3024732466
sw,-82.4983367919921,-60.955265045166,-26.29900652110862,4.465781284567792,3024749133
sw,-83.1715393066406,-60.5393142700195,-44.379613751786124,8.303831987523468,3024765800
sw,-84.2172088623046,-60.4181861877441,-62.181735629289776,13.29422233440239,3024782467
sw,-85.9594039916992,-60.8458061218261,-78.67227126703499,19.371958169518855,3024799134
sw,-88.2522506713867,-61.5109634399414,-92.99576341422548,26.270481143541428,3024815801
sw,-88.8720474243164,-62.148265838623,-104.6890049401777,33.55759623422598,3024832468
sw,-85.912612915039,-62.9418678283691,-113.80010769637074,40.77289694346351,3024849135
sw,-83.0358734130859,-63.945011138916,-120.83724239924096,47.586088701010624,3024865802
sw,-80.2692260742187,-65.0352554321289,-126.54408750342553,53.902339271419216,3024882469
sw,-77.6877059936523,-66.0207824707031,-131.58345267651617,59.87137462395498,3024899136
sw,-75.2940444946289,-67.0171661376953,-136.2581242947105,65.79643063111607,3024915803
sw,-72.8588638305664,-68.1553421020507,-140.3801294454251,71.97849311597754,3024932470
sw,-70.2849884033203,-69.4804382324218,-143.3276416517911,78.55651913190712,3024949137
sw,-67.6642150878906,-70.9272155761718,-144.2453041009565,85.40337333874892,3024965804
sw,-65.1588668823242,-72.4610748291015,-142.29420982827122,92.11294813658532,3024982471
sw,-62.7852973937988,-74.0917587280273,-136.8619856869833,98.0816251814044,3024999138
sw,-60.5550842285156,-75.8644485473632,-127.68601028638375,102.66004745911172,3025015805
sw,-58.5388755798339,-77.7020645141601,-114.88916394177174,105.33302711742472,3025032472
sw,-56.8275756835937,-79.6067962646484,-98.95223374326937,105.87612002578918,3025049139
sw,-55.548038482666,-81.4235229492187,-80.64893863090133,104.43919700355885,3025065806
sw,-54.6009368896484,-83.0426940917968,-60.96193460687596,101.524202868486,3025082473
sw,-53.9453620910644,-84.3833999633789,-40.99068507105629,97.85592491503448,3025099140
sw,-53.6712188720703,-85.4834747314453,-21.85527071200544,94.18162187861262,3025115807
sw,-53.7124099731445,-86.3302993774414,-4.594961835450219,91.06091576310719,3025132474
sw,-54.1414337158203,-86.6544418334961,9.937656364095776,88.7068885664639,3025149141
sw,-54.7397270202636,-86.2912368774414,21.17532922380006,86.91276896681042,3025165808
sw,-55.6792068481445,-85.4538650512695,28.904223641096014,85.06249279325708,3025182475
sw,-56.8311080932617,-84.4227218627929,33.276212301477784,82.19919435062384,3025199142
sw,-57.9305305480957,-83.4090881347656,34.75150055216708,77.1248775790166,3025215809
sw,-58.7814407348632,-82.5553436279296,33.97931229687311,68.52318587725557,3025232476
sw,-59.5633125305175,-81.8957901000976,31.649245327329563,55.119705754655776,3025249143
sw,-60.2065353393554,-81.4002685546875,28.36328421845337,35.90128605905693,3025265810
sw,-60.8026237487793,-81.0893249511718,24.57634265646505,10.394581308784806,3025282477
sw,-61.5135841369628,-81.0471572875976,20.62709322573915,-21.042370232516042,3025299144
sw,-62.5520820617675,-81.4005661010742,16.83818125844085,-57.01142270784405,3025315811
sw,-63.7303161621093,-82.4384384155273,13.622892733401635,-95.06531720134763,3025332478
sw,-64.418228149414,-84.3181838989257,11.51817991196874,-131.98179325855224,3025349145
sw,-64.3138885498046,-86.7174758911132,11.093955523584258,-164.31413225144667,3025365812
sw,-64.1586303710937,-86.5648727416992,12.762635801620755,-189.0950957805191,3025382479
sw,-64.2126541137695,-83.1531295776367,16.58644043132591,-204.48395055435424,3025399146
sw,-64.5252380371093,-79.8182373046875,22.194727426969894,-210.14179062482836,3025415813
sw,-65.4528121948242,-76.6028213500976,28.86452942059813,-207.21407333543698,3025432480
sw,-66.6530685424804,-73.4345932006836,35.72971071620265,-197.9470638580358,3025449147
sw,-67.8366165161132,-70.4905776977539,42.02728068809669,-185.08683223829274,3025465814
sw,-68.9456329345703,-67.6870422363281,47.28691127560393,-171.24935558307678,3025482481
sw,-70.0311584472656,-65.0032119750976,51.406676233778335,-158.41301559984262,3025499148
sw,-71.1292037963867,-62.6792755126953,54.60749395164138,-147.61599388707052,3025515815
sw,-72.2861022949218,-60.5959014892578,57.29913317055951,-138.88209390670644,3025532482
sw,-73.5159072875976,-58.2766151428222,59.910032763364065,-131.36220024777703,3025549149
sw,-74.7838745117187,-56.5530738830566,62.73157532381869,-123.65429884154823,3025565816
sw,-76.1010513305664,-54.6017608642578,65.8146650086936,-114.23812064892421,3025582483
sw,-77.4681549072265,-52.2504043579101,68.94204999537384,-101.92742188937001,3025599150
sw,-78.8818206787109,-50.2115364074707,71.6847904251283,-86.21595867347104,3025615817
sw,-80.3824386596679,-49.3209152221679,73.53160745842723,-67.40203707320107,3025632484
sw,-81.979263305664,-49.3385047912597,74.05620815968216,-46.45011529010951,3025649151
sw,-83.5781021118164,-49.5013236999511,73.0689231288215,-24.668388938228468,3025665818
sw,-85.0422439575195,-49.6215782165527,70.69710482791896,-3.369545099140591,3025682485
sw,-86.2870178222656,-49.5308113098144,67.36027136655662,16.335530530149974,3025699152
sw,-87.4468002319336,-49.6977920532226,63.64522181918423,33.572774075980924,3025715819
sw,-88.5407562255859,-50.4024276733398,60.12553533635411,47.64637287121561,3025732486
sw,-89.5235748291015,-51.6776275634765,57.18965816469426,58.00079497976446,3025749153
sw,-89.4141616821289,-53.0826873779296,54.93447937788152,64.26385533087272,3025765820
sw,-88.4272918701171,-54.629783630371,53.15369793190523,66.34463303760295,3025782487
sw,-87.3657531738281,-55.8982200622558,51.415425555785234,64.50884422170382,3025799154
sw,-86.2889175415039,-56.7402763366699,49.193232844742894,59.366780285098,3025815821
sw,-85.2710952758789,-57.6750526428222,45.99884828292151,51.76500096306803,3025832488
sw,-84.3958740234375,-58.434284210205,41.46936904393671,42.62915155745808,3025849155
sw,-83.6800994873046,-58.9192199707031,35.38619216959335,32.82791150538176,3025865822
sw,-83.1535873413086,-59.2105674743652,27.63652623430303,23.11238286037051,3025882489
sw,-82.8555679321289,-59.4108238220214,18.155884688229023,14.14633752621191,3025899156
sw,-82.7174835205078,-60.3145751953125,6.898611131650074,6.594671804951683,3025915823
sw,-82.7074966430664,-61.0425300598144,-6.131792551125546,1.1932236286213647,3025932490
sw,-82.9795989990234,-60.7940063476562,-20.795175374177468,-1.2887202765772643,3025949157
sw,-83.5046005249023,-60.2100448608398,-36.71159590259025,-0.23012780343813544,3025965824
sw,-84.3232116699218,-59.7837982177734,-53.20743853031892,4.58052402088781,3025982491
sw,-85.738784790039,-59.9758377075195,-69.36750188585168,12.747557331589878,3025999158
sw,-87.7323837280273,-60.5960655212402,-84.20656153132049,23.264064396849655,3026015825
sw,-88.7884063720703,-61.3774795532226,-96.91135333994949,34.73407567909982,3026032492
sw,-86.3579864501953,-62.3481750488281,-107.05582021612369,45.7422830831045,3026049159
sw,-83.5426635742187,-63.5883102416992,-114.69281029163471,55.23242033979748,3026065826
sw,-80.8641052246093,-64.8654708862304,-120.28067283483179,62.761488837337104,3026082493
sw,-78.2817687988281,-65.9905548095703,-124.481682292716,68.54967056699304,3026099160
sw,-75.8861846923828,-67.0751342773437,-127.92232289102031,73.3191136117455,3026115827
sw,-73.5876007080078,-68.232421875,-131.00440437755697,77.98515166886001,3026132494
sw,-71.2004470825195,-69.5219573974609,-133.8120238178026,83.30755273755018,3026149161
sw,-68.7613983154296,-70.9739532470703,-136.1097620920277,89.61246334994189,3026165828
sw,-66.4056854248046,-72.5187149047851,-137.4027043537214,96.66246599768364,3026182495
sw,-64.1639709472656,-74.1956787109375,-137.03288541793125,103.70171796638182,3026199162
sw,-61.9373435974121,-76.0674133300781,-134.30194484903285,109.65397054426666,3026215829
sw,-59.6449356079101,-78.0567474365234,-128.6148282001967,113.41297666212937,3026232496
sw,-57.474266052246,-80.1126403808593,-119.62627301485848,114.14185245185085,3026249163
sw,-55.8903503417968,-82.0266876220703,-107.35279754429737,111.49571545799317,3026265830
sw,-54.607063293457,-83.5833282470703,-92.21023341820784,105.70506757585262,3026282497
sw,-53.6419143676757,-84.7486801147461,-74.95993707641446,97.50247200141966,3026299164
sw,-53.0488929748535,-85.6018142700195,-56.581300962215025,87.92638904382407,3026315831
sw,-52.7612876892089,-86.0171966552734,-38.11197677124581,78.07172207973288,3026332498
sw,-52.6823272705078,-86.0215301513671,-20.500938101129034,68.86250390235612,3026349165
sw,-52.937744140625,-85.766128540039,-4.507008904425247,60.90066992450381,3026365832
sw,-53.4288291931152,-85.3178482055664,9.344967162541556,54.40963629128016,3026382499
sw,-54.1236381530761,-84.7068710327148,20.75779527426119,49.256161941587365,3026399166
sw,-55.0553550720214,-84.0715026855468,29.62510674403523,45.00993226358971,3026415833
sw,-56.0764503479003,-83.5660552978515,35.98602969810693,40.99817906600256,3026432500
sw,-57.0898704528808,-83.1325912475586,39.98709954218841,36.336752228818334,3026449167
sw,-58.3245239257812,-82.7464523315429,41.85697270382778,29.95735654162469,3026465834
sw,-59.5323677062988,-82.4653244018554,41.89174015737859,20.678129528646107,3026482501
sw,-60.5060653686523,-82.3168106079101,40.44741598062013,7.361638626118227,3026499168
sw,-61.3192176818847,-82.3161468505859,37.94040570454742,-10.830224195765712,3026515835
sw,-62.2244567871093,-82.4711074829101,34.85893350280716,-34.12674620235572,3026532502
sw,-63.4046592712402,-82.9633560180664,31.77821857825561,-61.87539996004769,3026549169
sw,-64.5325469970703,-83.8489761352539,29.35028010111393,-92.42078669873126,3026565836
sw,-64.9209518432617,-85.0722503662109,28.228560902669308,-123.23240127006886,3026582503
sw,-64.9962158203125,-86.0192642211914,28.916497763825777,-151.31061994194013,3026599170
sw,-65.3547897338867,-84.7143173217773,31.591634454294383,-173.7987111428882,3026615837
sw,-66.0956420898437,-81.5924911499023,36.00112118697677,-188.63100748143643,3026632504
sw,-67.1339950561523,-78.201545715332,41.502235520635516,-195.0053187328402,3026649171
sw,-68.3510437011718,-75.0952224731445,47.2440243106063,-193.51701513281358,3026665838
sw,-69.6166915893554,-72.1320266723632,52.41292615489676,-185.91825628304986,3026682505
sw,-70.8401947021484,-69.4700012207031,56.44314436729511,-174.6031194143317,3026699172
sw,-71.9907150268554,-66.8249969482421,59.121360364259715,-161.99763297579037,3026715839
sw,-73.1727752685546,-64.2089157104492,60.56629081110701,-150.02737637088174,3026732506
sw,-74.3203430175781,-61.9772186279296,61.109965620103765,-139.77174762120498,3026749173
sw,-75.4414672851562,-59.9449501037597,61.135573114852306,-131.3422640494688,3026765840
sw,-76.5617980957031,-57.8461723327636,60.93231411435688,-123.97451549286689,3026782507
sw,-77.723388671875,-56.2699966430664,60.613649156589126,-116.29937406816737,3026799174
sw,-78.9750595092773,-54.4981575012207,60.11853954531353,-106.7408065969298,3026815841
sw,-80.2187957763671,-52.5476760864257,59.2848170552954,-93.96279485893376,3026832508
sw,-81.3874435424804,-50.9503288269043,57.959738730544366,-77.2614491916382,3026849175
sw,-82.5274810791015,-50.0266799926757,56.10334153182522,-56.793595701466025,3026865842
sw,-83.6347198486328,-50.0124549865722,53.847123409834225,-33.57572850292355,3026882509
sw,-84.6465454101562,-50.3585128784179,51.488382443994084,-9.271922203256231,3026899176
sw,-85.5872726440429,-50.7113876342773,49.42185869274621,14.133589842545394,3026915843
sw,-86.5232315063476,-50.9960250854492,48.02975683917036,34.66838094019782,3026932510
sw,-87.4345626831054,-51.5307121276855,47.56414700191246,50.647976051449135,3026949177
sw,-88.362548828125,-52.6840286254882,48.05769414873002,60.89756114550147,3026965844
sw,-89.3486862182617,-54.1256637573242,49.28853385506448,64.9346274369062,3026982511
sw,-89.7019577026367,-56.0646095275878,50.80694826793672,63.08724489116045,3026999178
sw,-88.6177520751953,-57.391014099121,52.012371739866204,56.47774441118467,3027015845
sw,-87.5715866088867,-57.7529029846191,52.255882400321795,46.8128893158601,3027032512
sw,-86.5074462890625,-57.9848442077636,50.93954136898076,36.00283722227938,3027049179
sw,-85.4947662353515,-58.3167991638183,47.58958249112321,25.729753276754423,3027065846
sw,-84.6225051879882,-58.6670036315918,41.89252732684423,17.126312919070852,3027082513
sw,-83.9654159545898,-58.8639793395996,33.69812412993034,10.675133326637338,3027099180
sw,-83.5668487548828,-58.9128189086914,23.006609002275635,6.341045451461623,3027115847
sw,-83.3628387451171,-59.6309814453125,9.964363898285068,3.8560907622777933,3027132514
sw,-83.2845840454101,-60.6093101501464,-5.115056704842496,3.0215393229558094,3027149181
sw,-83.5208053588867,-60.8304100036621,-21.70969524344508,3.884198838539503,3027165848
sw,-84.0487670898437,-60.3177642822265,-39.060339282373576,6.701434763941626,3027182515
sw,-84.8963928222656,-60.0622329711914,-56.201641594075475,11.723323964844331,3027199182
sw,-86.2730636596679,-60.2988166809082,-72.08862071883769,18.928214256549943,3027215849
sw,-88.3192596435546,-60.9167785644531,-85.81181617502597,27.870586842321625,3027232516
sw,-88.6465072631836,-61.7629623413085,-96.83661753226563,37.72345968896165,3027249183
sw,-85.9363021850586,-62.750690460205,-105.16132568519005,47.486028547140585,3027265850
sw,-83.1876754760742,-63.878662109375,-111.30069780604805,56.25474313486077,3027282517
sw,-80.5746307373046,-65.1325302124023,-116.07580347399126,63.44750696914497,3027299184
sw,-78.1244659423828,-66.3002624511718,-120.2885701224769,68.90764790938144,3027315851
sw,-75.7978897094726,-67.441047668457,-124.41785646688784,72.86847695795505,3027332518
sw,-73.445930480957,-68.626235961914,-128.45646177539422,75.80952506082555,3027349185
sw,-70.9826049804687,-69.8843765258789,-131.93216059211565,78.26688083344432,3027365852
sw,-68.5569686889648,-71.2370300292968,-134.07310728098466,80.66374607014481,3027382519
sw,-66.2472076416015,-72.7099456787109,-134.03472417012588,83.20623440595449,3027399186
sw,-63.9165611267089,-74.2054367065429,-131.112003200938,85.85752118953104,3027415853
sw,-61.5481414794921,-75.6703033447265,-124.89451450660826,88.37699285597382,3027432520
sw,-59.3294639587402,-77.1158142089843,-115.34982332295533,90.39929090765655,3027449187
sw,-57.4529418945312,-78.6217346191406,-102.83239927189233,91.52959940172055,3027465854
sw,-55.9651908874511,-80.1624374389648,-88.02012658415556,91.4376543147271,3027482521
sw,-54.892650604248,-81.6320571899414,-71.79247001327295,89.93675223847401,3027499188
sw,-54.1663131713867,-82.9744033813476,-55.081917076319904,87.03546546272916,3027515855
sw,-53.6019897460937,-84.0929260253906,-38.74020264879147,82.95271486650064,3027532522
sw,-53.2075576782226,-85.0183944702148,-23.452272730543015,78.09253950483138,3027549189
sw,-53.0739784240722,-85.6569290161132,-9.707098279897334,72.98038534947901,3027565856
sw,-53.4463882446289,-85.9136199951171,2.18856949371732,68.16572629201411,3027582523
sw,-53.9901657104492,-85.8343505859375,12.074666665523013,64.09900872426537,3027599190
sw,-54.6826934814453,-85.5601501464843,19.89472856940181,60.99872627513013,3027615857
sw,-55.5156288146972,-85.1332473754882,25.653206513447778,58.73518959302099,3027632524
sw,-56.4586601257324,-84.5655670166015,29.383383582393506,56.762610613769276,3027649191
sw,-57.3806457519531,-83.9150772094726,31.138539846536997,54.12462619243121,3027665858
sw,-58.3994903564453,-83.2203750610351,31.01203804270072,49.544320711946725,3027682525
sw,-59.3893775939941,-82.5569992065429,29.178579319514707,41.596229500886345,3027699192
sw,-60.1907768249511,-82.0956268310546,25.939576334442247,28.947441228094885,3027715859
sw,-60.7838554382324,-81.894416809082,21.756228620829525,10.644128123786047,3027732526
sw,-61.3783149719238,-81.9777450561523,17.26010823606926,-13.595919376819108,3027749193
sw,-62.3075904846191,-82.4523391723632,13.232068897481415,-43.14488955631854,3027765860
sw,-63.2031707763671,-83.4052200317382,10.531899549828768,-76.35827953143895,3027782527
sw,-63.4105148315429,-84.749282836914,9.95874266192773,-110.67619051983505,3027799194
sw,-63.1986961364746,-86.2202758789062,12.05023068839886,-142.97366925754199,3027815861
sw,-63.1448554992675,-86.217788696289,16.88361808014816,-170.12895844909508,3027832528
sw,-63.5515365600585,-83.4600753784179,23.979111660693512,-189.68631056249663,3027849195
sw,-64.3685150146484,-79.708869934082,32.37798705479499,-200.41804289472347,3027865862
sw,-65.5102157592773,-76.1738510131836,40.88498241803659,-202.5885188958286,3027882529
sw,-66.762939453125,-72.9811935424804,48.38466250765783,-197.81449632683382,3027899196
sw,-68.0307846069336,-70.0813446044921,54.115050580483455,-188.56751920712136,3027915863
sw,-69.1804885864257,-67.2958984375,57.81224358480489,-177.494183892902,3027932530
sw,-70.3126678466796,-64.3922271728515,59.69764999216859,-166.76978614007692,3027949197
sw,-71.4360580444336,-61.7071266174316,60.334499421209564,-157.64469379633778,3027965864
sw,-72.585708618164,-59.4241638183593,60.41513333170035,-150.24728945671274,3027982531
sw,-73.7972946166992,-57.2264175415039,60.549955213074334,-143.6370522746525,3027999198
sw,-75.0443649291992,-55.4235382080078,61.11594122331446,-136.07674506120858,3028015865
sw,-76.3647842407226,-53.624942779541,62.19586762339524,-125.48668074570038,3028032532
sw,-77.7145385742187,-51.4199142456054,63.60917736914662,-110.01989774367506,3028049199
sw,-79.0553131103515,-49.3339462280273,65.01071183832352,-88.64562564919191,3028065866
sw,-80.3815841674804,-47.9622726440429,66.02014063184,-61.58069022043884,3028082533
sw,-81.694351196289,-47.6731567382812,66.3439075056302,-30.416385921376477,3028099200
sw,-82.9935836791992,-48.0686569213867,65.85967000730633,2.1233854298771098,3028115867
sw,-84.256965637207,-48.8699722290039,64.64572220583474,32.72617391132339,3028132534
sw,-85.4684906005859,-49.8084602355957,62.95108199031889,58.17265396631281,3028149201
sw,-86.6618270874023,-51.1490859985351,61.113992416113376,75.9726375737962,3028165868
sw,-87.8609161376953,-52.7026062011718,59.446712009954425,84.8179143531195,3028182535
sw,-88.9724502563476,-54.6016731262207,58.11224936125634,84.77737091086196,3028199202
sw,-89.6466751098632,-56.3973159790039,57.02394237246813,77.21031167902538,3028215869
sw,-88.7682189941406,-57.5161819458007,55.79981718279512,64.41805682232932,3028232536
sw,-87.7236785888671,-57.7458267211914,53.795802676808215,49.11036258920915,3028249203
sw,-86.6785202026367,-58.1462020874023,50.22140907946742,33.825762085170794,3028265870
sw,-85.6735153198242,-58.5424346923828,44.3129783508605,20.473384407533203,3028282537
sw,-84.7904510498046,-58.771141052246,35.5162106129225,10.122909838104677,3028299204
sw,-84.2214889526367,-58.7685661315918,23.624382576516094,3.0728607675230677,3028315871
sw,-84.1094436645507,-59.1533851623535,8.835826580910854,-0.8737383443255594,3028332538
sw,-84.3055648803711,-60.170669555664,-8.274086727462798,-2.064136083218941,3028349205
sw,-84.7294692993164,-60.409683227539,-26.842982518590063,-0.7363108004620857,3028365872
sw,-85.4961547851562,-59.8640670776367,-45.842103529659795,3.0448094722205843,3028382539
sw,-86.5668106079101,-59.6100463867187,-64.20896277784398,9.251982410159657,3028399206
sw,-88.1022567749023,-59.7441024780273,-80.98883947852278,17.673166435889087,3028415873
sw,-89.074234008789,-60.2719192504882,-95.47938515017525,27.757583911313468,3028432540
sw,-86.7030715942382,-61.0586280822753,-107.3501907899641,38.63039351772226,3028449207
sw,-83.6680450439453,-62.0210227966308,-116.68790266403732,49.27297443604647,3028465874
sw,-80.6253280639648,-63.2158660888671,-123.9250073191165,58.78601321919097,3028482541
sw,-77.7233276367187,-64.6107940673828,-129.65561388565783,66.62679000385565,3028499208
sw,-74.9835052490234,-65.8738403320312,-134.40104479346638,72.73211422010051,3028515875
sw,-72.3884048461914,-67.1408309936523,-138.41982820525945,77.4852448186096,3028532542
sw,-69.7942504882812,-68.481216430664,-141.63407239728912,81.54122162699785,3028549209
sw,-67.1971817016601,-69.8223724365234,-143.6805302245055,85.57207368797978,3028565876
sw,-64.6882553100586,-71.2232818603515,-144.03427593218308,90.0160113793072,3028582543
sw,-62.2658081054687,-72.7116775512695,-142.13528936181368,94.90866569789091,3028599210
sw,-60.0283737182617,-74.3765182495117,-137.47754827612297,99.84586047992094,3028615877
sw,-58.0065994262695,-76.1683959960937,-129.6661700233665,104.08616168982591,3028632544
sw,-55.8593826293945,-78.0614700317382,-118.47365122698828,106.75888619445222,3028649211
sw,-54.0717964172363,-79.9512786865234,-103.91575554000288,107.11231285376348,3028665878
sw,-52.7192955017089,-81.7431259155273,-86.33497810280286,104.72808907387076,3028682545
sw,-51.6902961730957,-83.36962890625,-66.45289903908508,99.64365604929237,3028699212
sw,-51.0918045043945,-84.6288833618164,-45.350388932465115,92.35734510352577,3028715879
sw,-50.9741020202636,-85.635871887207,-24.355386428894,83.72662868587413,3028732546
sw,-51.1818656921386,-86.3665466308593,-4.850541497166972,74.79483927501326,3028749213
sw,-51.6422386169433,-86.6431655883789,11.955925674515106,66.58854460179015,3028765880
sw,-52.3420906066894,-86.5056533813476,25.236868298983545,59.921221491557,3028782547
sw,-53.3840293884277,-86.2195434570312,34.67665366769577,55.23033688362542,3028799214
sw,-54.6444625854492,-85.821304321289,40.492098257132646,52.47031818036925,3028815881
sw,-55.9207534790039,-85.2805099487304,43.33561044683279,51.078484288060515,3028832548
sw,-56.8333625793457,-84.6569137573242,44.099919298384755,50.01974960625327,3028849215
sw,-57.7836112976074,-84.025650024414,43.67485861927614,47.90333494107279,3028865882
sw,-58.8087615966796,-83.4292907714843,42.73055950733887,43.1594943495261,3028882549
sw,-59.9786109924316,-82.9481506347656,41.59894080768848,34.26691701659852,3028899216
sw,-60.9321594238281,-82.6206283569336,40.29069857452014,20.021854395863485,3028915883
sw,-61.7715835571289,-82.4059906005859,38.63530445718306,-0.17350013022674757,3028932550
sw,-63.0038909912109,-82.3917694091796,36.488756336024224,-26.05498780082461,3028949217
sw,-64.4261322021484,-82.8856735229492,33.92663804249815,-56.354813121725314,3028965884
sw,-65.2035064697265,-84.0066528320312,31.333893116202955,-88.8617900317426,3028982551
sw,-65.3909454345703,-85.5710525512695,29.33373324951048,-120.7307888912235,3028999218
sw,-65.5161972045898,-86.7352981567382,28.572270846456096,-149.00617662824564,3029015885
sw,-65.942512512207,-85.4279174804687,29.45707021509662,-171.2322775138774,3029032552
sw,-66.5427856445312,-82.3769760131836,31.978044642485475,-185.96845424775663,3029049219
sw,-67.4105911254882,-79.1515884399414,35.69472743649008,-193.04068581970895,3029065886
sw,-68.4369659423828,-76.2007369995117,39.888955219446686,-193.44811635688316,3029082553
sw,-69.5737152099609,-73.4394378662109,43.809668554528066,-188.96792410716068,3029099220
sw,-70.6062316894531,-70.6832885742187,46.90753090019968,-181.6068120362076,3029115887
sw,-71.5934295654296,-67.8033218383789,48.973627983255405,-173.08241650922486,3029132554
sw,-72.6280822753906,-64.8742141723632,50.14434723258874,-164.47424979171186,3029149221
sw,-73.6524581909179,-62.3475723266601,50.79034206845688,-156.09882196694048,3029165888
sw,-74.6636276245117,-60.2082061767578,51.34722453858758,-147.5895568018009,3029182555
sw,-75.7155227661132,-57.56640625,52.15645085696631,-138.12496355898685,3029199222
sw,-76.858283996582,-55.4618873596191,53.36883064002234,-126.73674941192272,3029215889
sw,-78.074234008789,-53.4022102355957,54.93123857346594,-112.6231873209248,3029232556
sw,-79.3020629882812,-51.5464668273925,56.643604197363764,-95.39230251502676,3029249223
sw,-80.509536743164,-50.4051170349121,58.25112401065244,-75.17757065513348,3029265890
sw,-81.702896118164,-49.8077087402343,59.532398717075026,-52.61030849891416,3029282557
sw,-82.8929824829101,-49.7471160888671,60.35528436201092,-28.68562030507391,3029299224
sw,-84.0841751098632,-49.9334640502929,60.69030999460467,-4.596591073728524,3029315891
sw,-85.2889862060546,-50.1409530639648,60.58792155435581,18.392603457822545,3029332558
sw,-86.5193557739257,-50.3843460083007,60.135101114557585,39.01334188222723,3029349225
sw,-87.7472763061523,-51.1050262451171,59.407910738985066,56.039638585767996,3029365892
sw,-88.907112121582,-52.3578186035156,58.43200408980998,68.38203076788844,3029382559
sw,-90.0,-53.9084510803222,57.15765150469701,75.2583877361054,3029399226
sw,-88.9883804321289,-56.0789756774902,55.45193239806716,76.39626211409283,3029415893
sw,-87.9405288696289,-57.6760787963867,53.10763455467075,72.16384507225197,3029432560
sw,-86.9233627319336,-58.2942504882812,49.86471353617118,63.537230677266905,3029449227
sw,-85.9567337036132,-58.9422721862793,45.43724533326963,51.89397988173541,3029465894
sw,-85.0969924926757,-59.4988098144531,39.53934872037439,38.722048059884514,3029482561
sw,-84.3618469238281,-59.9745864868164,31.90808413124205,25.375172855976032,3029499228
sw,-83.8273086547851,-60.2364921569824,22.327514404678755,12.96399632455398,3029515895
sw,-83.565933227539,-60.512466430664,10.662643063868126,2.3848115904482987,3029532562
sw,-83.4835662841796,-61.248924255371,-3.0884445505567935,-5.588379749906633,3029549229
sw,-83.6107406616211,-61.325626373291,-18.724427441398674,-10.252946466121378,3029565896
sw,-84.1121444702148,-60.5854034423828,-35.76990583775955,-11.042075659230392,3029582563
sw,-84.9650650024414,-60.0296936035156,-53.44026691852145,-7.696089577669165,3029599230
sw,-86.18017578125,-59.9425735473632,-70.68629652325001,-0.4445495792155296,3029615897
sw,-87.9802551269531,-60.248477935791,-86.3461630930457,9.922698147086829,3029632564
sw,-89.6841049194336,-60.7610092163085,-99.38949207917582,22.16040481041062,3029649231
sw,-86.8593292236328,-61.4500999450683,-109.18385838417629,34.82223388924556,3029665898
sw,-83.8445739746093,-62.3433990478515,-115.67950244406613,46.57569989975457,3029682565
sw,-80.9468765258789,-63.5359420776367,-119.42301936947469,56.47759348293523,3029699232
sw,-78.2192077636718,-64.7705764770507,-121.37696456228858,64.13336371397023,3029715899
sw,-75.6795349121093,-65.9140472412109,-122.60628163649194,69.70299922198738,3029732566
sw,-73.3728103637695,-67.0612258911132,-123.94748046878732,73.76160553043766,3029749233
sw,-70.9982070922851,-68.2505264282226,-125.77468816992781,77.0661979817813,3029765900
sw,-68.526741027832,-69.5898132324218,-127.92497738971517,80.30573208850159,3029782567
sw,-66.0968856811523,-70.9789352416992,-129.77724428609312,83.90780078375298,3029799234
sw,-63.7263565063476,-72.4615020751953,-130.43120768548715,87.9471982369898,3029815901
sw,-61.4557266235351,-74.0466537475586,-128.9226123443665,92.1647591558167,3029832568
sw,-59.2339210510253,-75.7152023315429,-124.42643481652026,96.07411570923547,3029849235
sw,-57.0140151977539,-77.4370956420898,-116.41831880461422,99.11560207157669,3029865902
sw,-55.1732597351074,-79.1699905395507,-104.77359404383438,100.81097980899874,3029882569
sw,-53.8257675170898,-80.9297943115234,-89.79051818296396,100.87856458814127,3029899236
sw,-52.892837524414,-82.4979248046875,-72.14110576417242,99.28354123740677,3029915903
sw,-52.0768814086914,-83.9035568237304,-52.77399580719059,96.21933377936908,3029932570
sw,-51.6113090515136,-85.1246109008789,-32.80094128792439,92.03685758480448,3029949237
sw,-51.6014251708984,-86.1250534057617,-13.38542095805554,87.15063740091126,3029965904
sw,-51.827781677246,-86.6976165771484,4.365115503845956,81.94792561404046,3029982571
sw,-52.3730316162109,-86.671157836914,19.505287734484135,76.71274831362908,3029999238
sw,-53.3606834411621,-86.251953125,31.34892319939225,71.56361631081596,3030015905
sw,-54.6128768920898,-85.6281661987304,39.5399720939255,66.40130212970672,3030032572
sw,-55.9827346801757,-84.9515838623046,44.076790758345396,60.870647009602756,3030049239
sw,-57.1742286682128,-84.3373184204101,45.27746558675271,54.350152892663644,3030065906
sw,-58.2384300231933,-83.7819900512695,43.693381289554225,45.988855515051725,3030082573
sw,-59.2698287963867,-83.249885559082,40.00069877180706,34.80800065441544,3030099240
sw,-60.0246124267578,-82.8856201171875,34.91039946905618,19.87271976982061,3030115907
sw,-60.6893615722656,-82.810920715332,29.12826103898152,0.5174702602071443,3030132574
sw,-61.4489059448242,-82.9935836791992,23.36846965393937,-23.414669415144736,3030149241
sw,-62.5131759643554,-83.5437240600586,18.3877158542585,-51.376997623936234,3030165908
sw,-63.2639923095703,-84.6067581176757,14.978102573808524,-82.0342976642591,3030182575
sw,-63.1889953613281,-86.1210632324218,13.864426730412484,-113.34500914799251,3030199242
sw,-63.0102233886718,-87.6588287353515,15.50987054971156,-142.83433368488156,3030215909
sw,-63.1237907409668,-86.6604690551757,19.91396757925768,-168.0240622773587,3030232576
sw,-63.6777458190918,-83.413345336914,26.5225763323739,-186.9183225493088,3030249243
sw,-64.6566543579101,-79.77099609375,34.32357442586632,-198.40249811244408,3030265910
sw,-65.8349533081054,-76.4252166748046,42.105473208529844,-202.42718195026896,3030282577
sw,-67.062515258789,-73.2277450561523,48.777487921894725,-199.92364206861828,3030299244
sw,-68.2301559448242,-70.148567199707,53.63172692147558,-192.49483295745395,3030315911
sw,-69.3204727172851,-67.0824203491211,56.46598577021708,-181.99237332099062,3030332578
sw,-70.4468917846679,-64.2303619384765,57.547812782195365,-170.09759769491944,3030349245
sw,-71.6289978027343,-61.8459548950195,57.45614577940348,-157.99216367410034,3030365912
sw,-72.7952041625976,-59.7311668395996,56.86741339354035,-146.16872114090407,3030382579
sw,-73.9693069458007,-57.5047302246093,56.355670414768085,-134.41170060155116,3030399246
sw,-75.1533203125,-55.8329391479492,56.260060114175914,-121.95914867543374,3030415913
sw,-76.3946990966796,-53.9225769042968,56.64797714956126,-107.82093367827649,3030432580
sw,-77.7159194946289,-51.8378868103027,57.37381777270287,-91.17712770935209,3030449247
sw,-79.0669403076171,-50.1932029724121,58.20434702867474,-71.73428046613029,3030465914
sw,-80.4216384887695,-49.535171508789,58.95913923852,-49.91154287330623,3030482581
sw,-81.7400131225586,-49.6949081420898,59.60768359914093,-26.789386497264832,3030499248
sw,-82.9346694946289,-50.0693321228027,60.28004916418409,-3.860964418031685,3030515915
sw,-84.0429000854492,-50.4293708801269,61.183145132146684,17.289755206208728,3030532582
sw,-85.1317596435546,-50.7420425415039,62.456555864810944,35.258101564574595,3030549249
sw,-86.310188293457,-51.3222732543945,64.03138372051453,48.9844410759067,3030565916
sw,-87.6033020019531,-52.3691368103027,65.55726235335602,57.839949774147485,3030582583
sw,-88.9707336425781,-53.6140174865722,66.43521025042688,61.67858858646981,3030599250
sw,-89.7052536010742,-55.4342803955078,65.95028794695622,60.8657183327631,3030615917
sw,-88.2172164916992,-56.5031433105468,63.45730329452735,56.247703200450395,3030632584
sw,-86.906867980957,-56.9843482971191,58.551214666626606,49.02160572473184,3030649251
sw,-85.8626556396484,-57.690689086914,51.159772378200614,40.5111139200732,3030665918
sw,-85.1170959472656,-58.2469329833984,41.52780612291363,31.915459901927708,3030682585
sw,-84.6082458496093,-58.5774230957031,30.107913914874597,24.121581961315094,3030699252
sw,-84.3071517944336,-58.7494850158691,17.41102005762427,17.64316469195061,3030715919
sw,-84.2032623291015,-58.8846473693847,3.884299855265795,12.6978335829653,3030732586
sw,-84.2260589599609,-59.8054580688476,-10.132969851979967,9.378441437668876,3030749253
sw,-84.3526382446289,-60.7612953186035,-24.365470623215415,7.827311936508689,3030765920
sw,-84.8419342041015,-60.731460571289,-38.50643470242833,8.307342870949808,3030782587
sw,-85.6987991333007,-60.2576103210449,-52.13916390508938,11.112905078401058,3030799254
sw,-86.9232406616211,-60.1613044738769,-64.74225921643594,16.36644359192565,3030815921
sw,-88.745864868164,-60.5690727233886,-75.80535729121073,23.830917461577464,3030832588
sw,-88.4927291870117,-61.3029289245605,-85.01852583520773,32.86262044484181,3030849255
sw,-85.7995681762695,-62.1862106323242,-92.44283006647652,42.54093019604225,3030865922
sw,-82.9587249755859,-63.1739082336425,-98.55776451958909,51.91400885971004,3030882589
sw,-80.1985397338867,-64.4439926147461,-104.1303830069664,60.25270719668439,3030899256
sw,-77.6374740600586,-65.733169555664,-109.94008490151334,67.21558297067504,3030915923
sw,-75.2930908203125,-66.9120101928711,-116.47053171273843,72.87207870388352,3030932590
sw,-73.0452270507812,-68.0846405029296,-123.69878211270033,77.58617315390003,3030949257
sw,-70.6468658447265,-69.3458709716796,-131.06184081765798,81.81289123077192,3030965924
sw,-68.2084655761718,-70.6226577758789,-137.59578859808448,85.88842667065188,3030982591
sw,-65.7972793579101,-72.0809326171875,-142.17404235415663,89.89041886472741,3030999258
sw,-63.4808654785156,-73.6987838745117,-143.75287377432286,93.61190821978705,3031015925
sw,-61.2004280090332,-75.392105102539,-141.55979883244487,96.64667827488601,3031032592
sw,-58.9769134521484,-77.1273040771484,-135.2022868071169,98.54391250348804,3031049259
sw,-56.8866119384765,-78.8625106811523,-124.70200540745088,98.97035678568389,3031065926
sw,-55.2687454223632,-80.510009765625,-110.46872723358649,97.82307942996906,3031082593
sw,-54.0246047973632,-82.0012512207031,-93.23036742898735,95.26035148713565,3031099260
sw,-53.1072196960449,-83.2590179443359,-73.9394138339242,91.65120733312247,3031115927
sw,-52.4261093139648,-84.3520889282226,-53.67592481028575,87.47309912941958,3031132594
sw,-52.1591033935546,-85.3019332885742,-33.55740054746795,83.2001693923076,3031149261
sw,-52.2226371765136,-85.9861450195312,-14.65291527039669,79.21657033578103,3031165928
sw,-52.5682983398437,-86.1969757080078,2.104810420919579,75.76542424575815,3031182595
sw,-53.1741104125976,-85.8634185791015,16.007733186648277,72.91959369414857,3031199262
sw,-54.0998992919921,-85.220947265625,26.647543986847285,70.55117347029585,3031215929
sw,-55.3523216247558,-84.469482421875,33.95523087275142,68.28816799896296,3031232596
sw,-56.6014595031738,-83.6904678344726,38.18253239830095,65.47081619243052,3031249263
sw,-57.7455673217773,-82.9593429565429,39.81581743998103,61.14057935475561,3031265930
sw,-58.9163856506347,-82.2791213989257,39.440101885300344,54.099904959363116,3031282597
sw,-60.059341430664,-81.7098083496093,37.599239814093465,43.06822904555409,3031299264
sw,-60.9885368347168,-81.2974166870117,34.70841381130099,26.933433065387526,3031315931
sw,-61.8093528747558,-81.1013946533203,31.05782662955355,5.063735954113875,3031332598
sw,-62.777732849121,-81.168716430664,26.90760173149368,-22.3901253212947,3031349265
sw,-63.95943069458,-81.7005996704101,22.62603814335293,-54.297206622027275,3031365932
sw,-64.9005508422851,-82.8539199829101,18.785750930297496,-88.5469115591268,3031382599
sw,-65.1064147949218,-84.7340011596679,16.133299858644257,-122.30284957522551,3031399266
sw,-64.9854125976562,-87.1022720336914,15.407011139427638,-152.49040305941176,3031415933
sw,-64.981201171875,-87.3145294189453,17.071877651010475,-176.4096444330663,3031432600
sw,-65.2920379638671,-84.0616836547851,21.104912280038278,-192.3001134815275,3031449267
sw,-65.9816360473632,-80.660285949707,26.94748612071869,-199.68022310373772,3031465934
sw,-67.0294113159179,-77.5619277954101,33.655481794862666,-199.35595923252126,3031482601
sw,-68.2278366088867,-74.5974807739257,40.18387022408996,-193.1133531342697,3031499268
sw,-69.3957366943359,-71.7060470581054,45.6904558579847,-183.21576451361497,3031515935
sw,-70.4895477294921,-68.8569564819336,49.747085686459194,-171.8672653657302,3031532602
sw,-71.5490493774414,-66.1150207519531,52.39292434192244,-160.77245727803157,3031549269
sw,-72.6045837402343,-63.6840362548828,54.0301713256659,-150.86096989874218,3031565936
sw,-73.697509765625,-61.6876945495605,55.21962181011308,-142.1961009016094,3031582603
sw,-74.8692016601562,-59.474063873291,56.45934509315197,-134.0650038536934,3031599270
sw,-76.0911636352539,-57.33345413208,58.02044464400121,-125.23399527503882,3031615937
sw,-77.3736495971679,-55.3871803283691,59.88232719883396,-114.32490556674917,3031632604
sw,-78.7183532714843,-53.2464599609375,61.77303121905502,-100.22869572021997,3031649271
sw,-80.0737152099609,-51.70845413208,63.289113331294054,-82.44576930609405,3031665938
sw,-81.470344543457,-50.8565940856933,64.04946702866219,-61.255273405986806,3031682605
sw,-82.8567199707031,-50.7368736267089,63.83092564192172,-37.67519807552338,3031699272
sw,-84.0829467773437,-50.8522415161132,62.642393332346245,-13.255291080974224,3031715939
sw,-85.2099304199218,-51.0079383850097,60.71733512052628,10.203744347143587,3031732606
sw,-86.3296585083007,-51.2278442382812,58.43407852037614,30.921272748156788,3031749273
sw,-87.4471054077148,-51.8734550476074,56.19665811201847,47.367182471441964,3031765940
sw,-88.4756927490234,-53.1377868652343,54.31630070344323,58.46203271728802,3031782607
sw,-89.4095077514648,-54.5276565551757,52.92607959235694,63.74950935599672,3031799274
sw,-89.5293655395507,-56.2785873413085,51.94649245633192,63.50201027174702,3031815941
sw,-88.496109008789,-57.5470161437988,51.10333537528383,58.693334494873355,3031832608
sw,-87.4216995239257,-58.0712242126464,49.983636188150676,50.79874589813049,3031849275
sw,-86.3881683349609,-58.6592788696289,48.1049686771573,41.456901260130266,3031865942
sw,-85.4034271240234,-59.1458549499511,44.974267250061224,32.10313041242344,3031882609
sw,-84.4780654907226,-59.6111373901367,40.125021369365264,23.706580780263536,3031899276
sw,-83.6613235473632,-59.7362670898437,33.13902847784612,16.700956058986847,3031915943
sw,-83.0922393798828,-59.7845230102539,23.671115114819997,11.11965403586653,3031932610
sw,-82.7752609252929,-60.842227935791,11.497047614314452,6.866370694823511,3031949277
sw,-82.6976852416992,-61.8457374572753,-3.404845581617845,3.9917531476492374,3031965944
sw,-83.0193862915039,-61.7698135375976,-20.74800689216275,2.830564419071704,3031982611
sw,-83.5880050659179,-61.0715141296386,-39.84359860407635,3.9149518484756407,3031999278
sw,-84.3813781738281,-60.9327201843261,-59.57466416230598,7.706854113372191,3032015945
sw,-85.7723312377929,-61.1151123046875,-78.49510074198905,14.303389403270568,3032032612
sw,-87.9342651367187,-61.544261932373,-95.07508919523569,23.278769151682532,3032049279
sw,-89.3045120239257,-62.3038253784179,-108.04724829144529,33.73779425118144,3032065946
sw,-86.3116226196289,-63.241096496582,-116.73968913522795,44.54550215450328,3032082613
sw,-83.4405822753906,-64.3189926147461,-121.26119341044077,54.630531889496375,3032099280
sw,-80.7218856811523,-65.5781097412109,-122.45471030589638,63.25010329096986,3032115947
sw,-78.1155700683593,-66.8441543579101,-121.6330195338339,70.13467762991473,3032132614
sw,-75.6146087646484,-68.1205062866211,-120.19666916549522,75.47899411677636,3032149281
sw,-73.2444152832031,-69.4151382446289,-119.26391959013617,79.796704539717,3032165948
sw,-70.9174346923828,-70.7893371582031,-119.41299110804081,83.69521886185146,3032182615
sw,-68.6125183105468,-72.1776275634765,-120.5801134392356,87.64583875161178,3032199282
sw,-66.3047714233398,-73.6454315185546,-122.10802862423789,91.81853684925629,3032215949
sw,-64.0905227661132,-75.2801132202148,-122.9148148932668,96.02552509257661,3032232616
sw,-61.803295135498,-77.0148773193359,-121.74568042841682,99.78238298690094,3032249283
sw,-59.4105148315429,-78.7893829345703,-117.46369519654283,102.46063202153728,3032265950
sw,-57.1749305725097,-80.5880813598632,-109.32100318645362,103.48144101678001,3032282617
sw,-55.4539985656738,-82.3665313720703,-97.14237947785638,102.49301551296627,3032299284
sw,-54.2476806640625,-84.0115280151367,-81.37012432551774,99.48379329531181,3032315951
sw,-53.3698768615722,-85.4274826049804,-62.96663905366165,94.8044721430508,3032332618
sw,-52.71138381958,-86.5728607177734,-43.22179614189489,89.09723638273353,3032349285
sw,-52.4423446655273,-87.2957153320312,-23.53358430878525,83.15279106083848,3032365952
sw,-52.4519844055175,-87.4101867675781,-5.215559412388795,77.72815379635541,3032382619
sw,-52.7239303588867,-86.913330078125,10.646470303915867,73.3590794760352,3032399286
sw,-53.2776985168457,-86.1496963500976,23.29004379356788,70.196446716516,3032415953
sw,-54.4296607971191,-85.3129959106445,32.3316803370621,67.89356561528209,3032432620
sw,-55.7045173645019,-84.4095306396484,37.78113707324021,65.57196584719786,3032449287
sw,-56.9507484436035,-83.5301361083984,40.00190382778493,61.8900388570835,3032465954
sw,-58.0020217895507,-82.7725677490234,39.61088912545704,55.22590844408898,3032482621
sw,-58.9131813049316,-82.067886352539,37.336335521740324,43.96377618305558,3032499288
sw,-59.7878684997558,-81.5269927978515,33.88127968640785,26.84624613359156,3032515955
sw,-60.5560340881347,-81.2722930908203,29.845346698682764,3.3283134417301463,3032532622
sw,-61.3306274414062,-81.3423385620117,25.731271452390903,-26.151680419119025,3032549289
sw,-62.319164276123,-81.8383407592773,22.015816275469785,-60.072467514311214,3032565956
sw,-63.3384017944335,-83.1665496826171,19.22160581657648,-95.96617661611495,3032582623
sw,-63.6228218078613,-85.4010848999023,17.91470249379641,-130.7989010009455,3032599290
sw,-63.4740829467773,-87.8691711425781,18.591672465037135,-161.52473384472393,3032615957
sw,-63.5889930725097,-86.8871841430664,21.496777284760494,-185.6703155504135,3032632624
sw,-64.1051330566406,-83.3930969238281,26.471945280627192,-201.7810993552071,3032649291
sw,-64.7907333374023,-79.9391708374023,32.93612358230091,-209.6022976893379,3032665958
sw,-65.7784957885742,-76.6680450439453,40.018918947352425,-209.96130401161028,3032682625
sw,-66.9119796752929,-73.4903030395507,46.792444963819285,-204.42035487947658,3032699292
sw,-68.0563049316406,-70.3689804077148,52.50669966147833,-194.83161839431958,3032715959
sw,-69.16796875,-67.3197937011718,56.74602155308313,-182.92848098931907,3032732626
sw,-70.3145751953125,-64.451301574707,59.4659129354175,-170.03941794679352,3032749293
sw,-71.5035171508789,-61.875129699707,60.91673867933303,-156.9515202348638,3032765960
sw,-72.6949310302734,-59.8118782043457,61.49708165811122,-143.91139279657682,3032782627
sw,-73.9253768920898,-57.4548225402832,61.596221446935765,-130.7372365734566,3032799294
sw,-75.1930847167968,-55.5706977844238,61.48057932359317,-117.01076409601875,3032815961
sw,-76.5119323730468,-53.7222023010253,61.25672436329433,-102.3056033459552,3032832628
sw,-77.8748092651367,-52.0934867858886,60.91148173921813,-86.39338919642958,3032849295
sw,-79.2002334594726,-50.9333305358886,60.398933269861566,-69.36659726269845,3032865962
sw,-80.4155883789062,-50.1710815429687,59.72660688049097,-51.64110568785535,3032882629
sw,-81.5275497436523,-50.1335716247558,58.99704401634041,-33.84923817449594,3032899296
sw,-82.5556640625,-50.3461608886718,58.38521479808987,-16.684962692934707,3032915963
sw,-83.5902023315429,-50.3858604431152,58.064998866489546,-0.7838305779567244,3032932630
sw,-84.6498718261718,-50.2821464538574,58.1220989578843,13.311718007424354,3032949297
sw,-85.7889938354492,-50.3327941894531,58.49468568796692,25.120925907874792,3032965964
sw,-86.9940414428711,-51.0298042297363,58.967270354065164,34.20185593875912,3032982631
sw,-88.1787643432617,-51.9828414916992,59.21823209465927,40.20517175710693,3032999298
sw,-89.2834548950195,-52.9991378784179,58.89993328960546,43.00739428776926,3033015965
sw,-89.4604110717773,-54.1399955749511,57.72054390842745,42.85453809610842,3033032632
sw,-88.4209518432617,-55.0596084594726,55.49920374458738,40.42040021937889,3033049299
sw,-87.4325790405273,-55.6182823181152,52.17695194818926,36.71619022220146,3033065966
sw,-86.5307312011718,-56.1334266662597,47.78092616879986,32.857772437052375,3033082633
sw,-85.732307434082,-56.461627960205,42.355524794330954,29.767213503422763,3033099300
sw,-84.9993133544921,-56.7430419921875,35.88697980026033,27.923701985466174,3033115967
sw,-84.4035720825195,-57.0669059753418,28.25194393447864,27.269012045966356,3033132634
sw,-84.0028915405273,-57.4750328063964,19.214673400474172,27.318708892921702,3033149301
sw,-83.7975234985351,-58.3166732788085,8.484141952217708,27.449562924538288,3033165968
sw,-83.7519149780273,-59.8643341064453,-4.174669414890378,27.251267337698817,3033182635
sw,-83.916145324707,-60.8683242797851,-18.800610080864228,26.782082961804843,3033199302
sw,-84.4701538085937,-60.837661743164,-35.1116688893582,26.593639175912898,3033215969
sw,-85.281005859375,-60.6094398498535,-52.45054017151932,27.500869509361316,3033232636
sw,-86.468032836914,-60.8078155517578,-69.8465697342105,30.213807298455276,3033249303
sw,-88.1644210815429,-61.5129699707031,-86.20584763993821,35.02199175655237,3033265970
sw,-88.0459594726562,-62.3727836608886,-100.58554810752753,41.67853783403768,3033282637
sw,-85.4509811401367,-63.2654075622558,-112.45430763020306,49.51292987919037,3033299304
sw,-82.5421981811523,-64.3800048828125,-121.82406963836884,57.69559619725586,3033315971
sw,-79.7666854858398,-65.8068008422851,-129.18407218000857,65.53215834502518,3033332638
sw,-77.0379333496093,-67.2183990478515,-135.2572683484937,72.67511470322833,3033349305
sw,-74.418586730957,-68.485969543457,-140.68118903134922,79.18232228941811,3033365972
sw,-71.9371490478515,-69.8546905517578,-145.74105392008522,85.40958572007624,3033382639
sw,-69.4306869506836,-71.2640533447265,-150.2446035825861,91.78411293875097,3033399306
sw,-66.8554992675781,-72.7706527709961,-153.55842884513945,98.54577809036249,3033415973
sw,-64.2905654907226,-74.3768997192382,-154.76826930802352,105.54976365483556,3033432640
sw,-61.692455291748,-76.1556701660156,-152.9032746447916,112.19959083848671,3033449307
sw,-59.0697517395019,-78.0848007202148,-147.16865596940048,117.53656801312782,3033465974
sw,-56.5332946777343,-80.0388565063476,-137.1412221107634,120.46405464338613,3033482641
sw,-54.4031867980957,-82.0473022460937,-122.88793727635962,120.04458843599545,3033499308
sw,-52.7388572692871,-83.9493560791015,-104.978160768504,115.78423289902402,3033515975
sw,-51.6843566894531,-85.2913131713867,-84.38811101312342,107.81754019175372,3033532642
sw,-51.0505676269531,-85.9152450561523,-62.33521139875734,96.93133033745526,3033549309
sw,-50.5041160583496,-85.9855575561523,-40.104452150583704,84.41318147858817,3033565976
sw,-50.2826995849609,-85.721450805664,-18.916834629821714,71.76689207267523,3033582643
sw,-50.3834342956543,-85.2951431274414,0.15129195211515656,60.379393198804046,3033599310
sw,-50.855484008789,-84.7527160644531,16.225606146991563,51.23312149982217,3033615977
sw,-51.737678527832,-84.0854721069336,28.698283563321663,44.73155920261172,3033632644
sw,-52.9160041809082,-83.3993988037109,37.30155509543705,40.65768333534792,3033649311
sw,-54.3814620971679,-82.8407821655273,42.159539492885564,38.24067314321073,3033665978
sw,-55.728458404541,-82.3778991699218,43.77613348592542,36.287478393039905,3033682645
sw,-56.9491882324218,-81.9460983276367,42.935197221165545,33.34589941271105,3033699312
sw,-58.0635681152343,-81.5183486938476,40.52712612984501,27.887368481690554,3033715979
sw,-59.1082649230957,-81.1953811645507,37.352119472480176,18.509921139441875,3033732646
sw,-59.831932067871,-81.0685348510742,33.96678796223931,4.157689213073776,3033749313
sw,-60.4173278808593,-81.1576232910156,30.631092609722497,-15.66154672377505,3033765980
sw,-61.2186393737793,-81.531509399414,27.380328514222754,-40.69658068781005,3033782647
sw,-62.4694900512695,-82.4482803344726,24.197819149361788,-69.8601251041836,3033799314
sw,-63.8251876831054,-84.0119857788086,21.210682144281975,-101.27365379073977,3033815981
sw,-64.4371490478515,-85.9134750366211,18.80191863260281,-132.4796818080604,3033832648
sw,-64.3200912475586,-87.3908309936523,17.560058239543213,-160.809218516243,3033849315
sw,-64.2923278808593,-85.8618545532226,18.073655912397204,-183.83992090715702,3033865982
sw,-64.5124053955078,-82.3140563964843,20.67138078351568,-199.83688217556542,3033882649
sw,-64.8654632568359,-78.6927185058593,25.24282725632147,-208.0545728453229,3033899316
sw,-65.7261886596679,-75.2857055664062,31.228981056186885,-208.81259098819837,3033915983
sw,-66.8048248291015,-72.076545715332,37.78229523463426,-203.33361702667898,3033932650
sw,-67.9653549194336,-68.9114837646484,44.02044412515697,-193.4101544740362,3033949317
sw,-69.0078659057617,-65.7047119140625,49.268197505399456,-181.00192410297026,3033965984
sw,-70.0340194702148,-62.8380699157714,53.20159566910272,-167.84923132417364,3033982651
sw,-71.0818405151367,-60.559886932373,55.860338781357896,-155.1536859959839,3033999318
sw,-72.1852798461914,-58.5055923461914,57.55006227112945,-143.36466065769756,3034015985
sw,-73.3526535034179,-56.6573143005371,58.69012638610869,-132.1190998263197,3034032652
sw,-74.5538253784179,-54.9331398010253,59.66502119054739,-120.38058253730054,3034049319
sw,-75.787612915039,-53.0106506347656,60.71797577679381,-106.7820286247947,3034065986
sw,-77.0318145751953,-51.0822296142578,61.901522146345556,-90.1006844151481,3034082653
sw,-78.2188644409179,-49.5273475646972,63.08394298859775,-69.72250111635415,3034099320
sw,-79.3863296508789,-48.8091087341308,64.00408542601775,-45.93417827450005,3034115987
sw,-80.6360702514648,-49.0342369079589,64.36318773504873,-19.940771998107078,3034132654
sw,-81.9739303588867,-49.6836433410644,63.93420017482014,6.379182257733766,3034149321
sw,-83.2881469726562,-50.4034805297851,62.65746499282289,30.86748479809028,3034165988
sw,-84.5015716552734,-51.0554580688476,60.68624988561517,51.48711191726305,3034182655
sw,-85.6272659301757,-52.0229339599609,58.35632033566962,66.63699853684247,3034199322
sw,-86.6237411499023,-53.2942848205566,56.080167111629564,75.35995437537524,3034215989
sw,-87.5206909179687,-54.9429168701171,54.19702055357986,77.45887377354576,3034232656
sw,-88.4422912597656,-56.7663383483886,52.82926831014708,73.52206556049983,3034249323
sw,-89.4492874145507,-58.29150390625,51.79469379432292,64.82993664203912,3034265990
sw,-89.5907440185546,-58.931583404541,50.60300846547953,53.120461084279896,3034282657
sw,-88.6180343627929,-59.2574806213378,48.535687715341545,40.24577639254316,3034299324
sw,-87.6716537475586,-59.525146484375,44.78418267829402,27.822092476228324,3034315991
sw,-86.768440246582,-59.9125366210937,38.61029325337102,17.000025447817617,3034332658
sw,-86.0545959472656,-60.1798553466796,29.492582921450158,8.432325544473086,3034349325
sw,-85.689338684082,-60.4988670349121,17.2312195949535,2.4187429629084813,3034365992
sw,-85.6098403930664,-61.3548316955566,1.998393834382828,-0.8784890702898881,3034382659
sw,-85.7632598876953,-61.6399383544921,-15.663527541842166,-1.2855303012473855,3034399326
sw,-86.3312530517578,-61.0919456481933,-34.88824623563834,1.3715208125322305,3034415993
sw,-87.2541961669921,-60.7249450683593,-54.574531631515804,7.101961578898213,3034432660
sw,-88.6705780029296,-60.7886238098144,-73.52338982949263,15.545763950528139,3034449327
sw,-89.0865783691406,-61.2949180603027,-90.62043341308922,25.877286059098243,3034465994
sw,-86.5108108520507,-62.1030845642089,-105.03236089842491,36.90460721293725,3034482661
sw,-83.5444259643554,-63.1655349731445,-116.35586537897011,47.34224451761231,3034499328
sw,-80.5455017089843,-64.3027725219726,-124.65345551909837,56.150739424156384,3034515995
sw,-77.6596374511718,-65.6212921142578,-130.34936864634307,62.814325958165334,3034532662
sw,-74.9500198364257,-66.8397369384765,-134.02304219373073,67.4599669271878,3034549329
sw,-72.4402923583984,-67.9273300170898,-136.18640992488093,70.78202578516803,3034565996
sw,-69.9608535766601,-69.0651779174804,-137.1315484539325,73.80228582694468,3034582663
sw,-67.4793090820312,-70.3137893676757,-136.88891226040855,77.54413157951078,3034599330
sw,-65.0536193847656,-71.6788711547851,-135.2780753476892,82.7176378456571,3034615997
sw,-62.7473983764648,-73.1430282592773,-132.000655450705,89.49798924934228,3034632664
sw,-60.5551071166992,-74.7019424438476,-126.73159762654088,97.44645725205419,3034649331
sw,-58.468017578125,-76.4086074829101,-119.19263539250261,105.58694873578288,3034665998
sw,-56.5198669433593,-78.261978149414,-109.21299092547828,112.61912615423152,3034682665
sw,-54.8521041870117,-80.2950363159179,-96.7837704394056,117.22105132737632,3034699332
sw,-53.5061264038085,-82.4466476440429,-82.10112441925847,118.37106871846117,3034715999
sw,-52.5376205444335,-84.3720397949218,-65.58453528604001,115.60744656917277,3034732666
sw,-52.0157241821289,-85.8117980957031,-47.859521007880055,109.15537631884875,3034749333
sw,-51.8050727844238,-86.6879119873046,-29.706102501780393,99.88671186565831,3034766000
sw,-51.8665122985839,-86.8363418579101,-11.985834913611173,89.12481826492153,3034782667
sw,-52.104434967041,-86.335952758789,4.438020972366646,78.34356002397175,3034799334
sw,-52.6061973571777,-85.6225204467773,18.780423803825872,68.82534613013111,3034816001
sw,-53.6499557495117,-84.9542617797851,30.413850507420776,61.345369961267316,3034832668
sw,-55.0310363769531,-84.3396072387695,38.93954801512517,55.94732635092862,3034849335
sw,-56.3369903564453,-83.7154998779296,44.22963582566971,51.86739456394484,3034866002
sw,-57.529685974121,-83.0384368896484,46.41849672830493,47.63885405883595,3034882669
sw,-58.7204055786132,-82.2918243408203,45.84455051347909,41.368785954829576,3034899336
sw,-59.805320739746,-81.6601409912109,42.973081238290355,31.134084516548814,3034916003
sw,-60.6967086791992,-81.2965621948242,38.34189072875573,15.41417251456479,3034932670
sw,-61.4414710998535,-81.2480163574218,32.55550578671919,-6.528241848237601,3034949337
sw,-62.3118286132812,-81.4728164672851,26.320382287553837,-34.39381546809713,3034966004
sw,-63.4583587646484,-82.2360076904296,20.478133144657473,-66.77489620798976,3034982671
sw,-64.0992126464843,-83.6544876098632,15.97406837294378,-101.29537787882369,3034999338
sw,-63.8975410461425,-85.5748214721679,13.716780678894128,-134.9589837801228,3035016005
sw,-63.7042274475097,-87.191047668457,14.348923758837916,-164.65750462056297,3035032672
sw,-63.8345718383789,-85.8809661865234,18.024618421079342,-187.74116190087,3035049339
sw,-64.3148422241211,-82.4702758789062,24.31255948062793,-202.51876529152102,3035066006
sw,-65.2131118774414,-78.9633865356445,32.28847247949005,-208.55622335126066,3035082673
sw,-66.3455657958984,-75.5847244262695,40.78608428660076,-206.68998609718457,3035099340
sw,-67.6141052246093,-72.333137512207,48.7070668046571,-198.75637806601225,3035116007
sw,-68.8480987548828,-69.330696105957,55.278829654821344,-187.12221518314587,3035132674
sw,-70.0493927001953,-66.500747680664,60.18374657086988,-174.14779046377254,3035149341
sw,-71.3112487792968,-63.8185920715332,63.53792298525166,-161.70849989464529,3035166008
sw,-72.6262664794921,-61.4619903564453,65.7485286339261,-150.86421905441543,3035182675
sw,-73.9931488037109,-59.1502990722656,67.31038801732075,-141.72212879237838,3035199342
sw,-75.3469924926757,-56.9539451599121,68.61003126335129,-133.50327223059946,3035216009
sw,-76.7359237670898,-55.1714401245117,69.79376996412932,-124.79515143125076,3035232676
sw,-78.196304321289,-53.0842628479003,70.73310585723495,-113.94508135443644,3035249343
sw,-79.660774230957,-51.103832244873,71.09129396922641,-99.51736433393421,3035266010
sw,-81.0828018188476,-49.4371757507324,70.46500059642196,-80.70835638002087,3035282677
sw,-82.4881210327148,-48.5405616760253,68.55290303423051,-57.609242386553554,3035299344
sw,-83.8426666259765,-48.363597869873,65.29580330623443,-31.2478731615099,3035316011
sw,-85.0729598999023,-48.6470146179199,60.94243898695303,-3.418069273065619,3035332678
sw,-86.1796646118164,-49.0795097351074,56.01859377807398,23.627830521524423,3035349345
sw,-87.1633071899414,-49.5999298095703,51.20727574688103,47.531594407663846,3035366012
sw,-88.0194015502929,-50.5827980041503,47.17484569775222,66.16938423456351,3035382679
sw,-88.7320556640625,-51.9155731201171,44.39281152018614,77.96307519728397,3035399346
sw,-89.2402420043945,-53.4987030029296,43.00331810563267,82.15158737800428,3035416013
sw,-89.0450973510742,-55.6790428161621,42.76073486919584,78.97878620617122,3035432680
sw,-88.3605194091796,-57.3536300659179,43.05963071189288,69.72060638079407,3035449347
sw,-87.5724716186523,-58.1774063110351,43.03899598971229,56.48430043150474,3035466014
sw,-86.7599716186523,-58.6330413818359,41.7384954472574,41.78534319462316,3035482681
sw,-85.9111709594726,-58.8116302490234,38.274681147576004,28.01027772334583,3035499348
sw,-85.0440979003906,-58.8837394714355,32.001483759410355,16.940484004583222,3035516015
sw,-84.3722152709961,-58.8892440795898,22.620618702254525,9.496075801940476,3035532682
sw,-84.1153717041015,-59.0574722290039,10.21802549382293,5.768824804913482,3035549349
sw,-84.170051574707,-60.1482849121093,-4.776041927601667,5.293409361347938,3035566016
sw,-84.5004653930664,-60.9617881774902,-21.68112300911598,7.4095413501648775,3035582683
sw,-85.2724609375,-60.7869567871093,-39.67967750779613,11.540791500129384,3035599350
sw,-86.3238449096679,-60.7292556762695,-57.91947368416037,17.282367739421886,3035616017
sw,-87.8042984008789,-60.8529090881347,-75.59162384296802,24.314628559673103,3035632684
sw,-89.7753143310546,-61.2750205993652,-91.98406912100431,32.257059552651555,3035649351
sw,-87.5154113769531,-62.046272277832,-106.51430233979356,40.58697384315038,3035666018
sw,-84.6171493530273,-62.9460182189941,-118.74370669372169,48.68136648356396,3035682685
sw,-81.5860443115234,-64.0992584228515,-128.37800756847315,55.957706187007545,3035699352
sw,-78.5763854980468,-65.4667663574218,-135.2661217563725,62.036696360315155,3035716019
sw,-75.745620727539,-66.719009399414,-139.41275938791645,66.84234410258135,3035732686
sw,-72.9758758544921,-67.7745513916015,-141.00615782239493,70.58709063044944,3035749353
sw,-70.2769088745117,-68.8008270263671,-140.43438747286805,73.64629826906108,3035766020
sw,-67.7369003295898,-69.9084243774414,-138.24403555994107,76.38056697208017,3035782687
sw,-65.3538284301757,-71.1614151000976,-135.00862872610625,78.98752647224023,3035799354
sw,-63.2231140136718,-72.5284576416015,-131.1247334849536,81.44515638355757,3035816021
sw,-61.2714881896972,-74.0441284179687,-126.61446647971113,83.56034496099632,3035832688
sw,-59.3003921508789,-75.6747436523437,-121.04162702660801,85.08686855998292,3035849355
sw,-57.2471084594726,-77.1989822387695,-113.61617993196181,85.84941421620542,3035866022
sw,-55.3760566711425,-78.5698699951171,-103.47733140466624,85.81504789326257,3035882689
sw,-53.7948760986328,-79.774055480957,-90.05496321437184,85.08667920898336,3035899356
sw,-52.6425743103027,-80.9341735839843,-73.36585296271093,83.83655467124863,3035916023
sw,-51.8981475830078,-82.0839157104492,-54.12781332007068,82.22664248602888,3035932690
sw,-51.6621665954589,-83.2653656005859,-33.652715343452115,80.36060748026651,3035949357
sw,-51.8285255432128,-84.3723831176757,-13.566378691520912,78.28314105688108,3035966024
sw,-52.2152786254882,-85.227554321289,4.540079373008355,76.00783075682165,3035982691
sw,-52.7251319885253,-85.7369918823242,19.417168403617296,73.53668154731571,3035999358
sw,-53.4456405639648,-85.8469696044921,30.350199232222284,70.84164720411879,3036016025
sw,-54.6525344848632,-85.6017227172851,37.21861518750524,67.80361908403668,3036032692
sw,-55.7783584594726,-85.1492156982421,40.43648928829483,64.13154569215168,3036049359
sw,-56.8936309814453,-84.6152267456054,40.801704309849036,59.30053741164292,3036066026
sw,-57.8592109680175,-84.0312347412109,39.28776419751513,52.547693528462695,3036082693
sw,-58.8423881530761,-83.4503097534179,36.823947871354996,42.94982356153352,3036099360
sw,-59.7724876403808,-83.0146102905273,34.118626962599684,29.584284285270385,3036116027
sw,-60.5115356445312,-82.7983245849609,31.5740604723845,11.75018232348183,3036132694
sw,-61.170970916748,-82.8799362182617,29.31674201340711,-10.792473488322738,3036149361
sw,-62.151512145996,-83.2614364624023,27.331111981559303,-37.62155541690771,3036166028
sw,-63.6124954223632,-84.1099777221679,25.64230331404079,-67.55097170189563,3036182695
sw,-64.7776641845703,-85.4317245483398,24.458848512250714,-98.68196310634987,3036199362
sw,-64.9497146606445,-86.9159317016601,24.187541411290226,-128.63400409611745,3036216029
sw,-64.9241485595703,-86.8993453979492,25.292737605033228,-154.93436126557717,3036232696
sw,-65.2132415771484,-84.4130401611328,28.067245217400785,-175.48819614281106,3036249363
sw,-65.842056274414,-80.8529052734375,32.442552379636695,-189.00518779070592,3036266030
sw,-66.6596069335937,-77.3030242919921,37.94413710648948,-195.2499192918603,3036282697
sw,-67.8168411254882,-74.0662078857421,43.815339786649524,-195.02869694716543,3036299364
sw,-69.1534957885742,-71.0662689208984,49.25221547649088,-189.91501625960728,3036316031
sw,-70.4485626220703,-68.125,53.65138503435048,-181.8078326062194,3036332698
sw,-71.6135787963867,-65.1987152099609,56.776644126133405,-172.46205164106115,3036349365
sw,-72.7929306030273,-62.4763412475585,58.78746026177898,-163.11164780808178,3036366032
sw,-73.9737396240234,-60.0445365905761,60.12851868229665,-154.2499258207251,3036382699
sw,-75.1460342407226,-57.781753540039,61.33168864227411,-145.58206927994573,3036399366
sw,-76.3645553588867,-55.7812767028808,62.808392887925386,-136.14276449655696,3036416033
sw,-77.6663436889648,-54.0778121948242,64.70414122400095,-124.56482254885961,3036432700
sw,-79.0663223266601,-52.1818046569824,66.85660906883139,-109.46964761260251,3036449367
sw,-80.4846725463867,-50.2476501464843,68.8597608413229,-89.91426061577654,3036466034
sw,-81.8863067626953,-48.8913269042968,70.20369372236102,-65.78467246532323,3036482701
sw,-83.313491821289,-48.2900047302246,70.441784325054,-38.00783915602584,3036499368
sw,-84.7652816772461,-48.3930702209472,69.3343550857937,-8.49551797724475,3036516035
sw,-86.1069030761718,-49.1011734008789,66.92772649662245,20.176863880694942,3036532702
sw,-87.3004913330078,-50.025291442871,63.54589992598454,45.26407095263877,3036549369
sw,-88.3369369506836,-51.2127151489257,59.69695722839979,64.38295921859114,3036566036
sw,-89.167724609375,-52.6181259155273,55.92220791041411,75.95988472608516,3036582703
sw,-89.2279815673828,-53.9638977050781,52.63386339808226,79.51183652940085,3036599370
sw,-88.4927291870117,-56.0792427062988,49.988911399548016,75.71786280667109,3036616037
sw,-87.547607421875,-57.6873054504394,47.832302148500695,66.2633643333915,3036632704
sw,-86.5643615722656,-58.2259635925293,45.71813659154939,53.470847756797276,3036649371
sw,-85.6560287475586,-58.7145347595214,42.993721216062774,39.78780388501591,3036666038
sw,-84.784553527832,-59.0013389587402,38.917637861618,27.270412471654552,3036682705
sw,-84.0163040161132,-59.2199478149414,32.78276008315163,17.227867712051953,3036699372
sw,-83.3976440429687,-59.269676208496,24.02461930754989,10.140311442265839,3036716039
sw,-83.06884765625,-59.7085838317871,12.308305129439743,5.853909809011821,3036732706
sw,-82.9987411499023,-61.0109062194824,-2.402339314039861,3.9420273828910757,3036749373
sw,-83.1108627319336,-61.4857444763183,-19.78721712803203,4.052163890090381,3036766040
sw,-83.6370849609375,-60.9118309020996,-39.12953878251986,6.074477989883906,3036782707
sw,-84.5303421020507,-60.7407913208007,-59.31893095691809,10.076380459244731,3036799374
sw,-85.9014129638671,-60.9269485473632,-78.93845814302239,16.08779588862469,3036816041
sw,-87.9093170166015,-61.2733154296875,-96.46277163681015,23.895814113318607,3036832708
sw,-88.9876022338867,-61.8863639831543,-110.54921006321042,32.97399618069171,3036849375
sw,-86.2489242553711,-62.7861671447753,-120.34570322056062,42.57664595313807,3036866042
sw,-83.2739028930664,-63.9521827697753,-125.70614300406382,51.941899518462854,3036882709
sw,-80.3746719360351,-65.2203063964843,-127.22442492425834,60.50492199782956,3036899376
sw,-77.560676574707,-66.39599609375,-126.06657423021046,68.02715694617429,3036916043
sw,-74.9175338745117,-67.6111145019531,-123.65674614461783,74.58967549913501,3036932710
sw,-72.5269699096679,-68.9372329711914,-121.3162659595879,80.45847999687894,3036949377
sw,-70.1110153198242,-70.2535324096679,-119.95236284530377,85.88084951661088,3036966044
sw,-67.6469192504882,-71.6838226318359,-119.86125279455108,90.89514696623242,3036982711
sw,-65.2671661376953,-73.1694869995117,-120.67382813138413,95.22842064572366,3036999378
sw,-62.9205780029296,-74.7561569213867,-121.44593317747052,98.32422552871746,3037016045
sw,-60.4610137939453,-76.5671768188476,-120.87648314891983,99.49815404281041,3037032712
sw,-58.0155181884765,-78.3617935180664,-117.61398498152683,98.17299022278341,3037049379
sw,-55.7524833679199,-80.0934677124023,-110.58321677045522,94.11414531402207,3037066046
sw,-53.9764747619628,-81.5296630859375,-99.24617199123396,87.58280258304943,3037082713
sw,-52.6086807250976,-82.7517547607421,-83.72680753845206,79.35243005708374,3037099380
sw,-51.7072105407714,-83.7614974975586,-64.77839905774343,70.58162605574537,3037116047
sw,-51.0616493225097,-84.5670013427734,-43.628548833217614,62.58090683356158,3037132714
sw,-50.85400390625,-85.243423461914,-21.76733593370891,56.53605116827351,3037149381
sw,-50.8948326110839,-85.7357559204101,-0.7366976430591053,53.252160579236445,3037166048
sw,-51.1314811706543,-86.0536499023437,18.051414194218683,52.96739112403505,3037182715
sw,-52.0189704895019,-86.1686096191406,33.46734156640652,55.263527336547256,3037199382
sw,-53.4228515625,-86.0087966918945,44.78861190268084,59.080731415651606,3037216049
sw,-54.7355995178222,-85.6146087646484,51.78018264700853,62.83034878306963,3037232716
sw,-56.2313385009765,-85.0788421630859,54.69667500384984,64.59238677753476,3037249383
sw,-57.5150146484375,-84.4429702758789,54.186075983225955,62.37961725306513,3037266050
sw,-58.5542373657226,-83.6972732543945,51.11424971807436,54.44344984659653,3037282717
sw,-59.4486351013183,-83.0140533447265,46.370329702510666,39.58503847066862,3037299384
sw,-60.1379051208496,-82.6638259887695,40.728553792134036,17.421666632436246,3037316051
sw,-60.9382438659668,-82.6399002075195,34.81904643057298,-11.447540198015462,3037332718
sw,-62.224323272705,-82.9865341186523,29.201617224726238,-45.423466036692005,3037349385
sw,-63.5267143249511,-83.9821014404296,24.46883178754064,-82.0600006491048,3037366052
sw,-63.8671951293945,-85.4711303710937,21.273676186376125,-118.37997754500617,3037382719
sw,-63.7114448547363,-86.5141220092773,20.219967339670994,-151.31054054742916,3037399386
sw,-63.8594970703125,-85.4242782592773,21.65326425587531,-178.1624566714619,3037416053
sw,-64.2585220336914,-82.606819152832,25.472212516173077,-197.06003676312037,3037432720
sw,-64.8568801879882,-78.9919662475586,31.079342277471174,-207.2314448017856,3037449387
sw,-65.9960861206054,-75.243667602539,37.51281855661849,-209.09163732062024,3037466054
sw,-67.2495193481445,-71.821418762207,43.70833217407506,-204.0892922015168,3037482721
sw,-68.4214096069336,-68.7391510009765,48.78698136737282,-194.3438958742391,3037499388
sw,-69.5024871826171,-65.9308013916015,52.265519175597255,-182.1581992711616,3037516055
sw,-70.5681533813476,-63.034423828125,54.126724211986584,-169.5273867589324,3037532722
sw,-71.6415939331054,-60.3376312255859,54.74572429248574,-157.75775398993773,3037549389
sw,-72.7181930541992,-58.0704040527343,54.71755872045362,-147.26312369306336,3037566056
sw,-73.8133773803711,-55.9380912780761,54.65515971597807,-137.55885039608623,3037582723
sw,-74.968994140625,-54.0765266418457,55.022509455376166,-127.44307914255032,3037599390
sw,-76.2019577026367,-52.2942276000976,56.043039016733374,-115.33654178624793,3037616057
sw,-77.4634628295898,-50.4761962890625,57.690579597781536,-99.72757874049395,3037632724
sw,-78.6791458129882,-48.8420906066894,59.74239179482343,-79.63434947674212,3037649391
sw,-79.8443527221679,-47.7052268981933,61.861483364431315,-54.96893850723498,3037666058
sw,-80.9968948364257,-47.3299179077148,63.680611090378825,-26.694663200504394,3037682725
sw,-82.195686340332,-47.4996719360351,64.87453240834296,3.2795642433192524,3037699392
sw,-83.4441452026367,-48.2263069152832,65.2177770325934,32.44349566216127,3037716059
sw,-84.7091293334961,-49.2679977416992,64.62592762269388,58.17385938021364,3037732726
sw,-85.9737243652343,-50.6113014221191,63.172438199145084,78.241769888529,3037749393
sw,-87.1113357543945,-52.1141967773437,61.0691250937978,91.22600424598029,3037766060
sw,-88.0497665405273,-54.1116065979003,58.60340595804339,96.75309381521694,3037782727
sw,-88.4419174194336,-56.2478790283203,56.039080108986965,95.5207179474466,3037799394
sw,-88.0411529541015,-57.9360275268554,53.50324692035589,89.09409152461033,3037816061
sw,-87.3135070800781,-59.0314407348632,50.89167861533484,79.50908212264386,3037832728
sw,-86.5649871826171,-60.0527725219726,47.82477811087387,68.7752634366858,3037849395
sw,-85.8421630859375,-60.7607269287109,43.67712989775659,58.42185452610761,3037866062
sw,-85.0865783691406,-61.3711357116699,37.687335529172785,49.232151952501354,3037882729
sw,-84.3901062011718,-61.8510665893554,29.132777414132185,41.2544182979075,3037899396
sw,-83.9300842285156,-62.9055633544921,17.531113910916076,34.077910410047444,3037916063
sw,-83.6620025634765,-64.5578460693359,2.8160593662310296,27.25561145323766,3037932730
sw,-83.7035293579101,-65.203628540039,-14.563358101239238,20.68431078807541,3037949397
sw,-84.0985107421875,-64.9133758544921,-33.65448306035571,14.767003828453953,3037966064
sw,-84.814468383789,-64.794204711914,-53.133607380231574,10.294359662553354,3037982731
sw,-86.304931640625,-64.8822708129882,-71.54105962906854,8.127204946580711,3037999398
sw,-88.2733078002929,-65.0912704467773,-87.56950169837722,8.843659937467383,3038016065
sw,-89.0389709472656,-65.0929336547851,-100.32970465943598,12.496622094013667,3038032732
sw,-86.6095657348632,-65.30029296875,-109.51278905450151,18.554791993955508,3038049399
sw,-83.9274673461914,-65.9030075073242,-115.39630667920463,26.029865120330307,3038066066
sw,-81.5476684570312,-66.7143096923828,-118.69667739351848,33.74105418640459,3038082733
sw,-79.1628952026367,-67.5334320068359,-120.32784494641908,40.63306841633659,3038099400
sw,-76.6166534423828,-68.3590621948242,-121.15602984519123,46.05178087223406,3038116067
sw,-74.1485824584961,-69.2866668701171,-121.824421208275,49.90076807439379,3038132734
sw,-71.6909790039062,-70.2578506469726,-122.67031016191959,52.64221510059981,3038149401
sw,-69.2297744750976,-71.2244567871093,-123.70960797218235,55.14770083199024,3038166068
sw,-66.8806610107421,-72.2036361694336,-124.65325192233972,58.43689945549814,3038182735
sw,-64.5394973754882,-73.2003326416015,-124.94375332697916,63.365287296071344,3038199402
sw,-62.139045715332,-74.1920623779296,-123.82711008395005,70.33649400647619,3038216069
sw,-59.8477592468261,-75.3365859985351,-120.47786919248853,79.11698062677192,3038232736
sw,-57.6517295837402,-76.7143783569336,-114.17025643213631,88.81402772360907,3038249403
sw,-55.8994064331054,-78.3585433959961,-104.45610595851682,98.04006250630171,3038266070
sw,-54.3454284667968,-80.2067794799804,-91.2960176202894,105.23360705479607,3038282737
sw,-53.1024589538574,-82.1715087890625,-75.10395789867387,109.05561379820854,3038299404
sw,-52.2278671264648,-84.0422744750976,-56.696968183880706,108.74887574022185,3038316071
sw,-51.7916259765625,-85.5220642089843,-37.172055297609084,104.35103308837364,3038332738
sw,-51.609619140625,-86.3448410034179,-17.74885886452863,96.6904838322393,3038349405
sw,-51.5565452575683,-86.4597244262695,0.3850861111256219,87.1583501706748,3038366072
sw,-51.9147567749023,-86.1433410644531,16.20579688951552,77.31748875136225,3038382739
sw,-52.8609466552734,-85.6220779418945,28.956246726289,68.45812842875739,3038399406
sw,-53.8893394470214,-85.0588989257812,38.21785321370728,61.223950455423456,3038416073
sw,-55.0347671508789,-84.499755859375,43.9361168177672,55.41067513394969,3038432740
sw,-56.224266052246,-83.865249633789,46.385582235273574,49.990511372967276,3038449407
sw,-57.1594085693359,-83.1236801147461,46.07735065389234,43.354047182624534,3038466074
sw,-58.1437149047851,-82.3978805541992,43.637810360970406,33.70308762633216,3038482741
sw,-59.0194473266601,-81.9490661621093,39.70202752337351,19.492212805421083,3038499408
sw,-59.7935523986816,-81.8773803710937,34.85946990958148,-0.18403466704651128,3038516075
sw,-60.5492324829101,-82.1437225341796,29.664894380348755,-25.332273084522903,3038532742
sw,-61.7358283996582,-82.7938842773437,24.69284971548511,-54.965960695181565,3038549409
sw,-62.9913024902343,-84.0110702514648,20.583158870782828,-87.18557329111205,3038566076
sw,-63.4710235595703,-85.5773391723632,18.014480576712522,-119.4291950929855,3038582743
sw,-63.3849487304687,-86.923110961914,17.573940903178134,-148.87251259838175,3038599410
sw,-63.3870658874511,-86.072998046875,19.560973850856044,-172.9245698359533,3038616077
sw,-63.747085571289,-82.9468688964843,23.827103909068214,-189.721520681201,3038632744
sw,-64.2712173461914,-79.2915420532226,29.75344959304991,-198.48898117543035,3038649411
sw,-65.1650314331054,-75.8814392089843,36.398296981095754,-199.65675220375977,3038666078
sw,-66.3541717529296,-72.7637710571289,42.76100248176343,-194.6813111803941,3038682745
sw,-67.6444778442382,-69.802375793457,48.06041993178173,-185.63351540230596,3038699412
sw,-68.8236541748046,-66.9305648803711,51.92952525821086,-174.6845964840401,3038716079
sw,-69.9200286865234,-64.1442184448242,54.466826979866546,-163.6331276674471,3038732746
sw,-71.0154266357421,-61.6083488464355,56.13946746858397,-153.56916034653827,3038749413
sw,-72.1226577758789,-59.3635635375976,57.583502292989756,-144.7133133583897,3038766080
sw,-73.2980499267578,-57.2923278808593,59.37498797297986,-136.43369247748126,3038782747
sw,-74.5395202636718,-55.5887413024902,61.842689939947896,-127.43361592727214,3038799414
sw,-75.8545379638671,-53.8654327392578,64.96746546022268,-116.09510485192946,3038816081
sw,-77.2587738037109,-51.8269805908203,68.38144628314949,-100.93428159327185,3038832748
sw,-78.6935195922851,-49.9837760925293,71.45517705246029,-81.0741828118078,3038849415
sw,-80.1152725219726,-48.795669555664,73.44686836228371,-56.59792631038078,3038866082
sw,-81.5699081420898,-48.5206031799316,73.68185548077854,-28.6554389192999,3038882749
sw,-83.0600814819336,-49.0511894226074,71.72721597928319,0.722309632432037,3038899416
sw,-84.4433135986328,-49.9876976013183,67.52444210745712,29.034044979319347,3038916083
sw,-85.6168441772461,-50.9765434265136,61.445835671581946,53.798654977065645,3038932750
sw,-86.6883773803711,-52.0138511657714,54.25324561235375,72.98147996292617,3038949417
sw,-87.7403411865234,-53.4042053222656,46.959879106529456,85.27686040308846,3038966084
sw,-88.6309814453125,-55.0953140258789,40.61883452789024,90.23798267851367,3038982751
sw,-89.3382568359375,-56.992015838623,36.07891365991637,88.2759404103458,3038999418
sw,-90.0,-58.87744140625,33.758872927838816,80.54201066850946,3039016085
sw,-89.7609710693359,-59.9491500854492,33.49533470074973,68.69827258587688,3039032752
sw,-89.1625671386718,-60.730785369873,34.51170944651679,54.60417302779455,3039049419
sw,-88.4622650146484,-61.2378311157226,35.53096035477913,39.992722491180515,3039066086
sw,-87.62109375,-61.5273475646972,35.01779126983063,26.237501726493303,3039082753
sw,-86.7639083862304,-61.7841644287109,31.498441236886855,14.28513619480483,3039099420
sw,-86.1176376342773,-62.4009284973144,23.883488949281553,4.751654606350586,3039116087
sw,-85.7420959472656,-63.3402671813964,11.719546798315262,-1.9054483930061867,3039132754
sw,-85.6183624267578,-63.4117927551269,-4.683862860021402,-5.272811210648796,3039149421
sw,-85.9021301269531,-62.6347770690918,-24.27812626651868,-5.02159061278966,3039166088
sw,-86.6541442871093,-62.1296005249023,-45.4505165783647,-1.0893587704493575,3039182755
sw,-88.0762405395507,-62.100040435791,-66.32569781519733,6.120933433441722,3039199422
sw,-89.5697631835937,-62.645580291748,-85.13649115336906,15.67326614153287,3039216089
sw,-86.8223876953125,-63.2720947265625,-100.57106541351153,26.231145649713934,3039232756
sw,-84.0113983154296,-63.9546546936035,-111.99099486386923,36.34726792859304,3039249423
sw,-81.3309555053711,-64.7743759155273,-119.45213593329642,44.80121243754199,3039266090
sw,-78.6821670532226,-65.8786849975586,-123.54129948311181,50.87638030550758,3039282757
sw,-76.0701065063476,-66.9100875854492,-125.1170985748201,54.50384738997251,3039299424
sw,-73.5990524291992,-67.8117446899414,-125.0618235940213,56.24394222483766,3039316091
sw,-71.2460556030273,-68.6919860839843,-124.10812593628256,57.117846759915864,3039332758
sw,-68.9468307495117,-69.6228256225586,-122.7434838372832,58.33809144781484,3039349425
sw,-66.7197189331054,-70.66552734375,-121.16419166984596,61.00803413975655,3039366092
sw,-64.5543441772461,-71.7849502563476,-119.25991064609244,65.85890595265543,3039382759
sw,-62.3772430419921,-72.9203491210937,-116.63535457377131,73.07497824904638,3039399426
sw,-60.2111930847168,-74.2331466674804,-112.68733590068754,82.23553023998237,3039416093
sw,-58.1621971130371,-75.7381973266601,-106.74208144160997,92.38252198728127,3039432760
sw,-56.4741783142089,-77.4547042846679,-98.23066066433952,102.20254231696399,3039449427
sw,-55.1019248962402,-79.3630905151367,-86.85939492504352,110.28851150024356,3039466094
sw,-53.9813041687011,-81.3927154541015,-72.72947078611158,115.4257465436247,3039482761
sw,-53.1775016784668,-83.3053207397461,-56.374048069857935,116.83770835575149,3039499428
sw,-52.6198806762695,-84.9182815551757,-38.70280203480775,114.33545317929992,3039516095
sw,-52.4212989807128,-86.151626586914,-20.865825517035155,108.33946613173816,3039532762
sw,-52.5459213256835,-86.64794921875,-4.067761585916203,99.77277502663225,3039549429
sw,-53.0645332336425,-86.3223571777343,10.624488376175407,89.84916139685407,3039566096
sw,-53.7040786743164,-85.6544952392578,22.436006397903107,79.79765325420783,3039582763
sw,-54.6470260620117,-84.9893722534179,30.968286952823384,70.57842498749966,3039599430
sw,-55.7017593383789,-84.3542022705078,36.20423901740544,62.65437477021195,3039616097
sw,-56.8297653198242,-83.6198577880859,38.44564784020316,55.87643547632934,3039632764
sw,-57.8048820495605,-82.7713470458984,38.20789478613853,49.51164016867032,3039649431
sw,-58.7717361450195,-82.0300598144531,36.100766985811504,42.40044933116633,3039666098
sw,-59.6851844787597,-81.471939086914,32.72302364633177,33.1967349748196,3039682765
sw,-60.417984008789,-81.1336212158203,28.59383806715423,20.636821892872874,3039699432
sw,-60.9164962768554,-81.0495910644531,24.136308480150884,3.7981006135499173,3039716099
sw,-61.4606437683105,-81.2064132690429,19.71586070604289,-17.677508515424034,3039732766
sw,-62.4608459472656,-81.6616287231445,15.715799912884071,-43.419743621994996,3039749433
sw,-63.4426155090332,-82.5661087036132,12.604116694124139,-72.2618637982317,3039766100
sw,-63.7823486328125,-83.9282073974609,10.92921921432368,-102.31124434918802,3039782767
sw,-63.6784706115722,-85.6778564453125,11.20787475153995,-131.1878736687575,3039799434
sw,-63.6262168884277,-87.2537689208984,13.738055305310063,-156.41902356152838,3039816101
sw,-63.9870147705078,-86.1328430175781,18.43385631114394,-175.91904740885417,3039832768
sw,-64.6954879760742,-82.8545227050781,24.7814608479201,-188.42882628904215,3039849435
sw,-65.6931686401367,-79.4468765258789,31.94995481748684,-193.77275551700103,3039866102
sw,-66.8669357299804,-76.3554229736328,39.01086396619439,-192.83732080511987,3039882769
sw,-68.1320495605468,-73.4053955078125,45.17791532751362,-187.2748893763706,3039899436
sw,-69.3306045532226,-70.5804672241211,49.98442668598672,-179.03868037622243,3039916103
