Label,Left_Hip_q,Right_Hip_q,Left_Hip_qd,Right_Hip_qd,SampleTimeFine
sw,-77.4364547729492,-72.8727951049804,120.617614746093,-214.065536499023,3515496506
sw,-79.0716400146484,-69.2532272338867,99.24924523321704,-201.1837568935983,3515513173
sw,-80.5412368774414,-65.9571228027343,112.89479211031977,-191.8901538735239,3515529840
sw,-82.1497268676757,-62.7868576049804,122.74728757847072,-180.19258662127308,3515546507
sw,-83.9505615234375,-60.1508827209472,125.82154158842759,-164.4527416459972,3515563174
sw,-85.3547668457031,-57.5651550292968,120.58063101912623,-144.08697860176366,3515579841
sw,-85.662612915039,-55.5039176940918,107.34982052659633,-119.7059055518597,3515596508
sw,-84.7435684204101,-54.162425994873,88.33653421414434,-92.94379245062896,3515613175
sw,-84.1363296508789,-53.313850402832,67.15903759658732,-66.02323243366617,3515629842
sw,-84.3406143188476,-52.9724578857421,47.93674615078695,-41.176400923034834,3515646509
sw,-84.7904205322265,-52.9850883483886,34.18504645953986,-20.08622192645254,3515663176
sw,-84.9953155517578,-53.2733306884765,27.878582798321723,-3.503771246623447,3515679843
sw,-84.8052978515625,-53.6103935241699,29.010649491620843,8.853733558181766,3515696510
sw,-84.1862182617187,-53.9074325561523,35.78683055595221,18.10080012300917,3515713177
sw,-82.9542160034179,-54.0146446228027,45.34296458920831,25.744344175319256,3515729844
sw,-81.2240753173828,-54.0148658752441,54.687339179023034,33.15262250953452,3515746511
sw,-79.9258117675781,-54.1607589721679,61.51136571780401,41.117059132463496,3515763178
sw,-79.2503967285156,-54.9658660888671,64.60755886841044,49.66498233736889,3515779845
sw,-78.802734375,-56.5631484985351,63.83052280089049,58.1821113999367,3515796512
sw,-78.1508102416992,-58.268814086914,59.73523150939592,65.76672117291362,3515813179
sw,-77.2923965454101,-59.6640396118164,53.12374097081163,71.63591418787284,3515829846
sw,-76.3568496704101,-60.6369171142578,44.69183722934143,75.40318761133,3515846513
sw,-75.6417465209961,-61.7481498718261,34.847793379017794,77.14381260025355,3515863180
sw,-75.2134170532226,-62.8244361877441,23.66984403942715,77.28745726683397,3515879847
sw,-75.0355834960937,-64.0042724609375,10.932641316107576,76.44495865425384,3515896514
sw,-75.095344543457,-65.1931762695312,-3.842099682904822,75.26352236719177,3515913181
sw,-75.5322952270507,-66.606086730957,-21.311094063806944,74.3450335178855,3515929848
sw,-76.43603515625,-68.1698760986328,-42.18256315401374,74.20274023334825,3515946515
sw,-77.7005081176757,-69.3580703735351,-67.00850207401359,75.20328686393358,3515963182
sw,-79.1984100341796,-70.0773544311523,-95.89704342501145,77.45744351407521,3515979849
sw,-80.8639984130859,-70.6528015136718,-128.19724304620723,80.67935101109049,3515996516
sw,-83.0746841430664,-71.6224594116211,-162.26228542436928,84.09900859440644,3516013183
sw,-85.9186477661132,-73.0291213989257,-195.41954308960078,86.53518679912703,3516029850
sw,-87.8292160034179,-74.6886901855468,-224.24021602908482,86.68228187843661,3516046517
sw,-85.460334777832,-76.5021667480468,-245.11203014250538,83.55263212174324,3516063184
sw,-81.4378051757812,-78.1263198852539,-255.00940124938936,76.90885114602668,3516079851
sw,-75.8603820800781,-79.5636444091796,-252.26291324282647,67.48522646895262,3516096518
sw,-70.9923629760742,-80.3976974487304,-237.08404169006906,56.862822962565836,3516113185
sw,-68.3601150512695,-80.8118133544921,-211.63913807375988,47.008978457756896,3516129852
sw,-65.8851165771484,-81.289436340332,-179.61085543697402,39.65236225892825,3516146519
sw,-63.6069641113281,-81.9068450927734,-145.38189582604625,35.75160047564441,3516163186
sw,-62.0407943725585,-82.5955200195312,-113.10742413255869,35.271391632780166,3516179853
sw,-60.8532791137695,-83.2992630004882,-85.93825331915004,37.3287655294358,3516196520
sw,-59.7164115905761,-84.0614852905273,-65.5552530068682,40.605216455334585,3516213187
sw,-58.6600761413574,-84.7887268066406,-52.0564220776181,43.826620837819455,3516229854
sw,-57.9297370910644,-85.4440460205078,-44.14828477299251,46.123236346370234,3516246521
sw,-57.2556762695312,-86.0806350708007,-39.5465082998761,47.16900773992116,3516263188
sw,-56.8648033142089,-86.5972824096679,-35.48658652840817,47.10555250940554,3516279855
sw,-56.5461845397949,-86.8434066772461,-29.267045457897574,46.32862869740917,3516296522
sw,-56.0948257446289,-86.7553253173828,-18.766257970568144,45.232537318249136,3516313189
sw,-55.7626495361328,-86.4432296752929,-2.871671654229699,43.98634265352326,3516329856
sw,-55.8324546813964,-86.1194992065429,18.253925937018636,42.38540671499939,3516346523
sw,-56.7585144042968,-85.8759765625,43.141832313683025,39.801843710245535,3516363190
sw,-57.8561897277832,-85.6893920898437,69.25626216917047,35.247576661889205,3516379857
sw,-59.2217292785644,-85.5495300292968,93.47375929379045,27.551677646268175,3516396524
sw,-60.9585494995117,-85.4569244384765,112.71969449366279,15.630222589680127,3516413191
sw,-63.2525329589843,-85.5228958129882,124.6455634233367,-1.2051465599844267,3516429858
sw,-66.0318298339843,-85.8193817138671,128.20907552535553,-22.980240502493746,3516446525
sw,-68.9896697998046,-86.4251098632812,124.00459134133338,-48.91815354257588,3516463192
sw,-71.3647232055664,-87.3249740600586,114.2108248372898,-77.48601034336463,3516479859
sw,-72.33544921875,-88.0298995971679,102.11058290351748,-106.63545096740853,3516496526
sw,-72.9650115966796,-86.3273620605468,91.28727247268836,-134.1750946374999,3516513193
sw,-73.8501586914062,-83.5707168579101,84.74287804346616,-158.15609159307945,3516529860
sw,-75.5039138793945,-80.7986297607421,84.21660128621484,-177.1420277860188,3516546527
sw,-77.4230041503906,-78.0171432495117,89.88026909976152,-190.29049532614303,3516563194
sw,-79.4851303100586,-74.8950729370117,100.41735674452335,-197.2686262461613,3516579861
sw,-81.2754898071289,-71.4160003662109,113.37124706888531,-198.098152581991,3516596528
sw,-82.6718521118164,-68.0070571899414,125.63414357529238,-193.0337675720576,3516613195
sw,-84.0752029418945,-64.7248001098632,134.0077108997641,-182.52955568226886,3516629862
sw,-85.4345169067382,-61.8436546325683,135.8171403130664,-167.2831644586982,3516646529
sw,-86.02783203125,-59.5913314819335,129.53948875704214,-148.30230826416476,3516663196
sw,-84.7957229614257,-57.6525840759277,115.31936081811735,-126.92666887033917,3516679863
sw,-82.6068649291992,-55.6397590637207,95.1615974076654,-104.75447852584351,3516696530
sw,-81.4373703002929,-54.1404838562011,72.60587177241739,-83.45282686777995,3516713197
sw,-81.5441818237304,-53.3428268432617,51.85157087302209,-64.46694506973111,3516729864
sw,-82.5104904174804,-53.14693069458,36.560735094816025,-48.689198215267965,3516746531
sw,-83.2124557495117,-52.9741287231445,28.774648796907847,-36.19453917202598,3516763198
sw,-83.0466995239257,-52.7977790832519,28.387901295413872,-26.163686787217852,3516779865
sw,-81.9119186401367,-52.4583854675293,33.39848051652855,-17.06985734544997,3516796532
sw,-80.00830078125,-51.8853874206543,40.80595865375466,-7.108167981967035,3516813199
sw,-78.1129837036132,-51.3128509521484,47.74700610122801,5.257019241326746,3516829866
sw,-77.0205917358398,-51.3168334960937,52.382668906110794,20.809973645950826,3516846533
sw,-76.6340026855468,-52.3391952514648,54.21109194199564,39.32762976323942,3516863200
sw,-76.4345321655273,-53.934642791748,53.773398701789404,59.61197507030333,3516879867
sw,-76.0998153686523,-55.4783134460449,51.98686915369547,79.7527695779081,3516896534
sw,-75.4965515136718,-56.7079963684082,49.45117938172261,97.49877985514286,3516913201
sw,-74.649299621582,-57.9310836791992,46.008945175981324,110.64375583642213,3516929868
sw,-73.8766555786132,-59.6823387145996,40.67791369843932,117.4074725752611,3516946535
sw,-73.364028930664,-61.8449401855468,31.913585190260882,116.82609924207783,3516963202
sw,-73.0640411376953,-64.184944152832,18.07161996039096,109.11721228174969,3516979869
sw,-72.9529495239257,-66.855239868164,-2.079477137992374,95.8942133903223,3516996536
sw,-73.0829772949218,-68.2074966430664,-28.927403259326564,80.06177538646234,3517013203
sw,-73.7129440307617,-68.749885559082,-61.771695947564304,65.29346452011195,3517029870
sw,-75.298957824707,-68.8347015380859,-98.83234697924259,55.16306862329439,3517046537
sw,-77.8409347534179,-69.0415649414062,-137.514123699179,52.18130857179015,3517063204
sw,-80.9563674926757,-69.6477279663086,-174.84671578349537,57.06840814015992,3517079871
sw,-84.2857437133789,-70.8229064941406,-207.95686846450963,68.5203663286809,3517096538
sw,-86.9002914428711,-72.5592727661132,-234.42671814728328,83.54532301792153,3517113205
sw,-86.1355819702148,-74.3770217895507,-252.46288051623006,98.25205754161549,3517129872
sw,-83.1020355224609,-76.1714553833007,-260.90659172602085,108.84817683012095,3517146539
sw,-78.9637069702148,-78.1323165893554,-259.1932231170179,112.57776800717615,3517163206
sw,-74.5136032104492,-80.4354858398437,-247.37021004246805,108.37107645408753,3517179873
sw,-71.0720596313476,-83.0799255371093,-226.20680888040715,97.05235607607607,3517196540
sw,-67.227310180664,-84.9136199951171,-197.3301899381765,81.04305127269464,3517213207
sw,-63.5751152038574,-85.2516632080078,-163.2599953127274,63.6203989268815,3517229874
sw,-61.1993904113769,-84.515625,-127.21554876722644,47.94496135343929,3517246541
sw,-60.0074958801269,-83.7250289916992,-92.64148512872998,36.193369760064606,3517263208
sw,-59.9008483886718,-83.5868072509765,-62.52694488679604,29.125422822288087,3517279875
sw,-59.9395904541015,-84.1033554077148,-38.72614364523242,26.23202030581452,3517296542
sw,-59.7021255493164,-84.8541030883789,-21.537370907724963,26.33149458455747,3517313209
sw,-59.3549041748046,-85.5304260253906,-9.716181421612962,28.27185048124629,3517329876
sw,-58.9559936523437,-86.02783203125,-0.9280115447553029,31.382077944821685,3517346543
sw,-58.8046493530273,-86.2825393676757,7.518164530855122,35.49106463353378,3517363210
sw,-58.8924942016601,-86.3734512329101,17.8933011216457,40.57450043526092,3517379877
sw,-59.3880157470703,-86.21240234375,31.44755755891607,46.258633487428646,3517396544
sw,-60.1874847412109,-85.8669662475586,48.11981275358575,51.43971282213285,3517413211
sw,-61.3096847534179,-85.3422164916992,66.59122905020848,54.194691778009236,3517429878
sw,-62.8435859680175,-84.6755676269531,84.63512504413445,52.03104047357365,3517446545
sw,-64.2981338500976,-84.0815887451171,99.6670684582994,42.411293880525896,3517463212
sw,-65.8566284179687,-83.7436370849609,109.38041290598008,23.418900150105586,3517479879
sw,-67.9479370117187,-83.7437057495117,112.34787214021351,-5.5963147545700025,3517496546
sw,-71.0450210571289,-84.136962890625,108.4616121597325,-43.55812431427757,3517513213
sw,-73.3988342285156,-84.9977874755859,99.07774090849983,-87.53996465709433,3517529880
sw,-74.3968505859375,-86.5274047851562,86.76862916000185,-133.08135422804654,3517546547
sw,-74.6554641723632,-87.2746658325195,74.70644691705584,-174.9497020170618,3517563214
sw,-75.0569229125976,-84.3014755249023,65.86423027350368,-208.2061217001618,3517579881
sw,-76.0780715942382,-79.7248611450195,62.31310539066198,-229.29167820147214,3517596548
sw,-77.6470718383789,-74.8990097045898,64.83547434807026,-236.78964100745716,3517613215
sw,-79.5690078735351,-70.6448898315429,72.90415007663242,-231.59445076441853,3517629882
sw,-81.167984008789,-67.3352127075195,84.92111081337458,-216.42128171248592,3517646549
sw,-82.2690887451171,-65.2051162719726,98.56471843714492,-194.84450016414917,3517663216
sw,-83.3373870849609,-63.3103218078613,111.15996697146171,-170.24219395254275,3517679883
sw,-84.7490539550781,-61.1363677978515,120.07777635716303,-145.0458381626129,3517696550
sw,-85.7621002197265,-58.4734497070312,123.19456953985468,-120.52680340883708,3517713217
sw,-85.7118911743164,-56.1426887512207,119.37861101692678,-97.08249970334323,3517729884
sw,-84.474868774414,-54.8022270202636,108.8718381790941,-74.76713637451076,3517746551
sw,-82.9382019042968,-53.896686553955,93.38899555431786,-53.75840843057255,3517763218
sw,-81.8509292602539,-53.3995666503906,75.8087703946649,-34.55817961080146,3517779885
sw,-81.3834991455078,-53.2405014038085,59.474422778286396,-17.895298466078366,3517796552
sw,-81.3146591186523,-53.507209777832,47.29289073959963,-4.433989386461736,3517813219
sw,-81.3188018798828,-54.1952056884765,40.93514213688847,5.5468550941162444,3517829886
sw,-81.0422134399414,-54.7387504577636,40.42856349337034,12.344648459784327,3517846553
sw,-80.153823852539,-54.7340011596679,44.28726241346519,16.799753649641698,3517863220
sw,-78.7561569213867,-54.402244567871,50.11191571713937,20.05038049000021,3517879887
sw,-77.2826232910156,-54.220344543457,55.408784179698486,23.19617109292328,3517896554
sw,-75.9444198608398,-54.6486511230468,58.31245152527801,27.034804059449804,3517913221
sw,-75.1622695922851,-55.6519165039062,57.97184186462358,31.978452092114743,3517929888
sw,-74.7014999389648,-56.9079055786132,54.52613010869115,38.132082503667085,3517946555
sw,-74.1610565185546,-57.9276885986328,48.76712710113592,45.412926405243795,3517963222
sw,-73.5563430786132,-58.40571975708,41.678065929845026,53.58632352766321,3517979889
sw,-72.9518051147461,-58.9071922302246,34.0288468499598,62.189194292657064,3517996556
sw,-72.5269927978515,-59.5196838378906,26.1298057225892,70.43313150741383,3518013223
sw,-72.2832107543945,-60.45698928833,17.762212176016888,77.23155936429471,3518029890
sw,-72.1667175292968,-61.7645263671875,8.25483205959726,81.44009162190402,3518046557
sw,-72.1481246948242,-63.5422210693359,-3.3376749006893545,82.27214448370943,3518063224
sw,-72.3729858398437,-65.8016815185546,-17.998252207883763,79.7290096110475,3518079891
sw,-72.8892745971679,-67.4558639526367,-36.49711540644998,74.8323541262587,3518096558
sw,-73.7880172729492,-68.5552825927734,-59.17297274284578,69.49892233225725,3518113225
sw,-75.2162857055664,-69.0221862792968,-85.78521673801345,66.03700901519629,3518129892
sw,-77.1723556518554,-69.495361328125,-115.45959989016853,66.41113080726807,3518146559
sw,-79.6969909667968,-70.3664779663086,-146.72623767857456,71.53344257565068,3518163226
sw,-82.7458572387695,-71.5742111206054,-177.62891466343703,80.84238953107601,3518179893
sw,-86.0239868164062,-73.089485168457,-205.87981832777297,92.32637518940597,3518196560
sw,-88.6423187255859,-74.7023162841796,-229.04819075679688,102.99967419809397,3518213227
sw,-86.2531509399414,-76.3431320190429,-244.79592651763187,109.7022720969074,3518229894
sw,-82.5534973144531,-78.385383605957,-251.18510581775726,110.00555485527585,3518246561
sw,-78.104263305664,-80.6786346435546,-247.05665241325715,102.96374656520224,3518263228
sw,-73.3773651123046,-82.7223052978515,-232.41175938792134,89.46314068497847,3518279895
sw,-69.6993789672851,-84.2128372192382,-208.6547385006366,72.01359239018566,3518296562
sw,-66.3201904296875,-84.9205932617187,-178.53914140711515,54.01013886656291,3518313229
sw,-63.7705039978027,-84.8232803344726,-145.7339504511604,38.71119607019196,3518329896
sw,-62.4268646240234,-84.5432815551757,-114.06739417754105,28.317325206813916,3518346563
sw,-61.7997703552246,-84.5149536132812,-86.6468755218075,23.495348080427757,3518363230
sw,-61.47212600708,-84.839126586914,-65.13164192247908,23.484624492919593,3518379897
sw,-60.7580184936523,-85.4161071777343,-49.40928012404461,26.660094571665756,3518396564
sw,-59.7062759399414,-86.1653900146484,-37.79375379842545,31.250830507304563,3518413231
sw,-58.7481384277343,-86.7455673217773,-27.672547578257433,35.89916345044239,3518429898
sw,-58.0897140502929,-87.2323303222656,-16.37381601803716,39.87279094919156,3518446565
sw,-58.0395545959472,-87.6220016479492,-1.973333497644881,42.925649494233845,3518463232
sw,-58.3563728332519,-87.7150115966796,16.17848293586762,44.951088202744785,3518479899
sw,-58.8429145812988,-87.3398666381836,37.311012578087066,45.62743933476912,3518496566
sw,-59.8179702758789,-86.6224060058593,59.459341686990776,44.21857662314007,3518513233
sw,-61.24068069458,-85.8718948364257,79.97729795505806,39.60103966411716,3518529900
sw,-63.1237754821777,-85.3268051147461,96.20988716131299,30.49838119013282,3518546567
sw,-65.0498580932617,-85.1033096313476,106.1724833842456,15.845720867965936,3518563234
sw,-67.0814819335937,-85.1130447387695,109.08044274266166,-4.816485623594829,3518579901
sw,-69.4340286254882,-85.3096923828125,105.59985585594917,-31.02704204802651,3518596568
sw,-71.2263107299804,-85.8017120361328,97.74895793121355,-61.27091972905096,3518613235
sw,-72.1974945068359,-86.6863708496093,88.46365460511385,-93.1066147590475,3518629902
sw,-73.0288467407226,-87.2471466064453,80.93486879607383,-123.56854638028584,3518646569
sw,-74.1815490722656,-85.8396682739257,77.89514285601008,-149.76424987725667,3518663236
sw,-75.8165740966796,-83.0703506469726,81.03413437962507,-169.49746070480347,3518679903
sw,-77.5967025756836,-79.8090667724609,90.6519371193127,-181.71428586389362,3518696570
sw,-79.5100326538086,-76.3375091552734,105.56767840929426,-186.61671534078098,3518713237
sw,-81.2477951049804,-72.957893371582,123.25330093241746,-185.40197976173863,3518729904
sw,-82.7434005737304,-70.1509323120117,140.17631840534386,-179.72417551991091,3518746571
sw,-84.1886367797851,-67.7562866210937,152.3690561445485,-171.08360165908272,3518763238
sw,-85.6890716552734,-65.3666458129882,156.23039722951282,-160.38195363283214,3518779905
sw,-85.8361358642578,-63.055248260498,149.47060310023917,-147.8122246714103,3518796572
sw,-83.4057846069336,-60.6815452575683,131.95789656208913,-133.10178952374918,3518813239
sw,-80.5916366577148,-58.205696105957,106.11626002746351,-115.96623033037041,3518829906
sw,-79.1255874633789,-56.3578186035156,76.57487792580486,-96.54078329932398,3518846573
sw,-79.5485763549804,-55.1749610900878,49.0241611608572,-75.57821457944696,3518863240
sw,-80.989517211914,-54.6665992736816,28.597240285737925,-54.32177667211821,3518879907
sw,-81.8460922241211,-54.7271156311035,18.368979475773973,-34.11985065486304,3518896574
sw,-81.7831726074218,-55.0357704162597,18.565002963961238,-15.970129466948887,3518913241
sw,-80.6031799316406,-55.2259178161621,26.772279773625982,-0.21134616887079627,3518929908
sw,-78.6076583862304,-55.1008834838867,38.999072763953215,13.492000731716397,3518946575
sw,-76.5655364990234,-55.0057868957519,51.08728115072573,25.867571640711855,3518963242
sw,-75.5656509399414,-55.1784973144531,59.90338111507466,37.593600164140604,3518979909
sw,-75.3560943603515,-55.6086769104003,63.9312689676747,48.908281691144104,3518996576
sw,-74.9779281616211,-56.55517578125,63.219391460781004,59.44894709227438,3519013243
sw,-74.1030120849609,-58.1352462768554,58.900185829102675,68.38421138443609,3519029910
sw,-72.9014205932617,-59.7898635864257,52.577281705057025,74.76402277076637,3519046577
sw,-71.8493576049804,-61.0502128601074,45.78483632994838,77.92159397447053,3519063244
sw,-71.2487487792968,-62.2533569335937,39.58714618256651,77.76030508253997,3519079911
sw,-71.0894470214843,-63.4601097106933,34.31594196849395,74.83593576854317,3519096578
sw,-71.0795059204101,-64.466064453125,29.454923061017077,70.24209163061906,3519113245
sw,-70.927131652832,-65.4339065551757,23.71470397778326,65.36882328329442,3519129912
sw,-70.4452819824218,-66.3677368164062,15.328523268095989,61.61657316071781,3519146579
sw,-69.8426132202148,-67.3756561279296,2.5251187642919057,60.12808702270846,3519163246
sw,-69.6638412475586,-68.4213562011718,-15.954019971641017,61.573059280375496,3519179913
sw,-70.2401351928711,-69.287841796875,-40.46376331054054,66.00055746130175,3519196580
sw,-71.5913543701171,-70.1427612304687,-70.31452041300244,72.77276053230284,3519213247
sw,-73.5495452880859,-71.1131515502929,-103.8985115821194,80.60806312421018,3519229914
sw,-76.0529022216796,-72.3635711669921,-138.9972619857817,87.77098145731564,3519246581
sw,-79.0768280029296,-74.0241317749023,-173.1383779928446,92.42154174427846,3519263248
sw,-82.5838623046875,-75.8534927368164,-203.8915141809036,93.06999471592299,3519279915
sw,-86.0952529907226,-77.2965621948242,-229.05902401246294,89.00627567465169,3519296582
sw,-89.2683181762695,-78.4350891113281,-246.79063664358452,80.54363311680638,3519313249
sw,-86.4166870117187,-79.4474792480468,-255.69863141517334,68.96618946427762,3519329916
sw,-82.0515670776367,-80.1140747070312,-255.03871652785028,56.181730170778415,3519346583
sw,-76.6273498535156,-80.4916763305664,-244.94234601228942,44.19727672331234,3519363250
sw,-72.2339172363281,-80.9388961791992,-226.58085403395398,34.60220896167768,3519379917
sw,-69.2206726074218,-81.6414031982421,-202.0991726200161,28.23406374501488,3519396584
sw,-66.8538284301757,-82.5107727050781,-174.23946005908348,25.119363377014285,3519413251
sw,-65.024658203125,-83.2536697387695,-145.74171024491778,24.664256367765514,3519429918
sw,-63.3192481994628,-83.7980270385742,-118.73797488769654,25.97775747592193,3519446585
sw,-61.6653518676757,-84.2850875854492,-94.36060916049964,28.18810459049394,3519463252
sw,-60.4025382995605,-84.8392333984375,-72.67803965392002,30.65601865734417,3519479919
sw,-59.4012603759765,-85.482177734375,-52.935386012979365,33.054453653670485,3519496586
sw,-58.6556243896484,-86.1288528442382,-33.982653941723164,35.331093036859386,3519513253
sw,-58.226016998291,-86.6052322387695,-14.742894688016445,37.585960050042175,3519529920
sw,-58.2498130798339,-86.7805252075195,5.407080140507865,39.89661089719328,3519546587
sw,-58.7126083374023,-86.6986770629882,26.42313761485863,42.1254610683771,3519563254
sw,-59.67138671875,-86.5061569213867,47.571090446297546,43.75333776895677,3519579921
sw,-60.9364204406738,-86.2729034423828,67.57093856099335,43.79277221569687,3519596588
sw,-62.0255546569824,-86.0302047729492,84.85881235710644,40.831705604456715,3519613255
sw,-63.5714607238769,-85.8616104125976,97.91551758814744,33.23560303247154,3519629922
sw,-65.4279403686523,-85.7613677978515,105.61652422724195,19.495159644554192,3519646589
sw,-67.3978576660156,-85.7357559204101,107.55181799256309,-1.342458005036304,3519663256
sw,-69.3889083862304,-85.8904876708984,104.2446288512554,-29.26486255830454,3519679923
sw,-71.3776779174804,-86.4164733886718,97.18858545653873,-63.03678972270556,3519696590
sw,-73.0241088867187,-87.3106613159179,88.64643725970302,-100.20630522769645,3519713257
sw,-74.2975082397461,-87.4107131958007,81.21355600968118,-137.42411413778626,3519729924
sw,-75.0517044067382,-85.0234680175781,77.2294056049271,-171.0255671045572,3519746591
sw,-76.1723175048828,-81.4780197143554,78.18859146316694,-197.72590081453336,3519763258
sw,-77.5894165039062,-77.6731262207031,84.3227199471776,-215.2278322777358,3519779925
sw,-79.3737411499023,-73.7500228881836,94.47687762241115,-222.56608803051424,3519796592
sw,-81.2023239135742,-70.101448059082,106.31379809603236,-220.10687503956302,3519813259
sw,-82.8235092163086,-66.8714828491211,116.79587188686814,-209.24042499082591,3519829926
sw,-84.38671875,-63.9766082763671,122.85200750530578,-191.90269223302005,3519846593
sw,-86.3346786499023,-61.3264999389648,122.11802627983526,-170.1026711882163,3519863260
sw,-87.7242813110351,-59.1034927368164,113.60921527903467,-145.6029335070923,3519879927
sw,-86.337776184082,-57.1221122741699,98.13805044855019,-119.81866971175639,3519896594
sw,-84.5824584960937,-55.2072982788085,78.2823327592507,-93.90098263887958,3519913261
sw,-84.0135192871093,-53.5796203613281,57.80739019252447,-68.8927666219987,3519929928
sw,-84.3826370239257,-52.5811462402343,40.65429774261717,-45.820379686973034,3519946595
sw,-84.8679809570312,-52.3268890380859,29.825418831343967,-25.62680497029279,3519963262
sw,-84.8740997314453,-52.6433639526367,26.584379977481436,-8.950924476145477,3519979929
sw,-84.2198867797851,-53.3394050598144,30.264094222679464,4.133295796096217,3519996596
sw,-82.9718322753906,-53.9438171386718,38.70518487764622,14.248062190255842,3520013263
sw,-81.4967041015625,-54.1123085021972,49.083578474537184,22.583543969656066,3520029930
sw,-80.307258605957,-53.9888687133789,58.767112341783225,30.506077219901467,3520046597
sw,-79.3371047973632,-53.8744239807128,65.90239161758919,39.047374504819565,3520063264
sw,-78.4379119873046,-54.1526718139648,69.60839648894611,48.50486975144961,3520079931
sw,-77.5148620605468,-55.2039070129394,69.83385542116463,58.34751094950141,3520096598
sw,-76.6302032470703,-56.9925079345703,67.03899021096912,67.47463217952638,3520113265
sw,-75.7254867553711,-58.8904113769531,61.86844176463684,74.6976719960286,3520129932
sw,-74.7188262939453,-60.1262779235839,54.92140537040596,79.21003391489029,3520146599
sw,-73.7150115966796,-60.9336471557617,46.64426129947182,80.84161742458562,3520163266
sw,-72.9496994018554,-61.914566040039,37.308930341046974,80.0337690941925,3520179933
sw,-72.5413055419921,-62.9814834594726,27.018703456337878,77.61767109523035,3520196600
sw,-72.4467391967773,-64.1632995605468,15.703242071006862,74.5431624064921,3520213267
sw,-72.4322052001953,-65.2992706298828,3.104352235990009,71.67145389151014,3520229934
sw,-72.5550537109375,-66.5401611328125,-11.216932714890902,69.66692833987621,3520246601
sw,-73.0546188354492,-67.7257385253906,-27.820559935454146,68.95931807854322,3520263268
sw,-73.9180679321289,-68.9048843383789,-47.26333871022864,69.72502447063881,3520279935
sw,-75.0932006835937,-69.7755050659179,-69.92152930093138,71.85368091777652,3520296602
sw,-76.5951232910156,-70.476692199707,-95.78838816561648,74.90770864972123,3520313269
sw,-78.5032501220703,-71.4344100952148,-124.28877997858248,78.12329316114268,3520329936
sw,-80.91796875,-72.6961288452148,-154.1628148002717,80.51028796487614,3520346603
sw,-83.9089889526367,-74.0940856933593,-183.46877698164204,81.06948507095034,3520363270
sw,-87.2189178466796,-75.5286178588867,-209.7374470656163,79.07725096102017,3520379937
sw,-88.67529296875,-76.8531494140625,-230.2799421160087,74.33515201843943,3520396604
sw,-85.0967941284179,-78.1253204345703,-242.61769493070972,67.28072960687341,3520413271
sw,-80.8021774291992,-79.1296920776367,-244.96770147034366,58.904499331354906,3520429938
sw,-75.7099533081054,-79.834602355957,-236.67702539114566,50.49156750013345,3520446605
sw,-72.1564788818359,-80.4744491577148,-218.4732679034674,43.273858988659725,3520463272
sw,-69.2742156982421,-81.3050689697265,-192.419949710127,38.11442461151329,3520479939
sw,-66.7084503173828,-82.3053207397461,-161.5564264746233,35.3299141655047,3520496606
sw,-64.8557586669921,-83.1881408691406,-129.3192187251009,34.694781464341546,3520513273
sw,-63.5845947265625,-83.8196868896484,-98.9138114514076,35.59517875785131,3520529940
sw,-62.5015525817871,-84.3560409545898,-72.80136671451116,37.254012058868724,3520546607
sw,-61.5507621765136,-84.8982315063476,-52.404349658283955,38.94740639839102,3520563274
sw,-60.8980407714843,-85.4909362792968,-38.05477843742653,40.16001272632388,3520579941
sw,-60.284423828125,-86.0958557128906,-29.13899518765717,40.656885947419866,3520596608
sw,-59.7458915710449,-86.5986633300781,-24.35554413244404,40.47188995869237,3520613275
sw,-59.3863296508789,-86.8889465332031,-22.003841535449084,39.82834462838072,3520629942
sw,-59.1649894714355,-86.9193038940429,-20.249309993529618,39.01878828143384,3520646609
sw,-59.0129661560058,-86.7441787719726,-17.34693924869977,38.27534556032806,3520663276
sw,-58.9967918395996,-86.4987640380859,-11.832543135106224,37.65949579167378,3520679943
sw,-59.0341873168945,-86.2802200317382,-2.697856487211265,36.99328248926167,3520696610
sw,-59.1359558105468,-86.0890426635742,10.449116791456374,35.846748202118164,3520713277
sw,-59.3886604309082,-85.8948745727539,27.26378875996946,33.58830710454694,3520729944
sw,-59.9527015686035,-85.6572494506836,46.63257259708192,29.493341350972738,3520746611
sw,-60.9992179870605,-85.3948287963867,66.77859326402329,22.891876351539192,3520763278
sw,-62.4361190795898,-85.1892013549804,85.52981810589733,13.32355667816886,3520779945
sw,-64.1566696166992,-85.1724090576171,100.72614312088838,0.6629807932287819,3520796612
sw,-66.1277694702148,-85.3874740600586,110.69066187176644,-14.816862049433555,3520813279
sw,-68.3412780761718,-85.7769165039062,114.65401464528703,-32.46283963383689,3520829946
sw,-70.8499679565429,-86.3769073486328,113.01014972974974,-51.34518433418364,3520846613
sw,-72.8523559570312,-87.1782531738281,107.30389422439471,-70.43132004053885,3520863280
sw,-74.2589874267578,-87.6852264404296,99.91233667640375,-88.79222184357131,3520879947
sw,-75.3721084594726,-86.6678085327148,93.47742991602163,-105.77905260555238,3520896614
sw,-76.4631195068359,-84.8800277709961,90.24112969460569,-121.0980987935876,3520913281
sw,-77.9012985229492,-82.986587524414,91.47509125193969,-134.73854713892285,3520929948
sw,-79.6423721313476,-80.9237976074218,97.1590013695121,-146.7713601491629,3520946615
sw,-81.4664993286132,-78.5419006347656,105.97105025713846,-157.10566576699426,3520963282
sw,-83.120376586914,-75.6766128540039,115.56654990104153,-165.316964934232,3520979949
sw,-84.5851058959961,-72.5456314086914,123.07587425529059,-170.629839433549,3520996616
sw,-86.0013427734375,-69.4519653320312,125.74521758079284,-172.0677099046675,3521013283
sw,-86.9065475463867,-66.5663681030273,121.6322601325988,-168.71510671040562,3521029950
sw,-85.5348587036132,-63.9307556152343,110.22106069642972,-160.00408956415845,3521046617
sw,-83.231201171875,-61.7153778076171,92.75835267559482,-145.93924683365634,3521063284
sw,-81.7925033569336,-59.6393890380859,72.11476280801448,-127.19995771120142,3521079951
sw,-81.2901840209961,-57.6876335144043,52.10530492870285,-105.0878009877508,3521096618
sw,-81.7116012573242,-56.2199668884277,36.433819163744175,-81.31535699168742,3521113285
sw,-82.2536163330078,-55.7088966369628,27.626364878796863,-57.6676414814858,3521129952
sw,-82.3913269042968,-55.7678146362304,26.35610211795029,-35.61614504836015,3521146619
sw,-81.7110824584961,-55.9359512329101,31.40263618505831,-16.010888404928707,3521163286
sw,-80.2859268188476,-56.0184516906738,40.21647226894838,1.0231945980455865,3521179953
sw,-78.6696472167968,-55.9030075073242,49.81710881092106,15.928986147443846,3521196620
sw,-77.4302978515625,-55.9229774475097,57.65716511083999,29.357565783688162,3521213287
sw,-76.6426620483398,-56.29150390625,62.16356786499732,41.76128063210839,3521229954
sw,-76.0081481933593,-56.9051856994628,62.85601669464185,53.11766931933171,3521246621
sw,-75.3339004516601,-58.0671005249023,60.13084454141688,62.90132706844904,3521263288
sw,-74.5741653442382,-59.803539276123,54.89418932560272,70.30760965584824,3521279955
sw,-73.7614822387695,-61.4372444152832,48.21127776490148,74.62019885992297,3521296622
sw,-72.9501800537109,-62.6591987609863,41.05426468817475,75.55662897872102,3521313289
sw,-72.2459411621093,-63.9344100952148,34.14633650644309,73.45005445101476,3521329956
sw,-71.66943359375,-64.9625167846679,27.858564015806603,69.21349828270668,3521346623
sw,-71.311050415039,-65.9227905273437,22.1249421491316,64.12837350508002,3521363290
sw,-71.2339096069336,-66.974609375,16.38034950403863,59.55186553630431,3521379957
sw,-71.4681396484375,-67.7748260498046,9.566358426526829,56.63667927660913,3521396624
sw,-71.7432250976562,-68.6210098266601,0.2637219616039774,56.12297598216908,3521413291
sw,-71.7770309448242,-69.6965179443359,-13.018885902788247,58.22342816141717,3521429958
sw,-71.8321380615234,-70.5230407714843,-31.438887682456603,62.59557506264373,3521446625
sw,-72.252326965332,-71.2470550537109,-55.411327079073956,68.3886501770751,3521463292
sw,-73.4141540527343,-72.1268234252929,-84.34648681586106,74.36362168529358,3521479959
sw,-75.50048828125,-73.3990402221679,-116.64190978916403,79.09819053877636,3521496626
sw,-78.3619079589843,-75.0347518920898,-149.93638650976422,81.27488288128889,3521513293
sw,-81.7727127075195,-76.6959915161132,-181.52701433937298,80.00176820633386,3521529960
sw,-85.4351654052734,-77.8636016845703,-208.79834350025746,75.06488366752805,3521546627
sw,-89.1100082397461,-78.7579803466796,-229.5415174673564,67.00915623909188,3521563294
sw,-87.2002639770507,-79.6272964477539,-242.1280753633127,57.00588454028748,3521579961
sw,-83.3220901489257,-80.3137588500976,-245.58909352246874,46.552132149660345,3521596628
sw,-79.0480117797851,-80.7621765136718,-239.67829205724735,37.10760572982027,3521613295
sw,-74.919563293457,-81.4054565429687,-224.95160494956755,29.783800576019225,3521629962
sw,-71.2566375732421,-82.3174514770507,-202.8162244750004,25.166359268865836,3521646629
sw,-68.4309616088867,-83.1138458251953,-175.457919025919,23.29415328989518,3521663296
sw,-66.3446731567382,-83.6771850585937,-145.58684804495843,23.762091086821865,3521679963
sw,-64.7765045166015,-84.1091766357421,-116.02823441812329,25.885352416014328,3521696630
sw,-63.6293449401855,-84.5738983154296,-89.26458985269177,28.870115619595136,3521713297
sw,-62.5997009277343,-85.1540222167968,-67.06163564709642,31.962098825450095,3521729964
sw,-61.8872261047363,-85.7712249755859,-50.27389494252194,34.56328590526902,3521746631
sw,-61.1885795593261,-86.3688659667968,-38.856205571290864,36.31038677557312,3521763298
sw,-60.463752746582,-86.9169540405273,-32.040099765148554,37.10641415697648,3521779965
sw,-59.8501968383789,-87.4113235473632,-28.593151874877293,37.10059115431192,3521796632
sw,-59.387840270996,-87.7582473754882,-27.073625180182233,36.62151496755771,3521813299
sw,-59.0191116333007,-87.8757019042968,-26.019018516627618,36.077650916526146,3521829966
sw,-58.7256813049316,-87.7706832885742,-24.052099690056437,35.84454211190273,3521846633
sw,-58.6099853515625,-87.5398712158203,-19.931622906106604,36.15994507525515,3521863300
sw,-58.6976509094238,-87.2318267822265,-12.599941209168223,37.04591263843369,3521879967
sw,-58.9293479919433,-86.8726959228515,-1.2779639655177428,38.26957208628089,3521896634
sw,-59.1041069030761,-86.4995498657226,14.37190050011098,39.34457034171632,3521913301
sw,-59.3227272033691,-86.0975646972656,34.04645729166108,39.568671185163986,3521929968
sw,-59.7915992736816,-85.5843505859375,56.65333390009786,38.09240145953988,3521946635
sw,-60.7362365722656,-85.0442199707031,80.32680679809025,34.01517165641133,3521963302
sw,-62.3890647888183,-84.762580871582,102.68871378165632,26.50408469606183,3521979969
sw,-64.8638687133789,-84.607666015625,121.34313221996747,14.926220431627133,3521996636
sw,-67.6920700073242,-84.49853515625,134.4771255739854,-1.0211513858164931,3522013303
sw,-70.9275512695312,-84.5436782836914,141.35694486560948,-21.206091398510758,3522029970
sw,-73.7990646362304,-85.0016632080078,142.51014649847252,-45.01262783555315,3522046637
sw,-75.8544158935546,-85.8597183227539,139.48569409256876,-71.36884027175576,3522063304
sw,-77.1760482788086,-86.6817092895507,134.25569711080817,-98.85091377437195,3522079971
sw,-78.493423461914,-86.879524230957,128.4895947065807,-125.8351511207193,3522096638
sw,-80.2522048950195,-85.7492294311523,123.00371055204225,-150.66124644196677,3522113305
sw,-82.4574127197265,-83.4091796875,117.61458909751438,-171.7829634966464,3522129972
sw,-84.8352508544921,-80.3096771240234,111.43663715132502,-187.89946743712431,3522146639
sw,-87.0064392089843,-76.8561630249023,103.46569624147503,-198.06482577121656,3522163306
sw,-88.9046096801757,-73.4155197143554,93.18029787490424,-201.76640178187367,3522179973
sw,-88.8424224853515,-70.2452774047851,80.90849284458214,-198.95982867095367,3522196640
sw,-87.6913223266601,-67.0135192871093,67.82233594432299,-190.05577401657996,3522213307
sw,-87.1638641357421,-64.0173797607421,55.578867770359395,-175.86199964883147,3522229974
sw,-86.8303451538086,-61.4010734558105,45.769019033671306,-157.48298555860492,3522246641
sw,-86.4360809326171,-59.2710151672363,39.41016817590218,-136.17566945089078,3522263308
sw,-85.8990783691406,-57.4558868408203,36.68751295005769,-113.1694326542837,3522279975
sw,-85.1884307861328,-56.2090225219726,37.026167448034926,-89.48273200185399,3522296642
sw,-84.0856018066406,-55.4230918884277,39.424364910837525,-65.79076856488116,3522313309
sw,-82.9274597167968,-54.7432212829589,42.87357941779546,-42.39880347266465,3522329976
sw,-82.0825958251953,-54.2349281311035,46.67622684844466,-19.34573552156697,3522346643
sw,-81.377944946289,-54.1489944458007,50.54193054910889,3.3884507134599198,3522363310
sw,-80.6243667602539,-54.477741241455,54.45596383545332,25.643738707622187,3522379977
sw,-79.7413024902343,-55.1328125,58.40753958774554,46.897533326307084,3522396644
sw,-78.7003173828125,-55.9345512390136,62.09958375204322,66.20811436331195,3522413311
sw,-77.667236328125,-57.1619033813476,64.73965859886823,82.31681137955465,3522429978
sw,-76.7858581542968,-59.1420631408691,64.97010217678987,93.89771677496688,3522446645
sw,-76.0340499877929,-61.0976943969726,60.96438532333742,99.89658585001584,3522463312
sw,-75.3655090332031,-62.7545700073242,50.697219816262056,99.86397807147961,3522479979
sw,-74.8117065429687,-64.1310729980468,32.369305958363825,94.18520599765016,3522496646
sw,-74.4420166015625,-65.5051498413086,4.921236961444748,84.14427972106363,3522513313
sw,-74.5042724609375,-66.987564086914,-31.48391329090917,71.80188453813089,3522529980
sw,-75.2589950561523,-68.1434326171875,-75.16280489467069,59.6932643377369,3522546647
sw,-77.0122909545898,-68.5581893920898,-122.93289956748983,50.372068695312564,3522563314
sw,-79.9664993286132,-68.8179779052734,-170.50500479418406,45.86760992669174,3522579981
sw,-83.7083587646484,-69.2076644897461,-213.17908653215298,47.18090425536187,3522596648
sw,-86.925910949707,-69.8994140625,-246.66501159644596,53.976060942097284,3522613315
sw,-85.4228591918945,-71.0397644042968,-267.8051877449043,64.58903901479576,3522629982
sw,-81.959732055664,-72.5672073364257,-275.0223835354272,76.38105418136904,3522646649
sw,-77.6471328735351,-74.0856704711914,-268.4267840996079,86.35534672637853,3522663316
sw,-73.2162017822265,-75.6028900146484,-249.62724398798636,91.88279924962787,3522679983
sw,-70.3349609375,-77.826057434082,-221.3521150602396,91.35963678418722,3522696650
sw,-67.5061721801757,-80.4415740966796,-186.99387673555125,84.63050010912212,3522713317
sw,-64.5960311889648,-82.2316131591796,-150.17050022760557,73.04012640943111,3522729984
sw,-62.1094779968261,-82.763671875,-114.35063514153337,59.0513337512104,3522746651
sw,-60.4507522583007,-82.2908020019531,-82.53114730634972,45.51049805250157,3522763318
sw,-59.811767578125,-81.74462890625,-56.930111143945915,34.808445756583346,3522779985
sw,-59.8422813415527,-81.9854583740234,-38.70070740882892,28.261067539691382,3522796652
sw,-59.8272743225097,-82.9586715698242,-27.74788532430243,25.93881775441928,3522813319
sw,-59.4347915649414,-84.0336990356445,-22.76223871695227,26.95073694627252,3522829986
sw,-58.7910041809082,-84.8485870361328,-21.529564609421215,29.980221146576568,3522846653
sw,-58.0257759094238,-85.4824752807617,-21.45950400781711,33.80067239173949,3522863320
sw,-57.3687896728515,-86.0088958740234,-20.177224934673674,37.58048638363289,3522879987
sw,-57.0251083374023,-86.4847564697265,-15.997106320008944,40.932786581139524,3522896654
sw,-56.9770431518554,-86.937141418457,-8.153142240004339,43.780983300689435,3522913321
sw,-57.1148681640625,-87.2799072265625,3.240779160282008,46.155447036689196,3522929988
sw,-57.5440025329589,-87.4032440185546,17.43655323085939,48.02093994935893,3522946655
sw,-58.2825164794921,-87.2960739135742,33.38851708464835,49.19086857818666,3522963322
sw,-59.3379173278808,-87.0279006958007,50.06128125145662,49.33944489627225,3522979989
sw,-60.4715118408203,-86.6337280273437,66.61947463887375,48.08933617993476,3522996656
sw,-61.7281494140625,-86.0887908935546,82.4631330850298,45.13319177938505,3523013323
sw,-63.1029167175293,-85.539680480957,97.13405524605739,40.342020411335426,3523029990
sw,-64.7327651977539,-85.093521118164,110.16906864626101,33.82095042792431,3523046657
sw,-66.4914474487304,-84.7485733032226,120.9950094020507,25.89109493231954,3523063324
sw,-68.5512466430664,-84.4873275756836,128.93759490441857,16.999178932346087,3523079991
sw,-71.1360244750976,-84.3433532714843,133.35934989127125,7.576902401434033,3523096658
sw,-74.039192199707,-84.4054260253906,133.87164385425882,-2.113764642051838,3523113325
sw,-76.6712341308593,-84.7177658081054,130.5156927183292,-12.103954867479048,3523129992
sw,-78.3704605102539,-85.0284652709961,123.81281487557528,-22.761762945696535,3523146659
sw,-79.5931777954101,-85.3021392822265,114.65556581621306,-34.72038517962699,3523163326
sw,-81.1398696899414,-85.5803985595703,104.10624615774357,-48.68791110882315,3523179993
sw,-83.0472030639648,-85.9061431884765,93.2132982545168,-65.18297035483148,3523196660
sw,-84.9823379516601,-86.0692672729492,82.91179628518108,-84.27701301778609,3523213327
sw,-86.5696640014648,-85.6760940551757,73.98514949149103,-105.42927461486074,3523229994
sw,-87.5333557128906,-84.4232482910156,67.0158496228136,-127.47208880569765,3523246661
sw,-88.2116241455078,-82.373062133789,62.285988772475065,-148.75709645177616,3523263328
sw,-88.8150177001953,-79.7329864501953,59.667685461164666,-167.42630097773522,3523279995
sw,-89.3113021850586,-76.728401184082,58.59582090096152,-181.73974483150332,3523296662
sw,-88.8666763305664,-73.4717712402343,58.19402279929819,-190.38014405610554,3523313329
sw,-87.4522476196289,-70.2219314575195,57.54146227600912,-192.66332305203284,3523329996
sw,-86.1493377685546,-67.1103820800781,55.97855216114955,-188.6061406330616,3523346663
sw,-85.2876892089843,-64.3361358642578,53.31557729575842,-178.83597404315444,3523363330
sw,-84.6597747802734,-62.1802520751953,49.85557636599653,-164.36684643063688,3523379997
sw,-83.920654296875,-60.4862632751464,46.239659554122944,-146.312524084091,3523396664
sw,-83.2736434936523,-58.6352500915527,43.20311474540698,-125.63679462336053,3523413331
sw,-82.5339202880859,-56.6730728149414,41.34890901241291,-103.02793398158313,3523429998
sw,-81.8204345703125,-55.3624801635742,41.008173824461785,-78.92410826600964,3523446665
sw,-81.1157608032226,-54.6126403808593,42.20250306175824,-53.64708228121271,3523463332
sw,-80.2844467163086,-54.1503868103027,44.68178407319535,-27.569849667108272,3523479999
sw,-79.4018096923828,-54.0509796142578,47.99442914545813,-1.2567102207174472,3523496666
sw,-78.5199890136718,-54.3718681335449,51.5507269115868,24.458144886601207,3523513333
sw,-77.5987396240234,-55.1882781982421,54.656870482391206,48.4693844208451,3523530000
sw,-76.7134017944336,-56.1954879760742,56.51935123153629,69.48282285580174,3523546667
sw,-75.8971099853515,-57.7173309326171,56.239241071731044,86.17642191415432,3523563334
sw,-75.0878677368164,-59.6840095520019,52.82663237986619,97.41862865554421,3523580001
sw,-74.3028182983398,-61.4650764465332,45.263209763036826,102.5039078699767,3523596668
sw,-73.7846755981445,-63.0815505981445,32.62645958337693,101.35426749148235,3523613335
sw,-73.7204284667968,-64.8419418334961,14.26850398106583,94.63954023892467,3523630002
sw,-73.9187850952148,-66.4929580688476,-9.977346864088641,83.78136687364228,3523646669
sw,-74.3191528320312,-67.7741775512695,-39.60784771300054,70.81633971101917,3523663336
sw,-75.0138397216796,-68.2329177856445,-73.34277265370568,58.111159840315224,3523680003
sw,-76.4802551269531,-68.6110305786132,-109.16998911370085,47.963294570099016,3523696670
sw,-79.0840759277343,-69.0048065185546,-144.58354684164695,42.17495218184617,3523713337
sw,-82.4376602172851,-69.4980087280273,-176.98083207996797,41.71838540891842,3523730004
sw,-85.8561782836914,-70.4601898193359,-204.0977062242968,46.58696118978811,3523746671
sw,-87.7615737915039,-71.820083618164,-224.32328671539022,55.85629266572303,3523763338
sw,-85.5936203002929,-73.3217544555664,-236.7877219713098,67.9023332833581,3523780005
sw,-82.3475265502929,-74.5994644165039,-241.2329451836499,80.68509516087998,3523796672
sw,-78.7444152832031,-75.7875900268554,-237.78519652407576,92.03012235609822,3523813339
sw,-74.7098922729492,-77.0024490356445,-226.78208124618226,99.90176028607047,3523830006
sw,-71.428840637207,-78.75244140625,-208.7520517967183,102.7041284803563,3523846673
sw,-68.382339477539,-81.1325531005859,-184.5435745812737,99.61881738855112,3523863340
sw,-65.3231201171875,-83.6430969238281,-155.51438383702833,90.89955801530826,3523880007
sw,-62.8249015808105,-85.2806777954101,-123.65053260260943,77.96376032146581,3523896674
sw,-61.0734367370605,-85.7279968261718,-91.49569374458679,63.13750054526494,3523913341
sw,-60.2905158996582,-85.4355850219726,-61.83416217567216,49.05493223605567,3523930008
sw,-60.2524604797363,-84.9367446899414,-37.176229753484314,37.91130896116526,3523946675
sw,-60.5577774047851,-84.9462280273437,-19.200194428274788,30.88242174870047,3523963342
sw,-60.6954193115234,-85.6066207885742,-8.351426045393616,27.95791566380409,3523980009
sw,-60.438980102539,-86.4455490112304,-3.75135626822648,28.223532942783223,3523996676
sw,-60.0193061828613,-86.9175186157226,-3.448049417042818,30.40408910708968,3524013343
sw,-59.6116790771484,-86.9144744873046,-4.909380102655864,33.38036265111392,3524030010
sw,-59.361701965332,-86.8356018066406,-5.586983196011316,36.459339204853265,3524046677
sw,-59.4418869018554,-86.8297271728515,-3.39208919326233,39.34237965429875,3524063344
sw,-59.865852355957,-86.7291183471679,3.000025053021639,41.8904049188484,3524080011
sw,-60.3304138183593,-86.2858581542968,14.014805020463864,43.85149879828702,3524096678
sw,-60.671287536621,-85.625747680664,29.16390453848896,44.68633608219736,3524113345
sw,-61.2207489013671,-85.0082550048828,47.11329280888241,43.548611693683206,3524130012
sw,-62.0460319519043,-84.5318069458007,65.83979757260772,39.408922043996185,3524146679
sw,-63.1228523254394,-84.2308883666992,82.9131396835185,31.27715047696547,3524163346
sw,-64.7117843627929,-84.0300827026367,95.92503087885684,18.468951061064658,3524180013
sw,-66.8003997802734,-83.919204711914,103.02422339681827,0.8546107966116191,3524196680
sw,-69.1866149902343,-83.9124374389648,103.43581516835043,-20.982194694003965,3524213347
sw,-71.6209182739257,-84.2307815551757,97.7897186019736,-45.74798161140496,3524230014
sw,-73.2032394409179,-85.1863555908203,88.10048406619596,-71.6464011690485,3524246681
sw,-73.9908447265625,-86.5304489135742,77.34470841168559,-96.76083970308764,3524263348
sw,-74.3288650512695,-86.9534835815429,68.73791025347495,-119.49907104616655,3524280015
sw,-75.1271438598632,-85.2813415527343,64.93928039174651,-138.92973647533557,3524296682
sw,-76.4058151245117,-83.1488571166992,67.4331369165737,-154.86136456559316,3524313349
sw,-78.1104965209961,-81.1011734008789,76.23939191152071,-167.6234983547377,3524330016
sw,-79.8998184204101,-78.7641983032226,89.96144737845509,-177.65528410581118,3524346683
sw,-81.3636474609375,-75.8863677978515,106.08267646992694,-185.10200934992946,3524363350
sw,-82.723388671875,-72.5121612548828,121.41526572423768,-189.60454814500926,3524380017
sw,-84.2793960571289,-68.8884201049804,132.65295457624373,-190.35583100598552,3524396684
sw,-85.9624557495117,-65.6260223388671,137.0065368704233,-186.36799281379132,3524413351
sw,-86.6253128051757,-62.6161499023437,132.85816431316246,-176.81903958023375,3524430018
sw,-84.9914779663086,-60.3938255310058,120.27877970414798,-161.35384424965594,3524446685
sw,-83.1480331420898,-58.3362426757812,101.194006614113,-140.2709910783982,3524463352
sw,-81.8806610107421,-56.1942520141601,79.03766994808286,-114.58043658781558,3524480019
sw,-81.5970458984375,-54.2297897338867,57.908943754518624,-85.93195609248063,3524496686
sw,-82.0157394409179,-53.2170906066894,41.469661016042,-56.4036938022618,3524513353
sw,-82.2942657470703,-53.288272857666,31.961631689017423,-28.151969970794166,3524530020
sw,-82.1601104736328,-53.9197463989257,29.70275353343471,-2.9848964557192588,3524546687
sw,-81.2062759399414,-54.7019348144531,33.23311957844554,18.00369496146797,3524563354
sw,-79.6451416015625,-55.225486755371,40.01407802981021,34.58926270746924,3524580021
sw,-78.1410369873046,-55.325870513916,47.36414672751137,47.289481101126476,3524596688
sw,-77.0232009887695,-55.6405181884765,53.2501720626888,57.016971797357655,3524613355
sw,-76.2615051269531,-56.5982971191406,56.661788420469406,64.6750164405015,3524630022
sw,-75.7627029418945,-58.1317749023437,57.51131129112401,70.8650141122371,3524646689
sw,-75.3020248413086,-59.7302017211914,56.20372723568268,75.7894175827261,3524663356
sw,-74.7901306152343,-61.1612586975097,53.12286148529785,79.32704591339544,3524680023
sw,-74.0816421508789,-62.390037536621,48.25905246537441,81.20140848662548,3524696690
sw,-73.2591857910156,-63.5322761535644,41.09915312290254,81.17268334247164,3524713357
sw,-72.5022048950195,-64.6994018554687,30.773553263747164,79.21912199707612,3524730024
sw,-72.029914855957,-65.920051574707,16.36133001750586,75.68752925913083,3524746691
sw,-72.0342941284179,-67.6028900146484,-2.778334039852603,71.37551599932765,3524763358
sw,-72.4607162475586,-69.20166015625,-26.756262555707593,67.48614720490461,3524780025
sw,-73.2996139526367,-70.2446365356445,-55.03886710862627,65.40344452986415,3524796692
sw,-74.7096328735351,-70.8835296630859,-86.47061050801904,66.29459123307699,3524813359
sw,-76.7319869995117,-71.3993530273437,-119.40009076271903,70.63811121669,3524830026
sw,-79.3555297851562,-72.1873168945312,-151.85994508507025,77.85812797724107,3524846693
sw,-82.2316589355468,-73.3877563476562,-181.74991817476467,86.25547986074739,3524863360
sw,-85.1009979248046,-75.1817474365234,-206.99050622557795,93.3405806844782,3524880027
sw,-87.2231521606445,-77.2562026977539,-225.6512184133247,96.51684149524442,3524896694
sw,-86.2123489379882,-79.419448852539,-236.095270084135,93.90453599525203,3524913361
sw,-83.1499786376953,-81.5601959228515,-237.19052103069126,85.00713226465422,3524930028
sw,-79.0410385131836,-83.0961303710937,-228.5920355953856,70.95183808841345,3524946695
sw,-74.1116256713867,-83.5707168579101,-211.01480396545742,54.18528181131718,3524963362
sw,-70.6691665649414,-83.3513565063476,-186.3403519428795,37.725360700920454,3524980029
sw,-68.5078659057617,-82.9899444580078,-157.41396443836,24.264136701192506,3524996696
sw,-67.0627822875976,-83.0053253173828,-127.5188397797864,15.4752183256177,3525013363
sw,-66.0591659545898,-83.5143051147461,-99.68808691195768,11.760129310521407,3525030030
sw,-65.0681686401367,-84.3694610595703,-76.11038494954524,12.444006268721214,3525046697
sw,-63.8995132446289,-85.0619201660156,-57.83507456274397,16.238121541897762,3525063364
sw,-62.6973609924316,-85.3866653442382,-44.830332428299265,21.72383064868325,3525080031
sw,-61.7514610290527,-85.6117095947265,-36.29348299493939,27.683371031726143,3525096698
sw,-61.1892013549804,-85.9521408081054,-31.03617595250554,33.235150559108945,3525113365
sw,-60.836326599121,-86.4150466918945,-27.790506458538307,37.835372067575285,3525130032
sw,-60.5216255187988,-86.7899017333984,-25.368702858133357,41.23409013322192,3525146699
sw,-60.3520240783691,-86.817153930664,-22.698368559677288,43.43415417840369,3525163366
sw,-60.1650962829589,-86.5652160644531,-18.80486513113476,44.647128701365396,3525180033
sw,-60.0607833862304,-86.2692337036132,-12.814900728496367,45.21563333066853,3525196700
sw,-60.0331230163574,-86.0024261474609,-4.0262311950509675,45.48540035283381,3525213367
sw,-60.1451568603515,-85.6865692138671,7.953321444565606,45.642058246468686,3525230034
sw,-60.3808937072753,-85.2739562988281,23.034435607234816,45.55271919044149,3525246701
sw,-60.8248901367187,-84.861343383789,40.50795849852117,44.66065888061537,3525263368
sw,-61.7318725585937,-84.5931777954101,59.01397462708354,41.97599380895364,3525280035
sw,-62.8638725280761,-84.3785552978515,76.67559585916696,36.19151584959316,3525296702
sw,-64.1646499633789,-84.1622619628906,91.41360904429582,25.930028597363638,3525313369
sw,-65.9012756347656,-83.9963912963867,101.40280557006069,10.094224524361545,3525330036
sw,-68.0068817138671,-83.9593124389648,105.57331896574016,-11.753787692039072,3525346703
sw,-70.6739349365234,-84.1806564331054,104.01292542964744,-39.09248434693737,3525363370
sw,-72.776382446289,-84.9465789794921,98.1113335643501,-70.3355349437425,3525380037
sw,-74.1566314697265,-86.3728561401367,90.3359407827444,-102.9953916021185,3525396704
sw,-74.8628540039062,-87.5777969360351,83.649179309084,-134.10691650547378,3525413371
sw,-75.7612380981445,-86.400276184082,80.72458238329268,-160.80651105865024,3525430038
sw,-77.0346755981445,-83.5373458862304,83.20831283585818,-180.89871188870387,3525446705
sw,-78.7436981201171,-80.1098022460937,91.25037095615154,-193.24144511371193,3525463372
sw,-80.6868362426757,-76.4686126708984,103.41864407231373,-197.8413146167401,3525480039
sw,-82.3944549560546,-73.0114517211914,116.98741569347575,-195.64513575400616,3525496706
sw,-83.9458236694336,-70.2562179565429,128.52148174813922,-188.1124355323025,3525513373
sw,-85.5454330444336,-67.8561782836914,134.65557073611993,-176.72746706445196,3525530040
sw,-86.8255386352539,-65.4635772705078,132.94640789011072,-162.62951113897577,3525546707
sw,-85.5905151367187,-63.2213172912597,122.61577866839832,-146.48748741480486,3525563374
sw,-83.1678695678711,-60.8570823669433,104.93991301788826,-128.6330570787438,3525580041
sw,-81.9023818969726,-58.4352416992187,83.0635176101383,-109.34646278161493,3525596708
sw,-81.819953918457,-56.6080589294433,61.18991943485258,-89.12082072829612,3525613375
sw,-82.4937133789062,-55.63720703125,43.37332103013041,-68.74911076654602,3525630042
sw,-82.9559783935546,-55.246971130371,32.35811811899115,-49.17825068236628,3525646709
sw,-82.686408996582,-55.2480201721191,28.92013916359872,-31.20633634479426,3525663376
sw,-81.6126937866211,-55.3022117614746,31.93877571599625,-15.189163930535134,3525680043
sw,-79.9609909057617,-55.2175979614257,39.09179292981684,-0.919856117110082,3525696710
sw,-78.4401473999023,-55.0835571289062,47.80392041644896,12.244506001836887,3525713377
sw,-77.3491744995117,-55.0687789916992,56.02503995650917,25.06021743782761,3525730044
sw,-76.6707305908203,-55.2694549560546,62.56526716194094,38.02277598731978,3525746711
sw,-76.1685333251953,-55.9490051269531,66.96418953327333,51.10311215970748,3525763378
sw,-75.3986206054687,-57.433536529541,69.07946774987664,63.6936562285433,3525780045
sw,-74.3077697753906,-59.1134910583496,68.65476092584271,74.75929670155155,3525796712
sw,-73.1034851074218,-60.3342857360839,65.06619029760378,83.1043600399405,3525813379
sw,-72.1261825561523,-61.2327919006347,57.319078257919735,87.65329469831809,3525830046
sw,-71.5285491943359,-62.3531990051269,44.255517733029336,87.69468963317163,3525846713
sw,-71.2056503295898,-63.7977600097656,24.880974832469384,83.09258706432216,3525863380
sw,-71.0350875854492,-65.3974380493164,-1.2870747325018623,74.46501167427684,3525880047
sw,-71.1527862548828,-67.1521377563476,-33.937287278121715,63.27333747751278,3525896714
sw,-71.9805755615234,-68.0595550537109,-71.83001107395069,51.724183958673486,3525913381
sw,-73.9456405639648,-68.6666717529296,-112.86551675108736,42.41773181287285,3525930048
sw,-76.9959030151367,-68.7928695678711,-154.34987456683342,37.78044166815343,3525946715
sw,-80.3726348876953,-69.0793228149414,-193.3761128366302,39.43508655224457,3525963382
sw,-83.9542541503906,-69.7384338378906,-227.1944351572709,47.715053453060484,3525980049
sw,-87.2810592651367,-70.9661865234375,-253.47231031045928,61.490290379276175,3525996716
sw,-86.7516479492187,-72.6023330688476,-270.42657154140295,78.3628019916064,3526013383
sw,-82.7873001098632,-74.3796691894531,-276.88575001688594,95.17035526348342,3526030050
sw,-78.1816482543945,-76.0284042358398,-272.3595521511098,108.66259955394135,3526046717
sw,-73.2488174438476,-78.0161514282226,-257.14738021319937,116.19771098751507,3526063384
sw,-69.6456069946289,-80.5528411865234,-232.44901296440756,116.32208515405353,3526080051
sw,-66.6277694702148,-83.3493194580078,-200.4014122864006,109.10859103401346,3526096718
sw,-63.528507232666,-85.5724258422851,-163.9762124252985,96.1454324891642,3526113385
sw,-60.590705871582,-86.4411392211914,-126.70444666549015,80.12815737746683,3526130052
sw,-58.7632598876953,-86.0891418457031,-92.22023757239062,64.135189217818,3526146719
sw,-58.4134941101074,-85.6141204833984,-63.65387352601617,50.81596632311903,3526163386
sw,-58.7747840881347,-85.8026885986328,-42.98705566416582,41.78718989748586,3526180053
sw,-58.7436447143554,-86.6663360595703,-30.572513482812212,37.44349502560788,3526196720
sw,-58.1304359436035,-87.4185104370117,-25.026237953926,37.18202449867256,3526213387
sw,-57.3487892150878,-87.4138870239257,-23.58079254763128,39.8487221489736,3526230054
sw,-56.6618766784668,-87.0693588256836,-22.805812497654948,44.15665861739801,3526246721
sw,-56.0200386047363,-86.8299179077148,-19.46782272455831,48.915794931834455,3526263388
sw,-55.6288948059082,-86.5606613159179,-11.277739761871441,53.0633779721297,3526280055
sw,-55.7471008300781,-86.0565338134765,2.6555539616781276,55.59284156539751,3526296722
sw,-56.253116607666,-85.2174606323242,21.736840073857955,55.4997695245101,3526313389
sw,-57.0656661987304,-84.2712860107421,44.12947166210037,51.81494500969576,3526330056
sw,-58.1962585449218,-83.5369262695312,67.23390846983284,43.72636036119107,3526346723
sw,-59.6325569152832,-82.9737091064453,88.2761127650877,30.744401946278145,3526363390
sw,-61.2817344665527,-82.6811752319336,104.89004866063917,12.84962324520378,3526380057
sw,-63.3842658996582,-82.8261947631836,115.59725208282335,-9.42789192650344,3526396724
sw,-65.8462600708007,-83.3804397583007,120.10055423571995,-35.02706078020293,3526413391
sw,-68.5555725097656,-84.3093185424804,119.32120176556609,-62.47612781050967,3526430058
sw,-70.5265197753906,-85.718521118164,115.14022429585192,-90.09402342259327,3526446725
sw,-71.6323165893554,-87.4484100341796,109.87782695272868,-116.23171313828654,3526463392
sw,-72.6770629882812,-88.0056076049804,105.64698664436665,-139.49840193855377,3526480059
sw,-74.3764419555664,-85.9353866577148,103.78955100307405,-158.91397072667544,3526496726
sw,-76.3820419311523,-83.2071380615234,104.58057202911053,-173.94491956559872,3526513393
sw,-78.4944839477539,-80.264289855957,107.2697778545298,-184.41986785084504,3526530060
sw,-80.5864791870117,-77.1746368408203,110.39388144291124,-190.36947228306326,3526546727
sw,-82.2683563232421,-73.8435668945312,112.22213306158244,-191.86914521783555,3526563394
sw,-83.6422042846679,-70.4147415161132,111.20991947713306,-188.9608590358684,3526580061
sw,-85.1348190307617,-67.222412109375,106.38692711103961,-181.69156283872252,3526596728
sw,-86.7463455200195,-64.1991271972656,97.63762128840273,-170.24809278327592,3526613395
sw,-87.2396926879882,-61.6054382324218,85.8195742252208,-155.11788542334918,3526630062
sw,-86.424560546875,-59.6153602600097,72.6454040236474,-137.1845124180389,3526646729
sw,-85.8825378417968,-57.6514625549316,60.29005941868646,-117.6874630482908,3526663396
sw,-85.7503814697265,-56.0813026428222,50.7976284078533,-98.02717820821796,3526680063
sw,-85.7533340454101,-55.1346206665039,45.48872362746052,-79.45701429435502,3526696730
sw,-85.3240432739257,-54.6920852661132,44.608929635526486,-62.75558142159599,3526713397
sw,-84.312255859375,-54.2893104553222,47.361147278265406,-48.002061432445984,3526730064
sw,-82.984130859375,-53.8327598571777,52.282393130198415,-34.56402791147718,3526746731
sw,-81.7422943115234,-53.2443008422851,57.77240486217561,-21.338800040898853,3526763398
sw,-80.6560287475586,-52.7760543823242,62.543150145665365,-7.185095185993249,3526780065
sw,-79.7130813598632,-52.5347137451171,65.8373635684049,8.607708297749994,3526796732
sw,-78.8920364379882,-52.6157608032226,67.39525875194677,25.99179149146991,3526813399
sw,-78.0564804077148,-53.5085105895996,67.25598775861619,44.100529508027506,3526830066
sw,-77.1237182617187,-55.1554260253906,65.52246493085475,61.470300204959905,3526846733
sw,-76.0878067016601,-56.9064712524414,62.194770528065305,76.4418385789743,3526863400
sw,-75.0315933227539,-58.0571022033691,57.11592949915689,87.57802577737823,3526880067
sw,-74.0803298950195,-59.1759185791015,50.010940171805224,93.96693975603267,3526896734
sw,-73.3161087036132,-60.5326423645019,40.564337528977106,95.37314673237572,3526913401
sw,-72.846206665039,-62.1272926330566,28.48330466819657,92.27692385554012,3526930068
sw,-72.7650909423828,-63.8210716247558,13.522965324340818,85.8449249353412,3526946735
sw,-72.9615325927734,-65.3567886352539,-4.512725787192241,77.82613553657595,3526963402
sw,-73.4053268432617,-66.7726364135742,-25.758555741319924,70.32823091640905,3526980069
sw,-74.1393203735351,-67.6790313720703,-50.23170377822534,65.44565449151241,3526996736
sw,-75.3637161254882,-68.3298416137695,-77.72390199088709,64.77688270356018,3527013403
sw,-77.1335906982421,-68.9457702636718,-107.66305905840595,68.94715483790819,3527030070
sw,-79.2843933105468,-69.7652435302734,-138.98254876269837,77.30136747746248,3527046737
sw,-81.7885971069336,-71.1113128662109,-170.0416961691057,87.91783216971137,3527063404
sw,-84.5064544677734,-73.0133056640625,-198.64255769799834,98.00802863389842,3527080071
sw,-86.8109512329101,-75.1708602905273,-222.18781399171323,104.6336121092342,3527096738
sw,-86.3864822387695,-77.3309249877929,-238.01211364249633,105.54176754740519,3527113405
sw,-83.2479400634765,-79.5250701904296,-243.87941519502098,99.85037401044247,3527130072
sw,-78.9021453857421,-81.3251571655273,-238.56526173629192,88.3388228097154,3527146739
sw,-73.3560791015625,-82.3006896972656,-222.35356433750073,73.21953327816131,3527163406
sw,-69.9809951782226,-82.5764617919921,-197.22772964888185,57.4501839084021,3527180073
sw,-68.0400772094726,-82.6888427734375,-166.5967685012299,43.832768224149305,3527196740
sw,-66.4217910766601,-83.1138458251953,-134.5799184613433,34.23934768469675,3527213407
sw,-65.0567321777343,-83.7710647583007,-105.0781354191657,29.23985244661902,3527230074
sw,-63.9923439025878,-84.5267868041992,-80.94841830683825,28.21350847408088,3527246741
sw,-62.9045600891113,-85.2222213745117,-63.522841160048614,29.817120547286873,3527263408
sw,-61.7732772827148,-85.8116149902343,-52.55274085860434,32.57073488304348,3527280075
sw,-60.788963317871,-86.3329696655273,-46.51024779167305,35.33524242696107,3527296742
sw,-59.9973716735839,-86.9185943603515,-43.09860691791506,37.553620166180664,3527313409
sw,-59.4082145690918,-87.4312057495117,-39.815413951135,39.23989341186712,3527330076
sw,-58.9835052490234,-87.6318969726562,-34.454587761122255,40.777287310855236,3527346743
sw,-58.4038619995117,-87.3996276855468,-25.485228981811314,42.614205916100126,3527363410
sw,-57.9834442138671,-86.9390640258789,-12.278716812827888,44.94032261424231,3527380077
sw,-57.9387130737304,-86.4948501586914,4.832639261594308,47.413115677919826,3527396744
sw,-58.5280494689941,-86.0914993286132,24.67009175734984,49.00176419081517,3527413411
sw,-59.570499420166,-85.7193374633789,45.47170849670394,48.01166934431604,3527430078
sw,-60.5758438110351,-85.3498306274414,65.24401391067117,42.33002141588838,3527446745
sw,-61.8151473999023,-84.9161987304687,82.12615131147679,29.88150344969428,3527463412
sw,-63.2610702514648,-84.5779800415039,94.70660674267687,9.213153546350137,3527480079
sw,-65.1125869750976,-84.5450134277343,102.259253050604,-19.937243129538594,3527496746
sw,-67.4077606201171,-84.9826126098632,104.87532726092628,-56.26626887231682,3527513413
sw,-69.3583908081054,-86.0427932739257,103.46021889977244,-96.87790689511735,3527530080
sw,-70.9281997680664,-87.6788940429687,99.56696385661579,-137.67703463492703,3527546747
sw,-72.2661514282226,-87.0942459106445,95.07592296678484,-174.13031764007374,3527563414
sw,-73.4753952026367,-83.5582885742187,91.78926909377883,-202.20966663050515,3527580081
sw,-75.0543670654296,-79.4029235839843,91.04722579208816,-219.24797080021037,3527596748
sw,-76.8569641113281,-75.1475448608398,93.46006308211363,-224.44300979722618,3527613415
sw,-78.7465667724609,-71.1483459472656,98.79727860452549,-218.85325618519042,3527630082
sw,-80.4099044799804,-68.0556640625,106.025775221943,-204.90328315837698,3527646749
sw,-81.7836990356445,-65.5780563354492,113.47608973721769,-185.59062591564597,3527663416
sw,-83.3699874877929,-63.4430389404296,119.13281251429572,-163.68764752905605,3527680083
sw,-85.0403823852539,-61.3987960815429,121.05040623988266,-141.2103237425435,3527696750
sw,-86.2251968383789,-58.8228683471679,117.85449198237167,-119.28432897512336,3527713417
sw,-86.2570724487304,-56.6222610473632,109.21293390442827,-98.34806777147683,3527730084
sw,-85.0160293579101,-55.475528717041,96.10312046986023,-78.49656306672779,3527746751
sw,-83.7399749755859,-54.6000671386718,80.71607041073555,-59.75946767745066,3527763418
sw,-83.20361328125,-54.0665092468261,65.9453021498221,-42.205874115615686,3527780085
sw,-83.2438430786132,-53.8399124145507,54.57865711897033,-25.89510072883979,3527796752
sw,-83.2584915161132,-53.8699569702148,48.464916809964,-10.769930919405379,3527813419
sw,-82.8614425659179,-54.19038772583,47.97143156897231,3.402086760919204,3527830086
sw,-81.8998184204101,-54.5864868164062,51.94232477791029,16.971958383335696,3527846753
sw,-80.3616180419921,-54.8524284362793,58.15689396063009,30.233034620843878,3527863420
sw,-78.781265258789,-54.9065818786621,64.08432130826618,43.192153051749166,3527880087
sw,-77.4796142578125,-55.1545639038085,67.63487583220876,55.40830428095171,3527896754
sw,-76.4528884887695,-56.1566772460937,67.65360287360123,66.01795809977365,3527913421
sw,-75.6654434204101,-57.9420127868652,64.04551421459418,73.98842249633759,3527930088
sw,-74.8301696777343,-59.9747428894043,57.574049159478996,78.51336978884292,3527946755
sw,-73.9727554321289,-61.3783226013183,49.464082135927015,79.36720777746073,3527963422
sw,-73.1636123657226,-62.3339195251464,40.948678142408205,77.04389359889764,3527980089
sw,-72.6026306152343,-63.327781677246,32.85958254595949,72.62380408667968,3527996756
sw,-72.4231262207031,-64.0148468017578,25.32535292319289,67.45724805868228,3528013423
sw,-72.5787277221679,-64.8318252563476,17.63273732584711,62.82774695570137,3528030090
sw,-72.8874435424804,-66.0054016113281,8.309720647300058,59.72719516609824,3528046757
sw,-72.910903930664,-67.2674026489257,-4.536093872081176,58.77749989978278,3528063424
sw,-72.6746139526367,-68.469367980957,-22.66493637144673,60.24088540648948,3528080091
sw,-72.7354125976562,-69.2166213989257,-47.08154127998314,64.03148334329433,3528096758
sw,-73.6023788452148,-69.8581771850586,-77.5515916147351,69.68615687254972,3528113425
sw,-75.4962158203125,-70.8915710449218,-112.44287314799796,76.33113370946236,3528130092
sw,-78.2671279907226,-72.3029479980468,-148.95567542341254,82.72733286569114,3528146759
sw,-81.6139755249023,-73.9762725830078,-183.65461361165572,87.4535628201756,3528163426
sw,-85.2303848266601,-75.5999526977539,-213.11291633499553,89.21213803863925,3528180093
sw,-87.9313354492187,-77.0560226440429,-234.47696407462337,87.16988240220121,3528196760
sw,-86.3596572875976,-78.5143585205078,-245.8392854195282,81.21996172849292,3528213427
sw,-82.8746490478515,-79.9737167358398,-246.41275332323306,72.07008679768087,3528230094
sw,-78.3428192138671,-81.169075012207,-236.56064495761615,61.11220196529455,3528246761
sw,-74.5894775390625,-82.0306091308593,-217.7276962572705,50.09328973546945,3528263428
sw,-71.4236679077148,-82.5522384643554,-192.26899551968935,40.675551909115555,3528280095
sw,-68.4149169921875,-82.890640258789,-163.14877364643468,34.0234927226546,3528296762
sw,-66.1319580078125,-83.2478866577148,-133.50880178406868,30.55415657516061,3528313429
sw,-64.965217590332,-83.7242736816406,-106.16458543068708,29.92591142222609,3528330096
sw,-64.084846496582,-84.3807830810546,-83.14035807096084,31.249227076577984,3528346763
sw,-63.1210784912109,-85.1369552612304,-65.37144946633697,33.42594410583725,3528363430
sw,-62.0491905212402,-85.8723220825195,-52.66297433433045,35.493295997456016,3528380097
sw,-60.8869972229003,-86.5288696289062,-43.90291619201645,36.868374873426156,3528396764
sw,-60.0475463867187,-87.0663528442382,-37.43439899721222,37.438702478759716,3528413431
sw,-59.6496620178222,-87.4213180541992,-31.454121717526448,37.499290354644735,3528430098
sw,-59.4442901611328,-87.5416259765625,-24.337752868467426,37.57647565524843,3528446765
sw,-59.3729362487793,-87.4516296386718,-14.862338485746202,38.196170757375086,3528463432
sw,-59.2453346252441,-87.1856155395507,-2.347090531495889,39.65196360211936,3528480099
sw,-59.5320930480957,-86.7830200195312,13.25942638770553,41.81618890293346,3528496766
sw,-60.1181182861328,-86.3625030517578,31.342429164078496,44.02542638464027,3528513433
sw,-60.6697006225585,-86.0313873291015,50.65781900941381,45.067191708898264,3528530100
sw,-61.486270904541,-85.7381439208984,69.47759090675659,43.29376919316169,3528546767
sw,-62.6315460205078,-85.3564071655273,85.86944852387009,36.87993048142354,3528563434
sw,-64.4708557128906,-84.9661178588867,98.101038172759,24.211127550462283,3528580101
sw,-66.883804321289,-84.717544555664,105.09662674358488,4.338159105226182,3528596768
sw,-69.3918838500976,-84.680435180664,106.80851274901283,-22.617234366215087,3528613435
sw,-71.3786087036132,-85.0347366333007,104.34515177121997,-55.24465058428363,3528630102
sw,-72.8003616333007,-86.0794906616211,99.75905353433555,-90.92657752089458,3528646769
sw,-73.8643569946289,-87.4547042846679,95.52528025093355,-126.24943479918497,3528663436
sw,-75.0745697021484,-86.8330612182617,93.86960034078392,-157.66181989116484,3528680103
sw,-76.7006072998046,-84.0050506591796,96.16127839856094,-182.1990993175357,3528696770
sw,-78.6491394042968,-80.4530944824218,102.5438033950166,-198.05637537740367,3528713437
sw,-80.6716079711914,-76.5864715576171,111.87615977088996,-204.8366437839918,3528730104
sw,-82.434829711914,-72.9877243041992,121.96576428586908,-203.410495960447,3528746771
sw,-83.9340209960937,-70.1374893188476,130.0339161296062,-195.45848964791307,3528763438
sw,-85.4587783813476,-67.7037200927734,133.35018268453135,-182.88106030992594,3528780105
sw,-86.833625793457,-65.423225402832,129.9515437015086,-167.30590176777048,3528796772
sw,-85.9144744873046,-63.0211944580078,119.29500626722478,-149.86695169589132,3528813439
sw,-83.6747283935546,-60.3304595947265,102.61712247131,-131.28757099415577,3528830106
sw,-82.2003936767578,-57.7674713134765,82.7817528668153,-112.14357522052117,3528846773
sw,-82.007583618164,-56.1410598754882,63.55221928718539,-93.09739735618396,3528863440
sw,-82.7175369262695,-55.1654739379882,48.4831394357378,-74.93240134126125,3528880107
sw,-83.1134796142578,-54.7555122375488,39.84531644693596,-58.353183298699136,3528896774
sw,-82.6041030883789,-54.5625228881835,38.02251831193029,-43.67000092518901,3528913441
sw,-81.2848587036132,-54.3750267028808,41.61171566012395,-30.564345921799987,3528930108
sw,-79.5545654296875,-53.9835815429687,48.13014501622155,-18.099652862176512,3528946775
sw,-77.9157409667968,-53.51953125,54.97130391737072,-5.0217290562220995,3528963442
sw,-76.6979675292968,-53.3015174865722,60.191686406632755,9.747585010913658,3528980109
sw,-76.0092697143554,-53.4055290222168,62.85372294590643,26.614735606796064,3528996776
sw,-75.461441040039,-53.8423881530761,62.892006165490656,45.01653542634874,3529013443
sw,-74.841323852539,-54.8019638061523,60.67533060022588,63.445640864926574,3529030110
sw,-74.0697174072265,-56.4831466674804,56.51977103687101,79.80501150721207,3529046777
sw,-73.1926116943359,-58.3044776916503,50.36187168795635,91.97938917621862,3529063444
sw,-72.3692398071289,-59.9039077758789,41.682973907669016,98.44113146891605,3529080111
sw,-71.7312393188476,-61.4337196350097,29.658138455278724,98.70950114286515,3529096778
sw,-71.4158325195312,-63.010929107666,13.432516721440496,93.54599517267702,3529113445
sw,-71.4191970825195,-64.5771102905273,-7.5869199536679774,84.85044621076787,3529130112
sw,-71.7902069091796,-65.9762573242187,-33.51204708295563,75.28519253282717,3529146779
sw,-72.8303833007812,-66.9986190795898,-63.872176665718456,67.69462433044139,3529163446
sw,-74.6273040771484,-67.7604751586914,-97.63019920057441,64.42449862566308,3529180113
sw,-77.158950805664,-68.3146667480468,-133.27584756878028,66.68730520531206,3529196780
sw,-80.0275650024414,-68.9959945678711,-168.93531530870686,74.14845432880519,3529213447
sw,-83.0402145385742,-70.041259765625,-202.45192724748838,84.89242922813382,3529230114
sw,-86.0226593017578,-71.6162948608398,-231.44427953157773,95.84703387147177,3529246781
sw,-87.42724609375,-73.7853240966796,-253.40811550080238,103.60414212222986,3529263448
sw,-84.8399581909179,-76.2347412109375,-265.95186196695624,105.4198483103372,3529280115
sw,-80.8258590698242,-78.6944274902343,-267.21194960548024,100.07278315120614,3529296782
sw,-75.1529312133789,-80.5974884033203,-256.38679356107923,88.26703395382374,3529313449
sw,-70.3498458862304,-81.6121292114257,-234.20563687181107,72.40679959081469,3529330116
sw,-67.1648025512695,-81.7773208618164,-203.09333101911312,55.80575283797481,3529346783
sw,-64.3690872192382,-81.6416625976562,-166.87054979987093,41.62895200028328,3529363450
sw,-62.5886459350585,-81.8722534179687,-130.01735384919692,31.979443867443745,3529380117
sw,-61.7754898071289,-82.5639114379882,-96.7166540538506,27.463042429395703,3529396784
sw,-61.2582054138183,-83.4006729125976,-69.98161652588497,27.33039717085734,3529413451
sw,-60.4980392456054,-84.1965103149414,-51.130472580638916,30.039116292741756,3529430118
sw,-59.3415794372558,-85.0101776123046,-39.73402278730859,33.93696298405478,3529446785
sw,-58.2724838256835,-85.7673797607421,-33.9857266936407,37.78847417248239,3529463452
sw,-57.5269470214843,-86.554458618164,-31.310344132932492,41.00115094646488,3529480119
sw,-57.2587623596191,-87.3166427612304,-28.995214739568024,43.56055615950113,3529496786
sw,-57.0044822692871,-87.9127807617187,-24.69504279091508,45.782170599060315,3529513453
sw,-56.822280883789,-88.035171508789,-16.762401877131293,48.00727905166501,3529530120
sw,-56.6790695190429,-87.568359375,-4.423154733795392,50.3340706889477,3529546787
sw,-56.7005310058593,-86.9599227905273,12.173518849752664,52.4290001432684,3529563454
sw,-57.2593307495117,-86.497200012207,32.020196465549894,53.43996730185569,3529580121
sw,-58.1280097961425,-86.1248092651367,53.43254372793257,52.032710764360075,3529596788
sw,-59.4386100769043,-85.6998519897461,74.33654888716711,46.5718017933075,3529613455
sw,-60.8173370361328,-85.2643051147461,92.62855568313587,35.44567095869969,3529630122
sw,-62.4875450134277,-84.9216766357421,106.55837961711542,17.48955529927994,3529646789
sw,-64.5756530761718,-84.8376846313476,115.07798691038174,-7.590130953424318,3529663456
sw,-67.0569915771484,-85.1156921386718,118.08933721793703,-38.91691347226372,3529680123
sw,-69.6448287963867,-85.8946380615234,116.51468449054492,-74.39025848744525,3529696790
sw,-71.5746002197265,-87.4098052978515,112.12383963796167,-110.94333747170162,3529713457
sw,-72.7976531982421,-88.2978515625,107.11256917960024,-145.08750060674427,3529730124
sw,-74.0384902954101,-85.4618377685546,103.52553476089194,-173.61147413221207,3529746791
sw,-75.7526168823242,-81.7996520996093,102.69870283993829,-194.22681223421978,3529763458
sw,-77.6396865844726,-78.3176193237304,104.89911213912816,-205.9529084483049,3529780125
sw,-79.5702514648437,-75.0020370483398,109.26151100029938,-209.128621596285,3529796792
sw,-81.2719268798828,-71.6422958374023,114.02055215456309,-205.08211107354362,3529813459
sw,-82.7128829956054,-68.7192916870117,116.97205903378507,-195.6133232170817,3529830126
sw,-84.3814468383789,-65.8461837768554,116.07131564973999,-182.49019390494928,3529846793
sw,-86.2920761108398,-63.0092620849609,110.05310804773193,-167.120606914539,3529863460
sw,-87.019287109375,-60.4762458801269,98.9157846692335,-150.46475901917776,3529880127
sw,-85.8187255859375,-58.091796875,84.08333264386238,-133.1428819945143,3529896794
sw,-85.0487213134765,-55.9702568054199,68.11227624032506,-115.61948891120504,3529913461
sw,-84.9306716918945,-54.3376998901367,53.97241448072466,-98.33654125089541,3529930128
sw,-85.0861434936523,-53.2207336425781,44.136564919352246,-81.72036356936137,3529946795
sw,-84.9706039428711,-52.477668762207,39.83443978599664,-66.06999860580223,3529963462
sw,-84.3009567260742,-51.8883209228515,40.76668257630731,-51.40636486973166,3529980129
sw,-83.1531829833984,-51.4019432067871,45.362453643744345,-37.38730091251663,3529996796
sw,-81.8617782592773,-50.99658203125,51.42365060159448,-23.362577779923996,3530013463
sw,-80.6176147460937,-50.7052154541015,56.86158562694074,-8.574243234152746,3530030130
sw,-79.6175765991211,-50.6019020080566,60.248906833985124,7.562459664960864,3530046797
sw,-78.8649826049804,-50.8383827209472,61.039665856729805,25.200937093331536,3530063464
sw,-78.1866683959961,-51.5384101867675,59.46749635260449,43.92306725192868,3530080131
sw,-77.4065399169921,-52.7711639404296,56.24108204325751,62.764032784363096,3530096798
sw,-76.5416717529296,-54.2735290527343,52.18551836838359,80.385707448709,3530113465
sw,-75.7075805664062,-55.8028030395507,47.94178155310222,95.3354700646801,3530130132
sw,-74.9903259277343,-57.2507057189941,43.77575773971972,106.31910932108354,3530146799
sw,-74.4221572875976,-58.8683357238769,39.501950427450474,112.44151043835639,3530163466
sw,-73.9452667236328,-60.8360328674316,34.50854269682939,113.3969316345031,3530180133
sw,-73.5503692626953,-63.0535049438476,27.868538295672348,109.5933264525404,3530196800
sw,-73.1700668334961,-65.01513671875,18.518237099672536,102.17485241085062,3530213467
sw,-72.9070892333984,-66.3805618286132,5.47197565953196,92.89642733719518,3530230134
sw,-72.9624710083007,-67.5698623657226,-11.971560526192478,83.83224944383701,3530246801
sw,-73.4779663085937,-68.7388687133789,-34.07671920539497,76.95803395138073,3530263468
sw,-74.5677719116211,-69.6941833496093,-60.596814633950856,73.69905957031663,3530280135
sw,-76.2541198730468,-70.3821487426757,-90.76951151727471,74.55939287581451,3530296802
sw,-78.4019775390625,-71.34765625,-123.34536485322789,78.94325453747844,3530313469
sw,-80.864990234375,-72.7192840576171,-156.61323734511893,85.24949094329241,3530330136
sw,-83.5804824829101,-74.5249633789062,-188.4195172679167,91.25502917920629,3530346803
sw,-86.3144302368164,-76.4373397827148,-216.22845802169633,94.70706624992631,3530363470
sw,-87.5391616821289,-78.3288803100586,-237.30586690689253,93.95378463575382,3530380137
sw,-85.0876998901367,-79.9368667602539,-249.09435844325583,88.40864634807883,3530396804
sw,-80.8616714477539,-81.1835708618164,-249.76901750133152,78.68860497449438,3530413471
sw,-74.7075958251953,-81.9204177856445,-238.83457686876307,66.37919116081116,3530430138
sw,-70.4825439453125,-82.2527618408203,-217.51509557319798,53.51808471095177,3530446805
sw,-68.2488021850586,-82.6262664794921,-188.69430360260435,41.99691178612999,3530463472
sw,-66.4276580810546,-83.3942642211914,-156.33759013673793,33.104590082966745,3530480139
sw,-64.828384399414,-84.211181640625,-124.57492674123665,27.3551266517312,3530496806
sw,-63.3979530334472,-84.7809143066406,-96.77414285902276,24.600622159207383,3530513473
sw,-62.0798645019531,-85.1424789428711,-74.89702423685446,24.310460770212604,3530530140
sw,-60.977554321289,-85.504165649414,-59.27193242040415,25.86176657321966,3530546807
sw,-60.0989646911621,-85.9430541992187,-48.75814013771126,28.730118009352918,3530563474
sw,-59.4204063415527,-86.4713668823242,-41.18799777460573,32.54431991304949,3530580141
sw,-58.9434127807617,-87.0094528198242,-33.95339179959683,37.0291957269053,3530596808
sw,-58.5702934265136,-87.365966796875,-24.6202673752819,41.88801969107786,3530613475
sw,-58.2796401977539,-87.330093383789,-11.47685802979947,46.67657770686708,3530630142
sw,-58.1968307495117,-86.9304428100586,6.068053209891559,50.70866378684593,3530646809
sw,-58.1495399475097,-86.4032135009765,27.316017067224774,53.02078058364596,3530663476
sw,-58.8484649658203,-85.93798828125,50.40036599903368,52.416150885143594,3530680143
sw,-60.2700767517089,-85.5056915283203,72.70946011652762,47.60068311467135,3530696810
sw,-61.8737564086914,-85.0967559814453,91.54038282721257,37.40837987837984,3530713477
sw,-64.0478820800781,-84.8084640502929,104.82541495287158,21.086644587168138,3530730144
sw,-66.4338150024414,-84.7384719848632,111.72498277893905,-1.420598602124119,3530746811
sw,-69.0347824096679,-84.9105377197265,112.89642148320881,-29.276519967543678,3530763478
sw,-70.6336898803711,-85.3897247314453,110.33090954359298,-60.7241794859824,3530780145
sw,-71.8476181030273,-86.4438400268554,106.78537638822024,-93.27825148665599,3530796812
sw,-73.0528793334961,-87.4910278320312,104.98004521882953,-124.12458729795235,3530813479
sw,-74.5739440917968,-86.3607864379882,106.81883992087714,-150.64140992019446,3530830146
sw,-76.6535720825195,-83.7365264892578,112.86904420041704,-170.8967088501752,3530846813
sw,-78.9090194702148,-80.5719146728515,122.22265396123208,-183.96771915819423,3530863480
sw,-81.2866134643554,-77.1295318603515,132.7269600803233,-189.98193193701155,3530880147
sw,-83.3880844116211,-73.7857131958007,141.48760198647506,-189.87272426768533,3530896814
sw,-85.0043258666992,-70.8910217285156,145.53272815600394,-184.94015670879617,3530913481
sw,-86.3345718383789,-68.5475311279296,142.54320448247836,-176.37865497091713,3530930148
sw,-86.6188125610351,-66.0780181884765,131.54158448059803,-164.95167844454073,3530946815
sw,-84.034683227539,-63.4554443359375,113.36924148560242,-150.93601270545744,3530963482
sw,-81.8558959960937,-60.6829605102539,90.72494282810703,-134.33246443412187,3530980149
sw,-81.5272521972656,-58.3403892517089,67.60202589086464,-115.20570404068387,3530996816
sw,-82.1660919189453,-56.9227905273437,48.19567551022044,-93.95642131016852,3531013483
sw,-82.8640899658203,-55.9841041564941,35.64483443868996,-71.382670476118,3531030150
sw,-82.9399795532226,-55.5686836242675,31.114636983106067,-48.516085895234454,3531046817
sw,-82.1801147460937,-55.5828590393066,33.59395442348713,-26.340756946597345,3531063484
sw,-80.535415649414,-55.6716766357421,40.45263086163245,-5.553580845398495,3531080151
sw,-78.6220169067382,-55.6230545043945,48.469919034165706,13.510873245583472,3531096818
sw,-77.3383102416992,-55.7942810058593,54.882493791010056,30.764241824931144,3531113485
sw,-76.7548904418945,-56.2583198547363,58.06674662303004,46.13576395002332,3531130152
sw,-76.3463439941406,-56.9411354064941,57.69850697514137,59.36977175013761,3531146819
sw,-75.7254638671875,-57.8866539001464,54.478171013494595,69.97246747424327,3531163486
sw,-74.8752899169921,-59.5506591796875,49.63967288441521,77.35231680217572,3531180153
sw,-73.9001922607421,-61.4390830993652,44.445007689106056,81.09660712287567,3531196820
sw,-73.0866622924804,-63.1034278869628,39.770798580168034,81.2512021332829,3531213487
sw,-72.6753997802734,-64.4109497070312,35.81581113873203,78.46223779851303,3531230154
sw,-72.6567611694336,-65.3255996704101,31.944828655012333,73.90651772206984,3531246821
sw,-72.6545944213867,-66.0615310668945,26.710979905640045,69.04225091935969,3531263488
sw,-72.3556060791015,-67.0583267211914,18.1056690936633,65.28717495847164,3531280155
sw,-71.8694152832031,-68.3103408813476,4.032399419223485,63.73429178993367,3531296822
sw,-71.6117858886718,-69.4762344360351,-17.096043700382648,64.96029066384855,3531313489
sw,-71.9656829833984,-70.2727813720703,-45.81607670410372,68.92390647552136,3531330156
sw,-73.183349609375,-70.9122924804687,-81.30776967453951,74.93840883686799,3531346823
sw,-75.4545440673828,-71.820930480957,-121.42053836452043,81.732227838738,3531363490
sw,-78.4604263305664,-73.0972290039062,-162.99991131544854,87.63874096092569,3531380157
sw,-81.9520645141601,-74.697639465332,-202.38725216228337,90.93589198487813,3531396824
sw,-85.5258712768554,-76.5232315063476,-235.9419316009442,90.28522291096546,3531413491
sw,-87.9147567749023,-78.2208557128906,-260.4902152212884,85.13977424581938,3531430158
sw,-85.8508377075195,-79.4647598266601,-273.6907060183743,75.9589564412542,3531446825
sw,-81.5349960327148,-80.4134750366211,-274.35275585088664,64.12001944619237,3531463492
sw,-75.3891983032226,-80.6205368041992,-262.7044628133814,51.5346151064515,3531480159
sw,-70.4329833984375,-80.5440063476562,-240.50702867486785,40.1064592329926,3531496826
sw,-67.613296508789,-80.9180374145507,-210.85873607763426,31.234779784303182,3531513493
sw,-65.4654388427734,-81.8466186523437,-177.62069663584288,25.540109304326858,3531530160
sw,-63.583625793457,-82.7554092407226,-144.59266290731586,22.879066495045993,3531546827
sw,-62.0599250793457,-83.3547134399414,-114.71674594445628,22.58658941226221,3531563494
sw,-60.5421676635742,-83.7842330932617,-89.57488578332622,23.808807827975052,3531580161
sw,-59.0018806457519,-84.2549514770507,-69.29963800513758,25.79504693272157,3531596828
sw,-57.8212547302246,-84.8140106201171,-52.84826048552108,28.075025961201334,3531613495
sw,-57.2478370666503,-85.423843383789,-38.48673089004038,30.507870512476284,3531630162
sw,-56.9471130371093,-85.9574127197265,-24.319160645155975,33.22340831503045,3531646829
sw,-56.849609375,-86.3211364746093,-8.750163296437801,36.484285945449884,3531663496
sw,-57.1048698425293,-86.495132446289,9.170611363824587,40.49643485002074,3531680163
sw,-57.5013465881347,-86.4891662597656,29.539787167526082,45.19880678897304,3531696830
sw,-58.0142211914062,-86.3390579223632,51.54354901924405,50.07314705262053,3531713497
sw,-59.1044692993164,-86.0962600708007,73.57504220176833,54.02517899664756,3531730164
sw,-60.6855278015136,-85.7919692993164,93.5361034252173,55.39248455298124,3531746831
sw,-62.6940956115722,-85.3933792114257,109.29261873322137,52.12372615033213,3531763498
sw,-64.8577728271484,-84.933609008789,119.19655887466617,42.1414434539779,3531780165
sw,-67.052001953125,-84.5546493530273,122.54675937348073,23.846256674040472,3531796832
sw,-69.3992691040039,-84.3330307006836,119.85773331003966,-3.3428797750533708,3531813499
sw,-71.8336029052734,-84.4243774414062,112.84225117955424,-38.5654793984558,3531830166
sw,-73.4791183471679,-85.091323852539,104.07878237818464,-79.3733569456653,3531846833
sw,-74.6810073852539,-86.3375091552734,96.42050112716446,-121.97085941541923,3531863500
sw,-75.6047134399414,-86.8196182250976,92.29178411255067,-161.84446525789525,3531880167
sw,-77.0325164794921,-84.3751068115234,93.07228564006293,-194.65072507524846,3531896834
sw,-78.8052368164062,-80.3733673095703,98.74738022057687,-217.12141794986042,3531913501
sw,-80.8176574707031,-76.0416412353515,107.90922849500086,-227.71177372861146,3531930168
sw,-82.7700805664062,-72.0092544555664,118.08003379736608,-226.7877651289559,3531946835
sw,-84.2320480346679,-68.6667938232421,126.26052819854573,-216.30390482025868,3531963502
sw,-85.3585205078125,-65.7655029296875,129.59733445659936,-199.1051010662576,3531980169
sw,-86.2919235229492,-63.5718002319335,126.07199718672241,-178.11794800144577,3531996836
sw,-85.5571517944336,-61.5086936950683,115.09221076905901,-155.71785568119435,3532013503
sw,-83.6101531982421,-59.0563774108886,97.81438365017145,-133.45599238503968,3532030170
sw,-81.9833755493164,-56.3487701416015,77.01615582096622,-112.14995792862956,3532046837
sw,-81.5634155273437,-54.4625434875488,56.443391967200405,-92.17434030042651,3532063504
sw,-82.1668701171875,-53.3889923095703,39.77160506853485,-73.72439298179151,3532080171
sw,-82.7542724609375,-52.9216690063476,29.535014009924357,-56.90194429013684,3532096838
sw,-82.6439056396484,-52.7844543457031,26.442943960315443,-41.628805972873074,3532113505
sw,-81.7809524536132,-52.6381378173828,29.354705977089893,-27.519956349820244,3532130172
sw,-80.3064498901367,-52.3003196716308,35.88868142870855,-13.870294335109024,3532146839
sw,-78.7199630737304,-51.9434585571289,43.36389364173249,0.1724362546933652,3532163506
sw,-77.6126708984375,-51.8994712829589,49.6622958283516,15.296406039801438,3532180173
sw,-77.084358215332,-52.2268829345703,53.69775442335643,31.709093090586755,3532196840
sw,-76.7594833374023,-52.8525657653808,55.40389813007748,48.956413244083365,3532213507
sw,-76.2165985107421,-53.9894714355468,55.37114936483933,65.95731302318954,3532230174
sw,-75.313850402832,-55.7900695800781,54.365726745807535,81.24191635361925,3532246841
sw,-74.2210235595703,-57.6431083679199,52.92916738399545,93.3034490183453,3532263508
sw,-73.2412185668945,-59.0615539550781,51.14777445120134,100.94417367231496,3532280175
sw,-72.5298156738281,-60.4600105285644,48.584428565639215,103.5257398370983,3532296842
sw,-72.0293884277343,-62.1486511230468,44.329344242970826,101.09907971334803,3532313509
sw,-71.5755996704101,-63.9132995605468,37.140557845055525,94.43502638094786,3532330176
sw,-71.130859375,-65.5776748657226,25.66527845661269,84.97184481567858,3532346843
sw,-70.8369903564453,-66.9769058227539,8.72712312260246,74.6619396691645,3532363510
sw,-70.8669509887695,-67.9749145507812,-14.366110687134256,65.68741182452116,3532380177
sw,-71.3939590454101,-68.7787857055664,-43.566944647282845,60.04923702021282,3532396844
sw,-72.6440124511718,-69.2475814819336,-77.956703440234,59.100748400996515,3532413511
sw,-74.636604309082,-69.8312911987304,-115.77488662033566,63.15341143760614,3532430178
sw,-77.3110656738281,-70.7723617553711,-154.59465733287269,71.29720274979998,3532446845
sw,-80.4514465332031,-72.1363983154296,-191.58866824891186,81.5334222689921,3532463512
sw,-83.9630432128906,-74.0136108398437,-223.82122933640906,91.22303261311606,3532480179
sw,-87.1766586303711,-76.0273132324218,-248.53069267476172,97.74315487155876,3532496846
sw,-87.1836013793945,-77.9224319458007,-263.4099667837372,99.16526061145893,3532513513
sw,-83.600341796875,-79.7256317138671,-266.9165733153857,94.75419292455636,3532530180
sw,-78.3760528564453,-81.4200210571289,-258.6118180828429,85.13955815211409,3532546847
sw,-73.0452270507812,-82.7889251708984,-239.44242661401927,72.10786482260394,3532563514
sw,-69.6738739013671,-83.5775527954101,-211.80074054475205,58.077399155834186,3532580181
sw,-66.9095458984375,-83.7792510986328,-179.22180348954902,45.421415424141294,3532596848
sw,-64.794448852539,-83.9955673217773,-145.7194153892454,35.863326762335326,3532613515
sw,-63.5229797363281,-84.4362030029296,-114.93989404282344,30.1422422865426,3532630182
sw,-62.602237701416,-85.1020736694336,-89.40539584457711,28.03339104429006,3532646849
sw,-61.5560226440429,-85.851448059082,-70.08466161607856,28.658200777161085,3532663516
sw,-60.3220062255859,-86.6084671020507,-56.40134688507307,30.914417659553248,3532680183
sw,-59.067455291748,-87.3052139282226,-46.63143417822307,33.847130681965176,3532696850
sw,-58.1514129638671,-87.9058532714843,-38.51771918960699,36.85204122031753,3532713517
sw,-57.6959609985351,-88.3189086914062,-29.8905739784421,39.69531374003669,3532730184
sw,-57.4805145263671,-88.3139114379882,-19.13461165803825,42.397462266864586,3532746851
sw,-57.5382804870605,-87.8573532104492,-5.436067701303993,45.04624641400763,3532763518
sw,-57.7270164489746,-87.2095031738281,11.172733512850174,47.59346315048892,3532780185
sw,-58.1059837341308,-86.5932006835937,29.91852080040733,49.67899415055463,3532796852
sw,-59.1442222595214,-86.0629959106445,49.48814725714955,50.523853387355224,3532813519
sw,-60.3370323181152,-85.5397644042968,68.28228922253572,48.9343000503618,3532830186
sw,-61.7927093505859,-84.9983749389648,84.68471279323806,43.44618848240123,3532846853
sw,-63.1622161865234,-84.493911743164,97.31616603303559,32.606102066434865,3532863520
sw,-64.8427505493164,-84.1672592163086,105.25342352735464,15.341915131616341,3532880187
sw,-66.8490600585937,-84.1502456665039,108.20168980833394,-8.662954829576536,3532896854
sw,-69.0234756469726,-84.4623565673828,106.59965935537686,-38.69609530649787,3532913521
sw,-70.8661880493164,-85.207763671875,101.61827677983392,-72.9402267143765,3532930188
sw,-72.4471893310546,-86.5914764404296,95.01385014893772,-108.6550054441593,3532946855
sw,-73.7867202758789,-88.0694351196289,88.83112761178154,-142.6115023051601,3532963522
sw,-74.9646224975586,-86.552131652832,85.00703437186509,-171.69177796291575,3532980189
sw,-76.315559387207,-83.192398071289,84.96583467750258,-193.49448077092373,3532996856
sw,-77.8245697021484,-79.2986755371093,89.298327544082,-206.76407314161037,3533013523
sw,-79.527961730957,-75.513801574707,97.5870542621142,-211.5078115505619,3533030190
sw,-81.1951141357421,-72.0012512207031,108.40293694674268,-208.77047845019305,3533046857
sw,-82.6558609008789,-69.0206604003906,119.48071476954597,-200.16256549936762,3533063524
sw,-83.9293670654296,-66.1450424194336,128.0808507476717,-187.329580935922,3533080191
sw,-85.3074798583984,-63.2550926208496,131.5346920256323,-171.562280080049,3533096858
sw,-85.7658538818359,-60.6946067810058,127.9132251953401,-153.66933036912522,3533113525
sw,-84.4551162719726,-58.3803100585937,116.66131599684593,-134.1060877768054,3533130192
sw,-82.4670867919921,-56.3407669067382,98.96047852697775,-113.2445314946198,3533146859
sw,-81.0913543701171,-54.6960220336914,77.60686956838984,-91.62766780334172,3533163526
sw,-80.7415237426757,-53.383445739746,56.349893142617674,-70.0794932666272,3533180193
sw,-81.1538925170898,-52.6617889404296,38.87095215017878,-49.61393687591692,3533196860
sw,-81.4195404052734,-52.5457954406738,27.76603112640924,-31.175315779207317,3533213527
sw,-81.2790374755859,-52.8982238769531,23.915902872141174,-15.322854365803257,3533230194
sw,-80.5690231323242,-53.2524108886718,26.459668581849122,-2.012405181484858,3533246861
sw,-79.3983001708984,-53.2854232788085,33.31967654381011,9.399343226667384,3533263528
sw,-78.1317062377929,-53.0116310119628,42.00315816178356,19.90207891222996,3533280195
sw,-77.0970153808593,-52.9410018920898,50.33511604702728,30.430962890170548,3533296862
sw,-76.3872299194336,-53.4150352478027,56.8705766424351,41.49694473738314,3533313529
sw,-75.7777481079101,-54.7117881774902,60.92001060536932,53.00492827033881,3533330196
sw,-75.0475540161132,-56.4202880859375,62.295061340676696,64.30603936952572,3533346863
sw,-74.1662445068359,-57.7591667175293,60.964782393321,74.410114676637,3533363530
sw,-73.2601623535156,-58.7244300842285,56.78993907388132,82.23776884600754,3533380197
sw,-72.4776000976562,-59.8818740844726,49.417175608341836,86.83701404466613,3533396864
sw,-71.909683227539,-61.2837371826171,38.32780847918423,87.56667201654447,3533413531
sw,-71.5818557739257,-62.8547401428222,22.98677310756161,84.27795671183158,3533430198
sw,-71.4514694213867,-64.424446105957,3.027514614219102,77.48489989612965,3533446865
sw,-71.6295623779296,-65.9855194091796,-21.58143171633303,68.4518870574857,3533463532
sw,-72.2846298217773,-67.0372619628906,-50.42882717161955,59.105541550138156,3533480199
sw,-73.6554946899414,-67.7545928955078,-82.63607276075479,51.72357647450356,3533496866
sw,-75.7935714721679,-68.1523666381836,-116.91342629939176,48.442849104704784,3533513533
sw,-78.4777679443359,-68.748664855957,-151.6633062362508,50.714259296155575,3533530200
sw,-81.4555130004882,-69.8254165649414,-185.07920106378384,58.86704041375986,3533546867
sw,-84.7066497802734,-71.2748794555664,-215.20567263802695,71.91199713661412,3533563534
sw,-87.4879150390625,-72.8484191894531,-239.9755066372212,87.63659404849122,3533580201
sw,-86.7444229125976,-74.3404464721679,-257.294159411914,102.97212878896619,3533596868
sw,-83.0503158569336,-75.7824325561523,-265.2559384069928,114.57362093844338,3533613535
sw,-78.2225799560546,-77.6143417358398,-262.52131932044,119.53195782620732,3533630202
sw,-72.4711456298828,-80.0426864624023,-248.77215295225852,116.09921289167194,3533646869
sw,-68.9590148925781,-83.1340408325195,-225.05777758194617,104.2445881610469,3533663536
sw,-66.2969741821289,-85.7191162109375,-193.83813394347234,85.81951606377318,3533680203
sw,-63.4805793762207,-86.6869049072265,-158.64497084334403,64.17340580602091,3533696870
sw,-61.2031745910644,-86.1252136230468,-123.43915168644978,43.25717039029268,3533713537
sw,-59.9601974487304,-85.088134765625,-91.83845620404536,26.503097602807845,3533730204
sw,-59.5415802001953,-84.552017211914,-66.40752376379784,15.917228894849432,3533746871
sw,-59.3637351989746,-84.7947769165039,-48.182531314863944,11.741963937171867,3533763538
sw,-58.6729583740234,-85.5605926513671,-36.559744474895695,12.770648986078083,3533780205
sw,-57.706802368164,-86.5315246582031,-29.58574129509773,17.090283719420366,3533796872
sw,-56.9518318176269,-87.3464965820312,-24.55897315066027,22.871103476548537,3533813539
sw,-56.4372596740722,-87.7987747192382,-18.751571786036813,28.87659697260686,3533830206
sw,-56.2641563415527,-88.1438598632812,-10.044610175022514,34.56407292715291,3533846873
sw,-56.4722633361816,-88.4621429443359,2.663703702088023,39.85287080213099,3533863540
sw,-56.8317413330078,-88.5886154174804,19.32172562991242,44.75324929983311,3533880207
sw,-57.314582824707,-88.1604843139648,38.83151760570139,49.04764386146031,3533896874
sw,-58.4503021240234,-87.3075408935546,59.33763314714057,52.13589127747208,3533913541
sw,-59.8742980957031,-86.432014465332,78.6283370005559,53.06051285885233,3533930208
sw,-61.4456939697265,-85.6336364746093,94.57927644412433,50.665659303776515,3533946875
sw,-63.0105361938476,-84.9890594482421,105.57156533410405,43.82620371565432,3533963542
sw,-64.7440643310546,-84.5197067260742,110.8250187905916,31.693267758004957,3533980209
sw,-67.0584182739257,-84.2674255371093,110.59649675030587,13.914117090896996,3533996876
sw,-69.6494369506836,-84.2411193847656,106.19316949687928,-9.212795473793166,3534013543
sw,-71.3505325317382,-84.6140213012695,99.75429742045715,-36.68639180137264,3534030210
sw,-72.4697570800781,-85.5885620117187,93.79698590251328,-66.88276279093886,3534046877
sw,-73.3897399902343,-86.995735168457,90.61011469739049,-97.76477617832028,3534063544
sw,-74.7039108276367,-88.0186080932617,91.66670239336717,-127.17964369690625,3534080211
sw,-76.4744796752929,-86.6010284423828,97.23832354062748,-153.1694458012015,3534096878
sw,-78.5033874511718,-83.7682266235351,106.31781789203717,-174.2122025413583,3534113545
sw,-80.6612091064453,-80.5174255371093,116.84195555961068,-189.33529996140055,3534130212
sw,-82.5234680175781,-77.1520385742187,126.12715423039245,-198.09042873579358,3534146879
sw,-84.0300827026367,-73.7994842529296,131.41977648451245,-200.43222335478387,3534163546
sw,-85.4639587402343,-70.6654434204101,130.48897103003196,-196.5803892235654,3534180213
sw,-86.7869186401367,-67.635498046875,122.19569630499124,-186.94767914572674,3534196880
sw,-85.8539581298828,-64.6476058959961,106.92341700067429,-172.1747161523694,3534213547
sw,-83.9551925659179,-62.1093559265136,86.6924068148143,-153.24077845689806,3534230214
sw,-83.072639465332,-59.7043838500976,64.79698236711874,-131.5544733719723,3534246881
sw,-83.1494598388671,-57.5722045898437,44.9665354831366,-108.91062672508556,3534263548
sw,-83.9406127929687,-56.5273399353027,30.29626993227832,-87.24735159628848,3534280215
sw,-84.4073181152343,-56.1254119873046,22.360999468584247,-68.23493971573082,3534296882
sw,-84.223892211914,-55.8626441955566,20.884411014691032,-52.83232526461772,3534313549
sw,-83.1765975952148,-55.4154815673828,24.09262250779243,-40.997818527399495,3534330216
sw,-81.6546096801757,-54.7258834838867,29.568869638570476,-31.697282532715036,3534346883
sw,-80.3583679199218,-54.007469177246,35.214361951349524,-23.23078345503264,3534363550
sw,-79.6062622070312,-53.47066116333,39.910067241587484,-13.765937027627931,3534380217
sw,-79.2389373779296,-53.3107452392578,43.650107366930925,-1.892401686108174,3534396884
sw,-78.9675598144531,-53.4923210144043,47.17073982387636,12.975939228529153,3534413551
sw,-78.5774383544921,-54.0621490478515,51.29962089259895,30.44834704770683,3534430218
sw,-77.9503097534179,-55.1764526367187,56.3197652598622,49.25688050317336,3534446885
sw,-77.0558547973632,-56.4396133422851,61.5831103955393,67.53962516179803,3534463552
sw,-75.9474258422851,-57.6246871948242,65.4783067623107,83.21269530899608,3534480219
sw,-74.7263488769531,-58.8282432556152,65.72522675905203,94.3549833295524,3534496886
sw,-73.6151123046875,-60.2435111999511,59.880266783623085,99.56891064812177,3534513553
sw,-72.7958602905273,-61.8246116638183,45.90484431996342,98.30220194631458,3534530220
sw,-72.3502655029296,-63.6707572937011,22.66321959475641,91.09690190301026,3534546887
sw,-72.375991821289,-65.6274261474609,-9.746851373694081,79.68783362456156,3534563554
sw,-73.0128402709961,-67.1544570922851,-49.884917611010245,66.84901046460365,3534580221
sw,-74.4358978271484,-67.950080871582,-95.09456675644667,55.925077955483324,3534596888
sw,-76.9661788940429,-68.3215408325195,-141.83988898922482,50.09040554703198,3534613555
sw,-80.3855514526367,-68.4777450561523,-186.18211515444213,51.50775657018066,3534630222
sw,-83.8797073364257,-69.1442337036132,-224.29356730924027,60.64251647233035,3534646889
sw,-86.6623458862304,-70.2742462158203,-252.90646936640604,75.97496487354024,3534663556
sw,-86.0162582397461,-71.9535064697265,-269.6378378897675,94.24011532561292,3534680223
sw,-82.7099685668945,-73.9708709716796,-273.1931726495216,111.1618102256684,3534696890
sw,-78.1163864135742,-75.8138809204101,-263.48512061626707,122.5027918232326,3534713557
sw,-73.5630111694336,-78.0394439697265,-241.68485230597437,125.16749354889302,3534730224
sw,-70.5182647705078,-81.3525772094726,-210.1791329044767,118.06875139667756,3534746891
sw,-67.8577499389648,-84.5907211303711,-172.38608385179734,102.49011389477822,3534763558
sw,-65.0619506835937,-86.1039428710937,-132.40553732450388,81.7627745619361,3534780225
sw,-62.7799987792968,-85.8048400878906,-94.51445540253906,60.274115450600775,3534796892
sw,-61.7832412719726,-84.5709381103515,-62.54222220785236,42.10813036600538,3534813559
sw,-62.0978660583496,-83.7269592285156,-39.20146364393803,29.836015639746677,3534830226
sw,-62.6634826660156,-83.8471221923828,-25.52508606383773,23.95066391481612,3534846893
sw,-62.5873718261718,-84.8450927734375,-20.613821959227273,23.14114324011837,3534863560
sw,-61.7592544555664,-85.9220581054687,-21.847068559025736,25.19997706524805,3534880227
sw,-60.7844924926757,-86.4340515136718,-25.54549345463258,28.084978214698058,3534896894
sw,-59.8842315673828,-86.362075805664,-27.890304811675875,30.654454994280616,3534913561
sw,-59.2854194641113,-86.5902709960937,-25.8131191789657,32.823490759230005,3534930228
sw,-59.0464477539062,-87.1393280029296,-17.610490070596157,35.195908406331725,3534946895
sw,-59.0355377197265,-87.6931915283203,-3.162193652100399,38.44762296916239,3534963562
sw,-59.3798828125,-87.865493774414,16.233068378759786,42.78378188787143,3534980229
sw,-60.200870513916,-87.1423416137695,38.297323164475216,47.68081324704794,3534996896
sw,-61.6097412109375,-86.0026245117187,60.340442928482815,51.9481350330637,3535013563
sw,-63.0172042846679,-84.9700546264648,79.81082218470205,54.006872454390944,3535030230
sw,-64.2329483032226,-84.2147750854492,94.72592286212135,52.239557544819824,3535046897
sw,-65.4949264526367,-83.7744598388671,103.94311056110685,45.30259190035489,3535063564
sw,-67.4876327514648,-83.5181121826171,107.28793173574927,32.35844452490147,3535080231
sw,-69.8341445922851,-83.3071594238281,105.56880176450582,13.22790427783148,3535096898
sw,-71.8790740966796,-83.2191009521484,100.47267833797201,-11.532176997065406,3535113565
sw,-73.4530639648437,-83.5412368774414,94.30461313157909,-40.637985238508,3535130232
sw,-74.8620681762695,-84.4490737915039,89.5557570135343,-72.19840941200528,3535146899
sw,-76.0521240234375,-85.8245849609375,88.35607641251438,-103.95254059004134,3535163566
sw,-77.3153915405273,-86.9646911621093,91.93876599269258,-133.59102707173034,3535180233
sw,-78.8542785644531,-86.3083267211914,100.26640053539859,-159.08728191528178,3535196900
sw,-80.631103515625,-83.8986358642578,111.93443234337971,-178.95300088713313,3535213567
sw,-82.6567153930664,-80.6642990112304,124.3970042920275,-192.35659591125628,3535230234
sw,-84.5514450073242,-77.1747131347656,134.4845669195609,-199.08955629142744,3535246901
sw,-86.2172088623046,-73.7948226928711,139.12347704255512,-199.41558385778777,3535263568
sw,-87.4620971679687,-70.8580551147461,136.1229571692735,-193.87634710106764,3535280235
sw,-85.8149795532226,-68.1667556762695,124.84980931285776,-183.14238860227152,3535296902
sw,-82.7483978271484,-65.381362915039,106.57403536776822,-167.9726698645703,3535313569
sw,-81.5386352539062,-62.6151580810546,84.29453242024282,-149.27878376814016,3535330236
sw,-81.05908203125,-60.0757637023925,62.00225568869897,-128.21018643446752,3535346903
sw,-81.4568939208984,-58.2792472839355,43.577843699603434,-106.14061310189098,3535363570
sw,-81.8799362182617,-57.4592323303222,31.71354820766444,-84.48262642453868,3535380237
sw,-81.9001083374023,-57.1760864257812,27.262098457433527,-64.37009838886236,3535396904
sw,-81.1911010742187,-56.8187408447265,29.23411863551928,-46.35561940139989,3535413571
sw,-79.7066955566406,-56.20552444458,35.39192604769571,-30.29319388893737,3535430238
sw,-78.0583267211914,-55.5200386047363,43.15497793283699,-15.492582058700973,3535446905
sw,-76.8392562866211,-55.144302368164,50.44012837953291,-1.0927543091279954,3535463572
sw,-76.1823501586914,-55.13081741333,56.1370415037183,13.505084352228806,3535480239
sw,-75.5918045043945,-55.4033508300781,60.11255394628287,28.324711216108728,3535496906
sw,-74.7193450927734,-55.9274711608886,62.839374345370885,42.74150556350865,3535513573
sw,-73.6817779541015,-57.101993560791,64.85769228422346,55.66771038225874,3535530240
sw,-72.767333984375,-59.0516777038574,66.2788717927409,65.91670812730229,3535546907
sw,-71.985237121582,-60.4700279235839,66.47537497871126,72.60054198000826,3535563574
sw,-71.2299575805664,-61.1688041687011,64.02942038176631,75.41296924325079,3535580241
sw,-70.3822708129882,-62.0313606262207,56.95515449365121,74.72283403159996,3535596908
sw,-69.4609985351562,-63.2631797790527,43.152537732957526,71.50322639248651,3535613575
sw,-68.7437973022461,-64.6309814453125,20.988173756285974,67.17219991426036,3535630242
sw,-68.5751266479492,-66.287124633789,-10.152354982250484,63.39075652463435,3535646909
sw,-69.1294631958007,-67.4588317871093,-49.50380482401957,61.80494954274205,3535663576
sw,-70.6170272827148,-68.3426895141601,-94.86541774598385,63.70582348912741,3535680243
sw,-73.2085571289062,-69.0266799926757,-142.86969430111697,69.63792718934499,3535696910
sw,-76.7258758544921,-69.8220138549804,-189.4942365717796,79.0733257303845,3535713577
sw,-80.7404632568359,-70.9842300415039,-230.66610331327092,90.31426065426685,3535730244
sw,-84.8696975708007,-72.5292510986328,-262.8013631628831,100.74746386964915,3535746911
sw,-87.9102554321289,-74.3829345703125,-283.1820459101062,107.45353225947218,3535763578
sw,-85.6231536865234,-76.4756774902343,-290.1673289546547,108.02853930410157,3535780245
sw,-81.6777954101562,-78.9950485229492,-283.3095312959481,101.36535255154716,3535796912
sw,-76.7986373901367,-81.4852600097656,-263.44794707510744,88.11258970464152,3535813579
sw,-71.969856262207,-83.0603942871093,-232.77681436463044,70.60148901961341,3535830246
sw,-68.3962631225586,-83.2986450195312,-194.78263465549443,52.20615012018958,3535846913
sw,-65.3765640258789,-82.8236770629882,-153.9108216826898,36.334933337106115,3535863580
sw,-63.8113021850585,-82.4967727661132,-114.90420119007716,25.430166667636705,3535880247
sw,-63.4553146362304,-82.6248550415039,-81.91975206584355,20.36196590975089,3535896914
sw,-63.3775978088378,-83.2673187255859,-57.678075126032745,20.417926193590322,3535913581
sw,-63.0030326843261,-84.2386398315429,-42.941106824437,23.819068208170005,3535930248
sw,-62.0137252807617,-85.161636352539,-36.511694178766625,28.484562656123963,3535946915
sw,-60.7315292358398,-85.7051315307617,-35.74658528365969,32.71634719459193,3535963582
sw,-59.6163101196289,-86.1815109252929,-37.37735701883352,35.5771966985517,3535980249
sw,-58.8916320800781,-86.6578979492187,-38.34440179213692,36.915535984822576,3535996916
sw,-58.3822860717773,-87.0735702514648,-36.39895154011296,37.1434854225253,3536013583
sw,-58.0453605651855,-87.3191299438476,-30.365756093740796,36.92902924795583,3536030250
sw,-58.0102577209472,-87.2034759521484,-20.098650140727248,36.92030910669257,3536046917
sw,-58.033836364746,-86.8654403686523,-6.242862742837227,37.54189010705938,3536063584
sw,-58.1923942565918,-86.5971145629882,10.06944985551,38.85370687641482,3536080251
sw,-58.6724395751953,-86.5077819824218,27.497772350753888,40.463456446307546,3536096918
sw,-59.4235763549804,-86.4741897583007,44.70181874880027,41.508768469038465,3536113585
sw,-60.3885231018066,-86.2855911254882,60.47571226329872,40.74008983359334,3536130252
sw,-61.5646896362304,-85.8767852783203,73.82597691040304,36.71870267167549,3536146919
sw,-62.8776206970214,-85.429458618164,84.02038739055286,28.103124532396514,3536163586
sw,-64.1232147216796,-85.1581878662109,90.63271619734941,13.956680857814986,3536180253
sw,-65.8429565429687,-85.2469635009765,93.59347229412164,-6.005443754579652,3536196920
sw,-68.1553421020507,-85.707649230957,93.22813587139731,-31.29263818247581,3536213587
sw,-69.9608764648437,-86.5786361694336,90.23587557020355,-60.66293259124657,3536230254
sw,-70.9513626098632,-87.7425918579101,85.56468467172871,-92.27937741003217,3536246921
sw,-71.7338104248046,-87.8445129394531,80.19368309574685,-123.95508452086915,3536263588
sw,-72.817886352539,-85.8593444824218,74.90950247183824,-153.4299534542314,3536280255
sw,-73.9973602294921,-83.1325607299804,70.19320019990253,-178.6259487520886,3536296922
sw,-75.3174133300781,-80.0390853881836,66.28119307978461,-197.84799124813387,3536313589
sw,-76.7106628417968,-76.4692306518554,63.363212006986124,-209.9232995715689,3536330256
sw,-78.1239166259765,-72.4857025146484,61.79967894740362,-214.28600824759647,3536346923
sw,-79.3891525268554,-68.7305603027343,62.22338827545746,-211.00895422779348,3536363590
sw,-80.4570083618164,-65.3185195922851,65.43845378328407,-200.77348695774836,3536380257
sw,-81.5249099731445,-62.5178489685058,72.11803173658659,-184.76986599655905,3536396924
sw,-82.7075805664062,-60.1775932312011,82.39375971137189,-164.5379999004687,3536413591
sw,-83.8519058227539,-57.828987121582,95.48940886170327,-141.774986099,3536430258
sw,-84.8577270507812,-55.602912902832,109.56138265292833,-118.13628261482283,3536446925
sw,-85.8879623413086,-54.1290969848632,121.86927913533017,-95.04479967589738,3536463592
sw,-86.7908782958984,-53.2567596435546,129.3150652051929,-73.51809902113408,3536480259
sw,-86.2473526000976,-52.679328918457,129.26542493992184,-54.040998295736806,3536496926
sw,-84.0105743408203,-52.1430587768554,120.43404725990091,-36.53064887446684,3536513593
sw,-81.3960723876953,-51.7063255310058,103.50756125388583,-20.43136657785049,3536530260
sw,-79.6922912597656,-51.5075492858886,81.22125642386388,-4.931433308563169,3536546927
sw,-79.2363815307617,-51.6805801391601,57.760845726809976,10.756847233158421,3536563594
sw,-79.8436737060546,-52.070514678955,37.63406318454347,27.136158563539308,3536580261
sw,-80.4491653442382,-52.7591972351074,24.39326261094068,44.25190789441029,3536596928
sw,-80.5485687255859,-53.9521141052246,19.66278264440239,61.64247561041928,3536613595
sw,-79.8919296264648,-55.2926177978515,22.785821182790606,78.40530728192262,3536630262
sw,-78.7172012329101,-56.7193946838378,31.1353821407559,93.34386867818948,3536646929
sw,-77.4654769897461,-58.2573738098144,40.883696084405024,105.15614859865688,3536663596
sw,-76.4539947509765,-60.0431365966796,47.91265665578945,112.64245339742257,3536680263
sw,-75.8934707641601,-61.9759063720703,48.59545082032427,114.92846324975228,3536696930
sw,-75.5753479003906,-63.7958793640136,40.32094285905606,111.6974387969805,3536713597
sw,-75.3096084594726,-65.6169281005859,21.770373609093706,103.39927164760068,3536730264
sw,-75.2861557006836,-67.4528350830078,-6.9792683504461746,91.36845209398098,3536746931
sw,-75.7972717285156,-69.0651702880859,-44.46827870743044,77.76169447405714,3536763598
sw,-76.8720932006836,-70.0064163208007,-87.98185756319644,65.24476531202119,3536780265
sw,-78.8943176269531,-70.215103149414,-133.82550865612174,56.43287161077487,3536796932
sw,-81.9342346191406,-70.4230270385742,-177.76524504293423,53.20378079514586,3536813599
sw,-85.4730377197265,-70.8641586303711,-215.59142378714253,56.101740636755444,3536830266
sw,-87.1932830810546,-71.7091903686523,-243.7036603057723,64.06698717190785,3536846933
sw,-84.670051574707,-73.204963684082,-259.59313296623884,74.63313354428645,3536863600
sw,-80.9777297973632,-74.9086151123046,-262.13293348046443,84.5691112138541,3536880267
sw,-76.260139465332,-76.5975723266601,-251.64953093489189,90.77983751102589,3536896934
sw,-72.6884689331054,-78.6944503784179,-229.79767610914823,91.1878974400853,3536913601
sw,-70.0533065795898,-81.1769104003906,-199.28570576386394,85.3204706581157,3536930268
sw,-67.3184509277343,-82.9801635742187,-163.51194415543972,74.40783574746125,3536946935
sw,-64.6001358032226,-83.5079193115234,-126.1723842328232,60.94484536912238,3536963602
sw,-62.5421714782714,-83.0706329345703,-90.86955412903806,47.85488953558237,3536980269
sw,-61.7880783081054,-82.619400024414,-60.715794992104804,37.5657647158419,3536996936
sw,-61.8448219299316,-82.7586822509765,-37.93453252308011,31.357447486843796,3537013603
sw,-61.8801612854003,-83.5759658813476,-23.52607912923356,29.2140679901209,3537030270
sw,-61.5456657409668,-84.6245803833007,-17.113047972440384,30.16534138024265,3537046937
sw,-60.9603614807128,-85.4283370971679,-17.05029392282176,32.882903916431914,3537063604
sw,-60.365737915039,-85.8606719970703,-20.78790739228894,36.226187430715456,3537080271
sw,-59.9251289367675,-86.1452255249023,-25.38517712357455,39.52421968610711,3537096938
sw,-59.6761131286621,-86.4510040283203,-28.045072868144562,42.55041848432053,3537113605
sw,-59.3152503967285,-86.6725769042968,-26.569273433216125,45.290930568545406,3537130272
sw,-58.7047653198242,-86.6922760009765,-19.679456760355567,47.66294326604787,3537146939
sw,-58.3534431457519,-86.4026184082031,-7.176844146269918,49.31214766256355,3537163606
sw,-58.553913116455,-85.9461441040039,10.077769356084838,49.55148000756827,3537180273
sw,-59.3016700744628,-85.5462265014648,30.36129838949957,47.439650686784454,3537196940
sw,-60.31392288208,-85.3142852783203,51.422829276722226,41.959201402981535,3537213607
sw,-61.3267250061035,-85.2243881225586,70.8832159802296,32.240313405410014,3537230274
sw,-62.3460235595703,-85.1960906982421,86.6280309038467,17.7781974229824,3537246941
sw,-64.0573196411132,-85.2076034545898,97.14683337164479,-1.4023295842364445,3537263608
sw,-66.2950668334961,-85.4053115844726,101.78556003325856,-24.676260311447262,3537280275
sw,-68.666015625,-86.0751953125,100.8640712612107,-50.87283381638501,3537296942
sw,-70.3158874511718,-87.5182495117187,95.597747323163,-78.45902398917764,3537313609
sw,-71.3377532958984,-88.9302825927734,87.79932937727284,-105.80881903255518,3537330276
sw,-71.9970245361328,-87.2014465332031,79.42976480314312,-131.46754481435937,3537346943
sw,-72.8841400146484,-84.7324829101562,72.15466685993341,-154.31018746695142,3537363610
sw,-74.0812683105468,-82.2472915649414,67.07228281013313,-173.54192269268435,3537380277
sw,-75.5372772216796,-79.4949264526367,64.69101508623352,-188.57590271079687,3537396944
sw,-77.1896896362304,-76.1857376098632,65.10342596859272,-198.89063082653414,3537413611
sw,-78.6375656127929,-72.455207824707,68.21109957853693,-203.96994784994422,3537430278
sw,-79.8307876586914,-68.6988449096679,73.85201318965404,-203.36506099917693,3537446945
sw,-80.9212112426757,-65.0634994506836,81.76229825448438,-196.83734182639736,3537463612
sw,-82.1429977416992,-62.0262184143066,91.41421121735742,-184.49466797434556,3537480279
sw,-83.5970001220703,-59.5869407653808,101.84890169941589,-166.84415911672727,3537496946
sw,-85.0286254882812,-57.4373016357421,111.63204792775457,-144.73488997924068,3537513613
sw,-86.2471466064453,-55.311294555664,119.01106234457629,-119.21926324247285,3537530280
sw,-87.0341033935546,-53.8605575561523,122.27567272557647,-91.3898258561912,3537546947
sw,-86.6091613769531,-53.0863990783691,120.2441860851123,-62.24545019892144,3537563614
sw,-84.7004318237304,-52.7238960266113,112.72821947938564,-32.625264918335226,3537580281
sw,-82.5699081420898,-52.6828727722168,100.78841361378434,-3.2316064764519354,3537596948
sw,-80.9852447509765,-52.9960403442382,86.61778275913208,25.262241743621267,3537613615
sw,-80.039192199707,-53.6955947875976,73.00148660888694,52.060662240070066,3537630282
sw,-79.7219772338867,-54.6371040344238,62.474493661596405,76.12447273717008,3537646949
sw,-79.6595993041992,-55.8793449401855,56.45234207198189,96.16074776572852,3537663616
sw,-79.3918685913086,-57.7904167175293,54.6604480019298,110.77537564176015,3537680283
sw,-78.6007614135742,-60.2185630798339,55.097854196321,118.77847849808438,3537696950
sw,-77.1612319946289,-62.5708389282226,54.57438532213806,119.56040505044606,3537713617
sw,-75.5282363891601,-64.5230560302734,49.64025247581416,113.41021470481056,3537730284
sw,-74.1908111572265,-66.0891647338867,37.5808209434362,101.659223596375,3537746951
sw,-73.6246261596679,-67.3070449829101,17.140152311489057,86.59089065865254,3537763618
sw,-74.0851058959961,-68.5929870605468,-11.235412595896218,71.12399346163396,3537780285
sw,-75.3012466430664,-69.326301574707,-45.642488308546405,58.318246853592804,3537796952
sw,-77.1139297485351,-69.6861495971679,-83.28606437952217,50.77823168790705,3537813619
sw,-79.3689575195312,-70.0818862915039,-121.11586577107178,50.065268499316716,3537830286
sw,-81.9377365112304,-70.6595382690429,-156.31903757413036,56.262661643894404,3537846953
sw,-84.7668151855468,-71.6195220947265,-186.5668577584257,67.84204829409336,3537863620
sw,-87.7027130126953,-73.0001602172851,-210.04071987183298,81.92036252014061,3537880287
sw,-87.9379730224609,-74.6719131469726,-225.35249802120484,94.88965109192097,3537896954
sw,-84.926773071289,-76.3588104248046,-231.49993126898286,103.28634869874426,3537913621
sw,-81.3744125366211,-78.3925399780273,-227.95604312607023,104.68258266831248,3537930288
sw,-76.9646606445312,-80.7522506713867,-214.89691604088958,98.35060656029734,3537946955
sw,-72.8247909545898,-82.7192916870117,-193.45937939618508,85.48182359665378,3537963622
sw,-70.2497253417968,-83.7403182983398,-165.85063027792873,68.84658478627094,3537980289
sw,-68.058609008789,-83.6203842163086,-135.1633125232277,51.96153123617339,3537996956
sw,-66.4063339233398,-83.1852264404296,-104.87768732856756,38.03557989687511,3538013623
sw,-65.7169342041015,-83.0340423583984,-78.18027883630644,29.082729047422024,3538030290
sw,-65.4234390258789,-83.3966064453125,-57.313799816734395,25.52627176409232,3538046957
sw,-64.8998336791992,-84.1961975097656,-43.16644636448009,26.391830375363604,3538063624
sw,-64.0132904052734,-84.943359375,-35.22191230809974,29.92549026162253,3538080291
sw,-63.0560760498046,-85.3301239013671,-31.858381981659036,34.32327237473216,3538096958
sw,-62.2834014892578,-85.5905609130859,-30.862420661461783,38.27984597108566,3538113625
sw,-61.7605781555175,-86.0084533691406,-29.97242640487322,41.21122712437363,3538130292
sw,-61.5994415283203,-86.4396514892578,-27.304408680103993,43.17472001621667,3538146959
sw,-61.4776573181152,-86.5818405151367,-21.601688654652307,44.610825430807886,3538163626
