Label,Left_Hip_q,Right_Hip_q,Left_Hip_qd,Right_Hip_qd,SampleTimeFine
sw,-83.0317611694336,-52.1573219299316,42.4135475158691,-29.1018104553222,33428801
sw,-82.4141082763671,-51.6922874450683,44.16013441242091,-27.33008439342147,33445468
sw,-81.8401641845703,-51.3384552001953,40.03699763106463,-3.7520032073295226,33462135
sw,-81.3568420410156,-51.1999130249023,36.25840656206864,18.799696447896256,33478802
sw,-80.9086303710937,-51.3807144165039,33.38364917139166,39.40922569977694,33495469
sw,-80.5236892700195,-52.7228698730468,31.752858253802756,57.18944692917078,33512136
sw,-80.20068359375,-54.7205505371093,31.414506690630322,71.46704202237977,33528803
sw,-79.8540954589843,-56.4455223083496,32.10733018176438,82.01029982312959,33545470
sw,-79.4317779541015,-57.8098220825195,33.29828895238293,89.15702822883412,33562137
sw,-78.932388305664,-59.2353897094726,34.264516567430576,93.7434429417738,33578804
sw,-78.3574295043945,-60.7523460388183,34.191779113868016,96.84441972774735,33595471
sw,-77.8299102783203,-62.3143844604492,32.25387454287272,99.42893191853068,33612138
sw,-77.4559631347656,-63.9644546508789,27.646351068249338,102.05960271281153,33628805
sw,-77.3388900756836,-65.3986434936523,19.576147704439606,104.73226666622855,33645472
sw,-77.5507431030273,-66.8673477172851,7.24587845563639,106.89792854401333,33662139
sw,-77.9790802001953,-68.3714370727539,-10.103516524304798,107.65894190824723,33678806
sw,-78.549087524414,-70.0150909423828,-33.036721788868824,106.08631315763652,33695473
sw,-79.3243637084961,-71.8173294067382,-61.64939515024694,101.56596869581149,33712140
sw,-80.6109390258789,-73.6704864501953,-95.24323346055965,94.06049817622738,33728807
sw,-82.641128540039,-75.0967407226562,-132.07854732315522,84.18821793394451,33745474
sw,-85.1958465576171,-75.9952087402343,-169.34235280196674,73.08180917828653,33762141
sw,-87.6666107177734,-76.4881286621093,-203.42230106329242,62.076839338015134,33778808
sw,-86.9213333129882,-76.8876495361328,-230.48913564779343,52.35359761080538,33795475
sw,-82.4192886352539,-77.4380645751953,-247.28482639145926,44.67020194203714,33812142
sw,-76.2327728271484,-78.2026138305664,-251.90824306328463,39.270091242339504,33828809
sw,-71.9856643676757,-79.0391540527343,-244.3262321258241,35.95775404686494,33845476
sw,-69.0458602905273,-79.873062133789,-226.38569532732888,34.26876657369662,33862143
sw,-66.3774795532226,-80.7986145019531,-201.28710033856854,33.647824626178256,33878810
sw,-63.4942054748535,-81.6461486816406,-172.7064263430938,33.58088232786459,33895477
sw,-61.032787322998,-82.3621139526367,-143.87166401987946,33.66823719209498,33912144
sw,-59.3282890319824,-82.9718627929687,-116.86137124926778,33.64933831274894,33928811
sw,-58.1786231994628,-83.6268005371093,-92.27549348084317,33.39724398974318,33945478
sw,-57.3778800964355,-84.3632659912109,-69.32367708100358,32.89851440884158,33962145
sw,-56.6069984436035,-85.0864181518554,-46.29904805137086,32.22420158896165,33978812
sw,-55.9530334472656,-85.6553955078125,-21.327327623913835,31.483329059688476,33995479
sw,-55.5354118347168,-86.089485168457,6.80275009450305,30.745360773425443,34012146
sw,-55.4738426208496,-86.4169616699218,37.97684283856425,29.933186879669176,34028813
sw,-55.9511528015136,-86.6663360595703,70.49246462245691,28.715881353594046,34045480
sw,-58.1287155151367,-86.8968200683593,101.32136452564734,26.450088523270267,34062147
sw,-61.160587310791,-87.0898742675781,126.8466777054984,22.213646627087403,34078814
sw,-63.8858757019043,-87.2761688232421,143.84986125036363,14.945005261749188,34095481
sw,-66.4061889648437,-87.4055786132812,150.43450286300717,3.6625755526852712,34112148
sw,-68.9206237792968,-87.3798294067382,146.61494903379992,-12.291252170773145,34128815
sw,-71.4910736083984,-87.0692901611328,134.423825059899,-33.04450103585138,34145482
sw,-73.8789901733398,-86.3688049316406,117.52238447223262,-58.078209471830384,34162149
sw,-75.4931640625,-85.2291946411132,100.39374056108517,-86.22128013553623,34178816
sw,-76.5505752563476,-83.313735961914,87.28008600854791,-115.75311438615476,34195483
sw,-76.975959777832,-80.8125457763671,81.1065923705059,-144.58561256709453,34212150
sw,-77.4416122436523,-77.9405441284179,82.68610736363085,-170.48329635775391,34228817
sw,-78.5221481323242,-74.8594055175781,90.46557244498511,-191.2851284188062,34245484
sw,-80.2667617797851,-71.5115661621093,100.93524573584205,-205.11294029603275,34262151
sw,-82.2393951416015,-67.8332824707031,109.61695362529386,-210.5731650631272,34278818
sw,-83.887336730957,-64.1170425415039,112.36107215342652,-206.95891052121152,34295485
sw,-84.9271545410156,-60.7763748168945,106.58327358881118,-194.43246019021092,34312152
sw,-84.5896301269531,-58.0424690246582,92.07997654639745,-174.1336854112029,34328819
sw,-83.4923858642578,-55.6044616699218,71.16104646708963,-148.14519543404978,34345486
sw,-83.0044250488281,-53.3034133911132,48.01835463642301,-119.26133718378317,34362153
sw,-83.1161575317382,-51.7426109313964,27.491548598133953,-90.54988769226368,34378820
sw,-83.7933502197265,-51.4274406433105,13.626511846755458,-64.75946283855082,34395487
sw,-84.595718383789,-51.599308013916,8.52869146007928,-43.70811954085078,34412154
sw,-84.9532165527343,-51.7897033691406,11.910999341065542,-27.85464049547382,34428821
sw,-84.4581527709961,-51.4849777221679,21.454478066947377,-16.241616634539294,34445488
sw,-83.2551193237304,-50.9269981384277,33.77187527206464,-6.878572113726718,34462155
sw,-82.1460723876953,-50.3842048645019,45.54805788271283,2.5477449938511882,34478822
sw,-81.4734573364257,-49.953441619873,54.423284213854025,13.892029926244735,34495489
sw,-80.9287567138671,-50.0937309265136,59.367649182409174,27.982657631205193,34512156
sw,-80.2882537841796,-51.2905120849609,60.5490974356186,44.453832022545654,34528823
sw,-79.4826889038086,-52.9802818298339,58.883966464158185,61.98955785519262,34545490
sw,-78.6733856201171,-54.492504119873,55.5077984904187,78.8280988008665,34562157
sw,-77.9957427978515,-55.821418762207,51.34202561687169,93.30516096469302,34578824
sw,-77.4535751342773,-57.4173698425293,46.83506689730578,104.25863364266856,34595491
sw,-76.8931198120117,-59.4954681396484,41.88239687205407,111.2219502950514,34612158
sw,-76.251594543457,-61.5572052001953,35.892219386815334,114.41738291673029,34628825
sw,-75.684814453125,-63.5279922485351,27.947632606241253,114.59359224967443,34645492
sw,-75.3119735717773,-65.1449890136718,17.01124604904415,112.75983670002317,34662159
sw,-75.2696990966796,-66.4411544799804,2.125275609969339,109.88393923932472,34678826
sw,-75.7063522338867,-67.905776977539,-17.418062559612174,106.63840953022097,34695493
sw,-76.5879974365234,-69.4024658203125,-41.932695882990835,103.27125418053213,34712160
sw,-77.8294067382812,-70.969482421875,-71.20171544738653,99.6325878217942,34728827
sw,-79.3748321533203,-72.3667678833007,-104.33878982703447,95.32780677330615,34745494
sw,-81.3864593505859,-73.7380752563476,-139.67673707569867,89.92958138395142,34762161
sw,-84.071304321289,-75.130386352539,-174.7519196968063,83.17865900897655,34778828
sw,-86.9052276611328,-76.5320053100586,-206.46482621278452,75.12136807338139,34795495
sw,-87.682014465332,-77.5718383789062,-231.46541493029068,66.15036882095849,34812162
sw,-84.6976242065429,-78.2285842895507,-246.74345391542275,56.93510091015235,34828829
sw,-79.4977188110351,-78.8229827880859,-250.31402287469825,48.259219324056836,34845496
sw,-73.6470108032226,-79.5207748413086,-241.7976515625913,40.818157088636504,34862163
sw,-70.2140884399414,-80.2445602416992,-222.65547152919095,35.04885249237567,34878830
sw,-67.9977798461914,-81.0132980346679,-195.92354272840876,31.051059246356154,34895497
sw,-65.9618225097656,-81.9544372558593,-165.49708744102796,28.621413212397048,34912164
sw,-63.8045196533203,-82.7551116943359,-135.21880819993936,27.37575852786376,34928831
sw,-61.8052215576171,-83.2536315917968,-108.07960127197575,26.902609586264518,34945498
sw,-60.1892738342285,-83.5563659667968,-85.73115198081598,26.88738033667332,34962165
sw,-59.2138938903808,-83.9334106445312,-68.35341898660398,27.17335863759311,34978832
sw,-58.5734024047851,-84.4611892700195,-54.82391676442362,27.759587633550655,34995499
sw,-57.9537124633789,-85.0861434936523,-43.11401842064499,28.752321303968095,35012166
sw,-57.3965873718261,-85.683479309082,-30.840483520219227,30.281713714619496,35028833
sw,-57.0056800842285,-86.1761856079101,-15.886634948124495,32.387488697799405,35045500
sw,-56.75239944458,-86.5454406738281,3.0215309608497773,34.884588994205984,35062167
sw,-56.8297653198242,-86.846694946289,25.91535722743928,37.24149563469051,35078834
sw,-57.4560585021972,-87.1420669555664,51.47000662945416,38.522984957339546,35095501
sw,-59.1909255981445,-87.436164855957,77.22434622030369,37.44724125254955,35112168
sw,-60.9833374023437,-87.6815948486328,100.0909895388084,32.57801650506809,35128835
sw,-63.0904731750488,-87.8297576904296,117.0321552817942,22.62508589038312,35145502
sw,-65.1287612915039,-87.8390655517578,125.74178348449642,6.7799439886047,35162169
sw,-67.2637176513671,-87.7451019287109,125.19187588320435,-15.011713478386682,35178836
sw,-69.3063812255859,-87.658576965332,115.94335325623446,-41.93154315500439,35195503
sw,-71.5726165771484,-87.2622680664062,100.15822443714141,-72.3733102514375,35212170
sw,-73.4225997924804,-85.9557647705078,81.27875251427838,-104.21498886079158,35228837
sw,-74.2730331420898,-83.4799880981445,63.386282570898146,-135.1950203104231,35245504
sw,-74.3823013305664,-80.4356689453125,50.33781531568842,-163.2674286140169,35262171
sw,-74.5335540771484,-77.2182159423828,44.87905425309607,-186.81850480369516,35278838
sw,-75.0612640380859,-74.0629501342773,47.982747892288735,-204.6928580130061,35295505
sw,-76.1097106933593,-70.8634643554687,58.60941143407675,-216.0736261795913,35312172
sw,-77.6014175415039,-67.3861770629882,73.95260904580545,-220.3381502440186,35328839
sw,-79.0857543945312,-63.7387657165527,90.08796884030849,-217.01735438386748,35345506
sw,-80.4625091552734,-59.7281761169433,102.85950815078137,-205.9144374040569,35362173
sw,-81.9030380249023,-56.3003044128418,108.81753242656015,-187.32796118694748,35378840
sw,-83.5386276245117,-53.9484367370605,106.03086662772122,-162.24679382986878,35395507
sw,-84.8830108642578,-52.2070960998535,94.5966604962224,-132.39023641468484,35412174
sw,-84.8331298828125,-50.7090682983398,76.67773324758043,-100.04428155976198,35428841
sw,-84.8168106079101,-49.5885124206543,55.97160611961962,-67.73166719017594,35445508
sw,-85.4720001220703,-49.0110816955566,36.69566904688074,-37.798895387643476,35462175
sw,-86.0718536376953,-49.2442016601562,22.397555039446413,-12.011702155036051,35478842
sw,-86.3597640991211,-49.9970588684082,15.020718161003478,8.74858737465296,35495509
sw,-86.3094406127929,-50.674949645996,14.562237889898514,24.598084170690782,35512176
sw,-86.0631942749023,-51.0793495178222,19.392380559937607,36.51654360838197,35528843
sw,-85.6463928222656,-51.2949562072753,27.02618178700079,45.990165559932876,35545510
sw,-85.2565841674804,-51.6770324707031,34.99748379336146,54.549172375204954,35562177
sw,-84.73046875,-52.6484375,41.522189066289094,63.36709414011214,35578844
sw,-84.0139541625976,-54.2061920166015,45.78326182862116,73.05126503463623,35595511
sw,-83.3594970703125,-56.0057220458984,47.83360012251301,83.649564821816,35612178
sw,-82.8276672363281,-57.6792755126953,48.23488000052249,94.79533413516305,35628845
sw,-82.3413772583007,-59.2572746276855,47.608554299542185,105.87576833118118,35645512
sw,-81.6821823120117,-60.9568367004394,46.26711922077646,116.1493187536498,35662179
sw,-80.9230804443359,-62.8683319091796,44.03125330403639,124.80805738566572,35678846
sw,-80.2033538818359,-64.8529510498046,40.2513470823275,131.02582411815996,35695513
sw,-79.5691909790039,-66.8090362548828,33.980748937092976,134.03340037701668,35712180
sw,-79.1015853881836,-68.7947998046875,24.21980189874686,133.23612243380575,35728847
sw,-78.9165649414062,-70.6551895141601,10.161372496357059,128.36060963180475,35745514
sw,-79.0279846191406,-72.3303146362304,-8.6037453978558,119.5943618671322,35762181
sw,-79.4768142700195,-73.9170532226562,-31.941534584614555,107.66610293095754,35778848
sw,-80.3507003784179,-75.5084152221679,-59.10162041255257,93.8118782049548,35795515
sw,-81.7298202514648,-76.4858627319336,-88.728596849532,79.59266803454936,35812182
sw,-83.6807785034179,-76.9850311279296,-118.96743355935631,66.57927023537864,35828849
sw,-86.1244964599609,-77.1190948486328,-147.65957245403774,55.98727990083182,35845516
sw,-87.7645416259765,-77.5064849853515,-172.60601129257478,48.39328181035487,35862183
sw,-86.321662902832,-78.122802734375,-191.8577943846074,43.65141161482348,35878850
sw,-83.4578857421875,-78.9000015258789,-203.99111093873873,41.04843715417542,35895517
sw,-79.7935943603515,-79.8188781738281,-208.32646972701235,39.62789530384115,35912184
sw,-75.6473922729492,-80.7623291015625,-205.04510937345123,38.54342152728545,35928851
sw,-72.5203094482421,-81.6832504272461,-195.14726440974795,37.30345823560411,35945518
sw,-69.8292007446289,-82.4993362426757,-180.21765065766547,35.83200891219374,35962185
sw,-67.0840225219726,-83.3986282348632,-162.02875396473172,34.35500118331494,35978852
sw,-64.8425750732421,-84.3651885986328,-142.08820748096915,33.191654590635245,35995519
sw,-63.3741493225097,-85.2254943847656,-121.27301281721809,32.5579828663196,36012186
sw,-62.0472221374511,-85.8945388793945,-99.67612335328397,32.463990481174896,36028853
sw,-60.8158073425293,-86.3757781982421,-76.7341591959616,32.721982074973376,36045520
sw,-59.7295265197753,-86.7153854370117,-51.62039156344024,33.019712423876165,36062187
sw,-58.9969902038574,-87.0765838623046,-23.790226004189847,32.98786115230036,36078854
sw,-58.6221466064453,-87.4725341796875,6.506681435930165,32.21750805263616,36095521
sw,-58.7138214111328,-87.8049240112304,37.944159752374425,30.23624217508431,36112188
sw,-59.7921257019043,-87.982681274414,68.19815582117019,26.491648653779382,36128855
sw,-62.2589454650878,-87.9514007568359,94.39323562070602,20.390976236258606,36145522
sw,-64.5161209106445,-87.7704162597656,113.78621415624053,11.40818806297502,36162189
sw,-66.5900115966796,-87.6779632568359,124.4686939385446,-0.777997762202535,36178856
sw,-68.7268142700195,-87.9222717285156,125.87878513246264,-16.176177081710467,36195523
sw,-70.8015365600586,-88.403823852539,119.00007119210126,-34.4513070136851,36212190
sw,-72.5833053588867,-88.6261291503906,106.2274291809471,-54.97589327310601,36228857
sw,-74.3816680908203,-87.9926071166992,90.94567103557279,-76.9291468444072,36245524
sw,-75.7448348999023,-86.7106781005859,76.89946476948981,-99.39764942578036,36262191
sw,-76.8241500854492,-84.8650817871093,67.45721806565915,-121.44696665191265,36278858
sw,-77.2874603271484,-82.5248336791992,64.90142680183679,-142.15843119660974,36295525
sw,-77.8787536621093,-79.6676254272461,69.90188445354957,-160.63940402866197,36312192
sw,-79.1228637695312,-76.6016082763671,81.3165646759846,-176.01625026237474,36328859
sw,-80.8579788208007,-73.417854309082,96.39693195929513,-187.420186382208,36345526
sw,-82.7453918457031,-70.143928527832,111.36665632949394,-193.9876453916341,36362193
sw,-84.3801574707031,-66.7138290405273,122.2457252475372,-194.91081765289704,36378860
sw,-85.7055053710937,-63.2600784301757,125.74610977288077,-189.56822406862904,36395527
sw,-86.3836135864257,-59.8775367736816,120.06401479377467,-177.72624644686135,36412194
sw,-85.3478622436523,-57.0396270751953,105.40189460897578,-159.74581670364276,36428861
sw,-83.418586730957,-54.6801986694335,84.06141674874402,-136.69148290386582,36445528
sw,-82.3405532836914,-52.5941085815429,59.99802659373535,-110.25285557022691,36462195
sw,-82.4164657592773,-51.1744117736816,37.86597813009259,-82.4511187238104,36478862
sw,-83.3482284545898,-51.1003265380859,21.787589640897718,-55.19324999265111,36495529
sw,-84.2366027832031,-51.5623397827148,14.243443461715323,-29.823499605415122,36512196
sw,-84.4006652832031,-51.8363876342773,15.480764181898316,-6.863462894341866,36528863
sw,-83.6689682006836,-51.6036834716796,23.644215710255573,13.919107063712211,36545530
sw,-82.2907485961914,-51.1171340942382,35.5382581140835,33.122754580993146,36562197
sw,-80.7518234252929,-51.0073547363281,47.68528242463832,51.1911954186394,36578864
sw,-79.591812133789,-51.7428855895996,57.26470411822254,68.0293516412349,36595531
sw,-78.8169860839843,-53.6749954223632,62.624825970989185,82.95754226250506,36612198
sw,-78.1345596313476,-56.0661125183105,63.2790681036533,95.01649441690161,36628865
sw,-77.5320281982421,-58.2783164978027,59.51511207738307,103.44499146007779,36645532
sw,-77.1122436523437,-60.1111373901367,51.86499498553159,108.07450055449067,36662199
sw,-76.676155090332,-61.5317192077636,40.67762931361388,109.45641394069116,36678866
sw,-76.1925964355468,-62.9056816101074,25.937079522862785,108.69314805063681,36695533
sw,-75.7898406982421,-64.3666763305664,7.341516143519066,107.07852861695396,36712200
sw,-75.8223571777343,-65.9205703735351,-15.444552265462383,105.7004228684925,36728867
sw,-76.5045928955078,-67.5815124511718,-42.49309599961633,105.12848960752699,36745534
sw,-77.8582534790039,-68.9171295166015,-73.37465901492543,105.25444050322156,36762201
sw,-79.6961822509765,-70.1616058349609,-107.02475640077672,105.31257777828984,36778868
sw,-81.8601150512695,-71.5075912475586,-141.71047701636184,104.08644088369158,36795535
sw,-84.0986099243164,-73.0056228637695,-175.08384066627795,100.2783560436202,36812202
sw,-85.8929138183593,-74.8237533569336,-204.33406894535318,92.96571367576351,36828869
sw,-86.0638885498046,-76.7895278930664,-226.47889841273442,82.00667220879292,36845536
sw,-84.0794372558593,-78.2672119140625,-238.82713246551904,68.23199168543559,36862203
sw,-79.9666519165039,-78.9989013671875,-239.5775378423183,53.309373986023786,36878870
sw,-74.176155090332,-79.0768508911132,-228.40463264427706,39.2935516400039,36895537
sw,-70.4153442382812,-79.0105438232421,-206.7868477111529,28.024042859450248,36912204
sw,-68.3152313232421,-79.2753067016601,-177.8584380977403,20.614590918821463,36928871
sw,-66.6674728393554,-79.9186859130859,-145.75264408241875,17.234747316041584,36945538
sw,-65.2678298950195,-80.6552124023437,-114.64652723874126,17.237176624036763,36962205
sw,-63.8513145446777,-81.2749862670898,-87.84591530682488,19.525308644231306,36978872
sw,-62.6570129394531,-81.7992935180664,-67.18906425297683,22.974262734874152,36995539
sw,-61.57080078125,-82.2963027954101,-52.87691841686037,26.739499104257412,37012206
sw,-60.7065048217773,-82.7662277221679,-43.680107379284856,30.37464308500193,37028873
sw,-60.2376708984375,-83.2733764648437,-37.39486079850815,33.77409945738224,37045540
sw,-59.8924407958984,-83.865982055664,-31.416668488005225,37.01588055514154,37062207
sw,-59.5378227233886,-84.4598541259765,-23.330166790193626,40.191305124940236,37078874
sw,-59.166145324707,-85.0009231567382,-11.435289150116283,43.28016373115075,37095541
sw,-58.7444496154785,-85.4019393920898,4.87159775537183,46.0871251076062,37112208
sw,-58.6873703002929,-85.7340545654296,24.947680856146683,48.223826764089104,37128875
sw,-59.7678451538085,-86.0781936645507,47.043431745859316,49.11485283635966,37145542
sw,-61.6453475952148,-86.4073486328125,68.71387986073395,48.020448272116745,37162209
sw,-63.2918663024902,-86.6584854125976,87.38671507052376,44.08861396810936,37178876
sw,-64.981086730957,-86.7653579711914,100.91990735397559,36.45749869494059,37195543
sw,-66.4298629760742,-86.7021255493164,108.0124678788178,24.416310713508782,37212210
sw,-68.0716781616211,-86.5837860107421,108.41731234976245,7.60189860219066,37228877
sw,-69.9177627563476,-86.6136093139648,102.9742864888999,-13.825475655303855,37245544
sw,-72.0711593627929,-86.9809188842773,93.49148728722118,-39.09719379491623,37262211
sw,-73.8289337158203,-87.4248123168945,82.47404059690811,-66.89075382379592,37278878
sw,-74.8489532470703,-87.0150909423828,72.68860965504298,-95.5208576210455,37295545
sw,-75.5479583740234,-85.2923126220703,66.59691299066301,-123.20691505149541,37312212
sw,-76.367691040039,-82.8821411132812,65.77152036798282,-148.32351468430033,37328879
sw,-77.3453369140625,-80.2043991088867,70.45951166044496,-169.55178924243305,37345546
sw,-78.4722747802734,-77.4281768798828,79.43998739355678,-185.90345270656795,37362213
sw,-79.8908081054687,-74.5134963989257,90.24108552134348,-196.65790699083004,37378880
sw,-81.4009323120117,-71.1807785034179,99.68509168536657,-201.29642750472212,37395547
sw,-82.9926834106445,-67.6492156982421,104.65000469189523,-199.50879201727972,37412214
sw,-84.6376876831054,-64.0653839111328,102.88063672648273,-191.29169101869226,37428881
sw,-85.7911300659179,-61.122631072998,93.64930277058178,-177.09087574779196,37445548
sw,-85.6838912963867,-58.7560958862304,78.0636019924727,-157.90275590498067,37462215
sw,-85.1265335083007,-56.5970458984375,58.87425668085279,-135.26304769090493,37478882
sw,-85.2482833862304,-54.5051498413085,39.773886946976845,-111.09145810696586,37495549
sw,-85.7722396850586,-52.9935188293457,24.37313689814577,-87.40341403269038,37512216
sw,-86.1515274047851,-52.3042755126953,15.200720502162023,-65.93585346477964,37528883
sw,-86.2426605224609,-52.081615447998,13.090326503162743,-47.77434465804585,37545550
sw,-86.0105667114257,-51.9384956359863,17.156900545428257,-33.10422082552646,37562217
sw,-85.4001541137695,-51.6280899047851,25.309339020110592,-21.201905801133805,37578884
sw,-84.6125030517578,-51.1366882324218,35.03718343040457,-10.70876642868899,37595551
sw,-83.889778137207,-50.5940208435058,44.146459785597436,-0.11235744995030647,37612218
sw,-83.1089248657226,-50.3340225219726,51.207526985839294,11.739386675230005,37628885
sw,-82.2644729614257,-50.2619285583496,55.64077466880382,25.290004591264875,37645552
sw,-81.4646606445312,-51.0686683654785,57.514274979744584,40.22296601306309,37662219
sw,-80.7333145141601,-52.9295425415039,57.2069343227111,55.702516065939975,37678886
sw,-80.014778137207,-54.7143325805664,55.093628258206124,70.76400703095862,37695553
sw,-79.1880111694336,-55.8977737426757,51.35539972037045,84.64604283263087,37712220
sw,-78.3335723876953,-56.9992332458496,45.93799156055387,96.91274789620584,37728887
sw,-77.5505828857421,-58.5095443725585,38.6097237819654,107.35629256058021,37745554
sw,-76.9418792724609,-60.2845268249511,29.03645313069701,115.7956848930676,37762221
sw,-76.6987686157226,-62.2528839111328,16.81124183700854,121.91835347007466,37778888
sw,-76.9391555786132,-64.0928421020507,1.4361040032978676,125.25281858163638,37795555
sw,-77.6198654174804,-66.0400390625,-17.682442391682557,125.276403306453,37812222
sw,-78.5241012573242,-67.8245315551757,-41.13381007603893,121.60233672955657,37828889
sw,-79.4518585205078,-69.4479675292968,-69.24332676682923,114.1689002283609,37845556
sw,-80.5368118286132,-70.9164505004882,-101.68578727662627,103.36203973186687,37862223
sw,-82.1683273315429,-72.3160781860351,-137.10967437385304,90.03142149556483,37878890
sw,-84.313491821289,-73.7001419067382,-172.96186468777162,75.39519462911139,37895557
sw,-85.960952758789,-74.8750457763671,-205.66541082773657,60.85606535463589,37912224
sw,-85.3978500366211,-75.3900527954101,-231.18905933802182,47.76540094914858,37928891
sw,-82.371467590332,-75.5903396606445,-245.905284287692,37.18214441610725,37945558
sw,-76.4063415527343,-75.9370727539062,-247.50767291619536,29.686108265236516,37962225
sw,-71.5164947509765,-76.6251373291015,-235.68498863021918,25.306751254937094,37978892
sw,-69.0408020019531,-77.5832214355468,-212.28403909802697,23.597748640337883,37995559
sw,-67.1065521240234,-78.3844833374023,-180.8750081417865,23.82949124735615,38012226
sw,-64.9662322998046,-79.0395889282226,-145.88746340172452,25.22187815904348,38028893
sw,-62.9146842956543,-79.5582046508789,-111.64288714297355,27.131429774901555,38045560
sw,-61.3679885864257,-79.9129104614257,-81.57288053728696,29.140712880710772,38062227
sw,-60.5155982971191,-80.199234008789,-57.75599215616723,31.04928845277867,38078894
sw,-60.018684387207,-80.6363906860351,-40.771958773745915,32.80650249945662,38095561
sw,-59.6333427429199,-81.2352981567382,-29.82055439600024,34.44023048570443,38112228
sw,-59.2422752380371,-81.9005966186523,-23.048803930685786,36.018338226530574,38128895
sw,-58.8639297485351,-82.5412063598632,-18.02540484753027,37.643957600053234,38145562
sw,-58.6085090637207,-83.1033477783203,-12.282639147199557,39.455743932483735,38162229
sw,-58.4540977478027,-83.6171875,-3.83013137250176,41.598284078888895,38178896
sw,-58.4015731811523,-84.1156005859375,8.453323060345665,44.145962897760064,38195563
sw,-58.6232872009277,-84.6440505981445,24.621661072893545,46.99195140280617,38212230
sw,-59.5261039733886,-85.1830596923828,43.690551196262334,49.73676894205129,38228897
sw,-60.8411750793457,-85.67822265625,63.876996627315485,51.619526304164346,38245564
sw,-62.3006706237793,-86.0557861328125,82.98462272853816,51.52961669610973,38262231
sw,-64.051284790039,-86.3015441894531,98.84394932960512,48.12155351576792,38278898
sw,-65.61474609375,-86.4412460327148,109.72587356230619,40.03378191656312,38295565
sw,-67.3278350830078,-86.5151290893554,114.67706522961193,26.184381635222422,38312232
sw,-69.3011932373046,-86.5665817260742,113.74796162722372,6.085443636578352,38328899
sw,-71.7241058349609,-86.6656341552734,108.07663508696214,-19.907455396833146,38345566
sw,-74.1531219482421,-86.8522186279296,99.76614285075635,-50.49931095151779,38362233
sw,-75.8999481201171,-86.8658142089843,91.49357486116273,-83.57317109307287,38378900
sw,-76.6900100708007,-85.7638549804687,85.85980259809595,-116.51677993281575,38395567
sw,-77.3209915161132,-83.4286346435546,84.62081052173168,-146.67453989178622,38412234
sw,-78.1307525634765,-80.4379348754882,88.05723393513506,-171.78504995014683,38428901
sw,-79.2553405761718,-77.1970977783203,94.74842244303791,-190.26873185551216,38445568
sw,-80.7477874755859,-74.1386413574218,101.89560572823909,-201.29993418788308,38462235
sw,-82.6035232543945,-70.9976959228515,106.14166387449251,-204.69843930006766,38478902
sw,-84.6378326416015,-67.7519836425781,104.6484779220954,-200.7503910428305,38495569
sw,-86.232925415039,-64.6078033447265,96.08030422410003,-190.07601072000529,38512236
sw,-85.6057357788086,-61.6695251464843,81.13770557913594,-173.60041880420357,38528903
sw,-84.9442138671875,-59.0126838684082,62.41191489352223,-152.5952540449049,38545570
sw,-85.2792205810546,-56.7763671875,43.575776279295624,-128.69601797095575,38562237
sw,-85.8258972167968,-55.1632843017578,28.211948741192465,-103.79739142575679,38578904
sw,-86.0207901000976,-54.047061920166,18.748033159425265,-79.78770768930634,38595571
sw,-85.7713088989257,-53.5750122070312,15.90321873879336,-58.176018651908926,38612238
sw,-85.2025833129882,-53.4014739990234,18.785479052613432,-39.74488009374681,38628905
sw,-84.5401611328125,-53.1828155517578,25.48101838867893,-24.384984379483054,38645572
sw,-83.9970397949218,-52.8209114074707,33.814060804376886,-11.212948650148858,38662239
sw,-83.3722686767578,-52.3794441223144,41.97417306836191,1.0418055780840663,38678906
sw,-82.5378646850586,-52.2360801696777,48.844529337688634,13.517024771253348,38695573
sw,-81.6020202636718,-52.3451042175293,54.01691493623147,26.765782505331945,38712240
sw,-80.7632446289062,-52.620750427246,57.5828821986872,40.55081578126885,38728907
sw,-80.0101928710937,-53.3873176574707,59.8325545978924,53.96592539077455,38745574
sw,-79.2366714477539,-55.0482559204101,60.98664599272569,65.83688866160448,38762241
sw,-78.3266296386718,-57.0917930603027,61.047213428937845,75.23923755810921,38778908
sw,-77.3359756469726,-58.6603164672851,59.79068676858873,81.91208094330912,38795575
sw,-76.3200988769531,-59.989574432373,56.863092174871156,86.3828056820091,38812242
sw,-75.3365783691406,-61.3872413635253,51.89861587672608,89.74413965355797,38828909
sw,-74.5062561035156,-62.3906860351562,44.58579058856153,93.18073199961795,38845576
sw,-74.0743713378906,-63.8452911376953,34.64716519919415,97.44581908410034,38862243
sw,-74.0442886352539,-65.2329177856445,21.757803373690244,102.49857118117336,38878910
sw,-74.339973449707,-66.6677627563476,5.477212807021206,107.44269027401438,38895577
sw,-74.7980728149414,-68.5388488769531,-14.718397698498583,110.79625372638628,38912244
sw,-75.3696365356445,-70.6310653686523,-39.254656000237695,111.00842256806163,38928911
sw,-76.1738891601562,-72.7790985107421,-68.15556103981694,107.04823305742842,38945578
sw,-77.5172576904296,-74.7787399291992,-100.72207809770335,98.8515542376398,38962245
sw,-79.6527862548828,-76.4513473510742,-135.33197800781625,87.4477741703379,38978912
sw,-82.5211029052734,-77.674575805664,-169.4732402286145,74.69685693422166,38995579
sw,-85.7425079345703,-78.014533996582,-200.04995753521135,62.71489958711146,39012246
sw,-89.0857162475586,-78.0595703125,-223.9158431187479,53.195891939397576,39028913
sw,-86.1255569458007,-78.3854293823242,-238.5213375735516,46.89188802322994,39045580
sw,-80.894546508789,-79.1702499389648,-242.50890935249942,43.45774820270085,39062247
sw,-76.2092590332031,-80.5421524047851,-236.06540929401604,41.71330518896488,39078914
sw,-73.1288909912109,-82.0773468017578,-220.8774734465212,40.195512913604624,39095581
sw,-70.6030883789062,-83.4063873291015,-199.6648185504285,37.7569008165097,39112248
sw,-67.7876586914062,-84.3981170654296,-175.43918182882098,33.96830174410915,39128915
sw,-64.9537582397461,-84.7632598876953,-150.74274374253451,29.190882476598475,39145582
sw,-63.0348243713378,-84.7178802490234,-127.09569488237706,24.334079469850106,39162249
sw,-61.7517623901367,-84.6690597534179,-104.77673817728514,20.440913849298497,39178916
sw,-60.6788902282714,-84.9786300659179,-82.9604770678532,18.28850788765497,39195583
sw,-59.5795783996582,-85.5498809814453,-60.16804069826579,18.146489441604807,39212250
sw,-58.5597877502441,-86.1153106689453,-34.92271636381775,19.73455133647796,39228917
sw,-57.8808135986328,-86.5396575927734,-6.431918594000631,22.327562494859283,39245584
sw,-57.7415542602539,-86.8761367797851,24.92044125485065,24.921316444857894,39262251
sw,-58.7463951110839,-87.2275924682617,57.44658173529252,26.394661192095136,39278918
sw,-60.9852294921875,-87.5930404663086,88.44735943141639,25.64721496910064,39295585
sw,-63.0414428710937,-87.9167175292968,114.83015192627121,21.719298055798983,39312252
sw,-65.2354278564453,-88.0618515014648,133.85481832565307,13.90131311329517,39328919
sw,-67.7845993041992,-87.9685668945312,143.799187283818,1.8259723273985973,39345586
sw,-70.3818359375,-87.6316528320312,144.3945962320684,-14.473948787679003,39362253
sw,-72.7509307861328,-87.0125961303711,136.95456267795103,-34.558054564220534,39378920
sw,-74.7542190551757,-86.0017395019531,124.17396085921452,-57.62385047636246,39395587
sw,-77.0793228149414,-84.5500030517578,109.61850044641123,-82.59095942602141,39412254
sw,-78.8718185424804,-82.6976852416992,96.96977885379864,-108.196524785788,39428921
sw,-80.1328735351562,-80.2066650390625,89.14873283666103,-133.07306171326587,39445588
sw,-80.5029754638671,-77.5124130249023,87.51106377803598,-155.7945754938785,39462255
sw,-80.7770385742187,-74.6746292114257,91.36579587815672,-174.9039273777045,39478922
sw,-81.8681259155273,-71.6484832763671,98.0515217845752,-188.96134271144,39495589
sw,-83.5569458007812,-68.2133026123046,103.66396175466603,-196.65941531612307,39512256
sw,-85.4197387695312,-64.4800262451171,104.2868651225599,-197.01842512377237,39528923
sw,-86.1863327026367,-61.5609741210937,97.34072608534942,-189.61970893785573,39545590
sw,-84.797492980957,-59.1124687194824,82.55556112951537,-174.79474706013926,39562257
sw,-83.801284790039,-56.7760772705078,62.17022980365816,-153.69353745057563,39578924
sw,-83.8671722412109,-54.4032287597656,40.24771297396016,-128.1929009511867,39595591
sw,-84.1995849609375,-52.5478630065918,21.360736330697964,-100.63823485412621,39612258
sw,-84.6302795410156,-51.6582565307617,9.167032085793087,-73.4377626902521,39628925
sw,-85.0841064453125,-51.4637565612793,5.4146534670119015,-48.57420554818397,39645592
sw,-85.1703033447265,-51.6898155212402,9.690350198104268,-27.166443648664387,39662259
sw,-84.5757369995117,-51.770034790039,19.885039117362986,-9.252231312748716,39678926
sw,-83.4106063842773,-51.6200981140136,33.07548752660445,6.084261508593988,39695593
sw,-82.3690948486328,-51.5568351745605,46.42021656356506,20.249293081419683,39712260
sw,-81.7382507324218,-51.6461601257324,57.751790762093854,34.50281589107254,39728927
sw,-81.1468048095703,-51.7162933349609,65.7504421693423,49.398975621118915,39745594
sw,-80.3710403442382,-52.523868560791,69.7949703059364,64.53175239851014,39762261
sw,-79.3432540893554,-54.3781547546386,69.70075990618065,78.68705504710685,39778928
sw,-78.0714950561523,-56.581859588623,65.52944660084034,90.32703099627983,39795595
sw,-76.8471145629882,-58.3087844848632,57.53448901948017,98.1921958360161,39812262
sw,-75.909927368164,-59.8189811706543,46.18403484653353,101.77726604188099,39828929
sw,-75.3032073974609,-61.3648452758789,32.151155963118306,101.52511095059218,39845596
sw,-75.0543441772461,-62.8432273864746,16.196825203431583,98.71821836804597,39862263
sw,-75.2445755004882,-64.4280776977539,-1.044622923530353,95.14321883446542,39878930
sw,-75.9064102172851,-65.9597396850586,-19.2886560675799,92.63365104017608,39895597
sw,-76.7975921630859,-67.3568420410156,-38.70964383634136,92.58899676301075,39912264
sw,-77.7848968505859,-68.4572525024414,-59.84068546699172,95.5626608049311,39928931
sw,-78.939224243164,-69.5304260253906,-83.249430222202,101.01924439250813,39945598
sw,-80.3195037841796,-70.6975173950195,-109.07686424779476,107.36130451276546,39962265
sw,-82.0245208740234,-72.3153762817382,-136.6037373520845,112.28384885071863,39978932
sw,-84.0182037353515,-74.5226364135742,-164.02722728943596,113.41564585265397,39995599
sw,-85.8873901367187,-77.0751953125,-188.58106057387644,109.07724004073388,40012266
sw,-86.495361328125,-79.3890991210937,-207.0336619838475,98.89189841516738,40028933
sw,-84.418472290039,-80.9743957519531,-216.47656714093685,83.99569762779525,40045600
sw,-79.7505874633789,-81.6440353393554,-215.19276982061226,66.72965588793703,40062267
sw,-74.7718887329101,-81.5911788940429,-203.30733316386977,49.91126043695821,40078934
sw,-72.2916488647461,-81.5023651123046,-182.93302674230972,35.9710128110781,40095601
sw,-70.6342010498046,-81.9321136474609,-157.68351496096335,26.298674583842228,40112268
sw,-69.0331878662109,-82.9283447265625,-131.69104546009135,21.035807439320397,40128935
sw,-67.7650833129882,-83.9744262695312,-108.4822839873184,19.33449334148111,40145602
sw,-66.4054565429687,-84.6077346801757,-90.10195185139831,19.899433330182074,40162269
sw,-65.1696319580078,-85.0542297363281,-76.7357627419405,21.546141709781004,40178936
sw,-63.8951835632324,-85.4792709350586,-66.8823573714599,23.560084334773492,40195603
sw,-62.7708129882812,-85.8735122680664,-57.95873627846811,25.769301490508138,40212270
sw,-61.8972244262695,-86.3022918701171,-47.134101405463866,28.368735922413425,40228937
sw,-61.2640037536621,-86.8036499023437,-32.168229965994,31.613038754246986,40245604
sw,-60.7401428222656,-87.2832946777343,-12.059701129907554,35.51538883615803,40262271
sw,-60.4421806335449,-87.6538162231445,12.636886195878652,39.66111077997943,40278938
sw,-60.8273849487304,-87.7439804077148,39.89647661805126,43.18703136255521,40295605
sw,-62.7056808471679,-87.5651397705078,66.6938623597871,44.91708167490056,40312272
sw,-64.8688583374023,-87.2651290893554,89.73462664476418,43.6023881172161,40328939
sw,-66.563850402832,-86.9642333984375,106.24053924211199,38.19696893965211,40345606
sw,-68.2764129638671,-86.6840057373046,114.57898783708019,28.102890231218822,40362273
sw,-70.1787033081054,-86.4195861816406,114.60451841424056,13.331032615420048,40378940
sw,-72.3546829223632,-86.277847290039,107.68022350477911,-5.461699130479145,40395607
sw,-74.1282653808593,-86.4301528930664,96.40583516284833,-27.079574621344022,40412274
sw,-75.7296981811523,-86.9050979614257,84.09887258854664,-50.03102569391742,40428941
sw,-77.0187149047851,-87.3396453857421,74.09748021285428,-72.85483737107047,40445608
sw,-77.6657943725586,-86.5434494018554,69.00139373953908,-94.43063519196774,40462275
sw,-78.183235168457,-84.8757019042968,70.021455118808,-114.15482710757169,40478942
sw,-79.1059951782226,-83.0947952270507,76.62712746254537,-131.89837098653553,40495609
sw,-80.4323043823242,-81.1212158203125,86.63224178797661,-147.7532917114839,40512276
sw,-82.0012969970703,-78.8839797973632,96.74212491116035,-161.67869110077316,40528943
sw,-83.7546234130859,-76.3917160034179,103.44146797879975,-173.21460601632404,40545610
sw,-85.70947265625,-73.4212493896484,103.98700823561934,-181.41001964790786,40562277
sw,-87.2644805908203,-70.1238403320312,97.21743833802941,-185.02076455102866,40578944
sw,-86.7715377807617,-66.6066360473632,83.91824869472906,-182.91556548750896,40595611
sw,-86.0802841186523,-63.3015785217285,66.5914434311657,-174.53398899721464,40612278
sw,-86.1111907958984,-60.7420120239257,48.67618074725166,-160.20925055663463,40628945
sw,-86.4216613769531,-58.4966239929199,33.488876296966936,-141.21635905247288,40645612
sw,-86.4564666748046,-56.6887474060058,23.283177800394363,-119.51041658347975,40662279
sw,-86.1336593627929,-55.3790054321289,18.774145276751522,-97.2342883324931,40678946
sw,-85.4946365356445,-54.6930427551269,19.245631012902574,-76.15615275694627,40695613
sw,-84.8107681274414,-54.1479873657226,23.099458665524867,-57.22377891265695,40712280
sw,-84.2423782348632,-53.4975891113281,28.55425503146015,-40.38729854525191,40728947
sw,-83.7064895629882,-52.8583450317382,34.21366665503867,-24.750846019006858,40745614
sw,-83.0794448852539,-52.3253364562988,39.34733221465017,-8.994198426170778,40762281
sw,-82.3368682861328,-52.2088661193847,43.87128314570913,8.090400714351837,40778948
sw,-81.5353164672851,-52.4814109802246,48.110514740805286,27.13084516616692,40795615
sw,-80.7194747924804,-52.7113418579101,52.458548500181045,47.92161713699632,40812282
sw,-79.8308944702148,-53.7205467224121,57.036914985134985,69.44743250169074,40828949
sw,-78.9683151245117,-55.9295120239257,61.43151992475423,90.15529586167268,40845616
sw,-78.1974334716796,-58.362319946289,64.56194858256399,108.36237256419162,40862283
sw,-77.4674835205078,-60.300235748291,64.72505132880839,122.64098023585476,40878950
sw,-76.5753173828125,-62.1159553527832,59.83307535112425,132.04985019974538,40895617
sw,-75.5145721435546,-64.2471008300781,47.825788674380576,136.17692148802786,40912284
sw,-74.6347503662109,-65.8762512207031,27.178236229814082,135.05778267105796,40928951
sw,-74.4214477539062,-67.9329833984375,-2.6229694872048133,129.07010472749258,40945618
sw,-75.0503005981445,-69.4316787719726,-40.76859859368462,118.87229425256389,40962285
sw,-76.2784118652343,-71.0281448364257,-85.0692185993401,105.3946281502392,40978952
sw,-78.3034973144531,-72.7271957397461,-132.16529469848027,89.84266427292938,40995619
sw,-81.0984573364257,-74.104133605957,-177.9528105850259,73.65326723876065,41012286
sw,-83.9645767211914,-75.0092391967773,-218.13469256964987,58.35646759035846,41028953
sw,-85.4521408081054,-75.4173889160156,-248.80301583782702,45.3393833450473,41045620
sw,-84.2782745361328,-75.4737930297851,-266.977106202483,35.568630143671626,41062287
sw,-80.4626159667968,-75.8621215820312,-271.046111353482,29.3745177219314,41078954
sw,-74.9561767578125,-76.4525833129882,-261.06036719113195,26.399020076845616,41095621
sw,-71.119873046875,-77.401626586914,-238.78734303899796,25.74966514691602,41112288
sw,-68.3050460815429,-78.3959503173828,-207.45472178812224,26.311939845530027,41128955
sw,-65.7126541137695,-79.2375335693359,-171.1916853048595,27.103361059269726,41145622
sw,-63.4938354492187,-80.0442276000976,-134.30147686154123,27.538551644919128,41162289
sw,-61.7696647644043,-80.3672637939453,-100.55550406439312,27.518212544082587,41178956
sw,-60.8344612121582,-80.5014877319336,-72.66094434450913,27.331797342087533,41195623
sw,-60.0439949035644,-80.7721633911132,-51.97482587258438,27.44026687756157,41212290
sw,-59.3918151855468,-81.3014602661132,-38.473390144385014,28.24676433298892,41228957
sw,-58.7868156433105,-81.9549484252929,-30.9442787626512,29.947641869630715,41245624
sw,-58.263801574707,-82.4726181030273,-27.339732698325946,32.49649582464753,41262291
sw,-57.8707199096679,-82.7982482910156,-25.212292671289788,35.65311149112245,41278958
sw,-57.5599098205566,-83.0835266113281,-22.156441798026435,39.06443866206999,41295625
sw,-57.2310791015625,-83.4475479125976,-16.195851560614358,42.336774655435086,41312292
sw,-57.0192794799804,-83.876220703125,-6.074035353672087,45.0822036635575,41328959
sw,-57.0688247680664,-84.3408813476562,8.580262465522571,46.93772242169192,41345626
sw,-57.6328926086425,-84.8038940429687,27.22786190149351,47.56111981536567,41362293
sw,-58.6063156127929,-85.2453994750976,48.52863476875676,46.61177724990314,41378960
sw,-59.6892433166503,-85.617073059082,70.55785592439987,43.73054691338584,41395627
sw,-61.1465110778808,-85.8644027709961,91.0905364041764,38.53628499633207,41412294
sw,-62.8875274658203,-86.0334014892578,107.91977192444553,30.651739434894886,41428961
sw,-64.8061904907226,-86.188491821289,119.18426456552714,19.758477560886096,41445628
sw,-66.8890151977539,-86.4035415649414,123.67836240899668,5.66646169823153,41462295
sw,-69.0674514770507,-86.7008209228515,121.10211632999032,-11.622780911530677,41478962
sw,-71.5781478881836,-87.0059814453125,112.18886852227901,-31.876434611842775,41495629
sw,-73.7601165771484,-87.0366134643554,98.64234001925281,-54.619996486528706,41512296
sw,-74.659797668457,-86.3600311279296,82.84779155896811,-79.15003618014235,41528963
sw,-75.0210876464843,-84.9031829833984,67.40246965462218,-104.55581470917197,41545630
sw,-75.527961730957,-82.8766250610351,54.604586350218796,-129.73446587784207,41562297
sw,-76.3399505615234,-80.5082931518554,46.075428754531195,-153.39379940312313,41578964
sw,-77.4174652099609,-77.8955841064453,42.622288126980486,-174.05756898180144,41595631
sw,-78.7158432006836,-75.0978927612304,44.31948641490059,-190.1131746581544,41612298
sw,-79.8410034179687,-71.91162109375,50.68165427561559,-199.95275943968824,41628965
sw,-80.729263305664,-68.255126953125,60.79251948330452,-202.233769929904,41645632
sw,-81.5999908447265,-64.3616867065429,73.33000058959942,-196.21972579706693,41662299
sw,-82.5469131469726,-61.1011657714843,86.53669602982387,-182.0863924345263,41678966
sw,-83.6525421142578,-58.6658477783203,98.2562471790207,-161.04767221920403,41695633
sw,-84.9155044555664,-56.8180313110351,106.15207534152215,-135.20593970639638,41712300
sw,-86.3044509887695,-55.3939208984375,108.14812141034837,-107.14283857763283,41728967
sw,-87.1061935424804,-54.4597969055175,103.01199216120088,-79.37376042512425,41745634
sw,-85.8502731323242,-53.948616027832,90.88576066049662,-53.83702234163183,41762301
sw,-84.3778915405273,-53.5960693359375,73.51841796043713,-31.566731869295975,41778968
sw,-84.1785278320312,-53.3868713378906,54.02163496666759,-12.629360377209188,41795635
sw,-84.4897842407226,-53.3414916992187,36.1572734665615,3.68120257950364,41812302
sw,-84.7480545043945,-53.522289276123,23.381226765649277,18.468691029718205,41828969
sw,-84.7142868041992,-53.9910049438476,17.98131326240608,32.79803255307307,41845636
sw,-84.2410888671875,-54.6111946105957,20.588714977102732,47.31612079650503,41862303
sw,-83.3850326538086,-55.3452415466308,30.16195532413052,62.02164322894847,41878970
sw,-82.1862564086914,-55.979564666748,44.35410779891398,76.24054939191616,41895637
sw,-81.0097732543945,-56.9858665466308,60.0694251114175,88.82509742779348,41912304
sw,-79.9253005981445,-59.240005493164,74.01976797781812,98.53866601465052,41928971
sw,-78.6793212890625,-61.8346672058105,83.1697178533923,104.50838544399498,41945638
sw,-77.2449951171875,-64.1218795776367,85.04978534104167,106.56015438255925,41962305
sw,-75.7941589355468,-64.7860565185546,77.96777238945198,105.26920405098167,41978972
sw,-74.60693359375,-65.6523971557617,61.14650146152174,101.69496914413969,41995639
sw,-73.9137115478515,-66.7194290161132,34.78807835679534,96.94471357834263,42012306
sw,-73.9524917602539,-68.083381652832,0.04740619441246313,91.79546794905245,42028973
sw,-74.8174972534179,-69.2394027709961,-41.091680081539465,86.54230298179252,42045640
sw,-76.2548904418945,-70.4417495727539,-86.01609056693866,81.09664542450155,42062307
sw,-78.3329849243164,-71.9966659545898,-131.71678676751003,75.23459160864871,42078974
sw,-81.1179046630859,-73.3047790527343,-175.0174544152997,68.84802554451795,42095641
sw,-84.3301620483398,-74.3529891967773,-212.78486631671484,62.08096439757326,42112308
sw,-86.9333724975586,-75.1903686523437,-242.13645878304706,55.311010283009175,42128975
sw,-86.669692993164,-75.8763656616211,-260.67993383733346,49.016598094978214,42145642
sw,-82.8485412597656,-76.4121398925781,-266.81339419448216,43.61260572889682,42162309
sw,-77.5195999145507,-76.9814529418945,-260.06473345154126,39.32848446585635,42178976
sw,-72.8542175292968,-77.9023895263671,-241.36602288663096,36.16689830585343,42195643
sw,-69.4908294677734,-78.9418411254882,-213.1059692361366,33.943636586955336,42212310
sw,-66.8064956665039,-79.9453735351562,-178.84967089459224,32.38176982292004,42228977
sw,-64.5127410888671,-80.7234420776367,-142.74834021379297,31.217038399825178,42245644
sw,-62.7596778869628,-81.1392440795898,-108.79049520469519,30.272597280039914,42262311
sw,-61.7494735717773,-81.4544982910156,-80.09390380458655,29.482522910626383,42278978
sw,-61.0568237304687,-81.8429107666015,-58.40555652826317,28.87491230881466,42295645
sw,-60.2962265014648,-82.3721618652343,-43.90748481658913,28.545284775539216,42312312
sw,-59.5695304870605,-82.9594573974609,-35.34790061598726,28.64360089461755,42328979
sw,-59.0345268249511,-83.4925308227539,-30.443294116904035,29.370892363978697,42345646
sw,-58.6356163024902,-83.9286270141601,-26.44486546575035,30.959474710206138,42362313
sw,-58.2556953430175,-84.307014465332,-20.745081584437113,33.61310491898484,42378980
sw,-57.8322486877441,-84.6688461303711,-11.410675106218767,37.4070286429643,42395647
sw,-57.7339706420898,-85.0582733154296,2.449593696229807,42.173692485323116,42412314
sw,-57.8460617065429,-85.4908065795898,20.545853511620983,47.41179095853926,42428981
sw,-58.888313293457,-85.9225921630859,41.51843235537927,52.25197836911133,42445648
sw,-60.1931953430175,-86.2740631103515,63.265624013611806,55.50009955049323,42462315
sw,-61.45601272583,-86.4421310424804,83.4036332717794,55.76590470530526,42478982
sw,-63.107063293457,-86.3661727905273,99.75538219678292,51.67225077981425,42495649
sw,-64.7677688598632,-86.0740966796875,110.78175629697928,42.12150880210228,42512316
sw,-66.6935958862304,-85.7113037109375,115.89687272870593,26.570079743006616,42528983
sw,-69.1729736328125,-85.5699462890625,115.61995727463845,5.237692103919515,42545650
sw,-71.8619384765625,-85.7746505737304,111.50948198137556,-20.82570319582679,42562317
sw,-73.861831665039,-86.3376159667968,105.83159739641013,-49.861945534472476,42578984
sw,-74.971923828125,-86.9380340576171,100.97402249240821,-79.70178274846204,42595651
sw,-75.6799087524414,-86.5293197631836,98.73143525072328,-108.15750368964993,42612318
sw,-76.8661270141601,-84.8061599731445,99.69753499349486,-133.39092023461396,42628985
sw,-78.3848037719726,-82.3668060302734,103.01361289688955,-154.14303688431227,42645652
sw,-80.3324203491211,-79.6777801513671,106.60874317018546,-169.7664289879681,42662319
sw,-82.4664688110351,-77.0116195678711,107.8772162525663,-180.082145439417,42678986
sw,-84.5134887695312,-74.3095779418945,104.5710716622404,-185.15493147268796,42695653
sw,-86.6535034179687,-71.5155639648437,95.60691992860656,-185.11123480373936,42712320
sw,-88.0340805053711,-68.3766479492187,81.51072293321448,-180.09598017356558,42728987
sw,-87.8371658325195,-64.7499313354492,64.33634071749564,-170.38330245552064,42745654
sw,-87.6882705688476,-61.829605102539,47.07013446665513,-156.56090555864253,42762321
sw,-87.6743469238281,-59.7355918884277,32.729203149303274,-139.65445517111988,42778988
sw,-87.7398986816406,-58.0087699890136,23.490390001510775,-121.08531624925614,42795655
sw,-87.7667388916015,-56.3370933532714,20.16917072349241,-102.4431137157723,42812322
sw,-87.5618515014648,-55.0495643615722,22.20027659580385,-85.14301134361689,42828989
sw,-86.9825439453125,-54.2651176452636,28.050366112750154,-70.08222533669954,42845656
sw,-86.1936798095703,-53.5652770996093,35.836428148921044,-57.41100125902788,42862323
sw,-85.371711730957,-52.7008094787597,43.89349889703256,-46.503144825464204,42878990
sw,-84.5035324096679,-51.9081687927246,51.114758074275926,-36.15273090877795,42895657
sw,-83.5950698852539,-51.323013305664,57.01329397081094,-24.94763745134526,42912324
sw,-82.7195587158203,-50.9639816284179,61.56430837695977,-11.709154590095899,42928991
sw,-81.8465957641601,-50.7942504882812,64.94452235639802,4.131976103780794,42945658
sw,-80.9469223022461,-50.909381866455,67.28949910149183,22.32985103882693,42962325
sw,-79.8886642456054,-51.2402191162109,68.5543910185485,41.84798206036598,42978992
sw,-78.653076171875,-52.2716407775878,68.50756018128165,61.11467401468796,42995659
sw,-77.3108749389648,-54.0726203918457,66.82824037777354,78.44115226795145,43012326
sw,-76.0208129882812,-55.6883468627929,63.23849452652514,92.47151648578713,43028993
sw,-74.9785842895507,-57.3976936340332,57.592094320097644,102.51009698771212,43045660
sw,-74.2405471801757,-59.2009735107421,49.871985672053405,108.61416629057875,43062327
sw,-73.7568740844726,-61.0820884704589,40.09955021973096,111.43361298282645,43078994
sw,-73.4512786865234,-62.7384986877441,28.20681408252023,111.8758089523287,43095661
sw,-73.299331665039,-64.1285705566406,13.943583906746477,110.73258210124455,43112328
sw,-73.3681488037109,-65.5447463989257,-3.1222062934005246,108.41293287163734,43128995
sw,-73.7621612548828,-67.1569366455078,-23.490041857409096,104.88082230358837,43145662
sw,-74.5145950317382,-68.8503952026367,-47.519313688941516,99.81264727690146,43162329
sw,-75.5504150390625,-70.3994979858398,-75.1815386214527,92.89399378373939,43178996
sw,-77.0759353637695,-71.8208618164062,-105.84092671876066,84.11486200251689,43195663
sw,-79.2429275512695,-72.8191528320312,-138.13033231509743,73.92891035089907,43212330
sw,-82.0077056884765,-73.7596130371093,-169.96999921805417,63.210514534798776,43228997
sw,-85.0956420898437,-74.528938293457,-198.7440604480578,53.03496188321056,43245664
sw,-87.780532836914,-74.94189453125,-221.61864336697388,44.37679253732087,43262331
sw,-86.8947982788086,-75.3096771240234,-235.96668297764495,37.84480888804162,43278998
sw,-83.0547103881836,-75.9679565429687,-239.85005600315267,33.550140371661335,43295665
sw,-78.5000839233398,-76.9365615844726,-232.47974862408708,31.148162475048654,43312332
sw,-74.2166213989257,-77.9655303955078,-214.53157527852062,30.024798049561255,43328999
sw,-71.0439453125,-78.9423599243164,-188.18044133017253,29.54098898984244,43345666
sw,-68.8049392700195,-79.7483825683593,-156.77683147660235,29.233037333973215,43362333
sw,-67.0240249633789,-80.2191162109375,-124.21659706152725,28.89808246257988,43379000
sw,-65.7073898315429,-80.5195617675781,-94.17741543494142,28.555452170853158,43395667
sw,-64.8124847412109,-80.8733444213867,-69.44001063804001,28.334081133185975,43412334
sw,-64.1071395874023,-81.3934631347656,-51.46639943196892,28.362238603325192,43429001
sw,-63.3207702636718,-82.0125656127929,-40.310915811073095,28.715140252334315,43445668
sw,-62.6377258300781,-82.5869903564453,-34.839686412243886,29.425914472301503,43462335
sw,-61.9919395446777,-83.0661697387695,-33.16027342799313,30.52312820746323,43479002
sw,-61.3275184631347,-83.4721984863281,-33.12897575535929,32.05093295472449,43495669
sw,-60.5948219299316,-83.8734054565429,-32.80864883465682,34.05299269802008,43512336
sw,-59.9901657104492,-84.2823181152343,-30.783387430356036,36.53337640057918,43529003
sw,-59.5928878784179,-84.7359771728515,-26.284677255381634,39.42235169738682,43545670
sw,-59.4678344726562,-85.2440795898437,-19.137239452135955,42.56619648261395,43562337
sw,-59.5090560913085,-85.7155456542968,-9.58129865571609,45.73920631915915,43579004
sw,-59.6867141723632,-86.0827331542968,1.9433566687931878,48.660603329961404,43595671
sw,-59.9965744018554,-86.3294448852539,14.96856286321708,50.99964392357787,43612338
sw,-60.5267791748046,-86.4300994873046,29.07248439571134,52.3658269884059,43629005
sw,-61.3012886047363,-86.3113555908203,43.85139174726362,52.295126864650676,43645672
sw,-62.1527557373046,-85.9912185668945,58.8248689104669,50.247446763013045,43662339
sw,-63.0806427001953,-85.6165771484375,73.34079349156661,45.62608265369033,43679006
sw,-64.0824737548828,-85.2954711914062,86.5566909960239,37.82542482338065,43695673
sw,-65.5838317871093,-85.0544281005859,97.55430647954172,26.311946512184424,43712340
sw,-67.8327331542968,-84.8278656005859,105.58561530772863,10.738515977785372,43729007
sw,-70.5286712646484,-84.6630020141601,110.36279673345916,-8.925041533446858,43745674
sw,-73.1139068603515,-84.7424621582031,112.23734588056391,-32.28570880222379,43762341
sw,-75.0101089477539,-85.2294769287109,112.12403695801487,-58.49505131174047,43779008
sw,-75.933120727539,-85.8966369628906,111.1378463563518,-86.31791286647399,43795675
sw,-77.0782470703125,-85.9165420532226,110.07675559982586,-114.28129529671273,43812342
sw,-78.508056640625,-84.7314376831054,108.99740461907831,-140.84201825443435,43829009
sw,-80.1364974975586,-82.6695785522461,107.11199696638812,-164.50988535603148,43845676
sw,-82.0361251831054,-80.1744384765625,103.08926541779877,-183.90418053744955,43862343
sw,-84.0699462890625,-77.337173461914,95.65383195300663,-197.77771034373657,43879010
sw,-85.9889755249023,-74.115493774414,84.24136991249559,-205.07534989784588,43895677
sw,-87.2179412841796,-70.6942977905273,69.43440394831865,-205.07837680428196,43912344
sw,-87.2870483398437,-66.9537353515625,52.98217603517797,-197.62529227015239,43929011
sw,-87.0422286987304,-63.5960960388183,37.36997435571365,-183.32590937383472,43945678
sw,-86.9056701660156,-60.9039573669433,25.089492572869656,-163.64463322393496,43962345
sw,-86.9760589599609,-58.9363250732421,17.891020932733834,-140.75595068506826,43979012
sw,-87.0644836425781,-57.2893333435058,16.303306229262848,-117.16465831369779,43995679
sw,-87.1535263061523,-55.950813293457,19.581938031025086,-95.18662588561507,44012346
sw,-87.0458679199218,-55.1288681030273,26.06022789961694,-76.44771143640676,44029013
sw,-86.6307067871093,-54.3715896606445,33.72556272409712,-61.55625064161825,44045680
sw,-86.0302963256836,-53.4600753784179,40.79343537906993,-50.048928407747724,44062347
sw,-85.3322601318359,-52.6104698181152,46.10129755432486,-40.62310103526638,44079014
sw,-84.557632446289,-51.8750877380371,49.24689028029601,-31.578597086645374,44095681
sw,-83.796760559082,-51.4063873291015,50.49266824806716,-21.33188756211764,44112348
sw,-83.128677368164,-51.1809425354003,50.51563836400727,-8.85659707560486,44129015
sw,-82.5427551269531,-51.1380767822265,50.099937737738244,6.060060050216781,44145682
sw,-81.8963012695312,-51.2074928283691,49.862506258599666,22.799169839597564,44162349
sw,-81.1193542480468,-51.9286918640136,50.079278292861694,40.12501602830667,44179016
sw,-80.2151641845703,-53.339729309082,50.64237240023288,56.56785615100468,44195683
sw,-79.2083969116211,-54.6862030029296,51.1341797492519,70.85578271000298,44212350
sw,-78.1957702636718,-55.9616470336914,50.96690719817578,82.25382442170167,44229017
sw,-77.2788391113281,-57.5644035339355,49.52115027289944,90.69973223262066,44245684
sw,-76.5013809204101,-59.6209678649902,46.23005001026755,96.7011161523335,44262351
sw,-75.9020919799804,-61.2013435363769,40.58959585365597,101.03956898256345,44279018
sw,-75.515869140625,-62.3572425842285,32.115137527129356,104.38830106265615,44295685
sw,-75.3007049560546,-63.6032562255859,20.29250280340146,106.98536163010007,44312352
sw,-75.3479461669921,-65.0689620971679,4.5786531913407975,108.50118393415899,44329019
sw,-75.7336120605468,-66.9715576171875,-15.509821914556973,108.17480670462749,44345686
sw,-76.3095016479492,-69.0590667724609,-40.21606810217623,105.17649994327493,44362353
sw,-77.0945968627929,-70.8503494262695,-69.30821300885628,99.0417027547555,44379020
sw,-78.4625549316406,-72.2959442138671,-101.86627331569544,89.97919182726429,44395687
sw,-80.695198059082,-73.3366012573242,-136.180458253518,78.91321935324895,44412354
sw,-83.791015625,-74.1068038940429,-169.82514171108147,67.24440868636954,44429021
sw,-87.0924224853515,-74.8179092407226,-199.91646684577597,56.43955727988683,44445688
sw,-88.7672729492187,-75.3560180664062,-223.50915085589213,47.623802055088724,44462355
sw,-85.6857070922851,-75.8639144897461,-238.06625887081154,41.32765524322097,44479022
sw,-80.7803192138671,-76.5796279907226,-241.9293800908903,37.45961028067543,44495689
sw,-75.7022094726562,-77.558364868164,-234.69280498846058,35.47868373151207,44512356
sw,-72.445068359375,-78.6681747436523,-217.35828595130022,34.67123804184845,44529023
sw,-70.0159835815429,-79.6880950927734,-192.1812782082006,34.41422897450047,44545690
sw,-67.6128616333007,-80.5165786743164,-162.23597488224675,34.33365655795011,44562357
sw,-65.2614440917968,-81.0974426269531,-130.84475484606727,34.32515590232145,44579024
sw,-63.4614334106445,-81.5682983398437,-101.04279125910716,34.46488712885125,44595691
sw,-62.3313026428222,-82.0279464721679,-75.18305179955138,34.87698488578469,44612358
sw,-61.6369590759277,-82.589370727539,-54.71004331501509,35.62621560696738,44629025
sw,-61.038028717041,-83.27734375,-40.09431183376434,36.67555055084431,44645692
sw,-60.4651641845703,-83.9631729125976,-30.910665717650826,37.90634457834891,44662359
sw,-59.9240989685058,-84.5736465454101,-26.031016813672323,39.16728868044722,44679026
sw,-59.4814071655273,-85.1132049560546,-23.884604724512403,40.313240559870735,44695693
sw,-59.1936912536621,-85.6035079956054,-22.731564587196583,41.214634841463266,44712360
sw,-58.9068374633789,-86.0813369750976,-20.909144370210832,41.74482457287978,44729027
sw,-58.6931419372558,-86.5537185668945,-17.032848416209468,41.76684356561725,44745694
sw,-58.5631637573242,-87.0055923461914,-10.150445570355933,41.13533824213469,44762361
sw,-58.4944114685058,-87.3708038330078,0.15155166717480603,39.711928219298784,44779028
sw,-58.893756866455,-87.5958862304687,13.694904493720912,37.378271371458645,44795695
sw,-59.3581504821777,-87.6620101928711,29.718797381230033,34.03086232351408,44812362
sw,-60.1218376159668,-87.5748062133789,46.95673970469412,29.55383984837237,44829029
sw,-61.1714668273925,-87.3626251220703,63.78273656438253,23.781325394261724,44845696
sw,-62.261489868164,-87.1409683227539,78.4256077094001,16.469713214176895,44862363
sw,-63.6348228454589,-86.9893569946289,89.24390160385678,7.299362279883072,44879030
sw,-65.2529678344726,-86.9248352050781,95.03497663851702,-4.083827805636407,44895697
sw,-67.4108428955078,-86.9337615966796,95.31768996838738,-17.989664646977836,44912364
sw,-69.8680114746093,-87.0019989013671,90.49222027968932,-34.583748089670145,44929031
sw,-71.290054321289,-86.9835815429687,81.7775505318256,-53.790623199448376,44945698
sw,-71.7379989624023,-86.5561065673828,70.89309203331412,-75.22241031165875,44962365
sw,-71.8471984863281,-85.4686203002929,59.576889418894055,-98.14381966761331,44979032
sw,-72.4225006103515,-83.8336029052734,49.1419542641988,-121.4718967962534,44995699
sw,-73.1751251220703,-81.7040252685546,40.273170591038344,-143.80664589365145,45012366
sw,-74.1388320922851,-79.2030258178711,33.14372090949996,-163.50019323588182,45029033
sw,-75.1053695678711,-76.4892654418945,27.761911366732672,-178.78720648278988,45045700
sw,-75.8123245239257,-73.326919555664,24.350450391490543,-187.99976702093062,45062367
sw,-76.3578796386718,-69.7922134399414,23.560147706880965,-189.86192839123544,45079034
sw,-76.865119934082,-66.0763931274414,26.408422774840073,-183.80660618690962,45095701
sw,-77.2212448120117,-63.2315368652343,33.95356284595185,-170.2096638210081,45112368
sw,-77.8502349853515,-61.1960372924804,46.815374128856085,-150.43469036741686,45129035
sw,-78.8411636352539,-59.4538040161132,64.70357197204211,-126.64272021272426,45145702
sw,-80.0169448852539,-57.8066520690918,86.11475316549314,-101.40875527655687,45162369
sw,-81.3933944702148,-56.6012687683105,108.3211167364864,-77.24485182996673,45179036
sw,-82.8357391357421,-55.8415069580078,127.7151916491856,-56.13680506176997,45195703
sw,-84.2985534667968,-55.4977912902832,140.49929567166708,-39.1838317072884,45212370
sw,-85.6149673461914,-55.4279632568359,143.61134785004285,-26.415908506021697,45229037
sw,-85.5151138305664,-55.3375854492187,135.66665075359677,-16.847238581957825,45245704
sw,-83.5600814819336,-55.1101455688476,117.60793110748845,-8.784493771352263,45262371
sw,-81.5308456420898,-54.7788429260253,92.76090900325914,-0.338021921976677,45279038
sw,-80.9554290771484,-54.5265769958496,66.14369586822623,9.995008821676443,45295705
sw,-81.58203125,-54.5179138183593,43.15636353204822,22.856033486341882,45312372
sw,-82.5917816162109,-54.6905136108398,28.064548957352056,37.82740917724821,45329039
sw,-82.8220901489257,-55.6823997497558,22.823909298213565,53.597036018512924,45345706
sw,-82.1215438842773,-57.7238426208496,26.672479270158256,68.43559715771097,45362373
sw,-80.9262008666992,-59.7307777404785,36.59619256403181,80.79896596437523,45379040
sw,-79.3205642700195,-60.9471092224121,48.42033276603377,89.80257962512539,45395707
sw,-77.669319152832,-62.2862854003906,58.07031248902367,95.37701551383972,45412374
sw,-76.3715438842773,-63.3611946105957,62.55224793782551,98.0798694429044,45429041
sw,-75.5625457763671,-64.5882797241211,60.38547187653958,98.70448645567042,45445708
sw,-75.0982589721679,-66.1326828002929,51.470171883576604,97.89402650419059,45462375
sw,-74.9112701416015,-67.396499633789,36.58356913255278,95.92358442253634,45479042
sw,-74.9658737182617,-68.5214462280273,16.793196084494493,92.70813079271367,45495709
sw,-75.1843719482421,-69.7671966552734,-6.959718228381318,87.99454256440265,45512376
sw,-75.575698852539,-71.133544921875,-33.98020878836485,81.63390338919898,45529043
sw,-76.2598037719726,-72.0930862426757,-63.66695082851336,73.80930706017928,45545710
sw,-77.42529296875,-72.9562377929687,-95.22407238861538,65.11632292913667,45562377
sw,-79.4007339477539,-73.7947311401367,-127.4117650352996,56.457970992330445,45579044
sw,-82.0349884033203,-74.6821517944336,-158.46705478255367,48.79916737386563,45595711
sw,-84.7029876708984,-75.3325424194336,-186.23447276933967,42.88351439894367,45612378
sw,-86.406753540039,-75.7471237182617,-208.4603916863274,39.02196298357047,45629045
sw,-85.7875061035156,-76.2462539672851,-223.16499698147575,37.02721619993427,45645712
sw,-82.7335891723632,-77.0536422729492,-229.0079686334582,36.31250251061594,45662379
sw,-78.5376739501953,-78.0612030029296,-225.5730757247731,36.114536477560584,45679046
sw,-74.9772415161132,-79.0807571411132,-213.49826878209865,35.753677558715545,45695713
sw,-72.3815155029296,-79.9844360351562,-194.397659705174,34.831420855913684,45712380
sw,-69.800552368164,-80.7388305664062,-170.58140930650714,33.298104046635146,45729047
sw,-66.8654708862304,-81.3144760131836,-144.64714650425728,31.385935358915592,45745714
sw,-64.6742172241211,-81.6876144409179,-119.03882771735263,29.459783320441645,45762381
sw,-63.4400558471679,-81.9416351318359,-95.6452498701638,27.863824105769552,45779048
sw,-62.6408081054687,-82.2243576049804,-75.49168238124498,26.82999301838068,45795715
sw,-61.8951187133789,-82.5929718017578,-58.58763605311654,26.474231754653957,45812382
sw,-61.1526527404785,-82.9768905639648,-43.9947574832323,26.857666066580528,45829049
sw,-60.5834770202636,-83.3666229248046,-30.133170464535397,28.05521879738751,45845716
sw,-60.2146415710449,-83.7675399780273,-15.266530944109345,30.17173972523578,45862383
sw,-60.0738143920898,-84.1698150634765,1.9589205700554102,33.2764329323749,45879050
sw,-60.1070022583007,-84.5326309204101,22.068933638541598,37.27272896661408,45895717
sw,-60.4828338623046,-84.849609375,44.53686009994211,41.75903679798974,45912384
sw,-61.6817245483398,-85.100112915039,67.85248191760707,45.94932985191608,45929051
sw,-63.6015815734863,-85.2545089721679,89.873654131082,48.70696816346608,45945718
sw,-65.7928466796875,-85.2718429565429,108.35967873871628,48.707502636233556,45962385
sw,-68.0087203979492,-85.1540222167968,121.52462048349389,44.700716121434326,45979052
sw,-69.9164352416992,-84.9054946899414,128.4520986866969,35.80459844635517,45995719
sw,-72.1166534423828,-84.6323928833007,129.27578734634596,21.746266155076096,46012386
sw,-74.7293319702148,-84.5944900512695,125.10734751015377,2.973025020660006,46029053
sw,-76.9654312133789,-84.8134078979492,117.74427903596091,-19.409346227617963,46045720
sw,-78.7614822387695,-85.3378448486328,109.21642986536507,-43.86177057694329,46062387
sw,-79.8604202270507,-85.8257522583007,101.26363131978704,-68.73541079488213,46079054
sw,-80.7156219482421,-85.758316040039,94.88527617809567,-92.58916097743115,46095721
sw,-81.9547042846679,-84.7918472290039,90.12396016821161,-114.39342745151893,46112388
sw,-83.5899353027343,-83.2043685913086,86.18962754585392,-133.55459142516622,46129055
sw,-85.541389465332,-81.3331069946289,81.89837614157786,-149.77021517077077,46145722
sw,-87.380126953125,-79.2341842651367,76.25522448185218,-162.80160600685602,46162389
sw,-88.6094284057617,-76.7087020874023,68.93631970775293,-172.28929629989202,46179056
sw,-88.5720672607421,-73.7991943359375,60.46744573055073,-177.71545071920158,46195723
sw,-88.1760864257812,-70.4381637573242,52.03223565133578,-178.54187880637272,46212390
sw,-87.8794784545898,-66.6672821044921,45.00853004305835,-174.45849125865635,46229057
sw,-87.4862747192382,-63.7921180725097,40.446796672523604,-165.6136540778016,46245724
sw,-86.9657821655273,-61.6942253112793,38.716058861802914,-152.70343408086146,46262391
sw,-86.1995468139648,-59.7779579162597,39.44782122968867,-136.87086355349,46279058
sw,-85.0556945800781,-57.7908782958984,41.76072221639068,-119.45967078078358,46295725
sw,-83.9777069091796,-55.9247817993164,44.62668465930007,-101.71764541237887,46312392
sw,-83.2048873901367,-54.7440910339355,47.20093881286672,-84.5368123776265,46329059
sw,-82.6465225219726,-53.958023071289,48.99211782608574,-68.28687590766758,46345726
sw,-82.0464859008789,-53.1495094299316,49.853375976689236,-52.7782965169823,46362393
sw,-81.3146591186523,-52.5166931152343,49.86517882672707,-37.375095145926515,46379060
sw,-80.485107421875,-52.0548782348632,49.20721211535885,-21.244416045663307,46395727
sw,-79.6128540039062,-51.841926574707,48.08079907104359,-3.6847900517795775,46412394
sw,-78.7126998901367,-51.9302673339843,46.682684604942445,15.556890470393064,46429061
sw,-77.8403167724609,-52.2294006347656,45.1883171092168,36.07253232917462,46445728
sw,-77.0991287231445,-53.1017265319824,43.69896981247441,56.75276201503361,46462395
sw,-76.5274124145507,-54.3678131103515,42.13872981371141,75.94512703867683,46479062
sw,-76.1498489379882,-55.9160652160644,40.13416225024104,91.78338151329821,46495729
sw,-75.8273391723632,-57.7307815551757,36.943813032833816,102.61260629520623,46512396
sw,-75.3565292358398,-59.6432189941406,31.503441921053028,107.40758667179986,46529063
sw,-74.7528457641601,-61.5166511535644,22.609720956891984,106.08245082516669,46545730
sw,-74.2458267211914,-63.2030754089355,9.198677147031196,99.61334774563365,46562397
sw,-74.1300277709961,-64.8545761108398,-9.376960671505014,89.9332859462312,46579064
sw,-74.7174377441406,-66.2644500732421,-33.17060388594132,79.60124935104825,46595731
sw,-75.9577026367187,-67.1013565063476,-61.61260639166889,71.29260166573219,46612398
sw,-77.6470718383789,-67.8281097412109,-93.60166842309903,67.20320028091787,46629065
sw,-79.7807083129882,-68.5240478515625,-127.63766452130402,68.49906086196293,46645732
sw,-82.1546478271484,-69.3296356201171,-161.91839458989608,74.9599048675093,46662399
sw,-84.6155166625976,-70.5053939819336,-194.3727609727148,84.93926598779443,46679066
sw,-86.2349090576171,-71.9160614013671,-222.6702931890141,95.69127415090396,46695733
sw,-85.4570541381836,-73.5689849853515,-244.29696244932927,104.01334175088702,46712400
sw,-82.6979751586914,-75.4339065551757,-256.79314854951826,107.05811191463131,46729067
sw,-78.6630630493164,-77.600830078125,-258.1949665055716,103.10607668853973,46745734
sw,-73.2333984375,-79.9440612792968,-247.60796147499843,92.07684041775389,46762401
sw,-68.7545394897461,-81.7542343139648,-225.71534497993787,75.60197830874085,46779068
sw,-65.2937469482421,-82.6448593139648,-194.9640879606574,56.59677676064895,46795735
sw,-62.3684997558593,-82.7992248535156,-159.24830139328014,38.43959475983272,46812402
sw,-60.8041267395019,-82.4701461791992,-123.10190709299533,24.031570926100446,46829069
sw,-60.3825073242187,-82.1742858886718,-90.62345670714785,15.072039771796497,46845736
sw,-60.1916313171386,-82.2422790527343,-64.48322743524993,11.795803263875545,46862403
sw,-59.6503257751464,-82.7997665405273,-45.35204863561097,13.216762189884236,46879070
sw,-58.7489776611328,-83.6467971801757,-31.942375451000732,17.711744908699075,46895737
sw,-57.8880958557128,-84.5242156982421,-21.623851796922896,23.66055622334525,46912404
sw,-57.2782249450683,-85.255500793457,-11.372144673866439,29.87999986763513,46929071
sw,-56.876365661621,-85.7659454345703,1.2798997403103838,35.72449819484271,46945738
sw,-56.8089866638183,-86.090087890625,17.576801996097355,40.89623170840567,46962405
sw,-57.4564743041992,-86.4013595581054,37.31657535911318,45.130424310970355,46979072
sw,-59.2858047485351,-86.8136520385742,59.06332549814656,47.947878130018154,46995739
sw,-61.0679779052734,-87.017707824707,80.65419769642929,48.598855834485974,47012406
sw,-62.7230911254882,-86.7733001708984,99.79218000085,46.20628378708638,47029073
sw,-64.3798599243164,-86.3730163574218,114.5464051083992,40.017780459631624,47045740
sw,-66.0223083496093,-86.085090637207,123.68098378694195,29.641995863776476,47062407
sw,-68.1355819702148,-85.9666290283203,126.8276280822459,15.176424196542552,47079074
sw,-70.5177841186523,-86.0614013671875,124.54355976123044,-2.8044483770338964,47095741
sw,-73.325569152832,-86.2781677246093,118.25407156471715,-23.378598615713138,47112408
sw,-75.7844848632812,-86.4721374511718,110.02659432303645,-45.472337391221586,47129075
sw,-77.2353134155273,-86.2686538696289,102.13078244001424,-68.06072474016777,47145742
sw,-77.8010101318359,-85.3730239868164,96.43457670082515,-90.31016455351146,47162409
sw,-78.5335845947265,-83.917366027832,93.81992784270219,-111.61303850783156,47179076
sw,-79.7008514404296,-82.17236328125,93.8703247149101,-131.49798780934753,47195743
sw,-81.4812927246093,-80.1357192993164,95.00970258294277,-149.45302269561498,47212410
sw,-83.6353607177734,-77.8406448364257,95.08192868917634,-164.75039454964676,47229077
sw,-85.7109298706054,-75.2230224609375,92.15969326692813,-176.38145881054965,47245744
sw,-87.5511245727539,-72.2517471313476,85.27008267595264,-183.17806089195548,47262411
sw,-88.3264923095703,-68.9800796508789,74.76265885805284,-184.1195602569606,47279078
sw,-88.1012268066406,-64.7810516357421,62.193367910590425,-178.7281108805066,47295745
sw,-87.9847183227539,-61.5669212341308,49.78604415276306,-167.38207161688973,47312412
sw,-88.0393600463867,-59.701187133789,39.68994904253166,-151.37902289887944,47329079
sw,-87.9490051269531,-58.2882766723632,33.31770153928106,-132.6801953962911,47345746
sw,-87.5109252929687,-56.7245903015136,30.99765872644636,-113.419794530044,47362413
sw,-86.7149658203125,-55.191104888916,32.03282095787083,-95.3646712015406,47379080
sw,-85.7539825439453,-53.9088706970214,35.091272581714186,-79.50237509370048,47395747
sw,-84.9562835693359,-53.2495384216308,38.7371527603693,-65.8566513866186,47412414
sw,-84.2064819335937,-52.7201118469238,41.892500213962165,-53.55497148544214,47429081
sw,-83.4234771728515,-52.0917701721191,44.09018615734391,-41.12977799519015,47445748
sw,-82.6820373535156,-51.3997459411621,45.482831398641274,-26.997096885992505,47462415
sw,-81.9807815551757,-50.9525451660156,46.656294653875165,-10.003270119849113,47479082
sw,-81.2607955932617,-50.8724975585937,48.335832230145805,10.115013105896285,47495749
sw,-80.4535522460937,-50.9970664978027,51.075580778703916,32.51216304348973,47512416
sw,-79.4892883300781,-51.7638511657714,55.00384718186586,55.35149428608509,47529083
sw,-78.4623870849609,-53.2857246398925,59.67108534837189,76.25119115169458,47545750
sw,-77.4817733764648,-55.2803039550781,64.02411134456578,92.93609564870383,47562417
sw,-76.5395889282226,-57.5737838745117,66.51374443445833,103.88774054849468,47579084
sw,-75.5263290405273,-59.6853370666503,65.32931352049022,108.76993879123826,47595751
sw,-74.4160842895507,-61.6873321533203,58.731823117880545,108.48125044691507,47612418
sw,-73.3674163818359,-63.3363304138183,45.42456734631133,104.8234204478219,47629085
sw,-72.7043075561523,-64.5750579833984,24.869902738691565,99.91578769319764,47645752
sw,-72.5901412963867,-65.7061309814453,-2.541542751235586,95.56836478002688,47662419
sw,-73.1664581298828,-66.9886245727539,-35.52401292450024,92.81968854422955,47679086
sw,-74.5466003417968,-68.2475891113281,-72.11815021285344,91.76153975443168,47695753
sw,-76.5335998535156,-69.4404983520507,-110.01931032439389,91.65922327488893,47712420
sw,-79.0692520141601,-70.7281341552734,-146.89687859055974,91.28843475168034,47729087
sw,-82.0221405029296,-72.1388320922851,-180.6058153984987,89.37297383840355,47745754
sw,-84.9166946411132,-73.8211517333984,-209.25576224275622,85.00687715005589,47762421
sw,-87.1573791503906,-75.3806457519531,-231.18880588667375,77.95491587638857,47779088
sw,-86.7048568725586,-76.4661331176757,-244.98285489181424,68.7457457149612,47795755
sw,-83.6754455566406,-77.2043151855468,-249.59687894627288,58.5215794839785,47812422
sw,-78.5169296264648,-77.6088180541992,-244.68047129553884,48.69013984153124,47829089
sw,-72.3839263916015,-78.0252838134765,-230.91454609782082,40.50419157875555,47845756
sw,-69.3824310302734,-78.6386108398437,-210.1384056046077,34.72274287181912,47862423
sw,-67.5545578002929,-79.4235763549804,-185.07136149292538,31.466566301066788,47879090
sw,-65.6107025146484,-80.3147277832031,-158.65927045185398,30.29368975697385,47895757
sw,-63.4903259277343,-81.1902084350586,-133.30650361426402,30.434632499010373,47912424
sw,-61.6898918151855,-82.0107498168945,-110.31226688554607,31.07948172746174,47929091
sw,-60.1073951721191,-82.6746673583984,-89.70167748492825,31.612010393138032,47945758
sw,-58.9520606994628,-83.2424011230468,-70.45723583469837,31.729543540604904,47962425
sw,-58.1720848083496,-83.796760559082,-51.030641792566165,31.444495998452215,47979092
sw,-57.5349655151367,-84.2862243652343,-29.967770923838838,31.004091930998378,47995759
sw,-57.0277214050293,-84.7179489135742,-6.477897324634586,30.773654711809744,48012426
sw,-56.8990249633789,-85.0916061401367,19.202401423863048,31.11495692754226,48029093
sw,-57.4630241394043,-85.3651504516601,45.75644008778053,32.27475457702217,48045760
sw,-59.091697692871,-85.5737991333007,71.07050493313919,34.29213304897202,48062427
sw,-61.4590339660644,-85.7543487548828,92.76900671860325,36.93499257237552,48079094
sw,-63.3806533813476,-85.8842010498046,108.82788356200588,39.67776094788568,48095761
sw,-65.1722259521484,-85.8913955688476,118.07624163904738,41.72904863527666,48112428
sw,-66.9826583862304,-85.7546691894531,120.46501371815958,42.11088567355137,48129095
sw,-68.9493942260742,-85.5471115112304,117.08187647446665,39.78484037455606,48145762
sw,-71.1006317138671,-85.3449096679687,109.95381663504358,33.815108292725434,48162429
sw,-73.2853012084961,-85.1545944213867,101.68219109269639,23.549240064088348,48179096
sw,-75.1938018798828,-84.9561996459961,94.93913301050206,8.780898062292687,48195763
sw,-76.3581848144531,-84.8929748535156,91.87065294910322,-10.154255235691103,48212430
sw,-77.1352310180664,-85.1469955444336,93.5150867721595,-32.39047015214072,48229097
sw,-78.138427734375,-85.5552062988281,99.41505362311727,-56.65642638899325,48245764
sw,-79.7086868286132,-85.70947265625,107.60755824688114,-81.47182114961666,48262431
sw,-81.7227020263671,-85.2124710083007,115.0801152324615,-105.3527188756646,48279098
sw,-83.8596572875976,-83.8369674682617,118.61137074674545,-126.97523942614487,48295765
sw,-86.0098800659179,-81.7209014892578,115.75501533427003,-145.2777053201134,48312432
sw,-87.5674819946289,-79.1166534423828,105.64949930025998,-159.50354964968938,48329099
sw,-86.9559249877929,-76.3235168457031,89.36982990928114,-169.19542929291129,48345766
sw,-85.969497680664,-73.5917205810546,69.67080880301431,-174.15791524710158,48362433
sw,-85.8456497192382,-70.8847961425781,50.17420482989466,-174.41773138161776,48379100
sw,-85.9741592407226,-67.7640075683593,34.268246455856975,-170.2118278966543,48395767
sw,-86.0250701904296,-64.7183685302734,24.1216848597561,-162.00657660524968,48412434
sw,-85.8642654418945,-62.4809188842773,20.178539900158782,-150.50715651732867,48429101
sw,-85.1021499633789,-60.6442527770996,21.289727515116354,-136.59746683210508,48445768
sw,-84.0074310302734,-58.8334007263183,25.35861413011969,-121.18706167173687,48462435
sw,-83.0458526611328,-57.5414085388183,30.17715894228925,-105.00903172879917,48479102
sw,-82.5167541503906,-56.3307762145996,34.10324723109952,-88.45706423129486,48495769
sw,-82.3524780273437,-55.0089836120605,36.368836822131975,-71.53904130164038,48512436
sw,-82.1260604858398,-53.9554710388183,37.015723000439934,-53.96926146699905,48529103
sw,-81.5888442993164,-53.4844589233398,36.61190511447058,-35.36011061225569,48545770
sw,-80.8199005126953,-53.3586273193359,35.93635432822029,-15.444569860519067,48562437
sw,-79.9979476928711,-53.3018798828125,35.7468752770172,5.729873176379326,48579104
sw,-79.3390502929687,-53.4264335632324,36.640007152967705,27.675007849423736,48595771
sw,-78.7960510253906,-54.1364974975585,38.94975008338881,49.43479810863855,48612438
sw,-78.2696151733398,-55.4164276123046,42.639629483606534,69.6838274029524,48629105
sw,-77.6438827514648,-56.8716583251953,47.192500546018984,86.95284392506889,48645772
sw,-76.8823699951171,-58.5226593017578,51.547397286158834,99.94043621025465,48662439
sw,-76.0683212280273,-60.496726989746,54.14259480349686,107.8347743333678,48679106
sw,-75.2484130859375,-62.4816131591796,53.09791127279854,110.55873535619749,48695773
sw,-74.4644012451171,-64.3111038208007,46.5243446886173,108.86403698080228,48712440
sw,-73.7669830322265,-66.0625991821289,32.9049432535196,104.22929485490467,48729107
sw,-73.3880920410156,-67.8043060302734,11.461645241973109,98.55967644771586,48745774
sw,-73.6307601928711,-69.1735229492187,-17.582239751133024,93.73613038445168,48762441
sw,-74.4733505249023,-70.1247100830078,-52.912174508675946,91.11216235939021,48779108
sw,-75.9571151733398,-70.8904647827148,-92.23083037840433,91.09658803178787,48795775
sw,-78.0925598144531,-71.6956100463867,-132.54242065319696,92.97353001623502,48812442
sw,-80.7841186523437,-73.0367584228515,-170.55222754853912,95.07022776992054,48829109
sw,-83.7709350585937,-74.808853149414,-203.10149226533983,95.27732773719335,48845776
sw,-86.1764373779296,-76.9762954711914,-227.56263921429104,91.78229341359305,48862443
sw,-86.1482696533203,-79.0904312133789,-242.14704040548787,83.75895749115138,48879110
sw,-83.4180755615234,-80.6033630371093,-246.11117453173082,71.7342966972635,48895777
sw,-78.8143844604492,-81.2294921875,-239.85799362139068,57.45943257206507,48912444
sw,-74.1832199096679,-81.1649169921875,-224.9042648514449,43.3159930994537,48929111
sw,-71.1586303710937,-81.072998046875,-203.65482335381216,31.501981939322174,48945778
sw,-68.530532836914,-81.3581008911132,-178.95210543693295,23.34861716494408,48962445
sw,-66.1112899780273,-82.1603622436523,-153.46714578549432,19.049274081153857,48979112
sw,-64.3789520263671,-82.953857421875,-129.0994908628833,17.867419696936345,48995779
sw,-62.9951171875,-83.4700622558593,-106.58159719224194,18.661261686867356,49012446
sw,-61.8185691833496,-84.0144424438476,-85.42586667293362,20.44822830648615,49029113
sw,-60.4798164367675,-84.593147277832,-64.24595427422368,22.769306158370394,49045780
sw,-59.5043067932128,-85.0763778686523,-41.367152829799004,25.74282652033872,49062447
sw,-59.1205940246582,-85.4557113647461,-15.54768660361186,29.83493732855454,49079114
sw,-59.1241416931152,-85.7892761230468,13.404861677546155,35.467208873265584,49095781
sw,-59.3371124267578,-86.0786895751953,44.31010906656951,42.61544556514127,49112448
sw,-60.0334434509277,-86.2419281005859,74.69668724218316,50.534026367743564,49129115
sw,-62.3159637451171,-86.1295547485351,101.29696991489271,57.68667718986362,49145782
sw,-65.1482849121093,-85.7631683349609,120.84072551241977,61.90407127978244,49162449
sw,-67.5962829589843,-85.2936401367187,130.9261389701672,60.74077027069731,49179116
sw,-69.6839523315429,-84.830322265625,130.71059428719468,51.97124982617588,49195783
sw,-71.6865310668945,-84.4895706176757,121.22862299805142,34.13722339183404,49212450
sw,-74.0023651123046,-84.2189025878906,105.26734063292606,7.03023217811274,49229117
sw,-75.8141250610351,-84.2217559814453,86.83828368175833,-28.025191001452637,49245784
sw,-76.5076522827148,-84.871109008789,70.35468233800556,-68.20765277961281,49262451
sw,-76.9974670410156,-85.9335098266601,59.679762670802205,-109.60586797801963,49279118
sw,-77.4766540527343,-86.04833984375,57.261390110583264,-147.9333663282485,49295785
sw,-78.4659729003906,-83.8838119506836,63.57245765913473,-179.3705775493998,49312452
sw,-79.8530731201171,-80.3822555541992,77.0025444803973,-201.2923857210663,49329119
sw,-81.5449295043945,-76.5322494506836,94.2194807685741,-212.66786965686657,49345786
sw,-83.2449188232421,-72.9386749267578,110.90268089940139,-214.02879739944643,49362453
sw,-84.7835388183593,-69.7098388671875,122.68762840024807,-207.05206868809037,49379120
sw,-86.2593765258789,-67.0146026611328,126.14753539463587,-193.93271075846096,49395787
sw,-86.8210983276367,-64.6022338867187,119.63599460454299,-176.78607803716184,49412454
sw,-84.935073852539,-62.0491256713867,103.79812934056255,-157.2808050710948,49429121
sw,-82.7627792358398,-59.3751983642578,81.55464934709683,-136.57917001038192,49445788
sw,-81.9970321655273,-56.9655647277832,57.444526047794234,-115.50681540417384,49462455
sw,-82.7283248901367,-55.1687469482421,36.4187903810653,-94.77086637539888,49479122
sw,-83.9460830688476,-54.0147285461425,22.440702189488526,-75.0515737913481,49495789
sw,-84.4252243041992,-53.618782043457,17.4002657270544,-56.90095778420494,49512456
sw,-83.8359222412109,-53.6464653015136,20.758452587586824,-40.52533948331974,49529123
sw,-82.4156875610351,-53.458740234375,30.019772641982694,-25.620835258588375,49545790
sw,-80.744514465332,-53.0177040100097,41.76762371571881,-11.415044524417368,49562457
sw,-79.3397140502929,-52.4345741271972,52.789018762817335,3.0498057835038015,49579124
sw,-78.4963684082031,-52.0300407409668,60.856436857260626,18.507087480581543,49595791
sw,-77.9181442260742,-52.2346000671386,64.96518176061545,35.131979047982306,49612458
sw,-77.3346633911132,-53.526382446289,65.09639206983258,52.45281110218272,49629125
sw,-76.5411682128906,-55.7164001464843,61.75023237688265,69.53884072293198,49645792
sw,-75.6664810180664,-57.3351287841796,55.512043887458724,85.34184919101315,49662459
sw,-74.7662734985351,-58.4957771301269,46.809732043213856,99.0043680371193,49679126
sw,-74.0187683105468,-60.0401420593261,35.87866763126013,110.01053676354913,49695793
sw,-73.453628540039,-62.0821800231933,22.84934511729647,118.17851965332393,49712460
sw,-73.2626953125,-64.1925735473632,7.847790904861384,123.5686847816019,49729127
sw,-73.5627212524414,-66.2294540405273,-8.961284655083691,126.37232509825891,49745794
sw,-74.2916488647461,-68.1855163574218,-27.390568378307176,126.80378196283965,49762461
sw,-75.2352752685546,-69.6084747314453,-47.25441509760752,125.00530999603197,49779128
sw,-76.2727813720703,-71.0491714477539,-68.34294417739595,120.99421657940923,49795795
sw,-77.4500350952148,-72.616828918457,-90.32868447570065,114.69775100298732,49812462
sw,-78.9625701904296,-74.2825546264648,-112.64841571349223,106.0976329671658,49829129
sw,-81.0488891601562,-76.0154571533203,-134.43752425157103,95.44151103869173,49845796
sw,-83.7403793334961,-77.4167098999023,-154.57691001131926,83.41012801505934,49862463
sw,-86.6232223510742,-78.2142333984375,-171.85441828789254,71.11234887263682,49879130
sw,-88.7342224121093,-78.6575241088867,-185.18360826046117,59.84999579991014,49895797
sw,-86.3614883422851,-79.0752258300781,-193.79898734813014,50.72498882616086,49912464
sw,-82.999526977539,-79.6371078491211,-197.36583372858112,44.26974858933561,49929131
sw,-79.7004089355468,-80.4623031616211,-195.98342158786159,40.28838761445042,49945798
sw,-76.6793823242187,-81.5703735351562,-190.09667118202933,37.991114287282024,49962465
sw,-73.8541870117187,-82.7340240478515,-180.35023494107358,36.354702380248085,49979132
sw,-70.8862686157226,-83.6752624511718,-167.4212670452607,34.537456391504044,49995799
sw,-68.0397186279296,-84.3821105957031,-151.85946499963234,32.16940961542112,50012466
sw,-66.3024978637695,-84.9806594848632,-133.95876020587713,29.4185950375858,50029133
sw,-65.0620498657226,-85.434211730957,-113.69747446442247,26.848929437732433,50045800
sw,-63.7566604614257,-85.7518081665039,-90.80235909414033,25.170847382724215,50062467
sw,-62.5168800354003,-85.9794692993164,-64.97782220417493,25.00180114839407,50079134
sw,-61.6316680908203,-86.0631942749023,-36.27111623182952,26.704305004551145,50095801
sw,-61.0796966552734,-86.0300979614257,-5.449797408871096,30.299214001969574,50112468
sw,-60.9397201538085,-85.9666290283203,25.785541718371082,35.41376394809043,50129135
sw,-61.5034828186035,-85.9252777099609,54.90115879712042,41.238345053254356,50145802
sw,-63.496238708496,-85.8252410888671,78.98333639899245,46.510932677827256,50162469
sw,-65.9566421508789,-85.5396347045898,95.44027933109223,49.581731479627614,50179136
sw,-67.6584167480468,-85.0411376953125,102.73123021210417,48.603968259536884,50195803
sw,-69.3681411743164,-84.4241333007812,100.87818076622301,41.85075132538763,50212470
sw,-71.2178268432617,-83.8915100097656,91.59710682048018,28.098377009679865,50229137
sw,-72.8967514038086,-83.5646820068359,78.01315355097476,6.975322242418587,50245804
sw,-73.6583480834961,-83.5316162109375,64.0326141196111,-20.828058132840923,50262471
sw,-74.0211181640625,-84.0107040405273,53.51895440564132,-53.56242764753974,50279138
sw,-74.5407943725586,-85.0904846191406,49.468237810130574,-88.65296689575692,50295805
sw,-75.2200622558593,-86.0790405273437,53.38472799613297,-123.1174946017169,50312472
sw,-76.5414886474609,-85.7044525146484,64.9978794054685,-154.06835633421628,50329139
sw,-78.2784881591796,-83.4727401733398,82.35451485508439,-179.1713322557442,50345806
sw,-80.07421875,-80.1823806762695,102.21959764225032,-196.94865659223305,50362473
sw,-81.7274703979492,-76.5173950195312,120.67419863620653,-206.86062589803865,50379140
sw,-83.3839645385742,-73.0148849487304,133.81451439449734,-209.1662710329381,50395807
sw,-85.1692886352539,-69.9775466918945,138.48765849976334,-204.6337191826863,50412474
sw,-86.9202499389648,-67.2933502197265,132.991722048055,-194.22555563963482,50429141
sw,-86.3950576782226,-64.4925003051757,117.60257735336661,-178.89365015193158,50445808
sw,-84.0731582641601,-61.68017578125,94.72093945523544,-159.558924505507,50462475
sw,-83.124397277832,-58.825023651123,68.45635817697374,-137.24047263214504,50479142
sw,-83.5753860473632,-56.5255737304687,43.640440359310844,-113.19681766399925,50495809
sw,-84.8415603637695,-55.1920700073242,24.53446518882011,-88.91962627990554,50512476
sw,-85.6387481689453,-54.5404243469238,13.700221571232039,-65.90138458246196,50529143
sw,-85.387222290039,-54.4784393310546,11.478152662694693,-45.24022262509394,50545810
sw,-84.2620544433593,-54.5953788757324,16.24857621363428,-27.263700211915413,50562477
sw,-82.8095321655273,-54.4808044433593,25.292133163303887,-11.378054377240618,50579144
sw,-81.5977249145507,-54.1488609313964,35.822610312210095,3.7382566281259115,50595811
sw,-80.8218536376953,-53.7720642089843,45.75735878889869,19.636697546668422,50612478
sw,-80.2213897705078,-53.5932464599609,53.98499598234268,37.48640242120635,50629145
sw,-79.7957153320312,-54.1661262512207,60.15370116484128,57.59779108356697,50645812
sw,-79.164077758789,-56.3050003051757,64.2003823719896,79.26488394309628,50662479
sw,-78.1969757080078,-58.7135429382324,65.90009947771459,100.94832896369077,50679146
sw,-77.0833206176757,-60.3163299560546,64.64247301337836,120.66708029352803,50695813
sw,-75.8688278198242,-62.0660400390625,59.498144350805596,136.4192091417181,50712480
sw,-74.775894165039,-64.3080444335937,49.50139094944336,146.5215092760248,50729147
sw,-74.0376434326171,-66.6145248413086,34.001240125299034,149.85453047785074,50745814
sw,-73.8265533447265,-68.9584732055664,12.937502085551461,146.03738681298137,50762481
sw,-74.1202239990234,-70.4975967407226,-13.042544424078615,135.53379352733654,50779148
sw,-74.8234405517578,-71.9134750366211,-42.636879199157846,119.66056928258507,50795815
sw,-76.0380706787109,-73.5396881103515,-74.06757670265765,100.46553230317848,50812482
sw,-77.7842178344726,-74.9845809936523,-105.32406271024583,80.45922478773603,50829149
sw,-79.8539657592773,-76.1327667236328,-134.4169132993078,62.21341680509685,50845816
sw,-82.3723907470703,-76.648941040039,-159.60479171999552,47.879529767804165,50862483
sw,-85.3949584960937,-76.7393188476562,-179.56978894708288,38.731246688921615,50879150
sw,-88.0210800170898,-76.9411697387695,-193.52199382672518,34.875134027291686,50895817
sw,-86.8676223754882,-77.5243759155273,-201.2188289937344,35.259379580086964,50912484
sw,-84.1541748046875,-78.5196228027343,-202.90004195108494,38.01920098739396,50929151
sw,-81.1374282836914,-79.8372650146484,-199.16653251785795,41.05941629472224,50945818
sw,-78.0048065185546,-80.9601745605468,-190.8510112324565,42.66786806564602,50962485
sw,-74.7761688232421,-81.9568481445312,-178.9175185156992,41.9434539674905,50979152
sw,-71.8370590209961,-82.7258758544921,-164.38750035852613,38.912243769414864,50995819
sw,-69.0627365112304,-83.2687072753906,-148.25479872661754,34.33896544892136,51012486
sw,-67.0588150024414,-83.66748046875,-131.3546842678396,29.35197537028785,51029153
sw,-65.8047180175781,-83.9903182983398,-114.19826239139229,25.04779659050437,51045820
sw,-64.4760665893554,-84.255126953125,-96.84201318529098,22.218122296061477,51062487
sw,-63.0931510925293,-84.4844512939453,-78.88412872368444,21.26336050395565,51079154
sw,-61.9263534545898,-84.5976409912109,-59.63714260418371,22.25970996143528,51095821
sw,-61.1841468811035,-84.6756134033203,-38.44324545129829,25.07999746052645,51112488
sw,-60.8631591796875,-84.8962707519531,-15.030438673914325,29.465172916898613,51129155
sw,-60.9442825317382,-85.3011398315429,10.208934217743646,34.99885169332662,51145822
sw,-61.3654174804687,-85.7383651733398,36.107261991536326,41.01283106332074,51162489
sw,-62.1327629089355,-86.0160675048828,60.82094844768656,46.501715194263454,51179156
sw,-63.804588317871,-86.0175476074218,82.13146162286911,50.12691053326069,51195823
sw,-65.6747283935546,-85.7590103149414,97.88758741764383,50.352432978744964,51212490
sw,-67.7235641479492,-85.3911743164062,106.48371433089542,45.70229641572341,51229157
sw,-69.5442810058593,-85.0383682250976,107.25285529380558,35.084486185398056,51245824
sw,-71.0207366943359,-84.7129898071289,100.67900466812324,18.100006964448745,51262491
sw,-72.76025390625,-84.53076171875,88.38699547475821,-4.7521867242349325,51279158
sw,-74.4211807250976,-84.6803894042968,72.91776357070343,-32.05192290856159,51295825
sw,-75.268081665039,-85.3545913696289,57.327480970693614,-61.657189663090136,51312492
sw,-75.6354827880859,-86.3208694458007,44.67427788713032,-91.10255526642406,51329159
sw,-75.7875747680664,-86.2419281005859,37.489544928207714,-118.09480471769058,51345826
sw,-76.44775390625,-84.5675430297851,37.35178090839579,-140.94882412722106,51362493
sw,-77.4766235351562,-82.181167602539,44.65438888605975,-158.81434428814072,51379160
sw,-78.790901184082,-79.6196060180664,58.585585379402346,-171.62354076000364,51395827
sw,-80.2392578125,-76.944839477539,77.26735712045108,-179.80459990038992,51412494
sw,-81.7036514282226,-74.1498336791992,97.98256090615739,-183.89849204124323,51429161
sw,-83.0775756835937,-71.2334060668945,117.46131739289207,-184.2427171571458,51445828
sw,-84.3940887451171,-68.2192001342773,132.2580619765211,-180.84145604221177,51462495
sw,-85.674331665039,-64.9463958740234,139.27170045942387,-173.45279230452678,51479162
sw,-86.5049819946289,-62.0748214721679,136.4068703045432,-161.83111428107964,51495829
sw,-85.3274765014648,-59.9423294067382,123.252886445125,-146.00593842349267,51512496
sw,-82.7821350097656,-58.066307067871,101.53022099680022,-126.47847673912862,51529163
sw,-80.7817077636718,-56.015869140625,75.01849123121278,-104.26116503941435,51545830
sw,-80.6054534912109,-54.3234252929687,48.81035072089903,-80.73750527552357,51562497
sw,-81.7711639404296,-53.7327804565429,28.016178192201902,-57.363458982663204,51579164
sw,-82.9662017822265,-53.8549919128418,16.33964221316212,-35.28284177166799,51595831
sw,-83.2885513305664,-54.2155647277832,15.067225860645816,-14.990696432825468,51612498
sw,-82.6490249633789,-54.6295738220214,22.863050721567124,3.7932709406248994,51629165
sw,-81.0460815429687,-54.5651931762695,36.4055781467251,21.93646645753341,51645832
sw,-78.9860610961914,-54.233226776123,51.544806568596314,40.424915387603995,51662499
sw,-77.5011520385742,-54.4556159973144,64.48551674223195,59.79929305036285,51679166
sw,-76.7770843505859,-55.1402893066406,72.57929772314046,79.74934712212686,51695833
sw,-76.1895751953125,-57.363712310791,74.55989510619308,99.05609837963154,51712500
sw,-75.3352508544921,-60.2201652526855,70.32473906220945,115.90065284912635,51729167
sw,-74.2445297241211,-62.2345123291015,60.50885579474299,128.3824317836483,51745834
sw,-73.3147277832031,-64.1658554077148,46.07671481435904,135.01824784081953,51762501
sw,-72.8458251953125,-66.0685653686523,28.042636617404963,135.0591879055406,51779168
sw,-72.7548217773437,-67.5797424316406,7.3230323545232885,128.59213108046202,51795835
sw,-72.9845504760742,-69.1908798217773,-15.322774648326352,116.48479290868072,51812502
sw,-73.5853652954101,-70.6253967285156,-39.30260943401355,100.24640253811869,51829169
sw,-74.5888061523437,-71.6555709838867,-64.1721381695748,81.83912047612185,51845836
sw,-76.1364517211914,-72.4847564697265,-89.5906907900317,63.438469044785776,51862503
sw,-78.065444946289,-73.1497573852539,-115.24852621204138,47.137616845645205,51879170
sw,-80.3504791259765,-73.5639038085937,-140.76067859180966,34.621242327303946,51895837
sw,-83.0072631835937,-73.8358764648437,-165.53219373529117,26.874566207918665,51912504
sw,-85.8310165405273,-74.3476638793945,-188.6211791817482,24.011186189047002,51929171
sw,-87.7192993164062,-74.9533920288086,-208.6526063221099,25.28238855552033,51945838
sw,-86.3854522705078,-75.4627838134765,-223.85426051795815,29.277861039370183,51962505
sw,-83.4194793701171,-76.1257553100586,-232.28002380706724,34.2704342208602,51979172
sw,-79.6750183105468,-77.0192337036132,-232.23704099230537,38.61926155232058,51995839
sw,-74.9621124267578,-77.9948501586914,-222.83795275108005,41.13084534336142,52012506
sw,-70.2987289428711,-78.9638137817382,-204.49020910669464,41.28384161064741,52029173
sw,-67.1972427368164,-79.8128128051757,-179.0852603784052,39.25822982674078,52045840
sw,-65.2165298461914,-80.4168167114257,-149.72932007128847,35.77281278966255,52062507
sw,-64.0858306884765,-80.8854446411132,-120.05226356158511,31.80336739943948,52079174
sw,-63.1517257690429,-81.2209396362304,-93.33084510196358,28.29029408463902,52095841
sw,-61.9888916015625,-81.507339477539,-71.73972709498568,25.93017745603576,52112508
sw,-60.8391456604003,-81.9036178588867,-55.961727424081325,25.093761342849632,52129175
sw,-59.8152885437011,-82.4210510253906,-45.21856548395286,25.85536987083909,52145842
sw,-59.1513595581054,-82.9830093383789,-37.633716440037574,28.082182176629388,52162509
sw,-58.7137489318847,-83.554817199707,-30.774883347343152,31.52544756842076,52179176
sw,-58.5295715332031,-84.1118392944336,-22.238856071102507,35.87405524913284,52195843
sw,-58.4641380310058,-84.614387512207,-10.18640131951514,40.75962924939719,52212510
sw,-58.3354301452636,-85.020278930664,6.236854665529193,45.72705971889937,52229177
sw,-58.3040466308593,-85.3212738037109,26.65853804142519,50.19746610804604,52245844
sw,-58.6145248413085,-85.5331420898437,49.48887923736418,53.451961018500995,52262511
sw,-60.0147361755371,-85.6912078857421,72.2282207543811,54.657507437852956,52279178
sw,-62.1257362365722,-85.78857421875,92.04082637546472,52.94341432784682,52295845
sw,-64.3082122802734,-85.7621536254882,106.45697022692494,47.52048073170109,52312512
sw,-66.6469192504882,-85.603775024414,113.99611855875298,37.81788655394539,52329179
sw,-68.381103515625,-85.4392395019531,114.52356381981319,23.60234705880861,52345846
sw,-69.8737106323242,-85.4523544311523,109.25394083506261,5.046586687915184,52362513
sw,-71.6242141723632,-85.6771392822265,100.43731115321303,-17.270179858608994,52379180
sw,-73.4105758666992,-86.1163711547851,90.84215878451039,-42.42703162534932,52395847
sw,-74.788703918457,-86.6804656982421,83.1633984318417,-69.27339096686075,52412514
sw,-75.8388290405273,-86.7822875976562,79.46235260407529,-96.5609003547223,52429181
sw,-76.9577560424804,-85.6789932250976,80.72921105376301,-123.0609690331222,52445848
sw,-78.4087448120117,-83.5817337036132,86.65077864280852,-147.63354014593986,52462515
sw,-80.0174942016601,-81.0803756713867,95.64335389911204,-169.2290918741816,52479182
sw,-81.5894012451171,-78.3171615600586,105.16275799280619,-186.84163717277434,52495849
sw,-83.1369323730468,-75.305923461914,112.24841863671683,-199.46903731445113,52512516
sw,-84.8196105957031,-71.8525848388671,114.2127268788131,-206.1498500149745,52529183
sw,-86.7993698120117,-68.0537185668945,109.34656115607797,-206.1143608194723,52545850
sw,-87.9038925170898,-64.1549224853515,97.47031194873655,-199.02055286097803,52562517
sw,-86.5386962890625,-61.1369972229003,80.13910079799757,-185.1804594734501,52579184
sw,-85.5747299194336,-58.5999908447265,60.36129362177268,-165.6609609068651,52595851
sw,-85.5282287597656,-56.2150230407714,41.84034874848477,-142.1812601554855,52612518
sw,-85.8214950561523,-54.2910614013671,27.954484375381192,-116.8037590909738,52629185
sw,-85.9573135375976,-53.1776962280273,20.830492740935195,-91.4896329893985,52645852
sw,-85.8553314208984,-52.749038696289,20.84785530234426,-67.64615327543738,52662519
sw,-85.3119125366211,-52.4162292480468,26.728201510904608,-45.82000547447687,52679186
sw,-84.1738891601562,-52.0268630981445,36.1220475180891,-25.667828621449566,52695853
sw,-82.7519149780273,-51.6299591064453,46.42108284049399,-6.245443192785544,52712520
sw,-81.5905685424804,-51.2283821105957,55.474257631788454,13.47426668395803,52729187
sw,-80.7077941894531,-51.2670707702636,61.97386144993009,34.05384271145925,52745854
sw,-79.9346389770507,-51.7634582519531,65.44793871798585,55.23954000210246,52762521
sw,-79.0936584472656,-52.7828483581543,65.96027983217935,75.95641084778477,52779188
sw,-78.1380157470703,-55.2430229187011,63.70545049835763,94.65433233798548,52795855
sw,-77.2240982055664,-58.3678588867187,58.675066846137724,109.85011909836867,52812522
sw,-76.5422668457031,-60.3537940979003,50.4990572296419,120.61655310657882,52829189
sw,-76.0526809692382,-61.8116912841796,38.484794613973605,126.80299319929777,52845856
sw,-75.6426239013671,-63.5550193786621,21.818376727814773,128.92579515268935,52862523
sw,-75.3539581298828,-65.6161193847656,-0.14224265230515004,127.83771203340086,52879190
sw,-75.6102523803711,-67.5251159667968,-27.569068761545655,124.36100371882556,52895857
sw,-76.6898651123046,-68.8435974121093,-59.942439241608746,119.032540992709,52912524
sw,-78.3936233520507,-70.1553878784179,-95.95619643119751,112.02975874057807,52929191
sw,-80.5943984985351,-71.8801193237304,-133.5560841324398,103.28028811930339,52945858
sw,-83.0698165893554,-73.6742553710937,-170.08994740709912,92.70593166127843,52962525
sw,-85.6382141113281,-75.4810256958007,-202.55189323405594,80.50167061333536,52979192
sw,-87.0290222167968,-76.7947311401367,-227.92283170238363,67.32064184340392,52995859
sw,-85.5517272949218,-77.6724014282226,-243.61367352572546,54.25941710658957,53012526
sw,-81.4770278930664,-77.9093475341796,-247.97713711093107,42.62236524634336,53029193
sw,-75.5041732788086,-78.1851043701171,-240.7700763053165,33.553781678744734,53045860
sw,-71.5255813598632,-78.6435165405273,-223.372555658863,27.69941282360831,53062527
sw,-69.2897720336914,-79.4440307617187,-198.59372583808596,25.046695124151608,53079194
sw,-67.222412109375,-80.3187942504882,-170.05816849782173,24.999911358490607,53095861
sw,-65.1800079345703,-81.0109939575195,-141.37573571384263,26.631493687242134,53112528
sw,-63.2467346191406,-81.5767593383789,-115.39322294757852,28.983096745775388,53129195
sw,-61.4831924438476,-82.0453720092773,-93.74816412502027,31.298095824378013,53145862
sw,-60.0936660766601,-82.4347534179687,-76.78120552532572,33.12776886388851,53162529
sw,-59.1226768493652,-82.8414154052734,-63.73452854459709,34.32201922888219,53179196
sw,-58.3029060363769,-83.3955307006836,-53.11780908637666,34.9573048080839,53195863
sw,-57.5606613159179,-84.0563430786132,-43.13580800968731,35.25609573795785,53212530
sw,-56.9142684936523,-84.6795120239257,-32.09925730079156,35.522214911782555,53229197
sw,-56.5367889404296,-85.1285858154296,-18.760282801793856,36.08031081204634,53245864
sw,-56.4811096191406,-85.4125137329101,-2.528600456385323,37.19280253033409,53262531
sw,-56.7986640930175,-85.6382598876953,16.453591034985656,38.943857559412095,53279198
sw,-57.5390243530273,-85.8977813720703,37.37044744475891,41.11358716436546,53295865
sw,-58.8313217163085,-86.1477127075195,58.889880714330566,43.09172923892821,53312532
sw,-60.1349792480468,-86.2934494018554,79.3716217877949,43.88129865634273,53329199
sw,-61.5407218933105,-86.3073196411132,97.08787219960215,42.218913587725275,53345866
sw,-63.2735900878906,-86.216079711914,110.44576875234608,36.802336850703966,53362533
sw,-65.0824584960937,-86.0268936157226,118.22442757699221,26.581011066634375,53379200
sw,-66.9592971801757,-85.836181640625,119.83512469597225,11.0404277248385,53395867
sw,-69.0194549560546,-85.7734451293945,115.5752351428966,-9.598381542286761,53412534
sw,-71.8305892944336,-85.8601531982421,106.79181508837411,-34.33091113773665,53429201
sw,-74.1756210327148,-85.9743118286132,95.83231769874598,-61.502880667548425,53445868
sw,-75.3396682739257,-85.617202758789,85.68109784279677,-89.10130331128089,53462535
sw,-75.9597015380859,-84.4288787841796,79.2876316071686,-115.12428861704565,53479202
sw,-76.7580642700195,-82.5519943237304,78.74915078675771,-137.9194934693644,53495869
sw,-77.7952270507812,-80.1843032836914,84.61947509462122,-156.3899806729595,53512536
sw,-79.1867523193359,-77.5276641845703,95.60045750014717,-170.015623037066,53529203
sw,-80.9669570922851,-74.7898330688476,108.74509778402957,-178.7091098662252,53545870
sw,-82.7761535644531,-71.8562927246093,120.13870143309836,-182.58948386616726,53562537
sw,-84.5775833129882,-69.0406036376953,125.89421128877748,-181.78661814414758,53579204
sw,-86.3776702880859,-66.2053298950195,123.22089969218368,-176.37202119518497,53595871
sw,-86.5048141479492,-63.3275680541992,111.29049386193053,-166.44802903260808,53612538
sw,-84.3121871948242,-60.6987495422363,91.62858825849113,-152.34320419344868,53629205
sw,-82.9634704589843,-58.2679405212402,67.83555511069878,-134.79620204952656,53645872
sw,-82.979736328125,-56.2579803466796,44.63036078563146,-115.00033090131443,53662539
sw,-83.8120498657226,-54.9936180114746,26.48150664705661,-94.438044903694,53679206
sw,-84.4840621948242,-54.3119773864746,16.307636679938437,-74.53570654936816,53695873
sw,-84.5104522705078,-53.9644393920898,14.74269367738807,-56.267338217947106,53712540
sw,-83.8776626586914,-53.657371520996,20.225017963572537,-39.88168253282863,53729207
sw,-82.5799789428711,-53.1739616394043,29.804721913918293,-24.890092838436495,53745874
sw,-81.1239395141601,-52.6116638183593,40.2687401560882,-10.343984696201435,53762541
sw,-80.2714233398437,-52.2186698913574,49.105945835581196,4.700046637986415,53779208
sw,-79.7204666137695,-52.2318153381347,54.98737718123621,20.71754877723626,53795875
sw,-79.1485061645507,-52.6275520324707,57.70635577527371,37.44889392183357,53812542
sw,-78.4767913818359,-53.6047401428222,57.75545411272582,53.93755336612514,53829209
sw,-77.6916732788086,-55.3398094177246,55.809308534777585,68.85456035664555,53845876
sw,-76.8296966552734,-57.171142578125,52.33074481080112,80.9697285395335,53862543
sw,-76.042121887207,-58.7511482238769,47.393404878299044,89.5729819214304,53879210
sw,-75.4174118041992,-60.3019523620605,40.699004024703,94.68208192142494,53895877
sw,-74.9046554565429,-61.9852600097656,31.707784080092267,96.976598754049,53912544
sw,-74.5003280639648,-63.3102798461914,19.79818122329343,97.51369737152581,53929211
sw,-74.3212127685546,-64.5458908081054,4.401536778647768,97.35407101412953,53945878
sw,-74.6016464233398,-66.1455612182617,-14.904928885853812,97.23612897606141,53962545
sw,-75.4310684204101,-67.7129745483398,-38.330907720147394,97.39358418043537,53979212
sw,-76.68896484375,-69.2899932861328,-65.79448433444149,97.54334029895757,53995879
sw,-78.2789993286132,-70.4356918334961,-96.79773514507326,97.01390272508166,54012546
sw,-80.0698547363281,-71.5091552734375,-130.25802113729526,94.96471966061198,54029213
sw,-82.1924209594726,-72.9058685302734,-164.35610624680842,90.6542704622392,54045880
sw,-84.550796508789,-74.6250381469726,-196.51060165313368,83.71434898458241,54062547
sw,-86.1303634643554,-76.4476699829101,-223.5878363610805,74.3612675535597,54079214
sw,-85.296890258789,-77.4675674438476,-242.39281313022454,63.44964898108475,54095881
sw,-81.8415908813476,-77.7001495361328,-250.37432852224853,52.30340378227956,54112548
sw,-75.4594116210937,-77.8714828491211,-246.34925989542901,42.355567758479346,54129215
sw,-71.2866134643554,-78.3176879882812,-230.96679866535192,34.736051200355114,54145882
sw,-68.982681274414,-79.0155944824218,-206.67432187011306,29.980474625686817,54162549
sw,-66.8088912963867,-79.8800354003906,-177.14322092628777,27.966965009216636,54179216
sw,-64.6185302734375,-80.7705841064453,-146.36207348393512,28.072758350101275,54195883
sw,-62.7245445251464,-81.5192031860351,-117.73182142176083,29.453633214861686,54212550
sw,-61.0134048461914,-82.1128005981445,-93.43399918771514,31.32462135058721,54229217
sw,-59.7957801818847,-82.6246185302734,-74.17938552866755,33.151304404346234,54245884
sw,-58.8604316711425,-83.18359375,-59.30753507623372,34.715868467875445,54262551
sw,-58.2106628417968,-83.7741775512695,-47.146223774418985,36.07096575895774,54279218
sw,-57.6534004211425,-84.3825302124023,-35.52999534413109,37.42133628702206,54295885
sw,-57.156997680664,-84.9910888671875,-22.379560350506203,38.978219018105605,54312552
sw,-56.8478126525878,-85.5162887573242,-6.24003421391,40.824613267131724,54329219
sw,-56.8054275512695,-85.9115524291992,13.327898601487837,42.82009678342347,54345886
sw,-57.1078186035156,-86.2308502197265,35.59593441804698,44.56587685731102,54362553
sw,-58.1191940307617,-86.5471954345703,58.80288729032633,45.44169749794349,54379220
sw,-59.9894294738769,-86.8519744873046,80.55231123127396,44.71140746960385,54395887
sw,-61.7398719787597,-86.9746322631836,98.373212898504,41.67250759920289,54412554
sw,-63.604564666748,-86.9025650024414,110.29923069374908,35.80494654529214,54429221
sw,-65.3599090576171,-86.7951507568359,115.3308535611974,26.869931644319387,54445888
sw,-67.3337631225586,-86.7869720458984,113.69420461050235,14.928523629529794,54462555
sw,-69.4742965698242,-86.924072265625,106.85852840302259,0.2842385281727965,54479222
sw,-71.7713317871093,-87.1324920654296,97.2995517256928,-16.615784173804716,54495889
sw,-73.3393936157226,-87.3456878662109,88.01519507917607,-35.27603624251783,54512556
sw,-74.0715713500976,-87.3924102783203,81.84956081720873,-55.209867634652674,54529223
sw,-74.7435455322265,-87.0615539550781,80.76561181610201,-75.94516133985633,54545890
sw,-75.9213790893554,-86.1277389526367,85.27660094530118,-96.98497716922799,54562557
sw,-77.4714660644531,-84.5536041259765,94.23489277720468,-117.74399358430254,54579224
sw,-79.3277053833007,-82.4011077880859,105.07052330045619,-137.4891364285321,54595891
sw,-81.2157287597656,-79.695327758789,114.42702252101724,-155.3119449039144,54612558
sw,-83.0698699951171,-76.7295913696289,119.03015760184712,-170.15096693569757,54629225
sw,-85.0553359985351,-73.6382064819336,116.57447978291665,-180.87080210205096,54645892
sw,-86.9367599487304,-70.5886154174804,106.40688022435127,-186.3976655682995,54662559
sw,-87.0824813842773,-67.7522048950195,89.8086374454937,-185.90689616593244,54679226
sw,-86.203369140625,-64.4136734008789,69.74317010017778,-179.04167133435595,54695893
sw,-86.048095703125,-61.2006340026855,50.077340784522434,-166.10614310005,54712560
sw,-86.3209228515625,-58.5536613464355,34.48544775218597,-148.13962881334814,54729227
sw,-86.5503158569336,-56.6093940734863,25.41075257267003,-126.7843659252518,54745894
sw,-86.4004364013671,-55.4249191284179,23.468781997384976,-103.93344149606692,54762561
sw,-85.7947616577148,-54.7492446899414,27.49432661474273,-81.25881870168796,54779228
sw,-84.7163162231445,-54.2564468383789,35.15327087042534,-59.802507415977544,54795895
sw,-83.5545425415039,-53.6541099548339,43.81561267853028,-39.809392774014135,54812562
sw,-82.6520156860351,-52.9204521179199,51.32690260395307,-20.881059130989627,54829229
sw,-81.9398345947265,-52.2176094055175,56.4275382398157,-2.3829530808990373,54845896
sw,-81.1453475952148,-52.0689010620117,58.76800870714035,16.08163443557272,54862563
sw,-80.2811279296875,-52.5707054138183,58.63974012558162,34.34509146363324,54879230
sw,-79.5117416381836,-53.1935348510742,56.61131946708396,51.63645829577173,54895897
sw,-78.6532516479492,-54.3635063171386,53.226210960572864,66.83804545616508,54912564
sw,-77.8051834106445,-56.5754280090332,48.83140276234441,78.92024697289628,54929231
sw,-77.102066040039,-58.6477890014648,43.52549529919724,87.36253274912967,54945898
sw,-76.5601272583007,-60.1854286193847,37.17439669239983,92.37069195465028,54962565
sw,-76.1417160034179,-61.3516845703125,29.446702839368985,94.78897447367528,54979232
sw,-75.7628784179687,-62.6477851867675,19.84900937574087,95.74982599409655,54995899
sw,-75.5052185058593,-63.6823844909668,7.767099165204753,96.22621706185406,55012566
sw,-75.5770034790039,-65.1393356323242,-7.471873463470446,96.683575344678,55029233
sw,-76.0719604492187,-66.8047714233398,-26.503704494730382,96.96435482096665,55045900
sw,-77.0258178710937,-68.4691619873046,-49.78913552052034,96.42660389624358,55062567
sw,-78.2699203491211,-69.8725204467773,-77.42885647789284,94.25706070017401,55079234
sw,-79.9262008666992,-71.1244812011718,-108.94208510017599,89.82767531746015,55095901
sw,-81.8799362182617,-72.2363586425781,-143.05200966672118,82.97012661499625,55112568
sw,-84.1018600463867,-73.5477676391601,-177.56055305414085,74.0881440533399,55129235
sw,-86.0832366943359,-74.8859710693359,-209.41573894760478,64.08488430080355,55145902
sw,-86.0434951782226,-75.7124328613281,-235.0544730095793,54.133741897891746,55162569
sw,-83.5590438842773,-76.0914459228515,-251.0324680800949,45.362847001856885,55179236
sw,-78.6198348999023,-76.4371948242187,-254.83782724654986,38.554913975707116,55195903
sw,-72.1066284179687,-77.0226135253906,-245.65508896060763,33.96867856211976,55212570
sw,-68.6596221923828,-77.8584747314453,-224.77428851863257,31.346270832092287,55229237
sw,-66.4759750366211,-78.7919082641601,-195.41812585599484,30.091734277030554,55245904
sw,-64.5846633911132,-79.6627197265625,-162.0001804765952,29.532743679181092,55262571
sw,-62.6767807006835,-80.3364944458007,-129.08540957085557,29.152954750623838,55279238
sw,-60.8799629211425,-80.7432632446289,-100.41928903372434,28.714344720232617,55295905
sw,-59.5864944458007,-81.0595626831054,-78.2886205079942,28.251386092200303,55312572
sw,-58.5907516479492,-81.4046554565429,-63.29537610541702,27.975813129005587,55329239
sw,-57.6141471862793,-81.8726959228515,-54.48977512858391,28.15632351088076,55345906
sw,-56.6371917724609,-82.4323959350586,-49.75277247964843,29.0255822977419,55362573
sw,-55.8806037902832,-82.9747619628906,-46.312536811110405,30.731485113695566,55379240
sw,-55.3175315856933,-83.4727401733398,-41.29605682056633,33.316033159543785,55395907
sw,-54.8683242797851,-83.909309387207,-32.243696243702814,36.69309596421056,55412574
sw,-54.6338996887207,-84.3151779174804,-17.54015996731408,40.60843589656844,55429241
sw,-54.6142616271972,-84.7404098510742,3.2733124196766257,44.58926108816445,55445908
sw,-54.8323745727539,-85.1669845581054,29.345685896725026,47.9099926065585,55462575
sw,-55.6971244812011,-85.5474166870117,58.56876129585284,49.605899922844394,55479242
sw,-57.0333518981933,-85.8403701782226,87.87113204672727,48.556268117258405,55495909
sw,-58.8185768127441,-86.0370101928711,113.74899344728955,43.639319404673216,55512576
sw,-61.1121063232421,-86.1354293823242,132.96826967381216,33.93857781018001,55529243
sw,-63.7847137451171,-86.159423828125,143.30851427955176,18.95984191030773,55545910
sw,-66.6648254394531,-86.1523971557617,144.1713113252909,-1.1956954669646471,55562577
sw,-69.7512893676757,-86.2467346191406,136.86297758028306,-25.757718179330496,55579244
sw,-72.6579971313476,-86.3803100585937,124.40308945677178,-53.35123328033822,55595911
sw,-74.0313568115234,-86.1198577880859,110.82205514941586,-82.20159581681145,55612578
sw,-74.6165008544921,-84.8494262695312,100.08343982717084,-110.43267867376159,55629245
sw,-75.2662353515625,-82.8004760742187,94.94091809613079,-136.3659724398166,55645912
sw,-76.472785949707,-80.3403167724609,96.11621884587703,-158.71655943485902,55662579
sw,-78.1952056884765,-77.6506652832031,102.09517889333651,-176.6222358534888,55679246
sw,-80.3023605346679,-74.9468917846679,109.61722859975755,-189.52296553717002,55695913
sw,-82.3744964599609,-71.979019165039,114.69321642639474,-196.9863835315184,55712580
sw,-84.2271194458007,-68.6249847412109,113.83139411254699,-198.60371449240066,55729247
sw,-86.035530090332,-65.2510299682617,105.11352518428457,-194.03909220917467,55745914
sw,-86.597053527832,-61.9365577697753,88.81575089442538,-183.22502097903327,55762581
sw,-85.8246765136718,-59.0443420410156,67.38225184134089,-166.60740414342064,55779248
sw,-85.7282257080078,-56.6176223754882,44.73221380493864,-145.30281559095698,55795915
sw,-86.2932968139648,-54.5606613159179,25.10259135770985,-121.05715555128947,55812582
sw,-86.7872772216796,-53.1318244934082,11.824214968657332,-95.97296298523189,55829249
sw,-87.0714950561523,-52.3633041381835,6.4737826691947005,-72.06782964508676,55845916
sw,-87.0446166992187,-51.9902992248535,8.679273383992207,-50.803295767041035,55862583
sw,-86.4582366943359,-51.7629089355468,16.560976678711114,-32.75356161980811,55879250
sw,-85.6693954467773,-51.3832778930664,27.532867028425446,-17.54728549317358,55895917
sw,-85.1336517333984,-50.8546981811523,39.10093790617262,-4.117163300115586,55912584
sw,-84.5394134521484,-50.4987144470214,49.389279932981964,8.831239010601388,55929251
sw,-83.7096710205078,-50.7143974304199,57.310121834944034,22.30839090269513,55945918
sw,-82.6955032348632,-51.0352439880371,62.45419787653489,36.674875181566264,55962585
sw,-81.7397003173828,-51.3095779418945,64.84720099163002,51.543466576535145,55979252
sw,-80.9097518920898,-52.5566329956054,64.7049674652971,65.970005050721,55995919
sw,-80.0425262451171,-54.6154899597168,62.269186042609626,78.84966906731991,56012586
sw,-79.0159378051757,-56.2723121643066,57.74949252295715,89.35446297055086,56029253
sw,-77.9525451660156,-57.7188835144043,51.34699759300922,97.22603159674065,56045920
sw,-77.0502700805664,-59.3549194335937,43.297302309462005,102.80324153340122,56062587
sw,-76.4105529785156,-61.0774307250976,33.86476081975507,106.78919332994639,56079254
sw,-76.0487213134765,-62.3466796875,23.25331437862756,109.87514584120824,56095921
sw,-76.0424575805664,-63.7907638549804,11.45839041746782,112.38688019134723,56112588
sw,-76.302131652832,-65.3771209716796,-1.86239149298685,114.09826503205709,56129255
sw,-76.7483520507812,-67.2321624755859,-17.404172474001253,114.287001026094,56145922
sw,-77.2736892700195,-68.9800415039062,-36.05087934700495,112.01457031965857,56162589
sw,-77.915054321289,-70.6584548950195,-58.5393981298568,106.52847119777678,56179256
sw,-78.8443527221679,-72.2706146240234,-85.042859051898,97.63922635091146,56195923
sw,-80.2859268188476,-73.8008270263671,-114.82014314686744,85.93020205440786,56212590
sw,-82.3998641967773,-75.1897430419921,-146.07570274840666,72.71064180243398,56229257
sw,-84.5453338623046,-75.8719329833984,-176.11050413382443,59.707632802497685,56245924
sw,-85.8089447021484,-75.9217453002929,-201.753430933467,48.59017895831202,56262591
sw,-84.7316589355468,-76.0556564331054,-219.98191872960203,40.49557309817443,56279258
sw,-80.9137573242187,-76.5598068237304,-228.5861019417099,35.74234715062356,56295925
sw,-76.008056640625,-77.5408554077148,-226.69918201209578,33.8399008964886,56312592
sw,-73.1006240844726,-78.7275924682617,-215.02400078554243,33.7701062870697,56329259
sw,-70.6147384643554,-79.6708755493164,-195.66698673052366,34.39677110429855,56345926
sw,-67.893081665039,-80.4418563842773,-171.63384932280286,34.82360706725575,56362593
sw,-64.8234634399414,-80.9548263549804,-146.15721640853738,34.579324002347775,56379260
sw,-62.7937622070312,-81.290786743164,-122.03823956680978,33.610993323789565,56395927
sw,-61.6551475524902,-81.6659164428711,-101.12323754760234,32.15273244730787,56412594
sw,-60.6788215637207,-82.1713562011718,-83.98927204996221,30.57015376382979,56429261
sw,-59.6397171020507,-82.8084106445312,-69.9013379627937,29.257728671605022,56445928
sw,-58.6281051635742,-83.4015655517578,-57.078325468004785,28.60672226274177,56462595
sw,-57.791877746582,-83.8995361328125,-43.233278440024506,29.002552559152548,56479262
sw,-57.1393890380859,-84.3238067626953,-26.265750685197617,30.78781389470993,56495929
sw,-56.7520027160644,-84.7072067260742,-4.929005697872997,34.15196660905075,56512596
sw,-56.7673873901367,-85.067398071289,20.706410074191606,38.96144854143352,56529263
sw,-57.2637176513671,-85.4205551147461,49.12424366092721,44.59157443739146,56545930
sw,-58.8029899597168,-85.745735168457,77.61869874388931,49.83984361584713,56562597
sw,-60.8365364074707,-86.0048294067382,102.88384806586029,52.984477279543924,56579264
