Label,Left_Hip_q,Right_Hip_q,Left_Hip_qd,Right_Hip_qd,SampleTimeFine
sw,-74.9056549072265,-80.7328262329101,75.7380218505859,13.2693061828613,1254201281
sw,-75.9394149780273,-80.7371368408203,57.16239100302376,-0.8239035693406307,1254217948
sw,-76.8232727050781,-81.0306091308593,47.00397228999447,-24.76544080906794,1254234615
sw,-77.538215637207,-81.6331787109375,37.980080842277495,-47.77070315195304,1254251282
sw,-78.1114425659179,-82.5189056396484,31.041008606548974,-68.91885202881802,1254267949
sw,-78.4754562377929,-83.566535949707,26.79349486018746,-87.35164514916389,1254284616
sw,-78.7800064086914,-84.5325241088867,25.38659034419325,-102.38088149988641,1254301283
sw,-79.1951293945312,-84.6825714111328,26.47833765205696,-113.62292490635585,1254317950
sw,-79.5758590698242,-83.6334533691406,29.30443477713363,-121.1042114475541,1254334617
sw,-79.9855880737304,-81.9442672729492,32.84426302945735,-125.27953338806478,1254351284
sw,-80.5121688842773,-80.2048797607421,36.048472775961464,-126.93781029650681,1254367951
sw,-81.0378799438476,-78.6305694580078,38.06998173772377,-127.02007586622875,1254384618
sw,-81.4276275634765,-77.0758361816406,38.43647136426177,-126.40945190207366,1254401285
sw,-81.666389465332,-75.4492950439453,37.11974503633187,-125.75364757467892,1254417952
sw,-81.7332611083984,-73.7772216796875,34.49016089236407,-125.35587409916158,1254434619
sw,-81.6529693603515,-72.0158767700195,31.17961744401617,-125.14372733873586,1254451286
sw,-81.4573516845703,-70.12548828125,27.899711150425876,-124.71110663724446,1254467953
sw,-81.1513366699218,-68.2160491943359,25.266077568550212,-123.42117608086569,1254484620
sw,-80.7614974975586,-66.4374771118164,23.669654151076447,-120.55028442021263,1254501287
sw,-80.3381423950195,-64.7316055297851,23.21924640733119,-115.44434332077891,1254517954
sw,-79.9964981079101,-63.0668067932128,23.76235392388736,-107.65661895060015,1254534621
sw,-79.751106262207,-61.5342559814453,24.9727398744685,-97.04142020464728,1254551288
sw,-79.5057220458984,-60.2506027221679,26.47470701776508,-83.78973841798064,1254567955
sw,-79.1989974975586,-59.223949432373,27.962220645649865,-68.40815332222296,1254584622
sw,-78.8224182128906,-58.433422088623,29.274203476677158,-51.656954202683465,1254601289
sw,-78.410888671875,-57.8759422302246,30.406254722878376,-34.469729137257936,1254617956
sw,-78.0166625976562,-57.5500144958496,31.464140101262153,-17.869866816951948,1254634623
sw,-77.6464004516601,-57.4587364196777,32.58324750902316,-2.8847401057379156,1254651290
sw,-77.261604309082,-57.6667747497558,33.844825999918896,9.551397158212227,1254667957
sw,-76.8197021484375,-58.0988464355468,35.21635809581392,18.709752648646326,1254684624
sw,-76.3076248168945,-58.5691528320312,36.534720506050476,24.180688398916825,1254701291
sw,-75.7480545043945,-58.9899253845214,37.539502324736546,25.957446491954272,1254717958
sw,-75.1663131713867,-59.3087310791015,37.950131921440665,24.456388652311226,1254734625
sw,-74.5803527832031,-59.6101417541503,37.56489169494257,20.457782166614347,1254751292
sw,-74.0219268798828,-59.9447593688964,36.346482874768256,14.97860143804722,1254767959
sw,-73.5160293579101,-60.328929901123,34.455216256427335,9.109532288081581,1254784626
sw,-73.0595474243164,-60.6507415771484,32.20400439782518,3.8523345482148366,1254801293
sw,-72.6636123657226,-60.8721351623535,29.93844273690009,-0.015097370639483465,1254817960
sw,-72.3311538696289,-60.9745254516601,27.879286427899903,-2.0280886396765916,1254834627
sw,-72.0640258789062,-61.0693359375,25.986560124316686,-2.064575643207873,1254851294
sw,-71.8362503051757,-61.2727317810058,23.901638981052205,-0.30356178127673705,1254867961
sw,-71.6338348388671,-61.6473884582519,20.996390953691385,2.884616461594446,1254884628
sw,-71.4912338256836,-62.3073921203613,16.52042070407475,7.087894488540558,1254901295
sw,-71.4180603027343,-63.0692710876464,9.805281762707068,11.988647040010216,1254917962
sw,-71.4291076660156,-63.7309379577636,0.4677389634390771,17.427998665718672,1254934629
sw,-71.6315994262695,-64.1952819824218,-11.446462995353942,23.366963739426748,1254951296
sw,-72.1294860839843,-64.5638275146484,-25.42359866291905,29.76546740949343,1254967963
sw,-72.9742813110351,-65.1173400878906,-40.56674114711816,36.45018531272478,1254984630
sw,-74.227554321289,-66.1356201171875,-55.7859652524302,43.05585531025449,1255001297
sw,-75.9074325561523,-67.5316009521484,-70.03598330978993,49.086936056265976,1255017964
sw,-77.8524856567382,-68.9569244384765,-82.51900609664747,54.07619393444943,1255034631
sw,-79.9527893066406,-70.2640609741211,-92.78060519538165,57.75819461824556,1255051298
sw,-82.074722290039,-71.412239074707,-100.6747196195659,60.16626901132815,1255067965
sw,-84.2054595947265,-72.460464477539,-106.23897393183807,61.60411264711041,1255084632
sw,-86.1585540771484,-73.5352401733398,-109.56447522590888,62.507554643188755,1255101299
sw,-87.4441146850586,-74.6408462524414,-110.73735340816062,63.26102027775068,1255117966
sw,-87.0926284790039,-75.7538604736328,-109.8775420785275,64.04635230481576,1255134633
sw,-85.5879821777343,-76.9123764038086,-107.23713437553144,64.78082387467067,1255151300
sw,-83.8447647094726,-78.1378479003906,-103.28311425208818,65.16204487735554,1255167967
sw,-82.1602783203125,-79.372444152832,-98.6953284325993,64.79800556966026,1255184634
sw,-80.6804428100586,-80.5749130249023,-94.2532324920251,63.37385839668357,1255201301
sw,-79.348892211914,-81.7549743652343,-90.64080214253345,60.79901933134864,1255217968
sw,-78.009033203125,-82.8461761474609,-88.24090730261467,57.28741524478676,1255234635
sw,-76.4417572021484,-83.7804489135742,-86.99844340436648,53.34461848567917,1255251302
sw,-74.828498840332,-84.6015243530273,-86.40241398748415,49.662208029475686,1255267969
sw,-73.3285598754882,-85.3487014770507,-85.58900796719067,46.94632935325679,1255284636
sw,-71.977798461914,-86.0363235473632,-83.52936157409196,45.727524179087105,1255301303
sw,-70.7251968383789,-86.7053298950195,-79.25406170077295,46.20631819399701,1255317970
sw,-69.5162582397461,-87.4144973754882,-72.07380521489019,48.18106633333091,1255334637
sw,-68.4058227539062,-88.1737289428711,-61.762129612943205,51.08271066327575,1255351304
sw,-67.4479827880859,-88.8261413574218,-48.662884536759705,54.110740065428764,1255367971
sw,-66.7857513427734,-88.81982421875,-33.68239322157419,56.43467058126153,1255384638
sw,-66.589126586914,-88.1121826171875,-18.141557676998318,57.405975714272294,1255401305
sw,-66.7928466796875,-87.1948089599609,-3.5032580978867243,56.722832477063044,1255417972
sw,-67.2738571166992,-86.245376586914,8.958233584566916,54.50324700860004,1255434639
sw,-67.8400115966796,-85.3380584716796,18.444772966615012,51.24500424212553,1255451306
sw,-68.2409591674804,-84.5313339233398,24.785024079246636,47.677419128320295,1255467973
sw,-68.6337280273437,-83.8595581054687,28.404845594598108,44.536244892627444,1255484640
sw,-69.2462615966796,-83.2891998291015,30.141136253652476,42.31569662267499,1255501307
sw,-69.994140625,-82.7717590332031,30.97103544393918,41.064453183612855,1255517974
sw,-70.5141067504882,-82.191665649414,31.73970568402101,40.28856981123191,1255534641
sw,-70.9269409179687,-81.5343170166015,32.9554557852521,38.999995203657356,1255551308
sw,-71.5005340576171,-80.8820419311523,34.6998914131419,35.90984349949737,1255567975
sw,-72.1293029785156,-80.3215942382812,36.676011410389954,29.723952480213132,1255584642
sw,-73.1218566894531,-79.8982391357421,38.38047263572778,19.469186771482192,1255601309
sw,-74.1818237304687,-79.6973495483398,39.34141998734173,4.770194858874079,1255617976
sw,-75.0452804565429,-79.7928237915039,39.33222176933951,-13.993155965478312,1255634643
sw,-75.7932205200195,-80.2142333984375,38.47672405050484,-35.69262811492714,1255651310
sw,-76.4366683959961,-81.0871887207031,37.20609862493652,-58.632576170783075,1255667977
sw,-76.9277648925781,-82.4960632324218,36.089976584538604,-80.87273356800914,1255684644
sw,-77.3812103271484,-84.0568695068359,35.61525678643666,-100.6186045382578,1255701311
sw,-77.8893966674804,-84.9653015136718,36.00375214287778,-116.57774522972436,1255717978
sw,-78.5079269409179,-84.4129943847656,37.139486599639206,-128.18326919633526,1255734645
sw,-79.1709518432617,-82.7448272705078,38.62768413228033,-135.62473323184253,1255751312
sw,-79.8601684570312,-80.9048690795898,39.95212733071724,-139.68826686263003,1255767979
sw,-80.4857711791992,-79.211555480957,40.66084542257842,-141.46778795604553,1255784646
sw,-80.9425354003906,-77.45458984375,40.50719505746844,-142.04310554431493,1255801313
sw,-81.1854171752929,-75.5600509643554,39.50170299093868,-142.2154983272512,1255817980
sw,-81.1960525512695,-73.6030502319336,37.872525084973994,-142.35390344335448,1255834647
sw,-81.0540237426757,-71.5509567260742,35.967860146001605,-142.36010121754327,1255851314
sw,-80.8667755126953,-69.3623657226562,34.14741904914331,-141.73276427076624,1255867981
sw,-80.6464462280273,-67.198745727539,32.700313166057704,-139.70177371590424,1255884648
sw,-80.3943481445312,-65.0940704345703,31.804122293697656,-135.4043430765486,1255901315
sw,-80.1109542846679,-63.1335716247558,31.519542111520735,-128.0741404905976,1255917982
sw,-79.8071975708007,-61.3283157348632,31.806162351019218,-117.21404677544584,1255934649
sw,-79.4450454711914,-59.7572517395019,32.54676098850446,-102.72616294912791,1255951316
sw,-79.0338973999023,-58.4373245239257,33.573503758971604,-84.98053063295173,1255967983
sw,-78.6001892089843,-57.4005813598632,34.6939743092368,-64.8147129908204,1255984650
sw,-78.1468505859375,-56.6631736755371,35.71606360858771,-43.465861200795544,1256001317
sw,-77.7091674804687,-56.2508926391601,36.46968656148655,-22.442232608090418,1256017984
sw,-77.2984390258789,-56.247314453125,36.82275782344422,-3.3438268127860384,1256034651
sw,-76.8787231445312,-56.5836601257324,36.6904769548093,12.352883379952996,1256051318
sw,-76.4214401245117,-57.113426208496,36.039920961827946,23.520000068618387,1256067985
sw,-75.9090194702148,-57.690689086914,34.89390247707578,29.573919037014573,1256084652
sw,-75.3445739746093,-58.2521896362304,33.337113416615495,30.59701025992782,1256101319
sw,-74.7827377319336,-58.7031669616699,31.523220732218125,27.34939997220705,1256117986
sw,-74.2748641967773,-59.0684547424316,29.674933544666303,21.158129605866094,1256134653
sw,-73.8483200073242,-59.4772758483886,28.063408098951314,13.700461392861936,1256151320
sw,-73.4890899658203,-59.919017791748,26.954133417770333,6.721536432240635,1256167987
sw,-73.1653518676757,-60.2131309509277,26.518076158251972,1.7359994159531775,1256184654
sw,-72.8511886596679,-60.3462944030761,26.72716983426781,-0.2366980557802144,1256201321
sw,-72.532112121582,-60.4064865112304,27.271599422425318,1.1476929560531934,1256217988
sw,-72.2336959838867,-60.5570640563964,27.540104017983833,5.514875711849823,1256234655
sw,-71.9462432861328,-60.9782562255859,26.688613695179303,11.901146146477863,1256251322
sw,-71.663589477539,-61.7798385620117,23.793202076326693,19.045115046799356,1256267989
sw,-71.4432067871093,-62.9521255493164,18.05344947349465,25.76801488931511,1256284656
sw,-71.3050384521484,-64.1945724487304,8.993507142773193,31.318158306783193,1256301323
sw,-71.387336730957,-65.1788101196289,-3.393971934696195,35.55147271294329,1256317990
sw,-71.8021011352539,-65.8508758544921,-18.601765013886286,38.87628708026327,1256334657
sw,-72.5979232788086,-66.2892913818359,-35.674598838983634,41.988065015333085,1256351324
sw,-73.7503509521484,-66.8240585327148,-53.37205216903215,45.51291223386996,1256367991
sw,-75.3481750488281,-67.6708984375,-70.38479501924225,49.717961557343855,1256384658
sw,-77.3323593139648,-68.9536056518554,-85.54717713237835,54.409020765796804,1256401325
sw,-79.5635681152343,-70.414566040039,-97.99357738569107,59.04091244906097,1256417992
sw,-81.804946899414,-71.8414840698242,-107.22873374623407,62.96612167591767,1256434659
sw,-83.9565887451171,-73.1415863037109,-113.116371083166,65.69518639714475,1256451326
sw,-85.8499374389648,-74.3272933959961,-115.82034791985754,67.05754098779933,1256467993
sw,-86.9504699707031,-75.4525833129882,-115.74066345722325,67.21370958152698,1256484660
sw,-86.6302413940429,-76.5308151245117,-113.4677366580344,66.53926599765293,1256501327
sw,-85.2954330444336,-77.5726852416992,-109.74685674081293,65.44687443173461,1256517994
sw,-83.6820526123046,-78.6227722167968,-105.42370023077041,64.22416438767468,1256534661
sw,-82.0256271362304,-79.7290802001953,-101.34494271132056,62.94689823275475,1256551328
sw,-80.4290695190429,-80.8847122192382,-98.21229154909625,61.4911780876808,1256567995
sw,-78.9480895996093,-82.0395736694336,-96.41962209240005,59.630076126253584,1256584662
sw,-77.4643936157226,-83.1748733520507,-95.92486787076454,57.17209772222772,1256601329
sw,-75.8234024047851,-84.2384643554687,-96.20869043460861,54.08842361409208,1256617996
sw,-74.0615310668945,-85.1392517089843,-96.34786324666331,50.5827979710019,1256634663
sw,-72.3564300537109,-85.8854370117187,-95.1929591162983,47.07772049610937,1256651330
sw,-70.8191986083984,-86.5433959960937,-91.6072208086036,44.117492970704056,1256667997
sw,-69.4560317993164,-87.1538009643554,-84.71202485724368,42.215690059436525,1256684664
sw,-68.2283554077148,-87.7095413208007,-74.09240237883208,41.693641324056586,1256701331
sw,-67.1044311523437,-88.1887893676757,-59.92837917014141,42.56138743032668,1256717998
sw,-66.2096862792968,-88.5066909790039,-43.02351338868635,44.48203708049457,1256734665
sw,-65.7020950317382,-88.4774932861328,-24.706601579530318,46.837404222200334,1256751332
sw,-65.7489700317382,-87.9992446899414,-6.601774237873271,48.88258671059764,1256767999
sw,-66.3222503662109,-87.2060012817382,9.69691025229671,49.94735050073895,1256784666
sw,-67.1041564941406,-86.2813720703125,22.962861626834147,49.62222730225713,1256801333
sw,-67.7473449707031,-85.3702697753906,32.580629912649314,47.865690157949466,1256818000
sw,-68.2865524291992,-84.6057357788086,38.616940523303874,44.98944655992324,1256834667
sw,-68.9931640625,-83.9846801757812,41.70689438432084,41.51769955099042,1256851334
sw,-69.9054946899414,-83.4775466918945,42.81008771955016,37.96072691622326,1256868001
sw,-70.7366485595703,-83.0605926513671,42.922552886171495,34.57658694117399,1256884668
sw,-71.3972015380859,-82.7016830444336,42.82382108780034,31.203946473620512,1256901335
sw,-71.9989547729492,-82.3496780395507,42.91718559036723,27.23026349880596,1256918002
sw,-72.6545715332031,-81.9707717895507,43.1999218891036,21.718784688802373,1256934669
sw,-73.6709289550781,-81.5853881835937,43.37176046198236,13.667120109530629,1256951336
sw,-74.8488616943359,-81.3247985839843,43.04630094969015,2.324964880026281,1256968003
sw,-75.7942123413086,-81.3998336791992,41.98510489405833,-12.525250083245016,1256984670
sw,-76.5951461791992,-81.8258666992187,40.2578189229177,-30.413070668647997,1257001337
sw,-77.3044052124023,-82.6429138183593,38.26098096259837,-50.20104252619083,1257018004
sw,-77.8948822021484,-83.6722869873046,36.589143357282374,-70.28146575800857,1257034671
sw,-78.335952758789,-84.8055191040039,35.81262909838651,-88.90115441430999,1257051338
sw,-78.7533721923828,-85.7867584228515,36.251643585200306,-104.53418927854439,1257068005
sw,-79.1944198608398,-85.523681640625,37.83693408161881,-116.20700840499622,1257084672
sw,-79.7401885986328,-83.7805404663086,40.1135877355631,-123.6846396543357,1257101339
sw,-80.4519805908203,-81.5454406738281,42.38768828728198,-127.46060059483919,1257118006
sw,-81.1865081787109,-79.4078598022461,43.957732468874696,-128.55591166596827,1257134673
sw,-81.7904357910156,-77.5143051147461,44.34029375701692,-128.20008976054817,1257151340
sw,-82.2017211914062,-75.7284545898437,43.4076501551445,-127.50187401902674,1257168007
sw,-82.3647079467773,-73.9420318603515,41.39759117243748,-127.20243843266977,1257184674
sw,-82.3036727905273,-72.1685791015625,38.808469404155815,-127.55595640942622,1257201341
sw,-82.06689453125,-70.34423828125,36.230390327417,-128.3347816393211,1257218008
sw,-81.6658859252929,-68.40185546875,34.17418903050806,-128.9300965834752,1257234675
sw,-81.214729309082,-66.4349822998046,32.9476675054432,-128.5121184049848,1257251342
sw,-80.8158340454101,-64.485610961914,32.60560887690713,-126.2150571498642,1257268009
sw,-80.4671936035156,-62.647850036621,32.976172589012826,-121.31430574621095,1257284676
sw,-80.1197662353515,-60.896915435791,33.745591422529635,-113.3676238251746,1257301343
sw,-79.7530899047851,-59.3074226379394,34.56840243174982,-102.30012324423323,1257318010
sw,-79.3119430541992,-57.9522247314453,35.16620496793737,-88.42381938465299,1257334677
sw,-78.7838592529296,-56.8487091064453,35.38693244039721,-72.39451883514423,1257351344
sw,-78.2063751220703,-55.993350982666,35.21502732722358,-55.12007936433059,1257368011
sw,-77.6265792846679,-55.4286956787109,34.740954549332905,-37.64183967870502,1257384678
sw,-77.0582733154296,-55.1642150878906,34.1075546791529,-21.01232136932719,1257401345
sw,-76.5005722045898,-55.1470832824707,33.45023129550962,-6.186877782231725,1257418012
sw,-75.954833984375,-55.2797546386718,32.84418196122825,6.062226202083604,1257434679
sw,-75.4137115478515,-55.5372657775878,32.27010428041882,15.209522529287641,1257451346
sw,-74.8689880371093,-55.9507217407226,31.609276564419627,21.02191757097358,1257468013
sw,-74.328254699707,-56.3888969421386,30.67529383447003,23.58637820115247,1257484680
sw,-73.7870712280273,-56.7366523742675,29.28026900987873,23.311138157507308,1257501347
sw,-73.2213668823242,-56.9752235412597,27.319436910624084,20.887287273831873,1257518014
sw,-72.65087890625,-57.2501487731933,24.84520962896544,17.20505594965209,1257534681
sw,-72.1224746704101,-57.5947647094726,22.096983392940583,13.235020917924949,1257551348
sw,-71.6792602539062,-58.0603713989257,19.461829811154942,9.89620502115613,1257568015
sw,-71.3494720458984,-58.5043144226074,17.363644536048472,7.932299262295586,1257584682
sw,-71.1360855102539,-58.8674354553222,16.1072507270497,7.8091852699747895,1257601349
sw,-70.9944458007812,-59.1369857788085,15.727150692944996,9.644242562505564,1257618016
sw,-70.8733596801757,-59.4324951171875,15.896419094591353,13.185324951989374,1257634683
sw,-70.7639236450195,-59.9418449401855,15.935148436127047,17.863572121950682,1257651350
sw,-70.6656417846679,-60.7439346313476,14.925906720690968,22.932007271150198,1257668017
sw,-70.5608520507812,-61.685447692871,11.909030312514606,27.66709990816162,1257684684
sw,-70.4716110229492,-62.6889572143554,6.106006528146606,31.571549496142342,1257701351
sw,-70.5032577514648,-63.7378845214843,-2.888225115055028,34.50165116171048,1257718018
sw,-70.7699279785156,-64.6132125854492,-14.992675525748998,36.66640574866255,1257734685
sw,-71.3625030517578,-65.1902923583984,-29.631976090945333,38.4983888559878,1257751352
sw,-72.3660202026367,-65.6886138916015,-45.82785483066676,40.452828746592324,1257768019
sw,-73.7649841308593,-66.3954391479492,-62.3616267172339,42.823871630494374,1257784686
sw,-75.6002502441406,-67.4894409179687,-77.96643604100697,45.65701259449352,1257801353
sw,-77.7801437377929,-68.7432250976562,-91.50981807613167,48.785890695555274,1257818020
sw,-80.1284866333007,-69.9653930664062,-102.13979266846836,51.95740992639081,1257834687
sw,-82.3981704711914,-71.1185226440429,-109.38262710761127,54.96924965998468,1257851354
sw,-84.392837524414,-72.2327499389648,-113.18919294787709,57.74870860812433,1257868021
sw,-85.911506652832,-73.2987365722656,-113.92759056144487,60.341430189716256,1257884688
sw,-86.6311721801757,-74.3443984985351,-112.3179855611543,62.82580808227256,1257901355
sw,-86.2121429443359,-75.4183654785156,-109.30882233342838,65.20148999954299,1257918022
sw,-85.0086059570312,-76.5437774658203,-105.9049298014428,67.30943143026478,1257934689
sw,-83.5446319580078,-77.7907562255859,-102.97468115650881,68.82664448260805,1257951356
sw,-81.9496765136718,-79.1426086425781,-101.07794936879098,69.34688293650902,1257968023
sw,-80.2587814331054,-80.5132064819336,-100.35983981721337,68.52079295574661,1257984690
sw,-78.4640808105468,-81.8183975219726,-100.54067991168698,66.20162491134614,1258001357
sw,-76.5788421630859,-82.9983444213867,-101.00298805532694,62.538196699913584,1258018024
sw,-74.6845932006836,-83.9979553222656,-100.94397703591252,57.97703119295696,1258034691
sw,-72.9432067871093,-84.8276748657226,-99.54422077865082,53.17045401235986,1258051358
sw,-71.4095611572265,-85.5977172851562,-96.10911577956018,48.82166769486225,1258068025
sw,-70.0174026489257,-86.3418426513671,-90.16477512052909,45.5179712760577,1258084692
sw,-68.7446594238281,-87.0744400024414,-81.51623954127237,43.602741143889695,1258101359
sw,-67.5534591674804,-87.8039398193359,-70.28511186668449,43.118327179195425,1258118026
sw,-66.5174713134765,-88.5094451904296,-56.93141082728101,43.82598244941767,1258134693
sw,-65.7024917602539,-89.098648071289,-42.24319693222828,45.28682964661386,1258151360
sw,-65.168960571289,-89.1998519897461,-27.266620852917388,46.97626887594799,1258168027
sw,-64.9975128173828,-88.6316986083984,-13.16019006703172,48.40310520935852,1258184694
sw,-65.1784362792968,-87.8492355346679,-0.9872812056425787,49.2096769846055,1258201361
sw,-65.4997177124023,-87.0046768188476,8.504961942688377,49.23577859750252,1258218028
sw,-65.9173736572265,-86.149543762207,15.053381490124162,48.53523387140225,1258234695
sw,-66.3448715209961,-85.3189315795898,18.93540460193097,47.34041356511665,1258251362
sw,-66.6542053222656,-84.5437545776367,20.891950349635703,45.97843274491527,1258268029
sw,-67.0639877319336,-83.8346786499023,21.939011545846274,44.75344481863216,1258284696
sw,-67.6513137817382,-83.1494064331054,23.12298198732497,43.8200408071493,1258301363
sw,-68.2570724487304,-82.4615173339843,25.281942205326736,43.07897843276384,1258318030
sw,-68.7847595214843,-81.7722854614257,28.86138338707882,42.124666358184236,1258334697
sw,-69.2991256713867,-81.1290740966796,33.8151751263618,40.26391550646373,1258351364
sw,-70.01904296875,-80.5639953613281,39.61139734362412,36.610978264529,1258368031
sw,-70.7393035888671,-80.0919799804687,45.35223836081224,30.248730262051975,1258384698
sw,-71.7247619628906,-79.7025299072265,49.99670903237952,20.43137408425619,1258401365
sw,-73.0610198974609,-79.4798202514648,52.64325995313962,6.790320135411627,1258418032
sw,-74.3370056152343,-79.5398864746093,52.79777106976517,-10.505431560689122,1258434699
sw,-75.3632278442382,-79.9082107543945,50.53962120959408,-30.683806597354263,1258451366
sw,-76.1969757080078,-80.6846466064453,46.52068914735911,-52.4339816829768,1258468033
sw,-76.8871536254882,-81.8574829101562,41.787193914949086,-74.10569140755653,1258484700
sw,-77.3327941894531,-83.3599700927734,37.478479915305094,-94.01008955666823,1258501367
sw,-77.7174301147461,-84.8824691772461,34.5012902881871,-110.75215898971376,1258518034
sw,-78.1867065429687,-85.494026184082,33.28603073743643,-123.50359558745085,1258534701
sw,-78.6234817504882,-84.432014465332,33.70148813053343,-132.13276702038152,1258551368
sw,-79.1398391723632,-82.4998550415039,35.147679018375065,-137.15022972066643,1258568035
sw,-79.7712097167968,-80.5110473632812,36.784402832138625,-139.49222870544557,1258584702
sw,-80.3561019897461,-78.6674728393554,37.80942610280984,-140.2209728257157,1258601369
sw,-80.7720947265625,-76.7824935913086,37.690837380412205,-140.2402745948757,1258618036
sw,-80.9627380371093,-74.7990036010742,36.28481076310418,-140.1021983393127,1258634703
sw,-80.9724807739257,-72.7592163085937,33.81935771299327,-139.9347141284065,1258651370
sw,-80.8806457519531,-70.6793823242187,30.773246725061647,-139.47994850758047,1258668037
sw,-80.7069473266601,-68.5059051513671,27.706875039624425,-138.21205158169386,1258684704
sw,-80.4159393310546,-66.2983779907226,25.102985863836803,-135.49856593606532,1258701371
sw,-80.0598754882812,-64.2216567993164,23.258476782755064,-130.7682628682311,1258718038
sw,-79.697021484375,-62.3244743347168,22.246502715750395,-123.6485560098347,1258734705
sw,-79.3782501220703,-60.5978965759277,21.947619523330548,-114.04271826713142,1258751372
sw,-79.0933837890625,-59.0659790039062,22.131543597596,-102.1350764285176,1258768039
sw,-78.8229675292968,-57.7407455444335,22.558918102945988,-88.33585060425044,1258784706
sw,-78.5554428100586,-56.6228332519531,23.06891513358056,-73.19576002391291,1258801373
sw,-78.2637405395507,-55.7280120849609,23.62572557756953,-57.32553447551365,1258818040
sw,-77.9494247436523,-55.0859718322753,24.31233824551508,-41.34525808582895,1258834707
sw,-77.6090545654296,-54.7245979309082,25.27741506636993,-25.86860448524973,1258851374
sw,-77.2354965209961,-54.5821571350097,26.655234817654502,-11.507440129121253,1258868041
sw,-76.8526840209961,-54.5764045715332,28.4868403336375,1.1284836208038396,1258884708
sw,-76.4629211425781,-54.8027725219726,30.67089800140574,11.460571501563281,1258901375
sw,-76.0591430664062,-55.1898345947265,32.96389170490004,19.010179828145326,1258918042
sw,-75.6173019409179,-55.6621780395507,35.032337316770146,23.497792469437297,1258934709
sw,-75.1237258911132,-56.1446113586425,36.540536819875584,24.943023047622418,1258951376
sw,-74.6008148193359,-56.5877647399902,37.24419021578233,23.726657218476355,1258968043
sw,-74.0851745605468,-56.9975624084472,37.05859950491277,20.58416690432854,1258984710
sw,-73.6127166748046,-57.4665336608886,36.079884804321516,16.52135814583845,1259001377
sw,-73.1817245483398,-58.0092620849609,34.55270217247159,12.664315239840237,1259018044
sw,-72.755630493164,-58.4620208740234,32.79141779434556,10.06818351948376,1259034711
sw,-72.3470840454101,-58.7572784423828,31.070882444925818,9.51569817920902,1259051378
sw,-71.979866027832,-58.9698524475097,29.510198117750416,11.346247940422543,1259068045
sw,-71.6573028564453,-59.2581901550293,27.97978842876969,15.368447951692364,1259084712
sw,-71.4007339477539,-59.8113594055175,26.064560762924234,20.905998157309256,1259101379
sw,-71.1952819824218,-60.6290283203125,23.107224658355122,26.991442944135297,1259118046
sw,-71.0339431762695,-61.7727355957031,18.334321202062448,32.66199540217341,1259134713
sw,-70.8880310058593,-63.0557212829589,11.040050204773541,37.256670184373704,1259151380
sw,-70.8439102172851,-64.1106185913086,0.7807962614251082,40.598860902414835,1259168047
sw,-71.0686569213867,-64.8970184326171,-12.474335286548778,42.98847729250461,1259184714
sw,-71.7006607055664,-65.4821701049804,-28.281220798014665,45.00888442717962,1259201381
sw,-72.7591018676757,-66.0977249145507,-45.76546275982055,47.23766957030775,1259218048
sw,-74.296272277832,-66.9781799316406,-63.760577309202056,49.99259790655889,1259234715
sw,-76.2546615600586,-68.2240600585937,-80.99785891281589,53.22097340280342,1259251382
sw,-78.5081176757812,-69.6521453857421,-96.29408927462705,56.564290080484376,1259268049
sw,-80.9207458496093,-71.0133285522461,-108.69445670106454,59.5436569994228,1259284716
sw,-83.2786560058593,-72.2625885009765,-117.55745078709346,61.7627318793844,1259301383
sw,-85.4190597534179,-73.4151535034179,-122.59741502088866,63.03532270658451,1259318050
sw,-86.7916717529296,-74.5325393676757,-123.90843424845788,63.398332035625444,1259334717
sw,-86.5553131103515,-75.5886001586914,-121.97543525459623,63.03088731102359,1259351384
sw,-85.1063919067382,-76.6618118286132,-117.65089580334391,62.13761829582223,1259368051
sw,-83.3591766357421,-77.7777252197265,-112.06265465688648,60.85789983009028,1259384718
sw,-81.6698303222656,-78.9182510375976,-106.43383337898756,59.239255854241996,1259401385
sw,-80.1375350952148,-80.0500335693359,-101.8345242887438,57.27676322787928,1259418052
sw,-78.6693649291992,-81.145278930664,-98.92652516577124,54.98895660858051,1259434719
sw,-77.1258468627929,-82.1665420532226,-97.78317105718989,52.48757383810813,1259451386
sw,-75.3640365600586,-83.0844268798828,-97.85124609881629,50.00587307290308,1259468053
sw,-73.5413208007812,-83.9302749633789,-98.07486474937976,47.87067775203413,1259484720
sw,-71.8199081420898,-84.7058334350586,-97.14541918051617,46.4258175436455,1259501387
sw,-70.2662887573242,-85.4577026367187,-93.80619013186262,45.931071342578086,1259518054
sw,-68.8765335083007,-86.1924438476562,-87.13844139721802,46.46806168773957,1259534721
sw,-67.5932159423828,-86.9467468261718,-76.7765572657824,47.88332108282052,1259551388
sw,-66.4236679077148,-87.7481460571289,-63.02071270127791,49.79011090856076,1259568055
sw,-65.4698104858398,-88.5513916015625,-46.8255702000119,51.635594526127825,1259584722
sw,-64.932746887207,-89.1719665527343,-29.651383096775493,52.82141659944573,1259601389
sw,-64.9081726074218,-88.9718780517578,-13.186520863447711,52.84889475352617,1259618056
sw,-65.3093566894531,-88.1807098388671,1.007678293529716,51.45047056133992,1259634723
sw,-65.8218154907226,-87.3597335815429,11.836192222320214,48.67005045958349,1259651390
sw,-66.2375259399414,-86.6036758422851,18.88836879454869,44.86661663068152,1259668057
sw,-66.4264755249023,-85.9394836425781,22.467426357319212,40.63522025236301,1259684724
sw,-66.6794052124023,-85.3558197021484,23.437841388199413,36.66155691686774,1259701391
sw,-67.1255950927734,-84.8539581298828,22.964091419762635,33.544151516171446,1259718058
sw,-67.7407455444336,-84.4111709594726,22.235479366728338,31.62703318365825,1259734725
sw,-68.3835144042968,-83.9578552246093,22.243528322069253,30.883949998799185,1259751392
sw,-68.8882141113281,-83.4458770751953,23.632865964078302,30.883176542602683,1259768059
sw,-69.2889938354492,-82.8958282470703,26.620062712574043,30.84243590138558,1259784726
sw,-69.784065246582,-82.3679962158203,30.977142860391567,29.761921277810355,1259801393
sw,-70.4327850341796,-81.9195938110351,36.08859660669489,26.606981251785214,1259818060
sw,-71.1961593627929,-81.5663909912109,41.089185724882675,20.505132763908204,1259834727
sw,-72.2182846069336,-81.3505096435546,45.06841344272431,10.92334612977744,1259851394
sw,-73.3523559570312,-81.3258361816406,47.29860813580611,-2.2037526357046775,1259868061
sw,-74.2975845336914,-81.5727996826171,47.425512469149176,-18.418822524425565,1259884728
sw,-75.0793838500976,-82.0958480834961,45.565432100294636,-36.776642215532085,1259901395
sw,-75.8698959350586,-82.9181137084961,42.28047954453093,-55.973200929107236,1259918062
sw,-76.6426467895507,-84.0610580444336,38.4390876869125,-74.55491541829234,1259934729
sw,-77.1929397583007,-85.2046203613281,34.99736108272897,-91.17187143455308,1259951396
sw,-77.6679382324218,-85.4426345825195,32.754058649706295,-104.82016539305684,1259968063
sw,-78.1094741821289,-84.3109741210937,32.14127369638387,-115.01224062272654,1259984730
sw,-78.4088439941406,-82.3748168945312,33.11159807074174,-121.82793307357234,1260001397
sw,-78.7851257324218,-80.3767623901367,35.16276624438584,-125.83170075600245,1260018064
sw,-79.4101333618164,-78.6165084838867,37.50086648726187,-127.8821315683645,1260034731
sw,-80.1706085205078,-76.9927444458007,39.29405683612292,-128.8915025712169,1260051398
sw,-80.8620834350586,-75.36328125,39.93082895514395,-129.60196679205404,1260068065
sw,-81.3502349853515,-73.6204605102539,39.191350445022856,-130.42955272729228,1260084732
sw,-81.5087738037109,-71.7717971801757,37.27484886692283,-131.40022804592633,1260101399
sw,-81.4070129394531,-69.8140716552734,34.6853143408198,-132.1786867705344,1260118066
sw,-81.1378707885742,-67.8218612670898,32.03230819092816,-132.17520654564527,1260134733
sw,-80.7950363159179,-65.8358306884765,29.82837848539157,-130.70486780092835,1260151400
sw,-80.4605941772461,-63.8936462402343,28.353110102428328,-127.1632726691484,1260168067
sw,-80.1658325195312,-62.0013236999511,27.61810539875098,-121.17642997484703,1260184734
sw,-79.8944854736328,-60.3138008117675,27.426604426713965,-112.68618148666336,1260201401
sw,-79.6507720947265,-58.8573989868164,27.491309777792193,-101.95067249689386,1260218068
sw,-79.4241180419921,-57.6181182861328,27.560788662718533,-89.4684477111352,1260234735
sw,-79.1667709350586,-56.5822029113769,27.508588095453167,-75.86234626480565,1260251402
sw,-78.8774795532226,-55.7077255249023,27.35698546675365,-61.77047695901068,1260268069
sw,-78.5492477416992,-55.0128593444824,27.23360955217786,-47.779514091593846,1260284736
sw,-78.1808547973632,-54.5093116760253,27.285070267637217,-34.407657183182,1260301403
sw,-77.7786483764648,-54.1488494873046,27.587303119420064,-22.117041317523775,1260318070
sw,-77.3198471069336,-53.9512596130371,28.091627863507394,-11.322622660511065,1260334737
sw,-76.8260269165039,-54.0188827514648,28.629335590718117,-2.3718941178662205,1260351404
sw,-76.3364944458007,-54.2062263488769,28.972663956493864,4.507724921725205,1260368071
sw,-75.8801498413086,-54.3866539001464,28.92640096628947,9.271968372723702,1260384738
sw,-75.4677124023437,-54.5918006896972,28.41200808989648,12.098699700967757,1260401405
sw,-75.1016082763671,-54.8119430541992,27.51035114281356,13.375736618194994,1260418072
sw,-74.7533645629882,-55.0423393249511,26.44733298562858,13.633388096175747,1260434739
sw,-74.3800201416015,-55.2845993041992,25.52979807097808,13.442449456351032,1260451406
sw,-73.9822616577148,-55.5714492797851,25.05654552258758,13.312545725072457,1260468073
sw,-73.5685272216796,-56.0099754333496,25.234537011372876,13.62251934939919,1260484740
sw,-73.1275024414062,-56.5622100830078,26.12297203846068,14.595409867358025,1260501407
sw,-72.6725540161132,-57.0933990478515,27.612985457470035,16.306153811879696,1260518074
sw,-72.2326049804687,-57.6012535095214,29.43608928522873,18.697028610612538,1260534741
sw,-71.8167724609375,-58.0754661560058,31.18659083484329,21.584850197810052,1260551408
sw,-71.4430313110351,-58.5879287719726,32.34514673842377,24.668678483581253,1260568075
sw,-71.1333847045898,-59.1566314697265,32.30169550453166,27.56656183234198,1260584742
sw,-70.8954925537109,-59.9178009033203,30.390577848341128,29.905573706787,1260601409
sw,-70.6744384765625,-60.9623336791992,25.95815522625091,31.45802706321026,1260618076
sw,-70.4977111816406,-62.1528625488281,18.474481332070606,32.2742569504045,1260634743
sw,-70.3835144042968,-63.256965637207,7.676376351836692,32.73664713378382,1260651410
sw,-70.4169998168945,-63.9847145080566,-6.298156703786236,33.475716474376526,1260668077
sw,-70.767219543457,-64.4035949707031,-22.838778746195942,35.150320752795864,1260684744
sw,-71.5792007446289,-64.7968063354492,-40.900363306581035,38.17199005334399,1260701411
sw,-72.8573837280273,-65.4894256591796,-59.161127385300084,42.50075175208692,1260718078
sw,-74.6029434204101,-66.6617736816406,-76.26620242928398,47.62043477052714,1260734745
sw,-76.7295913696289,-68.1458053588867,-91.08166125370619,52.718109480649765,1260751412
sw,-79.0327835083007,-69.5727996826171,-102.87389418239917,56.99013353097001,1260768079
sw,-81.3904724121093,-70.8975830078125,-111.35987061050344,59.93619616771578,1260784746
sw,-83.6819915771484,-72.0901718139648,-116.63325637693413,61.51564557658079,1260801413
sw,-85.7227249145507,-73.1271591186523,-119.02672382857183,62.11219012510508,1260818080
sw,-87.0572280883789,-74.1019973754882,-118.98878278154176,62.338744979011246,1260834747
sw,-86.8240509033203,-75.0900802612304,-117.02506486144816,62.77307614757135,1260851414
sw,-85.3239593505859,-76.1810989379882,-113.70080856870985,63.72940046270268,1260868081
sw,-83.4979019165039,-77.3760986328125,-109.65803509080418,65.14516419428014,1260884748
sw,-81.7266845703125,-78.6492919921875,-105.59164601132969,66.61269045528962,1260901415
sw,-80.0359649658203,-79.9697952270507,-102.15505896570578,67.53331908656014,1260918082
sw,-78.5085678100586,-81.3339309692382,-99.81059586748647,67.33414006284346,1260934749
sw,-76.9672393798828,-82.6502304077148,-98.67778611312696,65.6727825565729,1260951416
sw,-75.2622680664062,-83.7978057861328,-98.4442072532041,62.564555101541266,1260968083
sw,-73.4669189453125,-84.7741546630859,-98.38281617274603,58.39439556855831,1260984750
sw,-71.731460571289,-85.6057357788086,-97.47912686051166,53.8150361675351,1261001417
sw,-70.1518096923828,-86.3500366210937,-94.63474562736077,49.569420205022446,1261018084
sw,-68.7447967529296,-87.0512466430664,-88.89882928858609,46.296551607713596,1261034751
sw,-67.4591217041015,-87.7162170410156,-79.68453351876798,44.37938670719866,1261051418
sw,-66.2746276855468,-88.3720169067382,-66.93699919433315,43.87433145278098,1261068085
sw,-65.2531204223632,-88.9528350830078,-51.22035807132501,44.53347831290305,1261084752
sw,-64.556282043457,-89.0725402832031,-33.688398015648566,45.90284456090481,1261101419
sw,-64.3510513305664,-88.5608749389648,-15.914224129776182,47.460592233116685,1261118086
sw,-64.6474304199218,-87.8366241455078,0.4094831609441262,48.753224301037534,1261134753
sw,-65.2743225097656,-87.0508499145507,13.835043338897904,49.49481857102157,1261151420
sw,-65.8646850585937,-86.2230148315429,23.484210430629282,49.60909743496104,1261168087
sw,-66.3297653198242,-85.3711166381836,29.22956501197435,49.20928451570494,1261184754
sw,-66.8663787841796,-84.5088806152343,31.67921873741486,48.52202987250775,1261201421
sw,-67.5738296508789,-83.6987686157226,31.97960448632229,47.770082015216545,1261218088
sw,-68.3157882690429,-82.9688186645507,31.5012035029999,47.0371995054374,1261234755
sw,-68.860725402832,-82.3233108520507,31.4893411640838,46.148832332539754,1261251422
sw,-69.2221069335937,-81.7189025878906,32.76004654326878,44.6087689741604,1261268089
sw,-69.7385787963867,-81.0962982177734,35.51394893930293,41.62740289361225,1261284756
sw,-70.3756408691406,-80.465705871582,39.324080469196446,36.256554040125536,1261301423
sw,-71.3280410766601,-79.9188613891601,43.312694088033666,27.612336253729502,1261318090
sw,-72.6775970458984,-79.5340881347656,46.47047043727093,15.133404785842274,1261334757
sw,-73.8701248168945,-79.4130020141601,48.01410511350413,-1.1985454564884264,1261351424
sw,-74.8618087768554,-79.6014556884765,47.657412290623945,-20.746905905639814,1261368091
sw,-75.6487808227539,-80.2255935668945,45.702790298805745,-42.2625521754204,1261384758
sw,-76.4143676757812,-81.2798995971679,42.93006897574423,-64.08480506438764,1261401425
sw,-77.0071258544921,-82.5806350708007,40.33309378881612,-84.4589337299171,1261418092
sw,-77.5154876708984,-83.8561782836914,38.800545733661615,-101.89030633775812,1261434759
sw,-78.1661529541015,-84.3189392089843,38.846377125731344,-115.43846850493324,1261451426
sw,-78.7960205078125,-83.4176330566406,40.470923353960494,-124.86692735964937,1261468093
sw,-79.4278411865234,-81.7616500854492,43.1862514680978,-130.60712170544173,1261484760
sw,-80.1536254882812,-80.0852966308593,46.184633758493746,-133.55699687316326,1261501427
sw,-80.8722839355468,-78.5876846313476,48.586211725307805,-134.79051039304028,1261518094
sw,-81.4763870239257,-77.0841751098632,49.68425907974483,-135.27563778283147,1261534761
sw,-81.9305114746093,-75.4370346069336,49.116683775736725,-135.6756133747247,1261551428
sw,-82.1567840576171,-73.6247634887695,46.923648557418694,-136.26120361436276,1261568095
sw,-82.1121597290039,-71.6740570068359,43.490476149039694,-136.92205083174215,1261584762
sw,-81.8614425659179,-69.5773391723632,39.408772180800376,-137.2478367660718,1261601429
sw,-81.4737548828125,-67.4937515258789,35.30769256143195,-136.64855686860568,1261618096
sw,-81.0238189697265,-65.5469665527343,31.70807477251943,-134.48587446227074,1261634763
sw,-80.5609130859375,-63.7377281188964,28.936723251314888,-130.19155884816837,1261651430
sw,-80.1597290039062,-61.9725608825683,27.11295028834133,-123.35691419999237,1261668097
sw,-79.8299331665039,-60.3464965820312,26.193571791203194,-113.78786875218009,1261684764
sw,-79.5058898925781,-58.8877830505371,26.045063716189365,-101.52981985727565,1261701431
sw,-79.1498413085937,-57.6339492797851,26.508701645746854,-86.87184163791186,1261718098
sw,-78.7495040893554,-56.5843124389648,27.436064465295225,-70.3403967331279,1261734765
sw,-78.2809295654296,-55.7565383911132,28.690938336415453,-52.68687726799878,1261751432
sw,-77.7660903930664,-55.1767272949218,30.129528294039606,-34.86202298588861,1261768099
sw,-77.2463226318359,-54.8618545532226,31.577947136157103,-17.95989839513308,1261784766
sw,-76.7260513305664,-54.8704376220703,32.82397720192738,-3.1138990591791864,1261801433
sw,-76.2079086303711,-55.1636390686035,33.63215546724318,8.657868485847006,1261818100
sw,-75.6945571899414,-55.5614776611328,33.78125304265087,16.635245818622842,1261834767
sw,-75.1771163940429,-55.9893989562988,33.114980635214,20.561545891472434,1261851434
sw,-74.6640090942382,-56.3680953979492,31.592513463192944,20.740194708177967,1261868101
sw,-74.1640625,-56.6351776123046,29.324740469742675,18.0251294421336,1261884768
sw,-73.666763305664,-56.9244003295898,26.582856949372566,13.69664302838974,1261901435
sw,-73.1795043945312,-57.2740173339843,23.767157057589646,9.244746019941465,1261918102
sw,-72.7498016357421,-57.6241874694824,21.328011219432703,6.101858638998304,1261934769
sw,-72.4102172851562,-57.8939399719238,19.642038996069402,5.373556185914847,1261951436
sw,-72.1671752929687,-58.0815505981445,18.865332795378492,7.617732118074233,1261968103
sw,-71.9949874877929,-58.2730865478515,18.806110169895014,12.72453042761594,1261984770
sw,-71.8376998901367,-58.6563339233398,18.869329411728774,19.94485112391696,1262001437
sw,-71.6594467163086,-59.3300170898437,18.11482523424846,28.08980300599382,1262018104
sw,-71.4624481201171,-60.5495872497558,15.437346521105278,35.871418042601384,1262034771
sw,-71.3106842041015,-62.2288703918457,9.832794451465727,42.29024892255343,1262051438
sw,-71.259895324707,-63.7921867370605,0.6780878925928213,46.930533343367195,1262068105
sw,-71.4444808959961,-64.8290023803711,-12.06166233579983,50.03529297458632,1262084772
sw,-71.9838256835937,-65.4340209960937,-27.76844848994763,52.31708459599833,1262101439
sw,-72.9432373046875,-65.9154739379882,-45.27595878504129,54.58387417514364,1262118106
sw,-74.3498916625976,-66.6546325683593,-63.114808482224795,57.3540740749174,1262134773
sw,-76.2452087402343,-67.8738403320312,-79.82140728861575,60.6392972937071,1262151440
sw,-78.4582290649414,-69.4659423828125,-94.21145270227476,63.982525637907294,1262168107
sw,-80.7978363037109,-71.045295715332,-105.53565255268929,66.70793874343275,1262184774
sw,-83.091926574707,-72.5285339355468,-113.48856484299486,68.2424286964346,1262201441
sw,-85.2589263916015,-73.8495712280273,-118.10869980079455,68.35460850767925,1262218108
sw,-86.9480895996093,-74.9697647094726,-119.65195645726644,67.21839785072137,1262234775
sw,-87.2075424194336,-75.95751953125,-118.5136230301681,65.3005259224945,1262251442
sw,-85.8407516479492,-76.9201431274414,-115.22223939957085,63.146342361640706,1262268109
sw,-83.9664840698242,-77.9442520141601,-110.46739656180077,61.16791004984653,1262284776
sw,-82.1082229614257,-79.0308074951171,-105.0922693801554,59.519446471133584,1262301443
sw,-80.4163436889648,-80.139289855957,-99.9978725421139,58.0954613516342,1262318110
sw,-79.0063552856445,-81.2756195068359,-95.95881657940227,56.63399275094338,1262334777
sw,-77.703857421875,-82.4408264160156,-93.40959367823456,54.8732922595368,1262351444
sw,-76.2219085693359,-83.5708999633789,-92.29223815090143,52.701402087085626,1262368111
sw,-74.4965362548828,-84.6111145019531,-92.03976050651869,50.24770763948335,1262384778
sw,-72.713508605957,-85.4965438842773,-91.711582644772,47.8853681535388,1262401445
sw,-71.0547180175781,-86.2544555664062,-90.23145299861416,46.13941918744667,1262418112
sw,-69.6084976196289,-86.9660415649414,-86.64430913897138,45.524245478148096,1262434779
sw,-68.3449325561523,-87.6508178710937,-80.32058675282697,46.359355126978755,1262451446
sw,-67.2275390625,-88.3557510375976,-71.07525146102277,48.624746302409434,1262468113
sw,-66.2574996948242,-89.0578918457031,-59.202272454322525,51.909982721159594,1262484780
sw,-65.4396438598632,-89.2269668579101,-45.435826108214215,55.484148307223954,1262501447
sw,-64.8698348999023,-88.3768310546875,-30.843519147069426,58.47451316153084,1262518114
sw,-64.6637344360351,-87.2382049560546,-16.65343471149267,60.103341535291975,1262534781
sw,-64.833511352539,-86.0992660522461,-4.029803631730809,59.90920133048803,1262551448
sw,-65.2183456420898,-85.0205535888671,6.1613886207519,57.88070433903155,1262568115
sw,-65.6206436157226,-84.081428527832,13.534429345120428,54.4569661228909,1262584782
sw,-65.9627456665039,-83.3079299926757,18.25560161206976,50.391086469056106,1262601449
sw,-66.3641586303711,-82.6465759277343,20.979943111086328,46.51594402475454,1262618116
sw,-66.9031143188476,-82.0364227294921,22.67192607289669,43.48101585388463,1262634783
sw,-67.5221481323242,-81.4057540893554,24.358788455980854,41.535501998615516,1262651450
sw,-68.0503768920898,-80.7311706542968,26.873346449401424,40.4161665352914,1262668117
sw,-68.4490509033203,-80.0602416992187,30.640105452547722,39.36627726796024,1262684784
sw,-68.9086151123046,-79.4439010620117,35.55525197682637,37.2776960023921,1262701451
sw,-69.6321258544921,-78.8838806152343,41.00276275713077,32.922024085239386,1262718118
sw,-70.6175918579101,-78.4101333618164,46.021635701409,25.22211937378895,1262734785
sw,-71.8472213745117,-78.1028137207031,49.59143707397336,13.509882262450814,1262751452
sw,-73.1332092285156,-78.023681640625,50.95422492326227,-2.2826129810436004,1262768119
sw,-74.2103881835937,-78.2989501953125,49.86762299837498,-21.543054290457277,1262784786
sw,-75.1354598999023,-78.9442062377929,46.701431504868225,-43.036311160148784,1262801453
sw,-75.947998046875,-80.0048751831054,42.34225029365125,-65.09872919325285,1262818120
sw,-76.4790725708007,-81.3816757202148,37.935403160830894,-85.93721919155921,1262834787
sw,-76.8377380371093,-82.9850769042968,34.54772497822199,-103.97202195633999,1262851454
sw,-77.2737960815429,-84.3550033569336,32.86192953894778,-118.14251433072339,1262868121
sw,-77.7509002685546,-84.4313430786132,33.003357669370374,-128.09330063040653,1262884788
sw,-78.3066864013671,-83.1180419921875,34.552529941557786,-134.18211300860045,1262901455
sw,-78.9879074096679,-81.3953857421875,36.72822418726315,-137.30429302871383,1262918122
sw,-79.6506576538086,-79.8085250854492,38.664916687910434,-138.59405923679984,1262934789
sw,-80.2187728881836,-78.2510528564453,39.68142888112339,-139.10568184884914,1262951456
sw,-80.5794830322265,-76.5035400390625,39.4533531604669,-139.57151305825528,1262968123
sw,-80.682258605957,-74.6124496459961,38.04918870717548,-140.28617677317757,1262984790
sw,-80.6249771118164,-72.5919189453125,35.845174508183945,-141.11236350400569,1263001457
sw,-80.5170135498046,-70.4344100952148,33.37209165302694,-141.57322157090582,1263018124
sw,-80.3519744873046,-68.275634765625,31.155880787225296,-140.99168225650905,1263034791
sw,-80.1096649169921,-66.1920013427734,29.59709536746041,-138.64350961551557,1263051458
sw,-79.8368148803711,-64.2216796875,28.908106416391504,-133.89791797478466,1263068125
sw,-79.5739288330078,-62.3070564270019,29.10613129021024,-126.32664176597744,1263084792
sw,-79.2971496582031,-60.555564880371,30.04880712243386,-115.77089152089397,1263101459
sw,-78.9842300415039,-58.9938621520996,31.494228111213268,-102.36494826015385,1263118126
sw,-78.6490859985351,-57.6835899353027,33.16635801251188,-86.52373861600277,1263134793
sw,-78.2811508178711,-56.6512908935546,34.809176118880764,-68.90745865676637,1263151460
sw,-77.8901138305664,-55.8537216186523,36.2189253342454,-50.37578482983103,1263168127
sw,-77.4913482666015,-55.3649787902832,37.2523001998141,-31.93587159620565,1263184794
sw,-77.0781326293945,-55.1633033752441,37.81673020936493,-14.676543554809557,1263201461
sw,-76.6238479614257,-55.225975036621,37.85402578403016,0.3250792888159494,1263218128
sw,-76.1172714233398,-55.6032218933105,37.32905795034537,12.131715408864656,1263234795
sw,-75.5745697021484,-56.1032409667968,36.23158701272468,20.097444732603318,1263251462
sw,-75.0152587890625,-56.6043891906738,34.593408680623206,24.009699165233933,1263268129
sw,-74.4697799682617,-57.1065711975097,32.515740161671694,24.176869164891873,1263284796
sw,-73.9622421264648,-57.5618209838867,30.19427329970251,21.423153851627713,1263301463
sw,-73.484619140625,-57.9905548095703,27.923702896632236,16.975868910578242,1263318130
sw,-73.0380172729492,-58.5097694396972,26.06330374253842,12.260133849197393,1263334797
sw,-72.6481018066406,-58.951976776123,24.95390697913798,8.639282909134838,1263351464
sw,-72.333511352539,-59.2193031311035,24.795173064554547,7.152201120568338,1263368131
sw,-72.0567550659179,-59.3918685913085,25.515074630728154,8.305229348028895,1263384798
sw,-71.7760925292968,-59.5881767272949,26.679786011934908,11.977568517888846,1263401465
sw,-71.4882659912109,-60.1283683776855,27.49042722955487,17.48528008609684,1263418132
sw,-71.1887588500976,-60.9417610168457,26.890154528032966,23.808531769344828,1263434799
sw,-70.8835983276367,-62.10689163208,23.7691449242619,29.925485823366454,1263451466
sw,-70.5915069580078,-63.4353141784668,17.2206718373832,35.14192417742217,1263468133
sw,-70.4080047607421,-64.5883560180664,6.781378960892534,39.291476144548646,1263484800
sw,-70.5046463012695,-65.4187927246093,-7.410904653528594,42.72348648868105,1263501467
sw,-71.0091781616211,-65.9683227539062,-24.58840649645734,46.08198650198461,1263518134
sw,-71.9422454833984,-66.4980926513671,-43.46599357883263,49.9720472697843,1263534801
sw,-73.3336791992187,-67.302993774414,-62.468279203975996,54.66192174864701,1263551468
sw,-75.2074508666992,-68.5573043823242,-80.01214535401682,59.95035432921855,1263568135
sw,-77.374038696289,-70.1353073120117,-94.77112375733824,65.24548571880786,1263584802
sw,-79.6877517700195,-71.6694641113281,-105.85866786307723,69.79973400501626,1263601469
sw,-81.9673080444336,-73.1216278076171,-112.90121716777341,72.98013200985682,1263618136
sw,-84.1275787353515,-74.4972457885742,-116.01378888649867,74.45628296661538,1263634803
sw,-85.8803024291992,-75.7752532958984,-115.7171854712035,74.24488413688262,1263651470
sw,-86.7493591308593,-76.960952758789,-112.83300668776823,72.62071531791649,1263668137
sw,-86.3491287231445,-78.0419998168945,-108.36962366038286,69.95499077791507,1263684804
sw,-85.1209869384765,-79.117691040039,-103.39266375174086,66.55971522414713,1263701471
sw,-83.7040634155273,-80.2477722167968,-98.87398472535571,62.60281283897916,1263718138
sw,-82.3035430908203,-81.3783416748046,-95.53199273635653,58.12222180614502,1263734805
sw,-80.8510208129882,-82.4570999145507,-93.69864465209207,53.12272313954601,1263751472
sw,-79.3118743896484,-83.4671249389648,-93.25710132540544,47.7050523026316,1263768139
sw,-77.5938873291015,-84.3807830810546,-93.6785242148168,42.16568617219176,1263784806
sw,-75.7629776000976,-85.1161727905273,-94.15149638958997,37.019006799987125,1263801473
sw,-74.0104598999023,-85.6481475830078,-93.76209041234003,32.923564022188486,1263818140
sw,-72.4674682617187,-86.1167297363281,-91.66869756211354,30.529827593118103,1263834807
sw,-71.1335296630859,-86.5856246948242,-87.2319324546047,30.29642039710408,1263851474
sw,-69.9256744384765,-87.0697555541992,-80.0932044086879,32.33490902393054,1263868141
sw,-68.7602081298828,-87.6507339477539,-70.2201545749185,36.33526798443683,1263884808
sw,-67.6802978515625,-88.3521881103515,-57.935239953097984,41.59928174847844,1263901475
sw,-66.8047943115234,-89.1104431152343,-43.92006019213526,47.177087243067966,1263918142
sw,-66.2194900512695,-89.3803939819336,-29.16562855037335,52.07288043393106,1263934809
sw,-66.0241012573242,-88.5522003173828,-14.840300670344549,55.46706747991647,1263951476
sw,-66.2225875854492,-87.5342330932617,-2.0778485293954683,56.89768752839808,1263968143
sw,-66.6838073730468,-86.5178909301757,8.267105453486925,56.353855695457646,1263984810
sw,-67.2393646240234,-85.5722503662109,15.81705840906039,54.255418365148444,1264001477
sw,-67.6360549926757,-84.7316284179687,20.747027823473314,51.321020715888146,1264018144
sw,-67.9538803100586,-83.9826278686523,23.703626983695145,48.35495098945143,1264034811
sw,-68.4413070678711,-83.297004699707,25.594372192565043,46.004610872717,1264051478
sw,-69.0922012329101,-82.6423034667968,27.3188346536386,44.549548405219774,1264068145
sw,-69.6902847290039,-81.982177734375,29.52257490981427,43.776877124567676,1264084812
sw,-70.1186599731445,-81.2949829101562,32.43590405817576,42.97787467738467,1264101479
sw,-70.6818008422851,-80.5876693725586,35.83375958035478,41.07167508645451,1264118146
sw,-71.3905181884765,-79.9120559692382,39.12924639058046,36.83164096657832,1264134813
sw,-72.248550415039,-79.3725509643554,41.5842572174179,29.165984694323832,1264151480
sw,-73.4582748413086,-79.0468673706054,42.58248149285269,17.392179921871772,1264168147
sw,-74.5849914550781,-78.9603576660156,41.87679419239184,1.4459500721891991,1264184814
sw,-75.4230575561523,-79.1224670410156,39.71747059612265,-18.023038525933902,1264201481
sw,-75.9968490600586,-79.6023635864257,36.80389429363486,-39.6992033117437,1264218148
sw,-76.3843612670898,-80.5016479492187,34.07096265197154,-61.79993626894751,1264234815
sw,-76.7835998535156,-81.9003753662109,32.38995923992464,-82.40053411222682,1264251482
sw,-77.2575378417968,-83.5810089111328,32.2970816823145,-99.8211362666418,1264268149
sw,-77.7833404541015,-84.8790664672851,33.84646576461861,-112.97803066448624,1264284816
sw,-78.3818054199218,-84.6394805908203,36.630461737021825,-121.59462246225507,1264301483
sw,-79.0775375366211,-82.9217224121093,39.94483357189307,-126.20138540735026,1264318150
sw,-79.8048400878906,-80.8816299438476,43.026624595962524,-127.92302366724863,1264334817
sw,-80.4047241210937,-79.1482315063476,45.27466641151606,-128.12636410913356,1264351484
sw,-80.8234329223632,-77.6001358032226,46.381414052399066,-128.04740703400688,1264368151
sw,-81.0312194824218,-76.0135803222656,46.34941767981823,-128.50811904707714,1264384818
sw,-81.1290054321289,-74.4266891479492,45.41374213925897,-129.78220514989718,1264401485
sw,-81.1358795166015,-72.7577896118164,43.92019128323562,-131.6094309168467,1264418152
sw,-80.9932250976562,-70.8709640502929,42.209156051556924,-133.3215375816181,1264434819
sw,-80.6593399047851,-68.8404769897461,40.53521686281925,-134.03270108629138,1264451486
sw,-80.1740112304687,-66.8396301269531,39.03079698965016,-132.84768739295947,1264468153
sw,-79.6661834716796,-65.0319213867187,37.70955086512303,-129.0427339479062,1264484820
sw,-79.2593154907226,-63.4354248046875,36.50073717652652,-122.18436948241337,1264501487
sw,-78.9204025268554,-62.0203514099121,35.30261642456555,-112.17504622456737,1264518154
sw,-78.5690612792968,-60.7373962402343,34.03812640694309,-99.24246138100915,1264534821
sw,-78.1635818481445,-59.5139541625976,32.69372649522158,-83.90498682354666,1264551488
sw,-77.6969833374023,-58.4479904174804,31.3274326249678,-66.93878790868192,1264568155
sw,-77.1886596679687,-57.6308631896972,30.044423348699215,-49.34785503739412,1264584822
sw,-76.6638107299804,-57.0962791442871,28.95209347448568,-32.31324786400125,1264601489
sw,-76.113784790039,-56.8582458496093,28.114098341332813,-17.090495672410988,1264618156
sw,-75.5652770996093,-57.0312461853027,27.521930009845367,-4.841769015992809,1264634823
sw,-75.052261352539,-57.4197120666503,27.094873828223424,3.575392600245243,1264651490
sw,-74.5695571899414,-57.7645683288574,26.708700161870343,7.806665370958657,1264668157
sw,-74.0847702026367,-57.9469299316406,26.243587048228765,8.117569609971893,1264684824
sw,-73.618782043457,-57.9832115173339,25.635240969435454,5.378109081856345,1264701491
sw,-73.1861114501953,-57.9429740905761,24.911629404654576,0.9099403806026548,1264718158
sw,-72.7706069946289,-57.9238014221191,24.200773383936472,-3.7624871958224357,1264734825
sw,-72.3369064331054,-58.0753288269043,23.700797664319524,-7.190319504122148,1264751492
sw,-71.8998413085937,-58.2953033447265,23.61099420965002,-8.24764887857332,1264768159
sw,-71.497085571289,-58.4853057861328,24.033037696748195,-6.312007133056287,1264784826
sw,-71.1623382568359,-58.5722198486328,24.864752471121868,-1.3622895419551275,1264801493
sw,-70.8825454711914,-58.6583061218261,25.72060585557155,6.019510860267137,1264818160
sw,-70.6414184570312,-58.9926986694335,25.915788787814755,14.762081202358072,1264834827
sw,-70.4065856933593,-59.6210632324218,24.53907628022231,23.543064081253572,1264851494
sw,-70.155044555664,-60.5980072021484,20.615100291362605,31.12198945729548,1264868161
sw,-69.9298248291015,-62.0734100341796,13.326812600233874,36.68439213831423,1264884828
sw,-69.8363723754882,-63.5784950256347,2.243796856150048,40.077535020299806,1264901495
sw,-70.0094833374023,-64.6048278808593,-12.509061499694722,41.83112301069576,1264918162
sw,-70.6071548461914,-65.0887985229492,-30.199029725213038,42.92972394527388,1264934829
sw,-71.6794128417968,-65.4186096191406,-49.57579364365264,44.41332853217604,1264951496
sw,-73.2431106567382,-65.9483489990234,-69.08792271308472,46.97145276472123,1264968163
sw,-75.3118667602539,-66.9878921508789,-87.16697853397532,50.7064109906985,1264984830
sw,-77.7256240844726,-68.4844436645507,-102.49783149688568,55.15862105547732,1265001497
sw,-80.2252960205078,-69.9742126464843,-114.20247973142999,59.55697956895029,1265018164
sw,-82.6382446289062,-71.3936920166015,-121.90387103600582,63.156330597662475,1265034831
sw,-84.8579177856445,-72.7095184326171,-125.68683167940613,65.50443787429651,1265051498
sw,-86.5309600830078,-73.855354309082,-126.00609031033918,66.53984626081076,1265068165
sw,-86.899787902832,-74.8918762207031,-123.58813151028363,66.5140994853945,1265084832
sw,-85.7038116455078,-75.9069290161132,-119.34233060000167,65.80683476207622,1265101499
sw,-83.9467010498046,-76.9626922607421,-114.2650818121474,64.73236909743943,1265118166
sw,-82.1938781738281,-78.0654983520507,-109.31297968465294,63.42001940067124,1265134833
sw,-80.5613479614257,-79.2258834838867,-105.24271244845264,61.80486290435043,1265151500
sw,-79.0044937133789,-80.3970870971679,-102.45077756663234,59.71548154231543,1265168167
sw,-77.3911056518554,-81.5567855834961,-100.86983800674312,57.01029430163908,1265184834
sw,-75.5620422363281,-82.6412887573242,-99.9709687498029,53.70291789119812,1265201501
sw,-73.6810989379882,-83.5572814941406,-98.88278441764004,50.02777573354807,1265218168
sw,-71.9574279785156,-84.3043670654296,-96.59201458732767,46.422351185941935,1265234835
sw,-70.4888381958007,-84.9568252563476,-92.16486420279602,43.432494693379134,1265251502
sw,-69.2185592651367,-85.6067123413086,-84.93727161601431,41.572141144672884,1265268169
sw,-68.0614776611328,-86.2733306884765,-74.65033774499803,41.180805838368016,1265284836
sw,-66.9738540649414,-86.9490509033203,-61.52727362791498,42.31933226015506,1265301503
sw,-66.0539779663086,-87.6395950317382,-46.28622375952872,44.73129310467496,1265318170
sw,-65.4546966552734,-88.3734588623046,-30.07054630871801,47.88090300136903,1265334837
sw,-65.2673797607421,-89.1062774658203,-14.278688263980237,51.06174957149326,1265351504
sw,-65.5530014038086,-89.2374114990234,-0.3036543279013372,53.55441640210729,1265368171
sw,-66.0821228027343,-88.4392776489257,10.762867389403802,54.79659631377288,1265384838
sw,-66.5806655883789,-87.5089569091796,18.373600420017205,54.52143792272699,1265401505
sw,-66.9181060791015,-86.5608901977539,22.63435670497557,52.82387123980057,1265418172
sw,-67.2598495483398,-85.6693115234375,24.24527990645868,50.13118917401928,1265434839
sw,-67.7662887573242,-84.8859634399414,24.303991353392654,47.078591153448016,1265451506
sw,-68.4052581787109,-84.2292938232421,24.038408632566338,44.31632038797856,1265468173
sw,-69.0274200439453,-83.6638259887695,24.536909857282016,42.29635609223805,1265484840
sw,-69.4600982666015,-83.0698928833007,26.52261315320469,41.096802428782006,1265501507
sw,-69.8717193603515,-82.4104385375976,30.20339883955892,40.335426052081296,1265518174
sw,-70.4433898925781,-81.7349472045898,35.2266464544852,39.200314175825525,1265534841
sw,-71.1631240844726,-81.1114425659179,40.762072680239164,36.59396727908261,1265551508
sw,-72.007095336914,-80.5911407470703,45.712303800496166,31.35965692796329,1265568175
sw,-73.18115234375,-80.198371887207,49.01153759265552,22.54300315544688,1265584842
sw,-74.5128479003906,-79.9588623046875,49.93482609882446,9.636495566068001,1265601509
sw,-75.512939453125,-79.9396591186523,48.32348886048582,-7.244363482710036,1265618176
sw,-76.3355407714843,-80.2254180908203,44.64962576896158,-27.29843699723607,1265634843
sw,-76.9663162231445,-80.8979568481445,39.893900075437486,-49.11959476148002,1265651510
sw,-77.4798736572265,-82.0229263305664,35.27495877069337,-70.92188680155584,1265668177
sw,-77.8895034790039,-83.3243026733398,31.9168692723022,-90.87178100216138,1265684844
sw,-78.3185653686523,-84.4260635375976,30.5552708599601,-107.45243871542952,1265701511
sw,-78.8027725219726,-84.4647369384765,31.363990581938612,-119.76429561115312,1265718178
sw,-79.22802734375,-83.1877288818359,33.94259266631843,-127.67507290159465,1265734845
sw,-79.7154541015625,-81.387466430664,37.45635399983401,-131.77437409740847,1265751512
sw,-80.3066329956054,-79.6598968505859,40.87808740094665,-133.1520850408063,1265768179
sw,-80.8888702392578,-78.0734558105468,43.25705473816366,-133.07843624499998,1265784846
sw,-81.2981185913086,-76.4678268432617,43.939660022381716,-132.68646897445763,1265801513
sw,-81.5013046264648,-74.7797927856445,42.68939926752189,-132.73605059928047,1265818180
sw,-81.5091171264648,-72.9875106811523,39.690919530483065,-133.49406054838633,1265834847
sw,-81.344612121582,-71.0354843139648,35.45902890378688,-134.72848054847626,1265851514
sw,-81.0629730224609,-68.931282043457,30.6940758076017,-135.7971777646752,1265868181
sw,-80.7189407348632,-66.8986434936523,26.127065554298277,-135.80660341264974,1265884848
sw,-80.3485412597656,-64.9501266479492,22.387790709489206,-133.8105953526766,1265901515
sw,-79.9885177612304,-63.0151329040527,19.915519894799697,-129.01384828910338,1265918182
sw,-79.6846618652343,-61.1683197021484,18.918937593449645,-120.94236560253624,1265934849
sw,-79.3930511474609,-59.5147171020507,19.381117308047976,-109.54732690341928,1265951516
sw,-79.0457687377929,-58.1038742065429,21.097332375679784,-95.22179536708485,1265968183
sw,-78.6372756958007,-56.9535026550293,23.73059901072879,-78.73173417681457,1265984850
sw,-78.1958389282226,-56.0611953735351,26.87267691102107,-61.086679987813284,1266001517
sw,-77.7640304565429,-55.4272880554199,30.103587001924858,-43.38886147920721,1266018184
sw,-77.3475799560546,-55.0582809448242,33.04564036190891,-26.695674946296794,1266034851
sw,-76.9153594970703,-54.9257431030273,35.406887698635586,-11.91407533495055,1266051518
sw,-76.4388656616211,-54.9783363342285,37.006964174421945,0.2715659695999837,1266068185
sw,-75.9107437133789,-55.2037734985351,37.77989613223894,9.445104587334693,1266084852
sw,-75.3401870727539,-55.5044555664062,37.7548036843146,15.483418109122224,1266101519
sw,-74.7552032470703,-55.8229637145996,37.023638935165955,18.559620883038534,1266118186
sw,-74.1973876953125,-56.156150817871,35.71023500277616,19.119027612643293,1266134853
sw,-73.6736373901367,-56.4508018493652,33.953268110070525,17.82319961808577,1266151520
sw,-73.1614227294921,-56.7170219421386,31.906888564440795,15.464710406960846,1266168187
sw,-72.6351089477539,-57.0361557006835,29.75051123799683,12.864872510330258,1266184854
sw,-72.1350479125976,-57.4103775024414,27.69032135045832,10.772299953308913,1266201521
sw,-71.7068710327148,-57.8079223632812,25.935560448942464,9.777762651957218,1266218188
sw,-71.3385162353515,-58.2663917541503,24.643537697528874,10.25270538274368,1266234855
sw,-70.998420715332,-58.7219161987304,23.8431208801396,12.312631844564875,1266251522
sw,-70.6940307617187,-59.1167831420898,23.359506729102176,15.808028453262995,1266268189
sw,-70.4534530639648,-59.5710067749023,22.76860181329706,20.352512540156397,1266284856
sw,-70.2714157104492,-60.1970329284668,21.40655125427717,25.4007184812768,1266301523
sw,-70.1416702270507,-61.0355834960937,18.449507062958528,30.37670629126916,1266318190
sw,-70.0833663940429,-62.1587028503418,13.061509898088893,34.82686579037489,1266334857
sw,-70.0793533325195,-63.3261413574218,4.586759085946017,38.54409802515986,1266351524
sw,-70.1754455566406,-64.3281707763671,-7.258074437295716,41.60476402003641,1266368191
sw,-70.5273208618164,-65.0440521240234,-22.247388146920194,44.28963368180106,1266384858
sw,-71.3175277709961,-65.6382446289062,-39.61587614990101,46.91593477188163,1266401525
sw,-72.631607055664,-66.3447875976562,-58.1555941008013,49.65970113180615,1266418192
sw,-74.4988479614257,-67.3945922851562,-76.42034442842714,52.46143083841611,1266434859
sw,-76.7591934204101,-68.8326110839843,-92.97766844184056,55.06797323872279,1266451526
sw,-79.1993255615234,-70.3152923583984,-106.63456602579217,57.18817300501971,1266468193
sw,-81.6538162231445,-71.6410522460937,-116.58379862905312,58.67431693022886,1266484860
sw,-84.0159454345703,-72.771255493164,-122.46117490335135,59.62720738443033,1266501527
sw,-86.0797882080078,-73.7129592895507,-124.34140464918765,60.366656636555476,1266518194
sw,-87.1452178955078,-74.5805053710937,-122.70584461314095,61.281091083690036,1266534861
sw,-86.4575729370117,-75.4766693115234,-118.39046032873017,62.628308703210124,1266551528
sw,-84.905532836914,-76.4924240112304,-112.49344083030465,64.37877381048146,1266568195
sw,-83.2807540893554,-77.6492080688476,-106.21839417009159,66.17122564794738,1266584862
sw,-81.7385635375976,-78.9059143066406,-100.6577610586939,67.40234069700233,1266601529
sw,-80.2947311401367,-80.1868209838867,-96.5627854282731,67.41929101233077,1266618196
sw,-78.8032684326171,-81.4790573120117,-94.17206474584326,65.74648835177685,1266634863
sw,-77.1586456298828,-82.6980895996093,-93.16127431410551,62.26735634598749,1266651530
sw,-75.4015655517578,-83.7367172241211,-92.73419290206354,57.29929326758541,1266668197
sw,-73.7290878295898,-84.5607376098632,-91.82235095743721,51.53712193730996,1266684864
sw,-72.2926254272461,-85.2311630249023,-89.32767030149951,45.88438555285209,1266701531
sw,-71.0593872070312,-85.8648376464843,-84.34600463269209,41.22772560420956,1266718198
sw,-69.9303131103515,-86.5018463134765,-76.33917149846225,38.22421345870541,1266734865
sw,-68.8463439941406,-87.1522903442382,-65.25047045381496,37.16045927488228,1266751532
sw,-67.8861083984375,-87.7893753051757,-51.56267392601936,37.91302575160827,1266768199
sw,-67.1336364746093,-88.3605194091796,-36.28197553139605,40.00672944359523,1266784866
sw,-66.7155532836914,-88.749771118164,-20.81974323557616,42.74358653207248,1266801533
sw,-66.713752746582,-88.7966690063476,-6.757846906426299,45.365495904538236,1266818200
sw,-67.0780487060546,-88.402473449707,4.474787206930874,47.21556312939471,1266834867
sw,-67.6276168823242,-87.7242813110351,11.936910713137223,47.869868422666066,1266851534
sw,-68.0568084716796,-86.9554138183593,15.416874317240103,47.21846226313397,1266868201
sw,-68.2359771728515,-86.1670761108398,15.496666166261486,45.48058483032894,1266884868
sw,-68.378662109375,-85.3787384033203,13.413517257716414,43.14658616657581,1266901535
sw,-68.6167678833007,-84.6612014770507,10.764636028635717,40.849737303627066,1266918202
sw,-68.9317855834961,-84.0437927246093,9.142945757303043,39.18554972506898,1266934869
sw,-69.2359008789062,-83.4983291625976,9.792551709685986,38.51281460849044,1266951536
sw,-69.3881149291992,-82.9822311401367,13.349082207335528,38.78453332241148,1266968203
sw,-69.6422042846679,-82.4279632568359,19.70695350338934,39.460620877027175,1266984870
sw,-70.153823852539,-81.8111343383789,28.040097145326474,39.54162609740109,1267001537
sw,-70.7981796264648,-81.1742095947265,36.98358432224106,37.73423289926513,1267018204
sw,-71.7533950805664,-80.5904083251953,44.95135194632864,32.723011390206075,1267034871
sw,-73.0691528320312,-80.0815505981445,50.52494587737834,23.490236354454886,1267051538
sw,-74.4187469482421,-79.746353149414,52.815414682146375,9.606138503439036,1267068205
sw,-75.5345230102539,-79.6862487792968,51.693054240884045,-8.58889292026013,1267084872
sw,-76.3910751342773,-80.0682296752929,47.81005515161223,-29.968749986449886,1267101539
sw,-77.0866470336914,-80.9111785888671,42.404827198746574,-52.792106908028316,1267118206
sw,-77.5781097412109,-82.1207962036132,36.94886969447346,-75.02787216404796,1267134873
sw,-77.8880538940429,-83.4871826171875,32.7470739358918,-94.75763196568684,1267151540
sw,-78.2970275878906,-84.4848098754882,30.612762230325714,-110.55058510962606,1267168207
sw,-78.7823410034179,-84.2912673950195,30.70869409600567,-121.71108034851014,1267184874
sw,-79.2636947631836,-82.931282043457,32.58632381732215,-128.33607524745955,1267201541
sw,-79.806900024414,-81.1246490478515,35.38958554518812,-131.18014243132808,1267218208
sw,-80.3703689575195,-79.3684387207031,38.14158592651245,-131.38715550575634,1267234875
sw,-80.8445816040039,-77.7419357299804,40.01859235813431,-130.18253757885316,1267251542
sw,-81.1493835449218,-76.0805511474609,40.535399119284634,-128.61227051528985,1267268209
sw,-81.2991561889648,-74.3741607666015,39.606963585732,-127.37564849886762,1267284876
sw,-81.3072891235351,-72.5990371704101,37.49507303030605,-126.75674857299114,1267301543
sw,-81.1672210693359,-70.7355270385742,34.67938829891599,-126.63646496868364,1267318210
sw,-80.8801193237304,-68.7991638183593,31.70232286722108,-126.56279305486099,1267334877
sw,-80.4579544067382,-66.9604110717773,29.031062280427946,-125.8592535529556,1267351544
sw,-80.0192642211914,-65.2647399902343,26.96680578225634,-123.75239315954983,1267368211
sw,-79.6431884765625,-63.6403007507324,25.6164925863574,-119.50123493114984,1267384878
sw,-79.3570785522461,-62.0146980285644,24.9258201573176,-112.51649338178551,1267401545
sw,-79.1043853759765,-60.5176963806152,24.75451417540461,-102.46198227938807,1267418212
sw,-78.8184051513671,-59.2354087829589,24.9610683863084,-89.33177869667068,1267434879
sw,-78.5079956054687,-58.1802635192871,25.46242169833111,-73.49603074822424,1267451546
sw,-78.1627426147461,-57.3533668518066,26.246831282100647,-55.70827701476294,1267468213
sw,-77.7704391479492,-56.7825851440429,27.339435487527044,-37.066995072414954,1267484880
sw,-77.3572082519531,-56.47847366333,28.73971301094064,-18.923133533219392,1267501547
sw,-76.9112777709961,-56.4986114501953,30.361039388854625,-2.7277372843812535,1267518214
sw,-76.4162139892578,-56.8851470947265,32.00210379610798,10.174132949373812,1267534881
sw,-75.8922882080078,-57.3722038269043,33.368279893141214,18.774665109203976,1267551548
sw,-75.3650360107421,-57.8706626892089,34.14136197779777,22.608832498047217,1267568215
sw,-74.8555603027343,-58.2751731872558,34.075501360519866,21.876268879053928,1267584882
sw,-74.3661193847656,-58.5260276794433,33.08440908893906,17.438668715864374,1267601549
sw,-73.8938903808593,-58.7068214416503,31.28555014706705,10.68749989118728,1267618216
sw,-73.4471588134765,-58.9448471069335,28.980964963155667,3.3134135303509558,1267634883
sw,-73.0337295532226,-59.206687927246,26.575994679051732,-2.971797803927866,1267651550
sw,-72.6338195800781,-59.3409576416015,24.45791062456695,-6.7124281442515805,1267668217
sw,-72.2272796630859,-59.3919258117675,22.868213949598584,-6.948650560762733,1267684884
sw,-71.8540878295898,-59.4275436401367,21.80214325293079,-3.386026968945818,1267701551
sw,-71.5742263793945,-59.5297927856445,20.96012820365846,3.5430940958430432,1267718218
sw,-71.4095382690429,-59.8341522216796,19.76463328778089,12.76161008953966,1267734885
sw,-71.2945327758789,-60.3850326538085,17.445078421750633,22.78371394227325,1267751552
sw,-71.1579055786132,-61.3828201293945,13.18164069377308,32.07006770488737,1267768219
sw,-71.0493087768554,-62.7791786193847,6.283651536437278,39.41694838483561,1267784886
sw,-71.0725326538086,-64.2228622436523,-3.6369380448715183,44.261552088153586,1267801553
sw,-71.3837814331054,-65.4117813110351,-16.543453294790034,46.79275099258501,1267818220
sw,-72.0886688232421,-66.1679382324218,-31.94098822823842,47.814781228229236,1267834887
sw,-73.2306518554687,-66.6658401489257,-48.943304401074386,48.40637073784957,1267851554
sw,-74.7913818359375,-67.2169342041015,-66.41926083710428,49.50713892893916,1267868221
sw,-76.7879333496093,-68.0819091796875,-83.17189558873167,51.5968020214733,1267884888
sw,-79.0906600952148,-69.3773117065429,-98.09669349210772,54.58714276230336,1267901555
sw,-81.537239074707,-70.771987915039,-110.28375515345786,57.94457275301253,1267918222
sw,-83.9411926269531,-72.116828918457,-119.06397848114742,60.959547910669926,1267934889
sw,-86.0826339721679,-73.4348754882812,-124.03138056809748,63.0311581713533,1267951556
sw,-87.3684921264648,-74.6902694702148,-125.0798661749667,63.85516330629846,1267968223
sw,-86.7851486206054,-75.7645187377929,-122.46632403984721,63.46583581389096,1267984890
sw,-85.0391235351562,-76.6861724853515,-116.86949553415886,62.14849615178621,1268001557
sw,-83.1323623657226,-77.5852737426757,-109.38470642738729,60.28497559446213,1268018224
sw,-81.399787902832,-78.5530471801757,-101.4003913253972,58.20766110256738,1268034891
sw,-79.8901443481445,-79.5862960815429,-94.34555803474547,56.11907788498276,1268051558
sw,-78.6444015502929,-80.6278076171875,-89.35943970888486,54.09440485905532,1268068225
sw,-77.473030090332,-81.6569900512695,-86.98515252999852,52.14457642281248,1268084892
sw,-76.0650177001953,-82.6694946289062,-86.99974106318166,50.29632016021681,1268101559
sw,-74.3839035034179,-83.5918884277343,-88.45187376781193,48.64798793266644,1268118226
sw,-72.616455078125,-84.4077072143554,-89.9012431566635,47.378665590861786,1268134893
sw,-70.9927215576171,-85.1952285766601,-89.77962742753112,46.7105698520952,1268151560
sw,-69.6099472045898,-86.0258560180664,-86.76158268226943,46.841489044401385,1268168227
sw,-68.419677734375,-86.8765106201171,-80.05276761842663,47.87062836102779,1268184894
sw,-67.3351974487304,-87.7315216064453,-69.55092917898533,49.73924457884445,1268201561
sw,-66.3776931762695,-88.5309982299804,-55.872973977076185,52.20220191519619,1268218228
sw,-65.6068954467773,-89.1998519897461,-40.25521846535447,54.84165440488389,1268234895
sw,-65.1804809570312,-89.0543670654296,-24.33473054015877,57.127978083964294,1268251562
sw,-65.2147674560546,-88.1895446777343,-9.8308010408327,58.52250436575188,1268268229
sw,-65.6034545898437,-87.1983795166015,1.8228252696646363,58.602247327368346,1268284896
sw,-66.1640853881836,-86.1646270751953,9.807173490350221,57.174394963090165,1268301563
sw,-66.4710998535156,-85.1440124511718,14.108757335228589,54.344117821580724,1268318230
sw,-66.6581192016601,-84.2207107543945,15.505339349475477,50.50632639562261,1268334897
sw,-66.9301223754882,-83.465347290039,15.348536286334305,46.2501641161581,1268351564
sw,-67.3907775878906,-82.8208312988281,15.210294854021338,42.19085070719537,1268368231
sw,-67.8402709960937,-82.2612762451171,16.490053406771082,38.769362702891,1268384898
sw,-67.9675903320312,-81.7533111572265,20.07389541393961,36.07618995398242,1268401565
sw,-68.2686691284179,-81.2471847534179,26.118394377733196,33.75392966360921,1268418232
sw,-68.8892440795898,-80.7519760131836,34.01116502747061,31.014941646695778,1268434899
sw,-69.6768417358398,-80.3095779418945,42.527800130736374,26.78114550471768,1268451566
sw,-70.8281784057617,-79.975112915039,50.15489144138752,19.922010811005155,1268468233
sw,-72.2466049194336,-79.7464828491211,55.496264353793975,9.541111243048608,1268484900
sw,-73.5122909545898,-79.6686401367187,57.648636577660525,-4.754672632839693,1268501567
sw,-74.6699905395507,-79.841194152832,56.43857306971594,-22.673771130807385,1268518234
sw,-75.6615447998046,-80.3940200805664,52.45408395186882,-43.20616101207953,1268534901
sw,-76.4909515380859,-81.4089126586914,46.866591955913066,-64.76719457231161,1268551568
sw,-77.0140686035156,-82.9054946899414,41.100761470601256,-85.50134416772094,1268568235
sw,-77.4203338623046,-84.6933441162109,36.45285781556878,-103.67439342678905,1268584902
sw,-77.8939971923828,-85.9592056274414,33.77133221378406,-118.04344522145806,1268601569
sw,-78.3330841064453,-85.2538528442382,33.29013331202032,-128.09107189406444,1268618236
sw,-78.8607330322265,-83.1395645141601,34.65074874098729,-134.05283510586946,1268634903
sw,-79.5129776000976,-80.862319946289,37.08356650634091,-136.7434686651737,1268651570
sw,-80.1296081542968,-78.8327102661132,39.670046493297164,-137.2610406559187,1268668237
sw,-80.5999145507812,-76.9492111206054,41.59325678130402,-136.6814125744165,1268684904
sw,-80.8600845336914,-75.0516204833984,42.30712251963723,-135.83243221365947,1268701571
sw,-80.9679336547851,-73.1944427490234,41.59889739671118,-135.18036204648067,1268718238
sw,-80.9352493286132,-71.3473587036132,39.561232929642955,-134.81076650418277,1268734905
sw,-80.8324737548828,-69.3789367675781,36.51178057750962,-134.46867851708865,1268751572
sw,-80.6066055297851,-67.369514465332,32.89695039316846,-133.6331259733029,1268768239
sw,-80.2576522827148,-65.4321975708007,29.20295222147377,-131.6162442368499,1268784906
sw,-79.8897628784179,-63.6076278686523,25.884524093646153,-127.68206759832134,1268801573
sw,-79.5525360107421,-61.8583869934082,23.315185674786203,-121.17571126934565,1268818240
sw,-79.2295837402343,-60.2640914916992,21.759370520735352,-111.6476292808649,1268834907
sw,-78.8988876342773,-58.8760757446289,21.362354443009956,-98.95513698651875,1268851574
sw,-78.5431747436523,-57.7767486572265,22.149718118517214,-83.32634959083711,1268868241
sw,-78.1797866821289,-56.9030685424804,24.02826920773112,-65.37896591980426,1268884908
sw,-77.8208389282226,-56.2668113708496,26.785790001199008,-46.09295568930254,1268901575
sw,-77.4758987426757,-55.9092636108398,30.094113976908098,-26.737063116984025,1268918242
sw,-77.1294174194336,-55.8145027160644,33.524681747075576,-8.74551766696709,1268934909
sw,-76.7169647216796,-56.0520324707031,36.58584204382054,6.457749464116253,1268951576
sw,-76.2177505493164,-56.5979499816894,38.78629287707514,17.676509788711414,1268968243
sw,-75.6531524658203,-57.2421417236328,39.71970412432872,24.16587500719292,1268984910
sw,-75.0474395751953,-57.751365661621,39.154390335476634,25.805152389598025,1269001577
sw,-74.4701309204101,-58.0889205932617,37.103915142441224,23.162126786444286,1269018244
sw,-73.9632339477539,-58.3485565185546,33.85404736700621,17.418732608724618,1269034911
sw,-73.5166320800781,-58.6522979736328,29.929115065273184,10.17195999452072,1269051578
sw,-73.104377746582,-59.0192146301269,25.993842636344198,3.1585136818968955,1269068245
sw,-72.7131118774414,-59.2152671813964,22.70230314514949,-2.0392582776519617,1269084912
sw,-72.3682556152343,-59.2932815551757,20.521751364700794,-4.258127595507194,1269101579
sw,-72.0791702270507,-59.3000526428222,19.572861542819822,-2.949442868650306,1269118246
sw,-71.8540725708007,-59.3148574829101,19.533450768901613,1.7353044556932034,1269134913
sw,-71.6441802978515,-59.5942001342773,19.64392111569677,9.004481211225128,1269151580
sw,-71.4022216796875,-60.1623344421386,18.828476377016067,17.639870620929205,1269168247
sw,-71.1732940673828,-61.0715713500976,15.913789179152959,26.322437080472767,1269184914
sw,-71.0050659179687,-62.274559020996,9.897699184620219,33.97956948311743,1269201581
sw,-70.9420852661132,-63.5258750915527,0.20382353476155834,40.040915537225295,1269218248
sw,-71.1169128417968,-64.5217132568359,-13.142961603113752,44.51224866376971,1269234915
sw,-71.6596374511718,-65.1825332641601,-29.47057767834085,47.842466127413815,1269251582
sw,-72.6468124389648,-65.7513427734375,-47.56441525486496,50.64463634184071,1269268249
sw,-74.1042938232421,-66.502082824707,-65.9026692473111,53.39699296234184,1269284916
sw,-76.0619583129882,-67.6559677124023,-82.95955358625729,56.25520547559545,1269301583
sw,-78.3655853271484,-69.1507873535156,-97.48676731820859,59.04532162085988,1269318250
sw,-80.8232650756836,-70.5866622924804,-108.69058840442128,61.41213571999462,1269334917
sw,-83.20361328125,-71.9097518920898,-116.2665393279034,63.02629913344335,1269351584
sw,-85.291145324707,-73.1553955078125,-120.31601489715645,63.742604200973005,1269368251
sw,-86.7143783569336,-74.3017272949218,-121.2146546848675,63.64608425092225,1269384918
sw,-86.7112731933593,-75.3488998413086,-119.50424998522146,62.98597920160353,1269401585
sw,-85.3416748046875,-76.3400115966796,-115.84072916875257,62.04602057128644,1269418252
sw,-83.4974822998046,-77.3448867797851,-110.97860829782461,61.018359000955904,1269434919
sw,-81.6826171875,-78.4096450805664,-105.74076773520802,59.93852655106316,1269451586
sw,-79.9952392578125,-79.5292739868164,-100.92922414805884,58.70765232666128,1269468253
sw,-78.5081481933593,-80.6783599853515,-97.17187761199052,57.188383345393845,1269484920
sw,-77.1459274291992,-81.8270645141601,-94.74847725936468,55.32879757880048,1269501587
sw,-75.6579971313476,-82.9034805297851,-93.46817808863359,53.25710022028275,1269518254
sw,-74.01220703125,-83.8204803466796,-92.66292783477832,51.302374609964076,1269534921
sw,-72.3098068237304,-84.5955734252929,-91.31811887804714,49.92624919432712,1269551588
sw,-70.7472610473632,-85.3139114379882,-88.30816651275488,49.58459349544834,1269568255
sw,-69.4113311767578,-86.0493850708007,-82.66974869101901,50.56456730326189,1269584922
sw,-68.2617034912109,-86.80224609375,-73.8433507014744,52.8521552559402,1269601589
sw,-67.2240829467773,-87.5998840332031,-61.833988795122934,56.07729683699947,1269618256
sw,-66.3503875732421,-88.3799743652343,-47.2632599584313,59.56186003054241,1269634923
sw,-65.6723175048828,-88.7407302856445,-31.296765246118074,62.465879305124055,1269651590
sw,-65.3896942138671,-88.1516799926757,-15.441916059435277,63.9965873049029,1269668257
sw,-65.5870895385742,-87.1423416137695,-1.236660876510911,63.6218212485789,1269684924
sw,-66.2114562988281,-86.0736465454101,10.107375189918454,61.223544118799815,1269701591
sw,-66.889045715332,-85.0991516113281,18.003892479042065,57.142524384661584,1269718258
sw,-67.2094802856445,-84.2884216308593,22.626415882154067,52.09716051873252,1269734925
sw,-67.422981262207,-83.5690994262695,24.82356516017717,46.99670654525176,1269751592
sw,-67.8526458740234,-82.9304275512695,25.845770984069546,42.69879384304477,1269768259
sw,-68.5013275146484,-82.3542022705078,26.98181614981178,39.77410746708489,1269784926
sw,-69.1174011230468,-81.7675170898437,29.217292352280143,38.335690649737074,1269801593
sw,-69.6166229248046,-81.1550903320312,32.996401796071794,37.971519632597975,1269818260
sw,-70.1865158081054,-80.5543136596679,38.1294122599197,37.794172138839876,1269834927
sw,-70.9413757324218,-79.9637145996093,43.86006865408213,36.59713783825687,1269851594
sw,-71.901741027832,-79.373291015625,49.081857738017156,33.0875513068756,1269868261
sw,-73.2213058471679,-78.8500213623046,52.657163601675805,26.15113776430426,1269884928
sw,-74.5927734375,-78.4946746826171,53.755729528361265,15.097563436418254,1269901595
sw,-75.6406478881836,-78.453140258789,52.11068332706589,-0.1645864269989768,1269918262
sw,-76.5307540893554,-78.7178649902343,48.10994488865253,-19.061969129110384,1269934929
sw,-77.295539855957,-79.3237915039062,42.69486700292627,-40.417134976386734,1269951596
sw,-77.8944549560546,-80.2633056640625,37.10162647997783,-62.62809662303276,1269968263
sw,-78.314208984375,-81.4087677001953,32.527087484164035,-83.93655603665458,1269984930
sw,-78.6965560913086,-82.6384124755859,29.817670360929327,-102.73601094270096,1270001597
sw,-79.0754623413086,-83.6050262451171,29.26835892479857,-117.85673531973184,1270018264
sw,-79.4331283569336,-83.4155197143554,30.58440105345832,-128.7587507555098,1270034931
sw,-79.8785705566406,-82.0399703979492,33.00899191504814,-135.57692879091712,1270051598
sw,-80.4305953979492,-80.2577667236328,35.570675061305984,-139.00241056657026,1270068265
sw,-80.9559326171875,-78.6004867553711,37.37056087576832,-140.04113927972585,1270084932
sw,-81.3747024536132,-77.0739212036132,37.82276279569385,-139.7330464777857,1270101599
sw,-81.6269607543945,-75.4460296630859,36.7830144430292,-138.91789926295527,1270118266
sw,-81.6792373657226,-73.7106323242187,34.54085855203663,-138.09849645548553,1270134933
sw,-81.5479736328125,-71.8555831909179,31.69390272037859,-137.40646761177248,1270151600
sw,-81.2767257690429,-69.8511810302734,28.953543362122492,-136.64633989795914,1270168267
sw,-80.8751907348632,-67.7619400024414,26.9432479450627,-135.3852111291364,1270184934
sw,-80.4451293945312,-65.8154983520507,26.044301569447057,-133.05918487390812,1270201601
sw,-80.0565185546875,-64.0128021240234,26.325244584838902,-129.0760059125095,1270218268
sw,-79.7213821411132,-62.3180313110351,27.56531914685253,-122.90385579844087,1270234935
sw,-79.4439315795898,-60.680004119873,29.354374626797313,-114.14593522856305,1270251602
sw,-79.1271209716796,-59.2249336242675,31.22947113961273,-102.60459920500698,1270268269
sw,-78.7172775268554,-57.9838256835937,32.80057487269354,-88.33686169952287,1270284936
sw,-78.2728729248046,-56.9602966308593,33.82824392627498,-71.6988025745454,1270301603
sw,-77.8284225463867,-56.1824111938476,34.239734986718275,-53.371922104987405,1270318270
sw,-77.3973999023437,-55.6859817504882,34.09418804935073,-34.358778735555354,1270334937
sw,-76.9742202758789,-55.4608879089355,33.52143637319232,-15.929423924370248,1270351604
sw,-76.5073013305664,-55.5570335388183,32.65980235553471,0.49938284518656695,1270368271
sw,-75.9938735961914,-56.0131378173828,31.61093476094303,13.55632054304309,1270384938
sw,-75.4529342651367,-56.6120719909668,30.42073018104055,22.156022450136575,1270401605
sw,-74.9053344726562,-57.2328796386718,29.087776356168668,25.735715227426084,1270418272
sw,-74.3784255981445,-57.6845397949218,27.594499348538477,24.421483240454553,1270434939
sw,-73.887710571289,-57.9838180541992,25.95047815906485,19.06978292065038,1270451606
sw,-73.4036483764648,-58.2398071289062,24.232262747441386,11.16429311986862,1270468273
sw,-72.9182434082031,-58.5697059631347,22.600981449031572,2.586882340870032,1270484940
sw,-72.4789199829101,-58.8446083068847,21.280931192820898,-4.694148997006469,1270501607
sw,-72.09912109375,-58.9173202514648,20.4920929022993,-8.968366341158134,1270518274
sw,-71.7670211791992,-58.8491287231445,20.346941382986163,-9.106704087883276,1270534941
sw,-71.4617156982421,-58.7862968444824,20.741298158146083,-4.800801648340994,1270551608
sw,-71.1763534545898,-58.8668403625488,21.28056581612895,3.3525437261850555,1270568275
sw,-70.8886795043945,-59.2363586425781,21.27865726622035,13.975402932875506,1270584942
sw,-70.591812133789,-59.9439888000488,19.846932421304007,25.243778586234264,1270601609
sw,-70.3424453735351,-61.1641006469726,16.06203826531503,35.365096601405064,1270618276
sw,-70.2041549682617,-62.8383293151855,9.175782845438167,43.0654256524848,1270634943
sw,-70.2221298217773,-64.4558639526367,-1.1842783601673812,47.92518618741861,1270651610
sw,-70.4957122802734,-65.6009521484375,-14.875393095150093,50.43231591192964,1270668277
sw,-71.0733261108398,-66.2052307128906,-31.20189917360956,51.71655723525731,1270684944
sw,-72.047981262207,-66.5696563720703,-48.999264429506205,53.05891349698959,1270701611
sw,-73.4984283447265,-67.1086196899414,-66.83088842438654,55.374436468728845,1270718278
sw,-75.4757308959961,-68.1907653808593,-83.25431793647176,58.88252529600557,1270734945
sw,-77.793830871582,-69.7787399291992,-97.08448367096688,63.089595484234195,1270751612
sw,-80.2429656982421,-71.3376007080078,-107.57536107583142,67.06088199505915,1270768279
sw,-82.6353454589843,-72.8502120971679,-114.4706695638315,69.83431663238905,1270784946
sw,-84.7860870361328,-74.2975082397461,-117.9305353299782,70.79152357016007,1270801613
sw,-86.4793090820312,-75.5646133422851,-118.39341126814392,69.85069711545918,1270818280
sw,-87.1514663696289,-76.6164627075195,-116.44817148930606,67.43939672204286,1270834947
sw,-86.2210464477539,-77.5239334106445,-112.7620109811366,64.2937123696433,1270851614
sw,-84.5049591064453,-78.39111328125,-108.05809346260216,61.18421126397979,1270868281
sw,-82.7246322631836,-79.3125915527343,-103.09778807052776,58.677562916276415,1270884948
sw,-81.0607986450195,-80.3329391479492,-98.61927628626843,57.010532565085654,1270901615
sw,-79.5877685546875,-81.3810653686523,-95.21674368684383,56.09918228830647,1270918282
sw,-78.2481002807617,-82.4488830566406,-93.19080970116738,55.65553463117644,1270934949
sw,-76.7633895874023,-83.5548477172851,-92.43247446761808,55.3542391774189,1270951616
sw,-75.0963058471679,-84.6554412841796,-92.39982884213147,54.986137765205164,1270968283
sw,-73.3735961914062,-85.7006759643554,-92.21018208534949,54.54742632350372,1270984950
sw,-71.7766799926757,-86.6728057861328,-90.82284938456831,54.23559132415462,1271001617
sw,-70.3615417480468,-87.618049621582,-87.258558027808,54.352876764632434,1271018284
sw,-69.0999069213867,-88.5095748901367,-80.80287521513151,55.14973917437471,1271034951
sw,-67.9391860961914,-89.3147201538086,-71.16115917187292,56.66494027007594,1271051618
sw,-66.9245376586914,-89.3432922363281,-58.54919665390309,58.625187140451914,1271068285
sw,-66.0855102539062,-88.5131225585937,-43.70632525121148,60.451121511044384,1271084952
sw,-65.5926971435546,-87.4956359863281,-27.814868704159174,61.38249393604263,1271101619
sw,-65.4938583374023,-86.3602981567382,-12.317989520926163,60.69438116711878,1271118286
sw,-65.7543563842773,-85.1733093261718,1.3443272874987824,57.94090046590706,1271134953
sw,-66.2415084838867,-84.0458984375,12.02490329303266,53.14478557237324,1271151620
sw,-66.664794921875,-83.1629257202148,19.10624483773002,46.859596450881355,1271168287
sw,-67.0054168701171,-82.5523452758789,22.617054013247213,40.06834473358054,1271184954
sw,-67.4531631469726,-82.1407470703125,23.201055264754817,33.93757633958342,1271201621
sw,-68.037483215332,-81.8361282348632,21.95625215010609,29.49770178562295,1271218288
sw,-68.6204833984375,-81.5091857910156,20.189013991294072,27.34599035905892,1271234955
sw,-69.025520324707,-81.0349884033203,19.13225182644779,27.457827718427758,1271251622
sw,-69.2326354980468,-80.4626541137695,19.677033369024333,29.152129611850516,1271268289
sw,-69.4430770874023,-79.9044723510742,22.17317604064475,31.20842598276084,1271284956
sw,-69.8299713134765,-79.3907852172851,26.356510399824064,32.09693417579028,1271301623
sw,-70.4504852294921,-78.8959045410156,31.439767402324,30.268359031569513,1271318290
sw,-71.4672698974609,-78.4639434814453,36.356028336423144,24.451602524990268,1271334957
sw,-72.5233764648437,-78.1689910888671,40.086710617175825,13.913016948235526,1271351624
sw,-73.4931640625,-78.0601425170898,41.96925004928265,-1.3659572900138945,1271368291
sw,-74.3664169311523,-78.2464065551757,41.88352794688092,-20.631650456823934,1271384958
sw,-75.1036987304687,-78.8359146118164,40.259776445533035,-42.44751780564907,1271401625
sw,-75.7081298828125,-79.9151153564453,37.91377884402279,-64.92978721126015,1271418292
sw,-76.1904220581054,-81.2799224853515,35.77205945903736,-86.09236735683062,1271434959
sw,-76.6637649536132,-82.7220687866211,34.58222056057835,-104.22756871750173,1271451626
sw,-77.1185531616211,-83.6768112182617,34.70347380721805,-118.22820587077778,1271468293
sw,-77.6116409301757,-83.3965759277343,36.04051231844457,-127.7628427010129,1271484960
sw,-78.294319152832,-82.0761566162109,38.130544688252726,-133.25316786942167,1271501627
sw,-79.0480651855468,-80.5182189941406,40.33766898702321,-135.66361936543043,1271518294
sw,-79.696304321289,-79.0700225830078,42.07298606251687,-136.17670959487324,1271534961
sw,-80.2008209228515,-77.5904006958007,42.95844269440923,-135.86240802092613,1271551628
sw,-80.4834976196289,-75.9832382202148,42.886426513955165,-135.4380306769344,1271568295
sw,-80.5658493041992,-74.290771484375,41.976812089910354,-135.16763466051205,1271584962
sw,-80.5444717407226,-72.4390487670898,40.47303413960815,-134.8977108992242,1271601629
sw,-80.4713134765625,-70.4572830200195,38.632136587391074,-134.1913945368884,1271618296
sw,-80.3337936401367,-68.4612884521484,36.650401679876,-132.50798553648318,1271634963
sw,-80.1368179321289,-66.600830078125,34.639254979946934,-129.37201528341203,1271651630
sw,-79.9176559448242,-64.9765701293945,32.64209354863028,-124.4864083677494,1271668297
sw,-79.6684265136718,-63.4778747558593,30.67122954704311,-117.76916534142,1271684964
sw,-79.3633499145507,-62.0462265014648,28.745285608953473,-109.32447760723373,1271701631
sw,-79.03466796875,-60.6557006835937,26.915301777495333,-99.38144325231163,1271718298
sw,-78.6797180175781,-59.4329681396484,25.27607303891231,-88.23603985561613,1271734965
sw,-78.3179931640625,-58.37890625,23.96384557501962,-76.21777602056751,1271751632
sw,-77.9594573974609,-57.5307579040527,23.141931439141054,-63.683549735745544,1271768299
sw,-77.6013565063476,-56.834373474121,22.974297450694177,-51.02788271174366,1271784966
sw,-77.2446212768554,-56.2464027404785,23.587067579442838,-38.693173180057016,1271801633
sw,-76.86962890625,-55.8869018554687,25.021562355791442,-27.163568236318586,1271818300
sw,-76.4558868408203,-55.7843322753906,27.189505271736213,-16.93096644620656,1271834967
sw,-75.9985961914062,-55.77197265625,29.847462458172103,-8.432904945741578,1271851634
sw,-75.5084533691406,-55.8144340515136,32.60835479748769,-1.9766930236513565,1271868301
sw,-74.9778060913086,-55.8250656127929,35.00002957247859,2.326857273474841,1271884968
sw,-74.4143142700195,-55.8360519409179,36.565501157432806,4.60029923695512,1271901635
sw,-73.8330078125,-55.9105033874511,36.98168545612532,5.200241659628939,1271918302
sw,-73.2644653320312,-56.0947189331054,36.16066412308454,4.686987588121842,1271934969
sw,-72.7505416870117,-56.3443565368652,34.29616449819212,3.7706394533840966,1271951636
sw,-72.2974319458007,-56.6650695800781,31.830246054481034,3.2350406854847384,1271968303
sw,-71.9108505249023,-56.9933471679687,29.337996982099668,3.8350990887489314,1271984970
sw,-71.5631713867187,-57.3148040771484,27.35422445293573,6.166593110471251,1272001637
sw,-71.250862121582,-57.6176605224609,26.187162780068466,10.52303588830509,1272018304
sw,-70.9429626464843,-57.9172935485839,25.772945183977253,16.775835181990068,1272034971
sw,-70.6236419677734,-58.2988815307617,25.617436295565724,24.329869914211955,1272051638
sw,-70.3426895141601,-58.9205322265625,24.850687006969203,32.20280257419325,1272068305
sw,-70.1091079711914,-59.8965263366699,22.39023789636007,39.24410406421834,1272084972
sw,-69.8845443725586,-61.1501502990722,17.180751442903627,44.45358017563774,1272101639
sw,-69.7206115722656,-62.7257804870605,8.455208156128478,47.30128036217475,1272118306
sw,-69.716064453125,-64.200698852539,-4.048022733176335,47.92301670968967,1272134973
sw,-70.0657272338867,-65.1912078857421,-19.97237239327629,47.09304784624207,1272151640
sw,-70.8439559936523,-65.7178115844726,-38.36957635236015,45.95820561247802,1272168307
sw,-72.0849456787109,-66.0648117065429,-57.860674059341164,45.624129093156455,1272184974
sw,-73.8255996704101,-66.6042938232421,-76.88583617267496,46.760160671643,1272201641
sw,-76.0215225219726,-67.6274261474609,-93.97202450333434,49.38812312684083,1272218308
sw,-78.3940048217773,-69.0003890991211,-107.94851092067998,52.935949999392896,1272234975
sw,-80.8274841308593,-70.4258193969726,-118.06828024748928,56.51446925383072,1272251642
sw,-83.1887130737304,-71.8067932128906,-124.03639683678264,59.28161576602023,1272268309
sw,-85.3110275268554,-73.0540924072265,-125.98108581405484,60.7380171469894,1272284976
sw,-86.6522750854492,-74.1234054565429,-124.40751286167404,60.849332973960614,1272301643
sw,-86.5281372070312,-75.0319519042968,-120.14745379292843,59.97678235043476,1272318310
sw,-85.284912109375,-75.885986328125,-114.28501540451836,58.67481735584781,1272334977
sw,-83.7350921630859,-76.8150634765625,-108.02820678796772,57.45490165212304,1272351644
sw,-82.1652374267578,-77.8430709838867,-102.51762470435142,56.60838256164512,1272368311
sw,-80.6401672363281,-78.9100646972656,-98.60274276280163,56.14088559327653,1272384978
sw,-79.1603012084961,-79.9873733520507,-96.64916925827029,55.81957515122552,1272401645
sw,-77.5438613891601,-81.0933380126953,-96.44660546323982,55.29607056344183,1272418312
sw,-75.7103195190429,-82.1792297363281,-97.25958099779713,54.25205546115703,1272434979
sw,-73.7883682250976,-83.1525573730468,-98.01122189389582,52.51869041183396,1272451646
sw,-71.9689254760742,-84.0177841186523,-97.53993441977251,50.13694162497053,1272468313
sw,-70.3873672485351,-84.8261566162109,-94.84817575850245,47.34720799105826,1272484980
sw,-69.0360565185546,-85.5932235717773,-89.28197529242861,44.51770644903317,1272501647
sw,-67.8394546508789,-86.3289108276367,-80.62264918250987,42.0370188284077,1272518314
sw,-66.6879959106445,-87.0307388305664,-69.10674900614191,40.20388511324746,1272534981
sw,-65.6546478271484,-87.6993103027343,-55.39614913824862,39.14591361403123,1272551648
sw,-64.8679885864257,-88.3111267089843,-40.50297069112498,38.789232953464854,1272568315
sw,-64.440200805664,-88.8983764648437,-25.658349080468536,38.88600183112584,1272584982
sw,-64.4158325195312,-89.2892150878906,-12.121139589323846,39.09058855109587,1272601649
sw,-64.6507186889648,-89.0852890014648,-0.9524255769950868,39.06254058255164,1272618316
sw,-64.9581756591796,-88.5077362060546,7.187186039853712,38.5680711927764,1272634983
sw,-65.2029113769531,-87.8635711669921,12.153689548145561,37.55291889368161,1272651650
sw,-65.4212570190429,-87.2625503540039,14.312587944005696,36.16768873587457,1272668317
sw,-65.6769790649414,-86.68896484375,14.41856771960206,34.739887527508046,1272684984
sw,-65.9472045898437,-86.1407012939453,13.430470763425658,33.70080788726359,1272701651
sw,-66.2918701171875,-85.6098403930664,12.320909004505468,33.485758807181725,1272718318
sw,-66.6680679321289,-85.0673141479492,11.923452044377866,34.43008370375768,1272734985
sw,-67.0179061889648,-84.4464950561523,12.832613682865707,36.680759273892825,1272751652
sw,-67.3956680297851,-83.7069854736328,15.350612569000809,40.13590941378997,1272768319
sw,-67.8008728027343,-82.8998870849609,19.46874241817523,44.415703157184545,1272784986
sw,-68.2601852416992,-82.1035079956054,24.87727077333941,48.86277229953849,1272801653
sw,-68.8509445190429,-81.2987060546875,31.006904131245346,52.57222760228876,1272818320
sw,-69.5378341674804,-80.4595642089843,37.10881116321056,54.4585027591666,1272834987
sw,-70.361083984375,-79.6361083984375,42.37546601760947,53.37042540972525,1272851654
sw,-71.3479766845703,-78.8779754638671,46.09195945891124,48.25928691256774,1272868321
sw,-72.4861984252929,-78.2074584960937,47.79086587484877,38.38633724216496,1272884988
sw,-73.4720077514648,-77.6802902221679,47.37048281596812,23.532160248293476,1272901655
sw,-74.3801574707031,-77.3835983276367,45.13567776362645,4.150294315557873,1272918322
sw,-75.1010360717773,-77.4589385986328,41.73821437799231,-18.598166784577273,1272934989
sw,-75.6947479248046,-78.0811004638671,38.024659128952266,-42.97420903016782,1272951656
sw,-76.2163391113281,-79.3260421752929,34.831800182291445,-66.95607603202284,1272968323
sw,-76.775520324707,-81.001953125,32.788536269427716,-88.64261917367577,1272984990
sw,-77.3665084838867,-82.8937225341796,32.18169524791145,-106.65769894825668,1273001657
sw,-77.9268722534179,-84.6265563964843,32.9216513522298,-120.43258846958517,1273018324
sw,-78.5256195068359,-85.1443328857421,34.61031909424353,-130.2725608379252,1273034991
sw,-79.1239547729492,-83.9912338256836,36.68183698444414,-137.18028323022952,1273051658
sw,-79.6712036132812,-82.1789321899414,38.56668167109701,-142.48967591725287,1273068325
sw,-80.1644058227539,-80.4145431518554,39.8293622930086,-147.42917041552727,1273084992
sw,-80.6046600341796,-78.6501846313476,40.246418852624274,-152.75418612802773,1273101659
sw,-80.9533920288086,-76.7083206176757,39.81588721554447,-158.55433244250173,1273118326
sw,-81.1299819946289,-74.5790176391601,38.71078113236818,-164.26979016391522,1273134993
sw,-81.1738586425781,-72.2149963378906,37.20139992520121,-168.88073703385328,1273151660
sw,-81.1116867065429,-69.5392227172851,35.57389569326052,-171.19243725085903,1273168327
sw,-80.8876190185546,-66.7998886108398,34.06747265766454,-170.13095981701667,1273184994
sw,-80.6187133789062,-64.2118759155273,32.84256237964509,-164.97915759166997,1273201661
sw,-80.4084320068359,-61.8355598449707,31.98052183034681,-155.50955183175486,1273218328
sw,-80.1988372802734,-59.6660804748535,31.50510941958908,-142.0035179073223,1273234995
sw,-79.9453506469726,-57.7673072814941,31.410678922545223,-125.17517999042725,1273251662
sw,-79.6332168579101,-56.1461868286132,31.684048411921523,-106.03456616489423,1273268329
sw,-79.2489318847656,-54.7945289611816,32.31417008539847,-85.7270892248177,1273284996
sw,-78.7968673706054,-53.7476387023925,33.29010365256221,-65.38119941917317,1273301663
sw,-78.2795867919921,-53.0274848937988,34.59005546298403,-45.98769379726266,1273318330
sw,-77.7268905639648,-52.5838088989257,36.16437812538459,-28.323613463309908,1273334997
sw,-77.1591796875,-52.3899269104003,37.91632565476214,-12.921539572227605,1273351664
sw,-76.5535736083984,-52.3937606811523,39.6863538276401,-0.07409103286220145,1273368331
sw,-75.9017639160156,-52.601463317871,41.24783172387895,10.142242477160693,1273384998
sw,-75.2190399169921,-52.9819602966308,42.32289830790253,17.83699956381736,1273401665
sw,-74.5017929077148,-53.3865776062011,42.624557049595005,23.272905992559554,1273418332
sw,-73.7444076538086,-53.7881698608398,41.92290611954011,26.825180829527927,1273434999
sw,-72.9795227050781,-54.1837997436523,40.12121031108806,28.928181419631205,1273451666
sw,-72.2599868774414,-54.6200904846191,37.31709168469748,30.014098119187864,1273468333
sw,-71.6012268066406,-55.1764373779296,33.821604068668,30.458417775227133,1273485000
sw,-71.0010986328125,-55.8780250549316,30.11696795783422,30.54764406984771,1273501667
sw,-70.5087127685546,-56.6749687194824,26.750864771194014,30.474336752924792,1273518334
sw,-70.1203079223632,-57.4288520812988,24.187180524770053,30.350644630844922,1273535001
sw,-69.7858963012695,-58.0355796813964,22.652785240433282,30.22595202987707,1273551668
sw,-69.4181518554687,-58.5999908447265,22.028056676897517,30.10290864481776,1273568335
sw,-69.0587997436523,-59.1817398071289,21.81930653162804,29.961595487470003,1273585002
sw,-68.7583236694336,-59.8808975219726,21.227086180292872,29.807085699463833,1273601669
sw,-68.5106201171875,-60.8658180236816,19.29639969425075,29.739503568726565,1273618336
sw,-68.3488311767578,-61.8692207336425,15.11379251012969,30.014691431636287,1273635003
sw,-68.239875793457,-62.6901206970214,8.006794630868919,31.04284377118336,1273651670
sw,-68.26806640625,-63.3092079162597,-2.29736615718689,33.287626341386606,1273668337
sw,-68.5386505126953,-63.776798248291,-15.587402360492277,37.08094318562161,1273685004
sw,-69.1128921508789,-64.3209152221679,-31.177103302040585,42.4281677551923,1273701671
sw,-70.0558471679687,-65.1381607055664,-48.009244118541915,48.90393440782293,1273718338
sw,-71.5010528564453,-66.351692199707,-64.8344566374779,55.70835814207178,1273735005
sw,-73.453369140625,-67.947769165039,-80.42332384566285,61.8807857332308,1273751672
sw,-75.6568984985351,-69.5705642700195,-93.75632895252804,66.59098725923505,1273768339
sw,-77.9700164794921,-71.0772933959961,-104.14389615766346,69.38766160367769,1273785006
sw,-80.2698440551757,-72.4120101928711,-111.26065849111828,70.30285374743083,1273801673
sw,-82.5203170776367,-73.6034393310546,-115.1167721144968,69.77697727646232,1273818340
sw,-84.5469512939453,-74.6667098999023,-116.00690258999205,68.44637681812232,1273835007
sw,-86.0004119873046,-75.6686782836914,-114.46259313234403,66.88676891840774,1273851674
sw,-86.4930114746093,-76.7307357788086,-111.20278387410424,65.4135105966563,1273868341
sw,-85.9013671875,-77.9172439575195,-107.05901127543297,64.00741960590724,1273885008
sw,-84.7194747924804,-79.1904144287109,-102.86019646475457,62.380617723560945,1273901675
sw,-83.320068359375,-80.4475631713867,-99.28769058244758,60.14333095840213,1273918342
sw,-81.8060226440429,-81.6104888916015,-96.735035948769,56.999609672699634,1273935009
sw,-80.2494583129882,-82.6028366088867,-95.21465832913417,52.89734001189556,1273951676
sw,-78.6184310913086,-83.4103393554687,-94.34252205879363,48.082503546237376,1273968343
sw,-76.9497985839843,-84.0705032348632,-93.40842351439207,43.04656034806372,1273985010
sw,-75.3448410034179,-84.6153030395507,-91.51557274373775,38.393319515974554,1274001677
sw,-73.8909301757812,-85.1338577270507,-87.7584860272744,34.6752041775104,1274018344
sw,-72.5947799682617,-85.6573333740234,-81.40649975735727,32.25277277230365,1274035011
sw,-71.3973770141601,-86.190444946289,-72.06652194853818,31.21747760213176,1274051678
sw,-70.3332824707031,-86.728530883789,-59.803597395417874,31.39325999120443,1274068345
sw,-69.4581604003906,-87.2553405761718,-45.1965160095641,32.407454338378784,1274085012
sw,-68.8689498901367,-87.7432785034179,-29.30341687272164,33.80387171830051,1274101679
sw,-68.6565399169921,-88.1611251831054,-13.520681295827261,35.16462054707955,1274118346
sw,-68.824951171875,-88.4593429565429,0.656087344606701,36.21107700293186,1274135013
sw,-69.2147140502929,-88.5153656005859,11.924233883530023,36.864340608690185,1274151680
sw,-69.6626968383789,-88.28662109375,19.446286007490215,37.25685767115196,1274168347
sw,-70.143440246582,-87.8566207885742,23.026313917740882,37.69625378222771,1274185014
sw,-70.533935546875,-87.3161315917968,23.14148074826953,38.58832699207437,1274201681
sw,-70.8604049682617,-86.6979675292968,20.824229578622536,40.3290320674219,1274218348
sw,-71.2461547851562,-86.0135650634765,17.431717937112392,43.177107567711516,1274235015
sw,-71.6365356445312,-85.2900619506836,14.361180689889432,47.122631886958644,1274251682
sw,-71.9292678833007,-84.5399856567382,12.770317321080425,51.77421333411765,1274268349
sw,-72.161880493164,-83.786880493164,13.350972798863113,56.29714282457358,1274285016
sw,-72.3591003417968,-82.9930191040039,16.19488975960865,59.44020749548464,1274301683
sw,-72.593391418457,-82.1139221191406,20.784119833208283,59.68089439595164,1274318350
sw,-73.0088272094726,-81.139778137207,26.125868175543676,55.49158273821325,1274335017
sw,-73.7237396240234,-80.2206649780273,31.021501569817374,45.687001534099025,1274351684
sw,-74.7853240966796,-79.5051345825195,34.41348062385829,29.771238458851727,1274368351
sw,-75.8888092041015,-79.1182022094726,35.71018112960411,8.181283698359515,1274385018
sw,-76.7568893432617,-79.2024230957031,34.97495181071366,-17.662787263670086,1274401685
sw,-77.2962799072265,-79.8382720947265,32.901776215761245,-45.54362521432239,1274418352
sw,-77.6693801879882,-80.8682174682617,30.57776496229479,-72.84327383314009,1274435019
sw,-77.8614730834961,-82.0251922607421,29.116944352843017,-97.05870812496974,1274451686
sw,-78.2180938720703,-82.8428955078125,29.299112847779327,-116.30068404413632,1274468353
sw,-78.7726669311523,-82.6093063354492,31.339750571528235,-129.63698965456484,1274485020
sw,-79.3476181030273,-81.4579925537109,34.859000617203904,-137.18484609654388,1274501687
sw,-79.9597930908203,-79.9840011596679,39.03919774655677,-139.93843846921433,1274518354
sw,-80.6055221557617,-78.5200881958007,42.89662403272945,-139.40575798381528,1274535021
sw,-81.2410583496093,-77.0463714599609,45.56632838599538,-137.18272921136793,1274551688
sw,-81.6651840209961,-75.5054321289062,46.51095232119163,-134.58841617802065,1274568355
sw,-81.7985763549804,-73.9071426391601,45.60426579753753,-132.43664998077804,1274585022
sw,-81.7605743408203,-72.2096939086914,43.09050044282548,-130.96323871455363,1274601689
sw,-81.6038055419921,-70.3509750366211,39.46159076569314,-129.89034502758403,1274618356
sw,-81.3561859130859,-68.3917388916015,35.30989948382978,-128.59122892163984,1274635023
sw,-81.0227661132812,-66.5581283569336,31.20222191146989,-126.30773011654536,1274651690
sw,-80.5884857177734,-64.8309860229492,27.59595081606046,-122.3658949112953,1274668357
sw,-80.0862274169921,-63.2273559570312,24.797752934868214,-116.33856640343765,1274685024
sw,-79.6288223266601,-61.7396163940429,22.956729888545635,-108.12202097491965,1274701691
sw,-79.233528137207,-60.4249954223632,22.08391463474335,-97.9218336249586,1274718358
sw,-78.8755493164062,-59.2405395507812,22.090294742972702,-86.17038103459889,1274735025
sw,-78.5445327758789,-58.2107810974121,22.832783064756526,-73.41480434304387,1274751692
sw,-78.2115173339843,-57.3703117370605,24.154054457122495,-60.214756743827394,1274768359
sw,-77.8955001831054,-56.7642822265625,25.902645161981493,-47.075848410548005,1274785026
sw,-77.5816574096679,-56.3472633361816,27.92714163369834,-34.42521904094248,1274801693
sw,-77.2006912231445,-56.0497169494628,30.051356245728037,-22.618615636153176,1274818360
sw,-76.7185821533203,-55.9652786254882,32.049930058054564,-11.95881714480321,1274835027
sw,-76.1530609130859,-56.0541610717773,33.64778607627504,-2.7052038140043724,1274851694
sw,-75.5528564453125,-56.2171363830566,34.55797672880489,4.936633930047809,1274868361
sw,-74.9534683227539,-56.4893608093261,34.55388773446856,10.842245315044016,1274885028
sw,-74.3891830444336,-56.7723731994628,33.552730035830514,14.998100920326406,1274901695
sw,-73.8690795898437,-57.0330009460449,31.677505659523863,17.51687142118606,1274918362
sw,-73.3839797973632,-57.3703536987304,29.26871846759979,18.62865336914312,1274935029
sw,-72.9661865234375,-57.8046569824218,26.832597218002906,18.649814787649984,1274951696
sw,-72.6136856079101,-58.257396697998,24.932455897443553,17.93836860622945,1274968363
sw,-72.3071594238281,-58.7420578002929,24.046344956130863,16.845511762072316,1274985030
sw,-72.0233535766601,-59.1763038635253,24.422623886853298,15.671399637110023,1275001697
sw,-71.7257308959961,-59.5929145812988,25.965470040719605,14.633697702590533,1275018364
sw,-71.389045715332,-59.9948234558105,28.177797736789245,13.85900606584472,1275035031
sw,-71.0353698730468,-60.3542900085449,30.182246144039983,13.40561084647958,1275051698
sw,-70.6824493408203,-60.776268005371,30.831308689832085,13.317827672888917,1275068365
sw,-70.3453216552734,-61.4776573181152,28.902510913531682,13.696657378263584,1275085032
sw,-70.0464630126953,-62.1277084350585,23.3523653434341,14.752798767386668,1275101699
sw,-69.819839477539,-62.739330291748,13.577579840165019,16.799412721855305,1275118366
sw,-69.795669555664,-63.2259483337402,-0.3859328281752753,20.159641365000738,1275135033
sw,-70.1307754516601,-63.5678062438964,-17.79350543077903,25.00881678177409,1275151700
sw,-70.9047775268554,-63.9970703125,-37.28948783199131,31.219760465774375,1275168367
sw,-72.1939086914062,-64.7579116821289,-57.15924817033573,38.29754833013768,1275185034
sw,-73.9771728515625,-65.9892425537109,-75.6684072445525,45.458753427200634,1275201701
sw,-76.0342483520507,-67.4178619384765,-91.38933295732842,51.84116546238942,1275218368
sw,-78.230224609375,-68.7627029418945,-103.42068241851332,56.761550700526776,1275235035
sw,-80.4330596923828,-69.9794540405273,-111.45127655395162,59.91237957311496,1275251702
sw,-82.6094665527343,-71.0634231567382,-115.68382164001801,61.41857530108512,1275268369
sw,-84.6241836547851,-72.099380493164,-116.68260537729829,61.741168053550034,1275285036
sw,-86.234748840332,-73.1402587890625,-115.21725386105814,61.477808324059254,1275301703
sw,-86.9056091308593,-74.1872253417968,-112.14446001083799,61.14187218887212,1275318370
sw,-86.2382354736328,-75.2355346679687,-108.32702406484792,60.99667269766032,1275335037
sw,-84.8380584716796,-76.3439025878906,-104.5626393282388,60.9910190618282,1275351704
sw,-83.2653656005859,-77.4758071899414,-101.49674311865243,60.80431881654666,1275368371
sw,-81.7415084838867,-78.6145782470703,-99.51884910902942,59.977046682304774,1275385038
sw,-80.2099151611328,-79.7385635375976,-98.67185665943029,58.08238568390994,1275401705
sw,-78.5292739868164,-80.7912445068359,-98.61815958255434,54.88840775007634,1275418372
sw,-76.6284713745117,-81.7222518920898,-98.69283524914849,50.46594411296034,1275435039
sw,-74.7656784057617,-82.5202713012695,-98.03836367293246,45.21331808126763,1275451706
sw,-73.119644165039,-83.1999816894531,-95.7801656132395,39.792178499546516,1275468373
sw,-71.6975860595703,-83.7962570190429,-91.19219254727359,34.99292661440823,1275485040
sw,-70.4356079101562,-84.3382873535156,-83.82107841997932,31.56624935841839,1275501707
sw,-69.2530212402343,-84.8433837890625,-73.56551915303547,30.063666302918392,1275518374
sw,-68.182014465332,-85.3533782958984,-60.71952623505409,30.72412698250389,1275535041
sw,-67.2945938110351,-85.9104537963867,-45.97777630312334,33.42926060483248,1275551708
sw,-66.6957244873046,-86.5526428222656,-30.384326864637327,37.732285830177446,1275568375
sw,-66.4943389892578,-87.2948455810546,-15.204229961014898,42.949575444192355,1275585042
sw,-66.642105102539,-88.1130142211914,-1.720284250454083,48.29269968911925,1275601709
sw,-66.9880218505859,-88.9279022216796,9.006073749337832,53.014058743689766,1275618376
sw,-67.4011993408203,-89.3073348999023,16.343156880920986,56.54040200917021,1275635043
sw,-67.770263671875,-88.6322708129882,20.20190550199553,58.5728166452561,1275651710
sw,-68.0150146484375,-87.6329650878906,21.02220893818829,59.13594621986554,1275668377
sw,-68.2879791259765,-86.5894699096679,19.649329334000445,58.562708486692614,1275685044
sw,-68.7185974121093,-85.5807571411132,17.15125473215245,57.40676729904786,1275701711
sw,-69.2344665527343,-84.6441574096679,14.630035272936244,56.28746998040445,1275718378
sw,-69.6847839355468,-83.7804489135742,13.05565548253945,55.691168047470974,1275735045
sw,-70.0087203979492,-82.9802169799804,13.125274206911554,55.77331720780211,1275751712
sw,-70.2262878417968,-82.2043685913086,15.147036138933094,56.21829053519377,1275768379
sw,-70.4374160766601,-81.3389358520507,18.966148636586933,56.20984594304626,1275785046
sw,-70.8211212158203,-80.4198608398437,23.969732882244976,54.54130606850708,1275801713
sw,-71.4413986206054,-79.5497055053711,29.202791237434752,49.85595366208935,1275818380
sw,-72.2359619140625,-78.7867813110351,33.59428762250986,40.96794337093746,1275835047
sw,-73.3297729492187,-78.1779479980468,36.24426775375725,27.186426471788067,1275851714
sw,-74.313117980957,-77.8619766235351,36.685323874737364,8.558656278277015,1275868381
sw,-75.1108932495117,-77.9446334838867,35.02649599119455,-14.037598212285408,1275885048
sw,-75.6746215820312,-78.5314407348632,31.922441554935478,-38.98894042690845,1275901715
sw,-76.1197738647461,-79.5396575927734,28.372949754435353,-64.21950724359479,1275918382
sw,-76.4210128784179,-80.8286209106445,25.420323858359833,-87.58562904465288,1275935049
sw,-76.7124328613281,-82.3026275634765,23.848154863944323,-107.29850782623411,1275951716
sw,-77.1625823974609,-83.401382446289,23.98144176120699,-122.26679411517878,1275968383
sw,-77.7927780151367,-83.2949600219726,25.64736954482069,-132.26566617261753,1275985050
sw,-78.4132843017578,-82.14697265625,28.294290793635966,-137.88587999493762,1276001717
sw,-79.0487747192382,-80.7233734130859,31.209342188851934,-140.2857725466371,1276018384
sw,-79.6739349365234,-79.3621673583984,33.747012772756676,-140.8332826987843,1276035051
sw,-80.2017517089843,-77.9089202880859,35.49056223143441,-140.75109756545305,1276051718
sw,-80.5892562866211,-76.231689453125,36.30557715485512,-140.85617538339847,1276068385
sw,-80.7942733764648,-74.4079208374023,36.29114378078492,-141.43638503168506,1276085052
sw,-80.8643646240234,-72.444465637207,35.67078321825175,-142.2627567801719,1276101719
sw,-80.913818359375,-70.3361129760742,34.67968420276442,-142.71057290952567,1276118386
sw,-80.9150314331054,-68.1978378295898,33.493355557649615,-141.95072405463006,1276135053
sw,-80.8108520507812,-66.0660629272461,32.21393507695178,-139.16458543251497,1276151720
sw,-80.64306640625,-64.0525283813476,30.90068901096889,-133.7311146720376,1276168387
sw,-80.4801025390625,-62.2036476135253,29.615297567541116,-125.34199929164907,1276185054
sw,-80.3043365478515,-60.5835189819335,28.454126770238766,-114.0241730129784,1276201721
sw,-80.0532608032226,-59.1793365478515,27.55279878420541,-100.08262701641566,1276218388
sw,-79.7577285766601,-58.0020751953125,27.064124360129085,-84.00506988810349,1276235055
sw,-79.4435806274414,-57.0274047851562,27.121636885174645,-66.37878729417896,1276251722
sw,-79.1332626342773,-56.280288696289,27.803516510047192,-47.85413799876765,1276268389
sw,-78.8209686279296,-55.824966430664,29.106658888857375,-29.157197948428717,1276285056
sw,-78.4762115478515,-55.6407928466796,30.93410102751341,-11.123008555213033,1276301723
sw,-78.0842666625976,-55.6308403015136,33.0968798652554,5.294707017005264,1276318390
sw,-77.6526260375976,-55.896240234375,35.333520261354344,19.076283189946736,1276335057
sw,-77.185676574707,-56.3847198486328,37.35086497384626,29.26693492835219,1276351724
sw,-76.6810760498046,-57.0910263061523,38.88394541065248,35.16682949913311,1276368391
sw,-76.1343917846679,-57.7999763488769,39.76180208774848,36.52750523219482,1276385058
sw,-75.579360961914,-58.3387145996093,39.95757433240051,33.68469314740694,1276401725
sw,-75.0447158813476,-58.7878074645996,39.600650903267656,27.570639289451613,1276418392
sw,-74.5246200561523,-59.1913757324218,38.93720812606007,19.588523568031,1276435059
sw,-74.0308151245117,-59.5303573608398,38.24036534176134,11.37642789392017,1276451726
sw,-73.5539321899414,-59.7386665344238,37.68835659956984,4.516895427443882,1276468393
sw,-73.0671615600586,-59.8620681762695,37.24401506419719,0.25517786814204874,1276485060
sw,-72.5973815917968,-59.935203552246,36.5767007970678,-0.7161759952304746,1276501727
sw,-72.1554107666015,-60.0605583190918,35.063759467114906,1.6409925942847425,1276518394
sw,-71.7501602172851,-60.2958602905273,31.889686581204256,6.7524075495097735,1276535061
sw,-71.4087142944336,-60.6668395996093,26.23026155662591,13.616472189025355,1276551728
sw,-71.1485824584961,-61.5744895935058,17.476802581910352,21.090773172540914,1276568395
sw,-70.9940338134765,-62.7348289489746,5.4363714120303825,28.19909377261091,1276585062
sw,-71.0480041503906,-63.8196830749511,-9.554113930568505,34.36037135605688,1276601729
sw,-71.4465103149414,-64.6083602905273,-26.63909768975737,39.461365119664286,1276618396
sw,-72.2654418945312,-65.1847991943359,-44.58425930889256,43.75418034050132,1276635063
sw,-73.47265625,-65.789321899414,-62.00988313443638,47.63442651221968,1276651730
sw,-75.098274230957,-66.6508712768554,-77.6533881507334,51.40635099243426,1276668397
sw,-77.0932922363281,-67.8624954223632,-90.58742922713095,55.13900884340536,1276685064
sw,-79.2678985595703,-69.2976760864257,-100.33560758401714,58.66461815466111,1276701731
sw,-81.5254898071289,-70.7512130737304,-106.86459173671196,61.69743633665698,1276718398
sw,-83.7265243530273,-72.1107711791992,-110.47622934597022,63.99700317627658,1276735065
sw,-85.5667724609375,-73.3201141357421,-111.65609530504075,65.4875804802066,1276751732
sw,-86.6171951293945,-74.4150161743164,-110.93921551726922,66.27690781589007,1276768399
sw,-86.4333343505859,-75.4535369873046,-108.82926162329449,66.57278229477761,1276785066
sw,-85.2921447753906,-76.4995574951171,-105.77199014244151,66.54708756829592,1276801733
sw,-83.8057174682617,-77.6252822875976,-102.15846251946934,66.21999790067807,1276818400
sw,-82.2802200317382,-78.8440475463867,-98.32911742224987,65.42372055735727,1276835067
sw,-80.7699737548828,-80.0821456909179,-94.56254039546687,63.864725649605965,1276851734
