Label,Left_Hip_q,Right_Hip_q,Left_Hip_qd,Right_Hip_qd,SampleTimeFine
sw,-69.7264785766601,-89.3317794799804,-71.9306716918945,21.2906990051269,2060900748
sw,-68.7913742065429,-90.0,-57.64394968617864,31.084711870410466,2060917415
sw,-68.256851196289,-89.6916275024414,-34.10230784898023,38.30033222884765,2060934082
sw,-68.15380859375,-88.7396392822265,-12.634095568053485,44.33082811710335,2060950749
sw,-68.401985168457,-87.7684860229492,5.160790897216253,48.380198400769366,2060967416
sw,-68.8825454711914,-86.7606964111328,18.322608374949397,50.10288937999747,2060984083
sw,-69.4126739501953,-85.8217239379882,26.668391833067474,49.68523613693255,2061000750
sw,-69.843505859375,-84.9844894409179,30.76693874722432,47.79015643117636,2061017417
sw,-70.3357849121093,-84.2887649536132,31.76452312095604,45.37275619141629,2061034084
sw,-71.0768814086914,-83.706428527832,31.10955292126763,43.411301139196546,2061050751
sw,-71.7838516235351,-83.1235427856445,30.2394427749831,42.62406636773035,2061067418
sw,-72.2995300292968,-82.4564666748046,30.287949597804683,43.24755430512028,2061084085
sw,-72.6961441040039,-81.7265167236328,31.86228968528814,44.933031517979195,2061100752
sw,-73.1427536010742,-80.9344711303711,34.93631178771494,46.78394604562583,2061117419
sw,-73.7155532836914,-80.0858917236328,38.89814959986771,47.52033224900356,2061134086
sw,-74.5591125488281,-79.3017501831054,42.76085044579676,45.72982458208297,2061150753
sw,-75.7793045043945,-78.6488952636718,45.49178925337327,40.15324723592258,2061167420
sw,-76.932388305664,-78.1504898071289,46.36307422944669,29.953414853780277,2061184087
sw,-77.9150390625,-77.8160552978515,45.20202266636712,14.922011589571577,2061200754
sw,-78.7074356079101,-77.7163848876953,42.44845977694471,-4.4145529080255335,2061217421
sw,-79.1918182373046,-77.9535980224609,38.99730801056178,-26.822744057047235,2061234088
sw,-79.4914627075195,-78.6118774414062,35.888552363156414,-50.54008035250588,2061250755
sw,-79.813720703125,-79.8808898925781,33.96390762906289,-73.58919050885676,2061267422
sw,-80.2399291992187,-81.6018829345703,33.616030515004944,-94.16737828407769,2061284089
sw,-80.6241149902343,-83.1681518554687,34.71152908044658,-111.01020927679268,2061300756
sw,-81.0054321289062,-83.7888107299804,36.69614421119636,-123.61842395550522,2061317423
sw,-81.4948348999023,-83.2522659301757,38.82284261658727,-132.27681107070092,2061334090
sw,-81.8863754272461,-82.2245330810546,40.40739528748579,-137.86880467017997,2061350757
sw,-82.0199966430664,-81.139175415039,41.020490601269245,-141.5624856740252,2061367424
sw,-81.9763717651367,-79.8918533325195,40.56349160375738,-144.47444965061393,2061384091
sw,-81.7995529174804,-78.3637161254882,39.22708642475789,-147.39918688326532,2061400758
sw,-81.5048599243164,-76.6027679443359,37.373761813853235,-150.64757704091642,2061417425
sw,-81.0737533569336,-74.6376571655273,35.40018995148358,-154.0013488685346,2061434092
sw,-80.5148620605468,-72.3769836425781,33.625764247690455,-156.7735113255911,2061450759
sw,-79.8723754882812,-69.869270324707,32.23231132484088,-157.95720764707377,2061467426
sw,-79.2246627807617,-67.4810409545898,31.260086889195215,-156.43443430658965,2061484093
sw,-78.6357879638671,-65.3240585327148,30.65067256959325,-151.20427487418772,2061500760
sw,-78.1188888549804,-63.2149581909179,30.316512987119946,-141.58913830253965,2061517427
sw,-77.6535873413086,-61.2026062011718,30.20887918888085,-127.38878670521832,2061534094
sw,-77.2047271728515,-59.4549331665039,30.354820752746264,-108.9652479184641,2061550761
sw,-76.7580947875976,-58.0272598266601,30.84363437779287,-87.24902254351485,2061567428
sw,-76.2963333129882,-56.9787063598632,31.763517560137007,-63.66098325473392,2061584095
sw,-75.8014678955078,-56.3073959350585,33.111720596611136,-39.95121043222694,2061600762
sw,-75.2610321044921,-56.0636405944824,34.71678982482524,-17.967707703100412,2061617429
sw,-74.6756896972656,-56.137638092041,36.21250362367815,0.6172548846757064,2061634096
sw,-74.0270919799804,-56.5197486877441,37.08841279364415,14.58048131956014,2061650763
sw,-73.3198623657226,-57.0751838684082,36.81567549668073,23.367095596447584,2061667430
sw,-72.5800399780273,-57.6182823181152,35.017413472124055,27.20025977010855,2061684097
sw,-71.8514785766601,-58.0608825683593,31.629900589619925,27.04003550907868,2061700764
sw,-71.1812438964843,-58.402530670166,26.993124596515756,24.382780763317406,2061717431
sw,-70.6472702026367,-58.7469749450683,21.821990647367553,20.937069115977348,2061734098
sw,-70.3102722167968,-59.1172294616699,17.042633175799434,18.25182587052118,2061750765
sw,-70.1279678344726,-59.5125122070312,13.524352786365958,17.3902589284813,2061767432
sw,-70.0093994140625,-59.8737525939941,11.781430076490368,18.73381451385646,2061784099
sw,-69.9142379760742,-60.2412185668945,11.74228770905543,21.97026492436561,2061800766
sw,-69.8011627197265,-60.8442687988281,12.673102265305047,26.276834864190416,2061817433
sw,-69.6321182250976,-61.8449440002441,13.298653960002255,30.655842982583593,2061834100
sw,-69.4389953613281,-63.2588233947753,12.099204871906798,34.32317541223912,2061850767
sw,-69.2714080810546,-64.7106628417968,7.701830714783942,37.01082824373287,2061867434
sw,-69.2390670776367,-65.694709777832,-0.7495214355811879,39.055390337950854,2061884101
sw,-69.4976272583007,-66.1710586547851,-13.356025246487432,41.22074845137076,2061900768
sw,-70.1680374145507,-66.4838256835937,-29.42616698758458,44.32183183433397,2061917435
sw,-71.2410583496093,-66.9753189086914,-47.640961581621646,48.816578542372426,2061934102
sw,-72.7134933471679,-67.923225402832,-66.3600971905989,54.554532404307515,2061950769
sw,-74.6005172729492,-69.424819946289,-83.96562696305276,60.79476887009577,2061967436
sw,-76.7935791015625,-71.0281219482421,-99.13764738455032,66.47412402183421,2061984103
sw,-79.1194305419921,-72.5717468261718,-110.99504591473841,70.59253673834685,2062000770
sw,-81.3873748779296,-74.0106887817382,-119.09819537349071,72.54402833619825,2062017437
sw,-83.48681640625,-75.2253494262695,-123.36868946849192,72.26824772571842,2062034104
sw,-85.1474838256836,-76.2558288574218,-124.0025172885049,70.19116923408042,2062050771
sw,-85.9173049926757,-77.2056579589843,-121.42728269574577,67.0124046932052,2062067438
sw,-85.4385528564453,-78.1587295532226,-116.30131958521116,63.443811049051156,2062084105
sw,-84.1592330932617,-79.1694564819336,-109.50837600637307,59.999622100650775,2062100772
sw,-82.7094345092773,-80.215103149414,-102.09232018901567,56.896519213246364,2062117439
sw,-81.3748168945312,-81.2609329223632,-95.10588623743546,54.07004371641098,2062134106
sw,-80.2238235473632,-82.2983169555664,-89.39864746893504,51.27547951553148,2062150773
sw,-79.0393905639648,-83.2998123168945,-85.41345862908372,48.22608612052485,2062167440
sw,-77.6084518432617,-84.1859741210937,-83.07101899478737,44.72447598400744,2062184107
sw,-76.0483245849609,-84.9372482299804,-81.79035326044742,40.75449970082862,2062200774
sw,-74.5522537231445,-85.5660629272461,-80.63688444886088,36.51535335063755,2062217441
sw,-73.2197723388671,-86.1321868896484,-78.5439066046915,32.39477853407605,2062234108
sw,-72.0769882202148,-86.6708068847656,-74.54240384155011,28.892024240609025,2062250775
sw,-71.0322265625,-87.1931381225586,-67.9542512640645,26.510414218815225,2062267442
sw,-70.0437927246093,-87.6742630004882,-58.529735151672526,25.642531960085506,2062284109
sw,-69.1773223876953,-88.1046295166015,-46.52097687745738,26.47023027580721,2062300776
sw,-68.5343475341796,-88.5568084716796,-32.67821259682025,28.899702403895546,2062317443
sw,-68.2410659790039,-89.1128692626953,-18.152624040236066,32.548830960673556,2062334110
sw,-68.2396850585937,-89.868782043457,-4.302965215993774,36.79752081187602,2062350777
sw,-68.5484848022461,-89.737564086914,7.566553855474061,40.90006892037136,2062367444
sw,-69.0593338012695,-88.8314895629882,16.478357077348537,44.143072395222,2062384111
sw,-69.4880752563476,-87.9156875610351,21.991658790315256,46.016282750045406,2062400778
sw,-69.8312835693359,-86.98046875,24.293621080911443,46.35182071408649,2062417445
sw,-70.3050918579101,-86.0738449096679,24.15043270260053,45.38524597132377,2062434112
sw,-70.859992980957,-85.2702255249023,22.73467369540268,43.705466472357735,2062450779
sw,-71.3656311035156,-84.609878540039,21.367796941206876,42.08967038402127,2062467446
sw,-71.7138900756836,-84.027359008789,21.225336441418236,41.25674263304908,2062484113
sw,-71.9176559448242,-83.449234008789,23.06012662837194,41.60434345203138,2062500780
sw,-72.2242813110351,-82.8531799316406,27.008471999145183,43.00768936208641,2062517447
sw,-72.6983642578125,-82.1966934204101,32.54215927649809,44.74617117679531,2062534114
sw,-73.3131713867187,-81.4555969238281,38.60058326222293,45.59120421883885,2062550781
sw,-74.3491287231445,-80.6790313720703,43.883844701553954,44.04562993999752,2062567448
sw,-75.5389556884765,-79.9481887817382,47.229010874637765,38.68373594630504,2062584115
sw,-76.5638732910156,-79.3639602661132,47.95399336051813,28.512079133883564,2062600782
sw,-77.4075469970703,-78.9824676513671,46.05726857008511,13.261453882229658,2062617449
sw,-78.0751571655273,-78.9056091308593,42.209852490690125,-6.46881940395405,2062634116
sw,-78.6959686279296,-79.2200241088867,37.54801792693844,-29.263571824837413,2062650783
sw,-79.0829925537109,-80.0729675292968,33.33942995659633,-53.14575487967723,2062667450
sw,-79.2758178710937,-81.5036392211914,30.629757545622155,-75.98126098182327,2062684117
sw,-79.5575790405273,-83.273696899414,29.976177315233464,-95.93222985751547,2062700784
sw,-79.9148788452148,-84.430923461914,31.341761564002383,-111.82898362387714,2062717451
sw,-80.3067550659179,-84.2199554443359,34.16892378633341,-123.34903714511434,2062734118
sw,-80.7615203857421,-82.9089279174804,37.58944781266983,-130.95787726360723,2062750785
sw,-81.1399154663086,-81.421760559082,40.688204988789025,-135.6524562814806,2062767452
sw,-81.3996963500976,-80.0611877441406,42.73335886022329,-138.6111559167028,2062784119
sw,-81.5092315673828,-78.6433486938476,43.31421406684666,-140.86515620293034,2062800786
sw,-81.4861145019531,-77.0705261230468,42.37073209374004,-143.07124193814332,2062817453
sw,-81.3072891235351,-75.3242111206054,40.1353565557904,-145.41519428778793,2062834120
sw,-80.9665145874023,-73.3003158569336,37.02556241850511,-147.63605018813456,2062850787
sw,-80.5111312866211,-70.984504699707,33.524667024158056,-149.14146880623042,2062867454
sw,-80.0061340332031,-68.74365234375,30.07811118276159,-149.17476864600667,2062884121
sw,-79.4909057617187,-66.7451400756836,27.021827885381505,-146.99040056172973,2062900788
sw,-78.9875335693359,-64.7898941040039,24.551314985252066,-142.00076355526747,2062917455
sw,-78.5211563110351,-62.8552665710449,22.732006224621546,-133.87345578467148,2062934122
sw,-78.0832443237304,-61.0410461425781,21.54111830746812,-122.57539534374742,2062950789
sw,-77.6399459838867,-59.4555282592773,20.920862509614295,-108.37118536021013,2062967456
sw,-77.2105484008789,-58.0981216430664,20.8191206689711,-91.78807133209645,2062984123
sw,-76.8213500976562,-57.045654296875,21.200466660447443,-73.56157687645909,2063000790
sw,-76.4704666137695,-56.2622299194335,22.02497591375491,-54.574147377926344,2063017457
sw,-76.1217269897461,-55.7198333740234,23.207280891962913,-35.79289810967103,2063034124
sw,-75.7337188720703,-55.4180221557617,24.577691751974378,-18.20371787743411,2063050791
sw,-75.2905578613281,-55.4049339294433,25.86849225783768,-2.732821330405572,2063067458
sw,-74.804946899414,-55.6721572875976,26.741647819507516,9.850203835775934,2063084125
sw,-74.3143463134765,-56.1050872802734,26.860344269785962,19.039692806468473,2063100792
sw,-73.8362808227539,-56.5870971679687,25.989498695962375,24.685342481798873,2063117459
sw,-73.3811340332031,-56.988971710205,24.095776517353034,27.03335035419472,2063134126
sw,-72.9579467773437,-57.3217887878418,21.412033339783385,26.69385487163392,2063150793
sw,-72.5474548339843,-57.6476593017578,18.437272328269763,24.537578030137922,2063167460
sw,-72.1715393066406,-58.1085662841796,15.858995308445852,21.549913873212102,2063184127
sw,-71.8544006347656,-58.6025390625,14.405079042665598,18.67926251616907,2063200794
sw,-71.6042556762695,-59.0000915527343,14.652117807726343,16.706722648429853,2063217461
sw,-71.4043731689453,-59.3448448181152,16.833160303025274,16.1504344768421,2063234128
sw,-71.2045440673828,-59.635440826416,20.696429261930316,17.214175406224758,2063250795
sw,-70.9416198730468,-60.0226440429687,25.462899917039522,19.79451701886464,2063267462
sw,-70.5706176757812,-60.4738616943359,29.910865513840296,23.558371717522824,2063284129
sw,-70.1438064575195,-61.2505226135253,32.58281011900542,28.081761886990506,2063300796
sw,-69.6979141235351,-62.4102668762207,32.074410310251665,33.00775279830885,2063317463
sw,-69.3017578125,-63.5999221801757,27.339527673386492,38.15813377671523,2063334130
sw,-69.0576019287109,-64.4649963378906,17.936646022404588,43.5414861980651,2063350797
sw,-69.03515625,-65.0201263427734,4.153431216724975,49.24612990707655,2063367464
sw,-69.2991714477539,-65.5898971557617,-13.025595750096617,55.270294957706376,2063384131
sw,-69.9136123657226,-66.4451675415039,-32.10402958409504,61.38357090186628,2063400798
sw,-70.9595413208007,-67.7911605834961,-51.36596722222127,67.10066696047961,2063417465
sw,-72.4497604370117,-69.3560333251953,-69.19892909197573,71.78542552248175,2063434132
sw,-74.3038711547851,-70.8674926757812,-84.35949496327613,74.83196907748507,2063450799
sw,-76.4010848999023,-72.3002243041992,-96.11240910508383,75.83717469797097,2063467466
sw,-78.5666809082031,-73.6602401733398,-104.22148016466593,74.69854625820227,2063484133
sw,-80.6805725097656,-74.9029006958007,-108.83007690721664,71.6198627813449,2063500800
sw,-82.7025985717773,-76.0245895385742,-110.30988780923171,67.04777119863728,2063517467
sw,-84.5374374389648,-77.0210494995117,-109.15370523775378,61.57711205476208,2063534134
sw,-85.9238815307617,-77.952392578125,-105.94273206118694,55.85534198000266,2063550801
sw,-86.3876266479492,-78.8649520874023,-101.36139319594679,50.50049298617437,2063567468
sw,-85.8689041137695,-79.7687606811523,-96.19989639959991,46.03361882922961,2063584135
sw,-84.9124221801757,-80.6306762695312,-91.2945760728196,42.82132053175695,2063600802
sw,-83.8030242919921,-81.4452209472656,-87.39777751636727,41.02803329860869,2063617469
sw,-82.6844024658203,-82.2342071533203,-85.01489201671019,40.58746073099936,2063634136
sw,-81.4394149780273,-82.9828109741211,-84.2702322350855,41.20941640508067,2063650803
sw,-79.986457824707,-83.7275848388671,-84.85528565495825,42.43469737722408,2063667470
sw,-78.4058074951171,-84.5470199584961,-86.07988892194857,43.73570703990567,2063684137
sw,-76.8794021606445,-85.4077377319336,-87.00837216775146,44.64114404132193,2063700804
sw,-75.5001983642578,-86.2634582519531,-86.63936137390493,44.848992151633404,2063717471
sw,-74.2070770263671,-87.0799942016601,-84.08861615757081,44.29099045549654,2063734138
sw,-72.939712524414,-87.8213882446289,-78.74967440756107,43.12575185154338,2063750805
sw,-71.7267227172851,-88.4871597290039,-70.41870132318995,41.66190797135456,2063767472
sw,-70.6527709960937,-89.104751586914,-59.36822632671064,40.2376078959439,2063784139
sw,-69.8336410522461,-89.7405624389648,-46.346990788384154,39.098560857397075,2063800806
sw,-69.3232345581054,-89.6948165893554,-32.48546189413451,38.317456032866886,2063817473
sw,-69.1057434082031,-89.0067291259765,-19.106559762931305,37.78288950650854,2063834140
sw,-69.0878067016601,-88.3215866088867,-7.472042881559697,37.26156852991775,2063850807
sw,-69.2557830810546,-87.6198577880859,1.4786438672986524,36.512334970031304,2063867474
sw,-69.5548706054687,-86.934455871582,7.331229176880828,35.41262900069965,2063884141
sw,-69.8065490722656,-86.2595901489257,10.287264988209696,34.0523298433395,2063900808
sw,-70.0096740722656,-85.6322860717773,11.11696828128098,32.757584567430314,2063917475
sw,-70.236701965332,-85.0846633911132,10.983968220814585,32.0263741931204,2063934142
sw,-70.513442993164,-84.5869903564453,11.182191535270693,32.38377942349476,2063950809
sw,-70.8186569213867,-84.0877914428711,12.841876281087659,34.19119649336876,2063967476
sw,-71.0636215209961,-83.5316772460937,16.664511904574983,37.461618553191315,2063984143
sw,-71.2963256835937,-82.8985061645507,22.741950031392054,41.73612432909875,2064000810
sw,-71.6830215454101,-82.1945037841796,30.506299388369438,46.06409762626368,2064017477
sw,-72.2600708007812,-81.4153289794921,38.83900531158841,49.10602731123539,2064034144
sw,-73.1796722412109,-80.5867538452148,46.33264117307355,49.349438864477634,2064050811
sw,-74.4561080932617,-79.7561416625976,51.65088110779133,45.40104501751688,2064067478
sw,-75.6506958007812,-79.0695495605468,53.88911816185237,36.29622309603309,2064084145
sw,-76.6532592773437,-78.5602111816406,52.824896271867544,21.755280510582168,2064100812
sw,-77.4423217773437,-78.3178253173828,48.977740811855014,2.3189691116525233,2064117479
sw,-78.1235809326171,-78.518814086914,43.46167868816374,-20.684379021502593,2064134146
sw,-78.6989440917968,-79.2435531616211,37.68097992054677,-45.3513652779846,2064150813
sw,-78.9751052856445,-80.459976196289,32.963302366933725,-69.55906099402064,2064167480
sw,-79.2149505615234,-81.9977874755859,30.235159714680993,-91.37984162295051,2064184147
sw,-79.4604263305664,-83.4368743896484,29.82611833556012,-109.4441924876505,2064200814
sw,-79.6936874389648,-84.0132293701171,31.44709882707829,-123.14875747033544,2064217481
sw,-79.97607421875,-83.4464416503906,34.334906850429824,-132.6554161885938,2064234148
sw,-80.3027191162109,-82.2903213500976,37.50639623003526,-138.69957647488306,2064250815
sw,-80.6272430419921,-80.9432067871093,40.03839518300393,-142.28973069923856,2064267482
sw,-80.8550567626953,-79.3834609985351,41.291648626090776,-144.40415743983328,2064284149
sw,-80.9348831176757,-77.6544876098632,41.025051760333554,-145.76690839961844,2064300816
sw,-80.8029632568359,-75.8627777099609,39.3879329851476,-146.73681627639456,2064317483
sw,-80.5062866210937,-73.9347457885742,36.81631760199325,-147.30258564709334,2064334150
sw,-80.0830001831054,-71.7675247192382,33.88036742136174,-147.15825493604103,2064350817
sw,-79.5576782226562,-69.5499877929687,31.131078851598136,-145.82824271833812,2064367484
sw,-78.9731369018554,-67.5234375,28.98164015560245,-142.80878239969994,2064384151
sw,-78.3878784179687,-65.6287078857421,27.642520978989467,-137.6932230714611,2064400818
sw,-77.8100128173828,-63.7829437255859,27.11488471160923,-130.25735955898682,2064417485
sw,-77.2750701904296,-61.9967613220214,27.234438985162214,-120.49552730314919,2064434152
sw,-76.7972412109375,-60.4118003845214,27.747095536062233,-108.61160368251443,2064450819
sw,-76.345100402832,-59.0742454528808,28.391308075676225,-94.97786774550511,2064467486
sw,-75.9295806884765,-57.9612731933593,28.962761286962152,-80.0795460470359,2064484153
sw,-75.5491027832031,-57.0827980041503,29.345271775973742,-64.46345984991929,2064500820
sw,-75.181411743164,-56.400405883789,29.50425115110973,-48.703525210244926,2064517487
sw,-74.79931640625,-55.8877143859863,29.451832513592468,-33.38432743348147,2064534154
sw,-74.3604507446289,-55.6248779296875,29.20202645543645,-19.09142446851645,2064550821
sw,-73.8529586791992,-55.5658569335937,28.73682727623858,-6.390548725619029,2064567488
sw,-73.3111953735351,-55.6946182250976,27.99863619939372,4.217627226136248,2064584155
sw,-72.7918548583984,-55.9473114013671,26.912974258165058,12.366278281744934,2064600822
sw,-72.3157043457031,-56.2414512634277,25.433493770151134,17.89760365316672,2064617489
sw,-71.888931274414,-56.5753746032714,23.593438493604005,20.918305483376585,2064634156
sw,-71.4958190917968,-56.9624099731445,21.545298581677013,21.812366008439568,2064650823
sw,-71.1147384643554,-57.4277801513671,19.572307475684163,21.20002846256055,2064667490
sw,-70.7455596923828,-57.9700546264648,18.06028964617918,19.845135886135022,2064684157
sw,-70.3981246948242,-58.4810104370117,17.42572381321752,18.522979396650292,2064700824
sw,-70.1153259277343,-58.8849868774414,18.00597657192765,17.869560414071646,2064717491
sw,-69.8873825073242,-59.19091796875,19.930269661072288,18.244926326467862,2064734158
sw,-69.6602783203125,-59.4756202697753,23.002438846000153,19.65541419936352,2064750825
sw,-69.4127655029296,-59.8961296081543,26.63341733581847,21.77924913132211,2064767492
sw,-69.1272659301757,-60.6200523376464,29.85704951975693,24.112834653970996,2064784159
sw,-68.8119964599609,-61.6333999633789,31.445633599772776,26.202309408406585,2064800826
sw,-68.4936904907226,-62.7095375061035,30.115463321975053,27.870978624752393,2064817493
sw,-68.1978759765625,-63.5740699768066,24.78549136813633,29.334536840322965,2064834160
sw,-68.0048751831054,-64.1794662475586,14.832134409228141,31.134872788972196,2064850827
sw,-68.0514221191406,-64.5864562988281,0.2756314492309401,33.90715972411244,2064867494
sw,-68.4347991943359,-65.0323867797851,-18.15839154392741,38.08048624241122,2064884161
sw,-69.2845077514648,-65.7079696655273,-39.13187590507935,43.651637354037106,2064900828
sw,-70.7855834960937,-66.8340606689453,-60.92778319403086,50.14109069836439,2064917495
sw,-72.8506469726562,-68.3603210449218,-81.76073121239959,56.75343993322902,2064934162
sw,-75.2476043701171,-69.9043731689453,-100.07025312073885,62.66567587760359,2064950829
sw,-77.7429809570312,-71.3208541870117,-114.71264356429302,67.30834378631282,2064967496
sw,-80.1334915161132,-72.5783081054687,-125.0214582166234,70.51642862770805,2064984163
sw,-82.4168243408203,-73.707405090332,-130.773398992058,72.4975306638038,2065000830
sw,-84.492919921875,-74.8011474609375,-132.13066631031845,73.65158681242133,2065017497
sw,-85.9798583984375,-75.9362030029296,-129.6107489486873,74.33509377999107,2065034164
sw,-86.1559066772461,-77.1454391479492,-124.0793748002092,74.67296719731927,2065050831
sw,-85.1438064575195,-78.4383544921875,-116.71549908863602,74.48919095770614,2065067498
sw,-83.7527999877929,-79.8008880615234,-108.89190925973011,73.37479550449324,2065084165
sw,-82.310302734375,-81.1906585693359,-101.95317917611055,70.86099197096055,2065100832
sw,-81.009536743164,-82.5298156738281,-96.92986103557752,66.63187898818543,2065117499
sw,-79.697525024414,-83.7325286865234,-94.27246475291685,60.70198943741459,2065134166
sw,-78.1910324096679,-84.7496185302734,-93.69881091019042,53.49872177924029,2065150833
sw,-76.4886398315429,-85.577651977539,-94.2182781689595,45.82159699473079,2065167500
sw,-74.7736053466796,-86.2320480346679,-94.33931603259447,38.688097737758525,2065184167
sw,-73.1661300659179,-86.7588882446289,-92.40914886567877,33.1082298135079,2065200834
sw,-71.7288665771484,-87.196907043457,-87.00173781702132,29.849012036739477,2065217501
sw,-70.4370193481445,-87.6290893554687,-77.26777590892708,29.252205930670225,2065234168
sw,-69.2515182495117,-88.1294708251953,-63.175599854351546,31.15381175096743,2065250835
sw,-68.2494506835937,-88.7615661621093,-45.58950267611647,34.926081141321475,2065267502
sw,-67.7152938842773,-89.5950698852539,-26.1515882404412,39.62969678060627,2065284169
sw,-67.7707061767578,-90.0,-6.967224383786329,44.234938715573506,2065300836
sw,-68.2829818725586,-88.8781280517578,9.851477660051668,47.854265519620576,2065317503
sw,-69.0506820678711,-87.9301071166992,22.67140850358525,49.92851282429927,2065334170
sw,-69.7794418334961,-87.0266494750976,30.712403767346565,50.32320116450261,2065350837
sw,-70.2621536254882,-86.1672821044921,34.19550502989983,49.3146900075548,2065367504
sw,-70.743911743164,-85.3501281738281,34.22730876679073,47.471359507246504,2065384171
sw,-71.4453048706054,-84.5874938964843,32.46822577552606,45.457300938834976,2065400838
sw,-72.1026840209961,-83.9254302978515,30.687532467660358,43.80254487904196,2065417505
sw,-72.5315246582031,-83.3300857543945,30.31919479996224,42.69372062328137,2065434172
sw,-72.899658203125,-82.7485656738281,32.117795104751856,41.84031523263431,2065450839
sw,-73.3361740112304,-82.1521759033203,35.993173725173726,40.460800116913575,2065467506
sw,-73.942512512207,-81.5290985107421,41.07338012338124,37.40787893438728,2065484173
sw,-74.8463897705078,-80.973876953125,45.99537656398117,31.416845540471314,2065500840
sw,-76.2577819824218,-80.5016098022461,49.353394278144606,21.425145265320328,2065517507
sw,-77.5950012207031,-80.225112915039,50.17021874966095,6.885596475154643,2065534174
sw,-78.6186904907226,-80.1850204467773,48.23196077207202,-12.011824223335596,2065550841
sw,-79.390625,-80.5033416748046,44.16535763474143,-34.280360905024544,2065567508
sw,-79.9891281127929,-81.3274688720703,39.2288514539355,-58.27288504817754,2065584175
sw,-80.3282775878906,-82.7391204833984,34.89361204401657,-81.99321767589082,2065600842
sw,-80.3886947631836,-84.1012649536132,32.3636226241483,-103.50238534970921,2065617509
sw,-80.5964889526367,-84.3085327148437,32.200854590582246,-121.30243728971453,2065634176
sw,-80.9641494750976,-83.1207199096679,34.179961505133335,-134.58838426398603,2065650843
sw,-81.3770751953125,-81.298843383789,37.410926520092026,-143.3118015013545,2065667510
sw,-81.9449691772461,-79.5736083984375,40.669298073235375,-148.06696626978794,2065684177
sw,-82.5348205566406,-78.1240005493164,42.80277368186528,-149.85604183448677,2065700844
sw,-82.8419036865234,-76.7130889892578,43.06821842231762,-149.802380964351,2065717511
sw,-82.82666015625,-75.0622482299804,41.29593166885171,-148.87411926376873,2065734178
sw,-82.4931335449218,-73.1671981811523,37.854600719671346,-147.66937049173077,2065750845
sw,-81.9316024780273,-71.0558929443359,33.4651333180639,-146.3019297160413,2065767512
sw,-81.30810546875,-68.8194961547851,28.95371549072406,-144.40725975440566,2065784179
sw,-80.7469406127929,-66.7499923706054,25.033539407937294,-141.26252312442017,2065800846
sw,-80.2264404296875,-64.7758712768554,22.17223678186545,-135.9896767647747,2065817513
sw,-79.7239837646484,-62.8807373046875,20.559664164668533,-127.79558453411641,2065834180
sw,-79.2568283081054,-61.1308364868164,20.15601759331506,-116.19917585751396,2065850847
sw,-78.8041305541992,-59.5593795776367,20.781194615855583,-101.20009052177318,2065867514
sw,-78.3409881591796,-58.2178153991699,22.203267038335095,-83.35461380706272,2065884181
sw,-77.85009765625,-57.1907882690429,24.19437711894907,-63.74226773539657,2065900848
sw,-77.3372344970703,-56.4867782592773,26.542137096212517,-43.82686991475457,2065917515
sw,-76.8198318481445,-56.1043739318847,29.026587517715054,-25.234537875429563,2065934182
sw,-76.3093338012695,-55.9648780822753,31.388185285325704,-9.485221722382455,2065950849
sw,-75.7755584716796,-56.1409606933593,33.31523535968159,2.2761029075077075,2065967516
sw,-75.1682357788086,-56.4759407043457,34.46964787321949,9.496751975820688,2065984183
sw,-74.5002288818359,-56.7349281311035,34.552522121096324,12.331000660095121,2066000850
sw,-73.8236846923828,-56.869457244873,33.392316573891584,11.614704123314203,2066017517
sw,-73.1772232055664,-56.848518371582,31.0251964216071,8.693667857067048,2066034184
sw,-72.619140625,-56.7324333190918,27.735207881135494,5.141700563610829,2066050851
sw,-72.1805267333984,-56.6458854675293,24.032333597941914,2.4404580674696374,2066067518
sw,-71.8429260253906,-56.7062110900878,20.56468073375263,1.705567489473971,2066084185
sw,-71.552375793457,-56.9446449279785,17.980200534794182,3.5239979919071236,2066100852
sw,-71.2331924438476,-57.3554573059082,16.768325057372582,7.924089323342691,2066117519
sw,-70.880989074707,-57.861701965332,17.11972157302039,14.453662112221686,2066134186
sw,-70.5442886352539,-58.3782157897949,18.840734949244535,22.316328004162422,2066150853
sw,-70.2252960205078,-58.9173202514648,21.347221513369146,30.52138180964546,2066167520
sw,-69.9046401977539,-59.5770988464355,23.74313585454564,38.02900569715032,2066184187
sw,-69.6009979248046,-60.4040069580078,24.968768709910815,43.89767001440359,2066200854
sw,-69.3399581909179,-61.418960571289,23.988809291765737,47.44415437036007,2066217521
sw,-69.1238098144531,-62.8057823181152,19.984548215304063,48.40329264639792,2066234188
sw,-68.9808883666992,-64.3247451782226,12.515405897707906,47.0386720899808,2066250855
sw,-68.9506301879882,-65.5080032348632,1.6186967079569003,44.13524497755855,2066267522
sw,-69.1384506225586,-66.1792602539062,-12.177220121968103,40.82719784627499,2066284189
sw,-69.638557434082,-66.5452804565429,-27.938584576558288,38.28319184437686,2066300856
sw,-70.5560455322265,-66.8529510498046,-44.50040521209785,37.3527827466022,2066317523
sw,-71.9537887573242,-67.4206924438476,-60.68944718697195,38.318278403061875,2066334190
sw,-73.7704772949218,-68.4418029785156,-75.53107972308773,40.86119486304871,2066350857
sw,-75.8916473388671,-69.711669921875,-88.37048557843266,44.255808956316265,2066367524
sw,-78.1349716186523,-70.9906692504882,-98.86758846207951,47.697803430643816,2066384191
sw,-80.3420028686523,-72.1869277954101,-106.8832200311855,50.620757523405075,2066400858
sw,-82.5120849609375,-73.2206802368164,-112.3337569959437,52.87165797102773,2066417525
sw,-84.6363067626953,-74.0773391723632,-115.11262169037862,54.69028205064772,2066434192
sw,-86.3916931152343,-74.861213684082,-115.13692178095363,56.524118723360424,2066450859
sw,-86.9180297851562,-75.7156295776367,-112.49547879917203,58.77162101743308,2066467526
sw,-85.9964981079101,-76.6984176635742,-107.60331418266715,61.561944198746886,2066484193
sw,-84.6525115966796,-77.8517303466796,-101.2539903330476,64.65084448151183,2066500860
sw,-83.3985900878906,-79.1309814453125,-94.51190839584895,67.4594742038207,2066517527
sw,-82.2731246948242,-80.4858474731445,-88.46889842753878,69.23081900573749,2066534194
sw,-81.1651992797851,-81.8380813598632,-83.95677162207473,69.24591231878856,2066550861
sw,-79.8924331665039,-83.099250793457,-81.32710156875217,67.03413000252593,2066567528
sw,-78.3751602172851,-84.2087783813476,-80.37577564279354,62.52379899785941,2066584195
sw,-76.8169784545898,-85.1873321533203,-80.42423290520965,56.10159152050263,2066600862
sw,-75.379280090332,-86.0580215454101,-80.50852100104105,48.57246189937421,2066617529
sw,-74.1070251464843,-86.8286819458007,-79.60231773678072,41.03008394312287,2066634196
sw,-72.9619445800781,-87.4894714355468,-76.81598023824064,34.6597585219911,2066650863
sw,-71.8387451171875,-88.0305938720703,-71.54800027661123,30.504894382313786,2066667530
sw,-70.7246322631836,-88.4726181030273,-63.58827266300957,29.237902230529688,2066684197
sw,-69.7103424072265,-88.8921737670898,-53.17175947405395,30.985420258314445,2066700864
sw,-68.9802703857421,-89.4009552001953,-40.96808158704698,35.259237223675356,2066717531
sw,-68.5977935791015,-90.0,-27.989446368685638,41.029683696879914,2066734198
sw,-68.5129318237304,-89.2131652832031,-15.417920127577109,46.94452153540065,2066750865
sw,-68.5865097045898,-88.0527801513671,-4.38439049330669,51.65065343404639,2066767532
sw,-68.7402877807617,-86.8749465942382,4.245809389427961,54.13518872910743,2066784199
sw,-68.9347915649414,-85.7920684814453,10.026999381984341,53.98587186732346,2066800866
sw,-69.1895523071289,-84.8528518676757,12.996244226560119,51.48962369937991,2066817533
sw,-69.501235961914,-84.10009765625,13.643546616785095,47.53719017876324,2066834200
sw,-69.8605728149414,-83.5088577270507,12.807199034187184,43.3626946609472,2066850867
sw,-70.1826705932617,-83.0059738159179,11.519109800719502,40.19602324680219,2066867534
sw,-70.4476318359375,-82.4783020019531,10.823918709172004,38.926801847946244,2066884201
sw,-70.7142181396484,-81.8698348999023,11.594355897392722,39.8668632569773,2066900868
sw,-71.0452651977539,-81.1182098388671,14.366409877989593,42.66126518309686,2066917535
sw,-71.4193572998046,-80.2454681396484,19.21981005238321,46.35177675502074,2066934202
sw,-71.7718124389648,-79.3406295776367,25.730101263005125,49.55843262048495,2066950869
sw,-72.1799774169921,-78.4857177734375,33.01669300365096,50.72606431477998,2066967536
sw,-72.7566604614257,-77.7325973510742,39.90188097545124,48.38538713760507,2066984203
sw,-73.8227996826171,-77.0912246704101,45.17099472046603,41.39348900587818,2067000870
sw,-75.0070724487304,-76.5950698852539,47.88309481168059,29.13268695165997,2067017537
sw,-75.9437866210937,-76.3147583007812,47.6433373767712,11.650139585898764,2067034204
sw,-76.781623840332,-76.2993087768554,44.74134009995393,-10.285566714792585,2067050871
sw,-77.5337524414062,-76.6553268432617,40.09785462074931,-35.23974129571231,2067067538
sw,-78.0761642456054,-77.5284652709961,35.02759720459234,-61.29868602580579,2067084205
sw,-78.341194152832,-78.9545211791992,30.888294724531857,-86.37848769846713,2067100872
sw,-78.5049972534179,-80.6592483520507,28.72334159848781,-108.60075303511421,2067117539
sw,-78.7730026245117,-82.0707855224609,29.00836862761121,-126.64130911125709,2067134206
sw,-79.1216735839843,-82.5865402221679,31.577209562649504,-139.949008943561,2067150873
sw,-79.6771163940429,-82.0884552001953,35.73823263141467,-148.76604927946155,2067167540
sw,-80.3095169067382,-81.200698852539,40.52249727512033,-153.94786807238626,2067184207
sw,-80.818618774414,-80.2608871459961,44.96228851102706,-156.6493174561618,2067200874
sw,-81.0930938720703,-79.0379180908203,48.30198310825544,-157.9816916324561,2067217541
sw,-81.1187667846679,-77.4419174194336,50.08855290219975,-158.7381228463149,2067234208
sw,-80.9094085693359,-75.5205688476562,50.15003003614803,-159.24598613298494,2067250875
sw,-80.5550231933593,-73.3408279418945,48.51435312611711,-159.3605184726813,2067267542
sw,-80.141372680664,-70.920539855957,45.32898066644989,-158.5794647669113,2067284209
sw,-79.6936721801757,-68.5670471191406,40.81778971985406,-156.23417771149886,2067300876
sw,-79.2001190185546,-66.4097213745117,35.27760774961785,-151.69767524155046,2067317543
sw,-78.6601943969726,-64.3942489624023,29.093785044907918,-144.55141615948406,2067334210
sw,-78.1599655151367,-62.6016616821289,22.74947593952954,-134.67346537950394,2067350877
sw,-77.7318801879882,-60.9785079956054,16.80952458015099,-122.24239430220317,2067367544
sw,-77.3258056640625,-59.5457115173339,11.868532351749918,-107.67864300908616,2067384211
sw,-76.9149627685546,-58.3167839050293,8.463144663765485,-91.55817001136114,2067400878
sw,-76.4686508178711,-57.3577651977539,6.963393817066929,-74.53115158225106,2067417545
sw,-76.0015716552734,-56.622573852539,7.473709237325137,-57.26648388681824,2067434212
sw,-75.5414123535156,-56.0635681152343,9.781364363549104,-40.42690315845368,2067450879
sw,-75.0959091186523,-55.6569786071777,13.38096747993965,-24.66372569043799,2067467546
sw,-74.6432418823242,-55.5325622558593,17.5791399205124,-10.608735574145223,2067484213
sw,-74.1764755249023,-55.6216278076171,21.65362425542553,1.160182521399809,2067500880
sw,-73.7011337280273,-55.8420486450195,25.019232129688724,10.189849162191885,2067517547
sw,-73.2401885986328,-56.1473808288574,27.34963335244534,16.247108819741367,2067534214
sw,-72.7738342285156,-56.534568786621,28.620988698260874,19.407876465413818,2067550881
sw,-72.2689437866211,-56.9996452331543,29.072780456545086,20.103200380506653,2067567548
sw,-71.7134857177734,-57.5330123901367,29.108365740844995,19.093923547273477,2067584215
sw,-71.1427612304687,-58.0569038391113,29.17018446362676,17.363277690572165,2067600882
sw,-70.6031036376953,-58.5242156982421,29.61956973066416,15.938525291580738,2067617549
sw,-70.1148834228515,-58.8740043640136,30.637098008430026,15.675017165179934,2067634216
sw,-69.691177368164,-59.1253471374511,32.14874781978203,17.055579763073677,2067650883
sw,-69.2900924682617,-59.3813705444335,33.78273682757548,20.068875474180015,2067667550
sw,-68.8702697753906,-59.822021484375,34.86884338251506,24.222321090836726,2067684217
sw,-68.4423675537109,-60.63472366333,34.49715347309955,28.709847026367875,2067700884
sw,-68.0495529174804,-61.8197898864746,31.64856517402002,32.69585249629979,2067717551
sw,-67.7060012817382,-62.9973754882812,25.392668912499936,35.61731734163984,2067734218
sw,-67.4259567260742,-63.9645118713378,15.12306201344679,37.38191717230744,2067750885
sw,-67.3173675537109,-64.7125244140625,0.7738735891680963,38.37548412303875,2067767552
sw,-67.5661697387695,-65.2926406860351,-17.053322150875523,39.27631668559524,2067784219
sw,-68.2725601196289,-65.8622360229492,-37.113107242422814,40.76230536310756,2067800886
sw,-69.5171737670898,-66.5998764038086,-57.71169529557624,43.24152299915069,2067817553
sw,-71.3420791625976,-67.655403137207,-77.03606480966177,46.71677479288891,2067834220
sw,-73.6333999633789,-68.9102706909179,-93.52264901891516,50.824551081611965,2067850887
sw,-76.1994323730468,-70.1414566040039,-106.14780473172917,55.0077936252592,2067867554
sw,-78.7100143432617,-71.3254089355468,-114.54900619318575,58.73056570390368,2067884221
sw,-81.075927734375,-72.4572448730468,-118.95606918538023,61.64154407734575,2067900888
sw,-83.2827072143554,-73.5775604248046,-119.99124561602883,63.63324623989818,2067917555
sw,-85.2492294311523,-74.6748504638671,-118.44170284005278,64.79735201219084,2067934222
sw,-86.6937026977539,-75.7167282104492,-115.09445063269456,65.31715462284697,2067950889
sw,-86.9324188232421,-76.7635040283203,-110.66678124867616,65.35376242992935,2067967556
sw,-85.8832015991211,-77.8653564453125,-105.8042974049683,64.97402247383698,2067984223
sw,-84.32470703125,-79.0284729003906,-101.08811645419452,64.14319592118532,2068000890
sw,-82.743911743164,-80.2113647460937,-97.00262512109649,62.77524559276709,2068017557
sw,-81.2980270385742,-81.378662109375,-93.85231814357421,60.81009839655146,2068034224
sw,-79.9134368896484,-82.4760284423828,-91.65802847541542,58.27935766482691,2068050891
sw,-78.4292068481445,-83.455337524414,-90.08742639207625,55.33155002445914,2068067558
sw,-76.8850021362304,-84.3257446289062,-88.46924952052377,52.2091602735997,2068084225
sw,-75.4042282104492,-85.1516418457031,-85.90871872123081,49.19167585068823,2068100892
sw,-74.0476837158203,-85.9687194824218,-81.48191444036043,46.53117147470734,2068117559
sw,-72.832046508789,-86.7636642456054,-74.46061164567335,44.40491266583463,2068134226
sw,-71.7745895385742,-87.5425033569336,-64.51405407623423,42.89663446810356,2068150893
sw,-70.8806228637695,-88.308120727539,-51.84315781096456,42.003363975210135,2068167560
sw,-70.1660766601562,-89.0861434936523,-37.2148778671752,41.65567165113663,2068184227
sw,-69.7210083007812,-90.0,-21.876780752611435,41.73882022117973,2068200894
sw,-69.647232055664,-89.8368682861328,-7.349724636156002,42.10846436167734,2068217561
sw,-69.9323577880859,-88.9186325073242,4.874242578912913,42.602899724020205,2068234228
sw,-70.4256820678711,-88.1778030395507,13.665413550079805,43.059530043658796,2068250895
sw,-70.9794311523437,-87.4405975341796,18.53196063027144,43.34267784234987,2068267562
sw,-71.3671188354492,-86.6761627197265,19.75204447541488,43.38237573677853,2068284229
sw,-71.6496963500976,-85.874267578125,18.316938546686757,43.212227188380275,2068300896
sw,-72.0007629394531,-85.0553359985351,15.6990494725646,42.984755243704114,2068317563
sw,-72.3374786376953,-84.2714233398437,13.50904060290136,42.941691068437734,2068334230
sw,-72.6018753051757,-83.573371887207,13.127965559524151,43.32857293181902,2068350897
sw,-72.8679733276367,-82.9132461547851,15.395308599726018,44.2656935597162,2068367564
sw,-73.1805877685546,-82.2503280639648,20.416215598902323,45.61149388432249,2068384231
sw,-73.5627899169921,-81.5533599853515,27.53004814418333,46.867756631798734,2068400898
sw,-74.1049575805664,-80.8067474365234,35.456812365062426,47.17088087977684,2068417565
sw,-74.8331451416015,-80.0662155151367,42.60413680631301,45.39172690679504,2068434232
sw,-75.9688949584961,-79.4099807739257,47.47550502089083,40.33659892650609,2068450899
sw,-77.2566909790039,-78.8710784912109,49.078978514521275,31.013408891279266,2068467566
sw,-78.3467636108398,-78.4917907714843,47.21373633827217,16.90578658930949,2068484233
sw,-79.1915435791015,-78.3001937866211,42.531779988029676,-1.8137977773511498,2068500900
sw,-79.6172866821289,-78.4068603515625,36.34094096413786,-24.200067065632425,2068517567
sw,-79.7704772949218,-79.0422821044921,30.210060776528188,-48.628860437472056,2068534234
sw,-79.8433456420898,-80.3445739746093,25.514199586914618,-73.0742061268933,2068550901
sw,-80.0986099243164,-82.0761337280273,23.078591390727933,-95.51221460575059,2068567568
sw,-80.3429870605468,-83.6716995239257,23.03453796108682,-114.33959600978079,2068584235
sw,-80.6310119628906,-84.2064819335937,24.91176289923156,-128.6768464687657,2068600902
sw,-81.1650009155273,-83.3601455688476,27.901963056143686,-138.4641608965117,2068617569
sw,-81.6680603027343,-81.9684524536132,31.173999265652252,-144.3372563605882,2068634236
sw,-81.9523391723632,-80.5291671752929,34.118883281593355,-147.34918030855573,2068650903
sw,-81.9920501708984,-79.0225601196289,36.44853820159192,-148.64222816013793,2068667570
sw,-81.8153762817382,-77.3821640014648,38.144639958050774,-149.1610802944358,2068684237
sw,-81.5439758300781,-75.6567764282226,39.318447718423364,-149.45928066196456,2068700904
sw,-81.2532730102539,-73.6835861206054,40.06837741358033,-149.61843071680883,2068717571
sw,-80.9171905517578,-71.3673477172851,40.40101848721702,-149.2811886174961,2068734238
sw,-80.4708557128906,-68.9669418334961,40.23330691692887,-147.78230184012034,2068750905
sw,-79.9034576416015,-66.8022994995117,39.4512712023949,-144.34016939415673,2068767572
sw,-79.3218536376953,-64.8534317016601,37.98531447028783,-138.257100318319,2068784239
sw,-78.7921371459961,-63.0073127746582,35.870545350526726,-129.08229326980785,2068800906
sw,-78.3250350952148,-61.2270202636718,33.27591766743314,-116.71275212991506,2068817573
sw,-77.8941268920898,-59.6865997314453,30.4957394329968,-101.42794651412744,2068834240
sw,-77.4767379760742,-58.4448432922363,27.902739858333838,-83.86494641596981,2068850907
sw,-77.0641174316406,-57.5391044616699,25.869676994829348,-64.94463752859149,2068867574
sw,-76.6304092407226,-56.8960189819335,24.67716476396451,-45.761874534374996,2068884241
sw,-76.1527557373046,-56.4780387878418,24.433572789367968,-27.454084981906394,2068900908
sw,-75.6219940185546,-56.3546257019043,25.033295837175025,-11.062539200584947,2068917575
sw,-75.0486297607421,-56.5097427368164,26.171382343378486,2.6003674293184105,2068934242
sw,-74.4591979980468,-56.8381080627441,27.41772440578163,13.062224290398678,2068950909
sw,-73.8739166259765,-57.2365913391113,28.33623088181976,20.259151664710018,2068967576
sw,-73.3164291381836,-57.6140594482421,28.617780094598658,24.538980449587022,2068984243
sw,-72.7839660644531,-58.0100402832031,28.185380813588292,26.585707695943675,2069000910
sw,-72.2707366943359,-58.4588661193847,27.2311597663299,27.273051181103497,2069017577
sw,-71.7922134399414,-59.039077758789,26.160595530756346,27.478491512114225,2069034244
sw,-71.3438262939453,-59.6976699829101,25.44779392081344,27.90273294823825,2069050911
sw,-70.9328384399414,-60.3338813781738,25.43840084684321,28.937794815316444,2069067578
sw,-70.5567855834961,-60.9118995666503,26.16194905066417,30.61510234450143,2069084245
sw,-70.200569152832,-61.458023071289,27.221729832162207,32.650417686339,2069100912
sw,-69.8309936523437,-62.0778770446777,27.811887200318758,34.585166025429615,2069117579
sw,-69.4079971313476,-62.955337524414,26.871796583849047,35.99760244175212,2069134246
sw,-68.98828125,-64.3056030273437,23.34051962236851,36.722388083130724,2069150913
sw,-68.6409759521484,-65.6018676757812,16.438212403171043,36.98928701289823,2069167580
sw,-68.4490585327148,-66.396858215332,5.891321729264863,37.39819233217998,2069184247
sw,-68.5328369140625,-66.8098831176757,-7.963644646954602,38.706458571648916,2069200914
sw,-68.9433212280273,-67.1377029418945,-24.2264477666748,41.49851110109939,2069217581
sw,-69.6947937011718,-67.6905212402343,-41.616174856025175,45.88345255042899,2069234248
sw,-70.799201965332,-68.7171783447265,-58.74042006478402,51.369959665178854,2069250915
sw,-72.3153762817382,-70.1856307983398,-74.3748691149967,56.988508631512396,2069267582
sw,-74.2247161865234,-71.7808456420898,-87.67162564144145,61.61200873296076,2069284249
sw,-76.414321899414,-73.2332611083984,-98.23468472463404,64.33470617037571,2069300916
sw,-78.6948089599609,-74.4891891479492,-106.04808877291894,64.75331965400738,2069317583
sw,-80.9242935180664,-75.5429153442382,-111.30332369122932,63.05363959142697,2069334250
sw,-83.0636444091796,-76.4528884887695,-114.2184713648203,59.898789532559796,2069350917
sw,-84.9356994628906,-77.359260559082,-114.94251849871257,56.19129204030625,2069367584
sw,-86.1571273803711,-78.2857131958007,-113.5873648642359,52.80998606871573,2069384251
sw,-86.1135482788086,-79.1933975219726,-110.35478764023783,50.40489437442021,2069400918
sw,-85.0363540649414,-80.0830001831054,-105.6699583442804,49.290302174982195,2069417585
sw,-83.6602401733398,-81.0059967041015,-100.22749224855993,49.435577196333206,2069434252
sw,-82.2558975219726,-81.9699935913086,-94.89991790686888,50.530740348019194,2069450919
sw,-80.9930953979492,-82.9137954711914,-90.5258141037742,52.09903624633217,2069467586
sw,-79.7851181030273,-83.8675155639648,-87.65229180391536,53.63153602465166,2069484253
sw,-78.4403305053711,-84.8689727783203,-86.32983188635984,54.71986017295077,2069500920
sw,-76.9026412963867,-85.890869140625,-86.03936126361582,55.16030197188599,2069517587
sw,-75.327392578125,-86.8715057373046,-85.78223635114676,55.00122133107115,2069534254
sw,-73.8563537597656,-87.7537078857421,-84.30755031426867,54.51363575478055,2069550921
sw,-72.5448608398437,-88.5184020996093,-80.41304174633704,54.08584192981227,2069567588
sw,-71.3317642211914,-89.0504455566406,-73.2458414958926,54.070468033940266,2069584255
sw,-70.2010650634765,-88.9280853271484,-62.53808925780775,54.633731295109484,2069600922
sw,-69.2214050292968,-88.2972793579101,-48.72538893412337,55.660914251656045,2069617589
sw,-68.4993438720703,-87.4743881225586,-32.90966038531906,56.756637637612656,2069634256
sw,-68.2191772460937,-86.5430526733398,-16.651832138383643,57.348933411292165,2069650923
sw,-68.497932434082,-85.4930725097656,-1.6232368782994604,56.8715678043854,2069667590
sw,-69.2224349975586,-84.3862991333007,10.799580367703099,54.96915054894817,2069684257
sw,-69.8873825073242,-83.2961883544921,19.87137256989906,51.65374421456978,2069700924
sw,-70.201431274414,-82.3814010620117,25.628700821597548,47.34815420222473,2069717591
sw,-70.5236511230468,-81.6736221313476,28.803010130146795,42.78285519553377,2069734258
sw,-71.1147842407226,-81.1645812988281,30.536668458685995,38.76350085261364,2069750925
sw,-71.6871566772461,-80.7601852416992,32.008049347180474,35.87639305121064,2069767592
sw,-72.139289855957,-80.3534317016601,34.084237705523485,34.22889773007558,2069784259
sw,-72.6465911865234,-79.9048614501953,37.09368938610032,33.31705101446079,2069800926
sw,-73.2135009765625,-79.3863754272461,40.772711727954174,32.074705706245126,2069817593
sw,-73.9683456420898,-78.8067626953125,44.39780614469336,29.101823164960635,2069834260
sw,-75.1266479492187,-78.2478332519531,47.06738098775164,23.013759392034242,2069850927
sw,-76.3559112548828,-77.8932189941406,48.04665411939183,12.816329499999322,2069867594
sw,-77.4025039672851,-77.7938995361328,47.05916800074418,-1.7964699092510694,2069884261
sw,-78.2441635131836,-78.0044174194336,44.41915211612079,-20.303548938181027,2069900928
sw,-78.9285430908203,-78.6277465820312,40.9543976730658,-41.41578018072016,2069917595
sw,-79.4072723388671,-79.7133636474609,37.746817753238815,-63.32189708143798,2069934262
sw,-79.8082122802734,-81.2316436767578,35.783392574372556,-84.06287062971826,2069950929
sw,-80.1943969726562,-83.0924377441406,35.639053440766915,-101.9412710324368,2069967596
sw,-80.4347229003906,-85.0119018554687,37.29830182371486,-115.85826240190283,2069984263
sw,-80.707534790039,-85.9431991577148,40.17201866514661,-125.48638245145055,2070000930
sw,-81.220588684082,-84.9473571777343,43.29788491685951,-131.23333466804823,2070017597
sw,-81.818130493164,-83.0419082641601,45.649987313068024,-134.0205163017817,2070034264
sw,-82.2375183105468,-81.1407775878906,46.44844718728466,-134.96382069639085,2070050931
sw,-82.5115356445312,-79.2925109863281,45.36799217280669,-135.0704966308836,2070067598
sw,-82.6153106689453,-77.3987350463867,42.59051326405446,-135.03864413086646,2070084265
sw,-82.468032836914,-75.5769271850586,38.70603721050916,-135.1843300270507,2070100932
sw,-82.0585861206054,-73.8277816772461,34.51218122973258,-135.4671478131333,2070117599
sw,-81.4498062133789,-71.9429931640625,30.782421899263134,-135.5675815876026,2070134266
sw,-80.7491455078125,-69.8750610351562,28.07130799027909,-134.98311018330733,2070150933
sw,-80.0648727416992,-67.86376953125,26.606476552407518,-133.12814148183887,2070167600
sw,-79.4755249023437,-66.0599975585937,26.28803273527626,-129.42964796491276,2070184267
sw,-79.0029907226562,-64.3232803344726,26.78172023889409,-123.41080468556214,2070200934
sw,-78.6071701049804,-62.6614952087402,27.6631356140185,-114.75818116915327,2070217601
sw,-78.2134475708007,-61.1696243286132,28.55732493437556,-103.37321785135781,2070234268
sw,-77.7777786254882,-59.8932800292968,29.227573797128404,-89.41032342595848,2070250935
sw,-77.3173294067382,-58.8129158020019,29.593975337932598,-73.30089211563003,2070267602
sw,-76.8619155883789,-57.9707679748535,29.69209507089513,-55.75721299752313,2070284269
sw,-76.4175949096679,-57.3490486145019,29.60094165894667,-37.74490274893303,2070300936
sw,-75.9580688476562,-56.9484176635742,29.372611885809274,-20.410094847678888,2070317603
sw,-75.4502029418945,-56.8987350463867,28.987478409852017,-4.952550551232725,2070334270
sw,-74.8859405517578,-57.1650428771972,28.346033292074136,7.548755806434188,2070350937
sw,-74.2959442138671,-57.5682640075683,27.297151511394123,16.32798564996844,2070367604
sw,-73.7190780639648,-57.9507141113281,25.694504319363183,21.09360047280611,2070384271
sw,-73.1780395507812,-58.2206306457519,23.46691956383759,22.107431306119828,2070400938
sw,-72.7046203613281,-58.4813575744628,20.68302623138679,20.15222019726001,2070417605
sw,-72.3204727172851,-58.7702865600585,17.586637022793276,16.39288867744015,2070434272
sw,-71.9862518310546,-59.1611061096191,14.581337800637654,12.165712808140293,2070450939
sw,-71.6747741699218,-59.5003929138183,12.154493093599058,8.740317546499996,2070467606
sw,-71.384765625,-59.7499847412109,10.750720346560659,7.0959367980224,2070484273
sw,-71.1402816772461,-59.8642807006835,10.624971258770849,7.749514215911635,2070500940
sw,-70.9544296264648,-60.0310096740722,11.716609180010211,10.674907456209747,2070517607
sw,-70.8651046752929,-60.3574600219726,13.584036871965653,15.348880899531272,2070534274
sw,-70.7957153320312,-60.9744796752929,15.42633345677758,20.934429687796964,2070550941
sw,-70.6767044067382,-62.0402565002441,16.198355496055875,26.56315990822635,2070567608
sw,-70.5194931030273,-63.2811698913574,14.802585433857102,31.62584949778857,2070584275
sw,-70.3921890258789,-64.3506317138671,10.318486293141806,35.95618830129892,2070600942
sw,-70.392951965332,-65.1424484252929,2.2141325171581037,39.82201064964301,2070617609
sw,-70.6355819702148,-65.6771392822265,-9.517457306727271,43.718794404621285,2070634276
sw,-71.1962509155273,-66.1740341186523,-24.33882480845633,48.055558582919694,2070650943
sw,-72.1478118896484,-66.8833999633789,-41.273598823592074,52.88118548349076,2070667610
sw,-73.5384674072265,-68.0048828125,-59.10319263294027,57.78418156760796,2070684277
sw,-75.3829574584961,-69.5452499389648,-76.58600019522703,62.01583379817342,2070700944
sw,-77.5011901855468,-71.1413497924804,-92.62195524699862,64.77898323406376,2070717611
sw,-79.7607727050781,-72.64892578125,-106.3154641365028,65.54930581823857,2070734278
sw,-82.0149993896484,-73.9579315185546,-116.95004655543059,64.28994840881758,2070750945
sw,-84.2000503540039,-75.0216674804687,-123.9447482796056,61.4790352583075,2070767612
sw,-86.0952529907226,-75.9251251220703,-126.87470650833615,57.95464149108589,2070784279
sw,-86.9175186157226,-76.7734298706054,-125.59106053307211,54.649998896401506,2070800946
sw,-85.983169555664,-77.6115570068359,-120.39591961719371,52.318858279186486,2070817613
sw,-84.2965240478515,-78.4994659423828,-112.16765648897693,51.337590862227366,2070834280
sw,-82.6900024414062,-79.4774627685546,-102.32945345578892,51.63285596833183,2070850947
sw,-81.2898178100586,-80.5455169677734,-92.6130539999078,52.74033009095059,2070867614
sw,-80.1780166625976,-81.6669464111328,-84.6602000872161,53.96428192257529,2070884281
sw,-79.2508697509765,-82.7887191772461,-79.58296161391512,54.586012953588146,2070900948
sw,-78.1599655151367,-83.8369064331054,-77.63523183016139,54.06320292818368,2070917615
sw,-76.7450561523437,-84.7620239257812,-78.11602380399236,52.17092920553121,2070934282
sw,-75.1299896240234,-85.6249008178711,-79.54293545477863,49.05456469315781,2070950949
sw,-73.5975646972656,-86.4482955932617,-80.03856088214982,45.188329609052694,2070967616
sw,-72.267349243164,-87.1940460205078,-77.80867048087552,41.254367601261855,2070984283
sw,-71.132942199707,-87.8382568359375,-71.58245048781632,37.97245734406767,2071000950
sw,-70.1419143676757,-88.401741027832,-60.91963078482122,35.919797595340405,2071017617
sw,-69.292854309082,-88.9257125854492,-46.33425520695389,35.38360943934472,2071034284
sw,-68.6739044189453,-89.4607772827148,-29.217668346296627,36.2845269225486,2071050951
sw,-68.4357376098632,-89.8230667114257,-11.566837529629236,38.19416331768466,2071067618
sw,-68.7399520874023,-89.1798095703125,4.44458275904574,40.44750631223313,2071084285
sw,-69.6135482788086,-88.362434387207,16.968595754624975,42.325061573155956,2071100952
sw,-70.4394989013671,-87.4591674804687,24.930756843467112,43.25747326564386,2071117619
sw,-70.9029464721679,-86.5528717041015,28.288816252827473,42.993254043189616,2071134286
sw,-71.349853515625,-85.7646026611328,28.018610267917378,41.674265506210006,2071150953
sw,-71.7977447509765,-85.0939178466796,25.834235143627957,39.786705797768384,2071167620
sw,-72.2210006713867,-84.5100936889648,23.731413633376768,37.993204170875515,2071184287
sw,-72.5722351074218,-84.0097885131836,23.48151861516132,36.89144781441868,2071200954
sw,-72.8639221191406,-83.5388946533203,26.200569414703484,36.77130738412818,2071217621
sw,-73.2046279907226,-83.0022735595703,32.092025616272736,37.44580679770859,2071234288
sw,-73.8008499145507,-82.3600769042968,40.42447561330817,38.210562087946435,2071250955
sw,-74.735122680664,-81.6934738159179,49.75355769360065,37.94883739410585,2071267622
sw,-76.1713638305664,-81.0677871704101,58.333452213980614,35.35822041049395,2071284289
sw,-77.6369476318359,-80.5072937011718,64.60368820468966,29.24362805848525,2071300956
sw,-78.85302734375,-80.1173629760742,67.60865535900109,18.8072751220301,2071317623
sw,-79.9736785888671,-79.9622497558593,67.22855129255585,3.868694952889107,2071334290
sw,-81.1283493041992,-80.0665893554687,64.1638733431612,-15.037511194030035,2071350957
sw,-82.114273071289,-80.5206604003906,59.691066163140235,-36.71508884845177,2071367624
sw,-82.6550064086914,-81.458999633789,55.267334720106234,-59.50835976430088,2071384291
sw,-82.7929306030273,-82.879524230957,52.099113531048474,-81.61338628988149,2071400958
sw,-82.7423706054687,-84.4133529663086,50.79984470668953,-101.42197484473351,2071417625
sw,-82.7115631103515,-85.055419921875,51.24101775013073,-117.80416015853568,2071434292
sw,-82.8288421630859,-84.144790649414,52.641019750147315,-130.25182801200467,2071450959
sw,-82.8699111938476,-82.3671188354492,53.85444345091267,-138.85877340968776,2071467626
sw,-82.6410217285156,-80.4460754394531,53.75444141404109,-144.17486685605417,2071484293
sw,-82.2220153808593,-78.5106582641601,51.57520976918859,-147.00642426160576,2071500960
sw,-81.6765213012695,-76.6334915161132,47.11027538293839,-148.22275791096197,2071517627
sw,-81.0500106811523,-74.828384399414,40.726075817022945,-148.58998856873953,2071534294
sw,-80.3990097045898,-73.0335693359375,33.216468911764565,-148.62842672625857,2071550961
sw,-79.7255554199218,-71.0762481689453,25.566612377550072,-148.49941548452037,2071567628
sw,-79.0646057128906,-68.9412307739257,18.70638702458185,-147.95153504153802,2071584295
sw,-78.4566879272461,-66.8125991821289,13.320408712602859,-146.36070612333504,2071600962
sw,-77.9020309448242,-64.7380065917968,9.754133243993673,-142.87322170988426,2071617629
sw,-77.3736724853515,-62.6688842773437,8.02226424303127,-136.6221289330147,2071634296
sw,-76.8743820190429,-60.7554817199707,7.8939731920528375,-126.95896905809569,2071650963
sw,-76.3910369873046,-59.1063270568847,9.00828975974198,-113.6377862247811,2071667630
sw,-75.9264221191406,-57.7596130371093,10.97126664293549,-96.90738386803098,2071684297
sw,-75.4882507324218,-56.7116508483886,13.40573357819327,-77.50105409012222,2071700964
sw,-75.0613174438476,-55.9620285034179,15.9545401131563,-56.54314088206582,2071717631
sw,-74.6415557861328,-55.5325469970703,18.26261303186251,-35.40476758685405,2071734298
sw,-74.2186126708984,-55.33345413208,19.969999608197618,-15.535950041723247,2071750965
sw,-73.7715377807617,-55.3803253173828,20.7370739649281,1.711052241669705,2071767632
sw,-73.3257293701171,-55.797191619873,20.303415269684358,15.25864807443167,2071784299
sw,-72.9018173217773,-56.4402961730957,18.564225064895762,24.465648834651038,2071800966
sw,-72.5078964233398,-57.0046958923339,15.638673113456514,29.242632851761496,2071817633
sw,-72.1483917236328,-57.4574928283691,11.903959246866702,30.081249593989188,2071834300
sw,-71.8378295898437,-57.8056869506835,7.974995478554305,27.971769267561122,2071850967
sw,-71.5923919677734,-58.1791343688964,4.620200971012601,24.217476523623457,2071867634
sw,-71.3947830200195,-58.6983375549316,2.617613721956249,20.18862245384883,2071884301
sw,-71.2016067504882,-59.1742858886718,2.5711427295188582,17.07272337683793,2071900968
sw,-70.9873886108398,-59.573558807373,4.722410705320381,15.67104865351686,2071917635
sw,-70.730728149414,-59.8698997497558,8.805997850675315,16.278265304292354,2071934302
sw,-70.4615097045898,-60.1435928344726,13.998974963887468,18.67401406593812,2071950969
sw,-70.1769714355468,-60.5464515686035,19.001763959599298,22.24400978701814,2071967636
sw,-69.866714477539,-61.4235496520996,22.254188125508254,26.218148553683474,2071984303
sw,-69.5783157348632,-62.7560386657714,22.24747911996166,29.962780959067338,2072000970
sw,-69.3546371459961,-64.048599243164,17.85793527289283,33.21877945938534,2072017637
sw,-69.2629470825195,-64.9045181274414,8.615814091048415,36.17490174084392,2072034304
sw,-69.4058685302734,-65.4013671875,-5.162731670836748,39.328307501961895,2072050971
sw,-69.8453674316406,-65.8204727172851,-22.41907151923671,43.18834675069294,2072067638
sw,-70.6728820800781,-66.427734375,-41.565441839651065,47.96639045901028,2072084305
sw,-71.97412109375,-67.4148941040039,-60.816864592037625,53.40778181280153,2072100972
sw,-73.8093032836914,-68.901741027832,-78.55124351112823,58.85045325492431,2072117639
sw,-76.0218048095703,-70.4990844726562,-93.58983367235832,63.478581855322645,2072134306
sw,-78.4000167846679,-71.9864120483398,-105.31193416047748,66.64436966081038,2072150973
sw,-80.7575454711914,-73.3770065307617,-113.58311441439326,68.10706548373189,2072167640
sw,-83.016975402832,-74.5762252807617,-118.56134916518134,68.09100727333976,2072184307
sw,-85.1187438964843,-75.615364074707,-120.5018238297185,67.1558056109572,2072200974
sw,-86.7199249267578,-76.611701965332,-119.66902018601729,65.95151341727949,2072217641
sw,-86.7842330932617,-77.6220550537109,-116.38710740447438,64.96743092968009,2072234308
sw,-85.3742065429687,-78.7005996704101,-111.1652029071909,64.36994972437346,2072250975
sw,-83.7408218383789,-79.8483581542968,-104.78251862218644,63.97818664055476,2072267642
sw,-82.246353149414,-81.045425415039,-98.23922965091816,63.370919303949776,2072284309
sw,-80.9149856567382,-82.289077758789,-92.55506098729774,62.07605419225088,2072300976
sw,-79.7429885864257,-83.4787521362304,-88.48257628902552,59.774565936414085,2072317643
sw,-78.5076217651367,-84.573860168457,-86.25147693565852,56.45337168879489,2072334310
sw,-77.0473175048828,-85.5306396484375,-85.45322244963295,52.45983273355509,2072350977
sw,-75.4336013793945,-86.3641815185546,-85.11936356144922,48.43865238522678,2072367644
sw,-73.8347854614257,-87.0993041992187,-83.97087759540335,45.164725571866796,2072384311
sw,-72.4085540771484,-87.7477111816406,-80.7559112712509,43.31658283134149,2072400978
sw,-71.1949462890625,-88.361831665039,-74.57420936950129,43.25628879305247,2072417645
sw,-70.1439819335937,-89.0385665893554,-65.10679029297067,44.885281816819536,2072434312
sw,-69.2162094116211,-89.8796691894531,-52.70701701575395,47.62793770742332,2072450979
sw,-68.4667892456054,-89.3236312866211,-38.34179172510296,50.558615039536384,2072467646
sw,-68.0583419799804,-88.2492294311523,-23.393605282116624,52.64356734021885,2072484313
sw,-68.1011199951171,-87.1416549682617,-9.35564895454672,53.03047594569313,2072500980
sw,-68.5027389526367,-86.0811309814453,2.5180316550673885,51.29900539011963,2072517647
sw,-69.0940322875976,-85.1650390625,11.515794478449065,47.59374605072365,2072534314
sw,-69.4768295288086,-84.4188232421875,17.62828911761014,42.5948012328164,2072550981
sw,-69.6842651367187,-83.8566207885742,21.505644392257427,37.32987422483451,2072567648
sw,-70.1466598510742,-83.3965148925781,24.222675165303425,32.878537922237044,2072584315
sw,-70.7428665161132,-82.9952316284179,26.928804100943328,30.049753070518697,2072600982
sw,-71.2393646240234,-82.6051712036132,30.488995313342887,29.12001574117373,2072617649
sw,-71.6561889648437,-82.1814651489257,35.214257417372686,29.702412775945554,2072634316
sw,-72.1566619873046,-81.7015686035156,40.75470808357148,30.782980577272443,2072650983
sw,-72.8768844604492,-81.147232055664,46.19412142481848,30.91924632686462,2072667650
sw,-74.0084228515625,-80.5792770385742,50.3358563063613,28.55615435651439,2072684317
sw,-75.3663330078125,-80.1044769287109,52.10675040887124,22.38567370090175,2072700984
sw,-76.5860824584961,-79.8181228637695,50.95103008895297,11.665128689662733,2072717651
sw,-77.6474533081054,-79.755256652832,47.07338281228857,-3.5820565690471162,2072734318
sw,-78.4107818603515,-79.9638290405273,41.43513157114973,-22.534236098570236,2072750985
sw,-78.8910675048828,-80.5802536010742,35.49501173576228,-43.72281992907622,2072767652
sw,-79.1145629882812,-81.7787475585937,30.779969249855444,-65.33862051652684,2072784319
sw,-79.3369445800781,-83.4490432739257,28.433964491770286,-85.61988853273589,2072800986
sw,-79.6470794677734,-84.9239501953125,28.899529065812164,-103.2148624971908,2072817653
sw,-79.982307434082,-85.1705093383789,31.83472495892669,-117.41056413821832,2072834320
sw,-80.5551528930664,-83.8926315307617,36.27852860121774,-128.16463028138537,2072850987
sw,-81.2853546142578,-82.060073852539,40.987957012934785,-135.95413148938133,2072867654
sw,-81.9114837646484,-80.2113265991211,44.81641135579531,-141.52413196946927,2072884321
sw,-82.2981872558593,-78.3310928344726,47.00399258076689,-145.63913383548334,2072900988
sw,-82.4485397338867,-76.4547271728515,47.30200251853807,-148.90447785268177,2072917655
sw,-82.3929748535156,-74.6074905395507,45.927495676314386,-151.6649364342365,2072934322
sw,-82.1088714599609,-72.6731262207031,43.403064884191366,-153.95126786988442,2072950989
sw,-81.666877746582,-70.5842895507812,40.35929120105502,-155.4528239049794,2072967656
sw,-81.1096496582031,-68.2943801879882,37.364718172108745,-155.5246615155177,2072984323
sw,-80.4838409423828,-66.0687179565429,34.81940369369079,-153.25605936409963,2073000990
sw,-79.862808227539,-63.9579200744628,32.920840399949384,-147.6188200493041,2073017657
sw,-79.2887268066406,-61.8997459411621,31.692019745232987,-137.6874943912524,2073034324
sw,-78.7522201538086,-59.9948654174804,31.04856563579826,-122.89503378915289,2073050991
sw,-78.2454757690429,-58.3525962829589,30.873619350120187,-103.26632797835727,2073067658
sw,-77.7645568847656,-57.0401153564453,31.069146019959394,-79.56516466872989,2073084325
sw,-77.2941055297851,-56.1067123413085,31.56431527116827,-53.30155371245848,2073100992
sw,-76.8147811889648,-55.6355590820312,32.28265516887708,-26.57444237533351,2073117659
sw,-76.3259887695312,-55.6637992858886,33.09068496018955,-1.7626507876556885,2073134326
sw,-75.8313751220703,-56.1493301391601,33.76230631617659,18.883477836207817,2073150993
sw,-75.2965621948242,-57.0278701782226,33.98989161709704,33.66362316146821,2073167660
sw,-74.6853942871093,-57.9191856384277,33.45433323797262,41.759005286596384,2073184327
sw,-73.9732208251953,-58.700325012207,31.93763422881096,43.381635429369126,2073200994
sw,-73.2186965942382,-59.2328147888183,29.43387315857766,39.69353850316184,2073217661
sw,-72.5469512939453,-59.7352828979492,26.20104713038613,32.516031538523094,2073234328
sw,-72.1110916137695,-60.1631202697753,22.707853776746774,23.914128143464666,2073250995
sw,-71.9228973388671,-60.4520111083984,19.46762551749582,15.775136618780104,2073267662
sw,-71.8266525268554,-60.7018661499023,16.80497069369099,9.49249708499587,2073284329
sw,-71.7267990112304,-60.904312133789,14.645014107222696,5.825938074429134,2073300996
sw,-71.5916290283203,-61.148941040039,12.423722574228135,4.954032176422103,2073317663
sw,-71.4364929199218,-61.8300819396972,9.17900399316427,6.676293794588057,2073334330
sw,-71.3460083007812,-62.9222793579101,3.810456999214701,10.668911208462399,2073350997
sw,-71.3468170166015,-63.8742904663085,-4.575751093890961,16.671718550337488,2073367664
sw,-71.5527725219726,-64.2621002197265,-16.358406441639353,24.51192654286411,2073384331
sw,-72.1196060180664,-64.4797668457031,-31.23941030202735,33.95891244985013,2073400998
sw,-73.1521224975586,-64.8326263427734,-48.283723948171925,44.512807542058354,2073417665
sw,-74.7050552368164,-65.7273788452148,-66.13905160896685,55.28552206994677,2073434332
sw,-76.7108764648437,-67.3447952270507,-83.34444246146539,65.08975561448436,2073450999
sw,-78.9802703857421,-69.1476440429687,-98.6074273525138,72.73131949268104,2073467666
sw,-81.3570938110351,-70.9355697631836,-110.95695422502862,77.37913227314085,2073484333
sw,-83.7258377075195,-72.5543746948242,-119.75442428621155,78.8397219331566,2073501000
sw,-85.9328308105468,-73.8069992065429,-124.62656936027034,77.61087102014707,2073517667
sw,-87.5000991821289,-74.8062667846679,-125.42052493106233,74.69614481610104,2073534334
sw,-86.9924163818359,-75.7834320068359,-122.24781741218982,71.26697547440828,2073551001
sw,-85.0336685180664,-76.8924407958984,-115.60172924194987,68.31189732637525,2073567668
sw,-83.0376205444336,-78.1181106567382,-106.45645411413986,66.39689844201136,2073584335
sw,-81.3430633544921,-79.3836517333984,-96.23686034153687,65.59665514691946,2073601002
sw,-79.9768142700195,-80.6414108276367,-86.59841492585838,65.58386734380359,2073617669
sw,-79.0367736816406,-81.9092025756836,-79.05035792667805,65.816426805172,2073634336
sw,-78.2307510375976,-83.176399230957,-74.54218581922082,65.74933390739234,2073651003
sw,-77.1695785522461,-84.396255493164,-73.16903085706619,65.01007691490314,2073667670
sw,-75.7701873779296,-85.5266571044921,-74.11532339965368,63.49825129780077,2073684337
sw,-74.2491149902343,-86.5779495239257,-75.86396382751859,61.39383504057644,2073701004
sw,-72.8302917480468,-87.5389251708984,-76.59770914776256,59.08021645869131,2073717671
sw,-71.5924453735351,-88.3213577270507,-74.66167306153973,57.00585612768586,2073734338
sw,-70.5160064697265,-88.7798690795898,-68.95963667231656,55.521445223620255,2073751005
sw,-69.525405883789,-88.7853393554687,-59.2002840701454,54.737501353265195,2073767672
sw,-68.6526794433593,-88.3702163696289,-45.956145643495326,54.4485022440426,2073784339
sw,-68.0302505493164,-87.6681289672851,-30.530038883125755,54.158763252386095,2073801006
sw,-67.8958358764648,-86.7658386230468,-14.650243336440463,53.218508297273104,2073817673
sw,-68.4451446533203,-85.7577209472656,-0.05342206878360575,51.040027074005806,2073834340
sw,-69.2678604125976,-84.7215957641601,11.939016486335305,47.32701506754554,2073851007
sw,-69.6883392333984,-83.803596496582,20.720345272001772,42.23257472891106,2073867674
sw,-69.9520111083984,-83.0878372192382,26.473561862133664,36.374902564731535,2073884341
sw,-70.4492874145507,-82.5881271362304,30.005492657304874,30.683727876582214,2073901008
sw,-71.1350173950195,-82.3313598632812,32.41255300158686,26.110797047644247,2073917675
sw,-71.6199111938476,-82.2317352294921,34.69697782179658,23.291788559903946,2073934342
sw,-71.9046096801757,-82.0711288452148,37.44968116724274,22.273315989048985,2073951009
sw,-72.4384841918945,-81.7429122924804,40.688021694357296,22.404279021470757,2073967676
sw,-73.2279815673828,-81.3079223632812,43.89570380301608,22.438344002973523,2073984343
sw,-74.3222122192382,-80.8251647949218,46.25358452039718,20.82346764059507,2074001010
sw,-75.4730453491211,-80.3523712158203,46.98287714802436,16.093422825537022,2074017677
sw,-76.4505844116211,-80.0667114257812,45.67665836033189,7.247177544455764,2074034344
sw,-77.3222122192382,-80.086685180664,42.498649313696106,-5.9890116542267515,2074051011
sw,-78.0256271362304,-80.4090957641601,38.17917447304691,-23.082901796749915,2074067678
sw,-78.5566329956054,-81.0229797363281,33.8119449171409,-42.81405080082046,2074084345
sw,-78.8125,-81.9613876342773,30.52282915544914,-63.55057725737764,2074101012
sw,-79.0322799682617,-83.213638305664,29.123213429573642,-83.60949709859958,2074117679
sw,-79.3039016723632,-84.3425140380859,29.86485797787134,-101.60434717098707,2074134346
sw,-79.5617599487304,-84.404312133789,32.377289153189984,-116.68502511295135,2074151013
sw,-80.0086135864257,-83.2102813720703,35.803255712208575,-128.60591200199084,2074167680
sw,-80.5988311767578,-81.5028305053711,39.07750185430479,-137.61828983684643,2074184347
sw,-81.1295852661132,-79.7509002685546,41.24741057922493,-144.2491097787078,2074201014
sw,-81.5513153076171,-77.8959503173828,41.72885394452985,-149.06341170554376,2074217681
sw,-81.7985305786132,-75.9709396362304,40.42600098342433,-152.48996427163053,2074234348
sw,-81.8385848999023,-74.1365585327148,37.700401901383586,-154.7352426950064,2074251015
sw,-81.6392364501953,-72.2306289672851,34.22524978819043,-155.76347750906234,2074267682
sw,-81.2174987792968,-70.1406784057617,30.786741858826666,-155.31106009850987,2074284349
sw,-80.6649398803711,-67.881477355957,28.093925331533686,-152.9235427710081,2074301016
sw,-80.033088684082,-65.6661071777343,26.641087123488205,-148.02256367663358,2074317683
sw,-79.4137191772461,-63.6392173767089,26.64420056912891,-140.0114568768631,2074334350
sw,-78.8954849243164,-61.7191543579101,28.051728016832577,-128.4168665260762,2074351017
sw,-78.4853897094726,-59.8979988098144,30.611632347324523,-113.04831015612221,2074367684
sw,-78.1470260620117,-58.378433227539,33.96239965033133,-94.14208555297432,2074384351
sw,-77.8109741210937,-57.2210807800293,37.7117739319517,-72.44562485897701,2074401018
sw,-77.4316253662109,-56.4372596740722,41.478133704963426,-49.202579064403466,2074417685
sw,-76.9736938476562,-56.0683898925781,44.89317811677604,-26.020920142315035,2074434352
sw,-76.4229202270507,-56.1001052856445,47.58835266115851,-4.638561293296588,2074451019
sw,-75.802505493164,-56.5044288635253,49.197398607328665,13.368238966356577,2074467686
sw,-75.106704711914,-57.2224960327148,49.39803943780149,26.86743140859147,2074484353
sw,-74.3133392333984,-58.0330162048339,47.99193182348207,35.3725514910949,2074501020
sw,-73.4312591552734,-58.7489318847656,44.994261333478654,39.105028520995795,2074517687
sw,-72.5383148193359,-59.2928390502929,40.68511021012362,38.896228093792224,2074534354
sw,-71.833251953125,-59.8457298278808,35.575541123332535,35.959337359590805,2074551021
sw,-71.4336013793945,-60.437515258789,30.26846048256046,31.606076253537292,2074567688
sw,-71.2771987915039,-61.0197105407714,25.24208645509324,26.998518554203496,2074584355
sw,-71.1880111694336,-61.5527572631835,20.63206524286929,23.00525084274317,2074601022
sw,-71.0576095581054,-62.0390129089355,16.109490193869878,20.18726015094397,2074617689
sw,-70.8462524414062,-62.7028503417968,10.927683703790334,18.89078229444861,2074634356
sw,-70.6473999023437,-63.7733001708984,4.145411277472821,19.382555866074103,2074651023
sw,-70.5803985595703,-64.9710998535156,-5.043050902238521,21.93748218642692,2074667690
sw,-70.7118530273437,-65.4744338989257,-16.992585947211104,26.79996613105959,2074684357
sw,-71.1804428100586,-65.6426849365234,-31.429511316347106,34.005525982386736,2074701024
sw,-72.0865325927734,-65.9247512817382,-47.483100358200765,43.148664510236905,2074717691
sw,-73.4397964477539,-66.6140747070312,-63.914977207955666,53.251512432132365,2074734358
sw,-75.2240524291992,-68.0203781127929,-79.45391618642579,62.86368597854671,2074751025
sw,-77.3527145385742,-69.7890396118164,-93.09945287352728,70.40889582572383,2074767692
sw,-79.6570510864257,-71.5624313354492,-104.27415920685412,74.65764922057755,2074784359
sw,-82.0031127929687,-73.2742843627929,-112.78011228757816,75.13058577572107,2074801026
sw,-84.3139419555664,-74.6317672729492,-118.6165327492479,72.26213854037866,2074817693
sw,-86.4227523803711,-75.564224243164,-121.7878326982281,67.25861126399319,2074834360
sw,-87.5666732788086,-76.3334808349609,-122.22922734365184,61.71188668275714,2074851027
sw,-86.4491271972656,-77.1274261474609,-119.8985371760164,57.120436902856525,2074867694
sw,-84.3739242553711,-78.0665664672851,-114.97477789993502,54.48683168671789,2074884361
sw,-82.4030227661132,-79.1348190307617,-108.03205184318993,54.10803278346798,2074901028
sw,-80.7329940795898,-80.2608642578125,-100.06181247839493,55.588631624951816,2074917695
sw,-79.310806274414,-81.4078063964843,-92.29096571955657,58.03324637193525,2074934362
sw,-78.1794204711914,-82.5955657958984,-85.84389503335473,60.337420045941,2074951029
sw,-77.1375503540039,-83.7854919433593,-81.37295396593579,61.49328285879833,2074967696
sw,-75.9288482666015,-84.9033432006836,-78.80206729826823,60.840304221105825,2074984363
sw,-74.5364761352539,-85.8876800537109,-77.28684292543389,58.21123395213318,2075001030
sw,-73.1175537109375,-86.6880264282226,-75.41297303427102,53.947504885652535,2075017697
sw,-71.8397140502929,-87.2917404174804,-71.57101792037099,48.78748480185569,2075034364
sw,-70.7809219360351,-87.7062911987304,-64.39593278778823,43.6604401462822,2075051031
sw,-69.9113235473632,-87.9670257568359,-53.15580079778353,39.44136764954191,2075067698
sw,-69.1842422485351,-88.1160202026367,-38.00063091758668,36.731415400835395,2075084365
sw,-68.6622695922851,-88.1448059082031,-20.015382124796478,35.72269982500435,2075101032
sw,-68.5079727172851,-87.9685668945312,-1.0526967042007367,36.184225640368666,2075117699
sw,-68.914077758789,-87.541389465332,16.640827585401667,37.570601236778174,2075134366
sw,-69.9116439819336,-86.9291610717773,30.9363235313986,39.216736457019174,2075151033
sw,-71.1004562377929,-86.1906509399414,40.344265889695016,40.55320528583812,2075167700
sw,-72.030158996582,-85.4261093139648,44.38793656478521,41.26982025851764,2075184367
sw,-72.7865982055664,-84.71728515625,43.702236664084396,41.3725617047075,2075201034
sw,-73.4158706665039,-84.0662765502929,39.82162820072599,41.115101218553924,2075217701
sw,-73.9456481933593,-83.4612426757812,34.72731325908328,40.82791745276101,2075234368
sw,-74.4362869262695,-82.8818435668945,30.2964229864036,40.70134281085741,2075251035
sw,-74.7561340332031,-82.3238143920898,27.813862895162874,40.59394940961244,2075267702
sw,-74.9631118774414,-81.7740020751953,27.68046454243335,39.93192439439513,2075284369
sw,-75.3066787719726,-81.2096710205078,29.396611231773452,37.74212656916369,2075301036
sw,-76.1464538574218,-80.6888809204101,31.826585756875463,32.82768167825223,2075317703
sw,-77.4457931518554,-80.2382354736328,33.66196456936975,24.057018788278775,2075334370
sw,-78.4000167846679,-79.9239730834961,33.92619137805814,10.702158186054142,2075351037
sw,-79.1946258544921,-79.7668838500976,32.337276064298116,-7.262678841590691,2075367704
sw,-79.7334060668945,-79.8933181762695,29.39669425578172,-28.99736170791418,2075384371
sw,-80.0135879516601,-80.4465713500976,26.181474527797654,-52.84202278659019,2075401038
sw,-80.0569381713867,-81.5696029663086,23.931708544433228,-76.59686498871629,2075417705
sw,-80.2010421752929,-83.1503753662109,23.59853838196922,-97.98399861471682,2075434372
sw,-80.5470962524414,-84.385009765625,25.52275537058809,-115.16469444433055,2075451039
sw,-80.9320678710937,-84.1994094848632,29.35259104107793,-127.14796838978806,2075467706
sw,-81.5423049926757,-82.6624908447265,34.20866538925299,-133.9553306784968,2075484373
sw,-82.3424530029296,-80.6600723266601,39.00898358605108,-136.4971735817453,2075501040
sw,-82.9727554321289,-78.7012939453125,42.816487510462636,-136.22515272797557,2075517707
sw,-83.3432159423828,-76.9336776733398,45.08198190713253,-134.69579926908239,2075534374
sw,-83.5401992797851,-75.295295715332,45.71549877879975,-133.18339253675015,2075551041
sw,-83.5102157592773,-73.7337570190429,44.99718868410228,-132.42937818427305,2075567708
sw,-83.2688217163086,-72.1112289428711,43.39659985791981,-132.5529116049371,2075584375
sw,-82.8709564208984,-70.2468109130859,41.38470278697532,-133.10498360336746,2075601042
sw,-82.3510208129882,-68.2126312255859,39.30072795819866,-133.23073752222325,2075617709
sw,-81.7555999755859,-66.3194885253906,37.29803044592151,-131.89754536973092,2075634376
sw,-81.1266632080078,-64.5666427612304,35.36224529499374,-128.14177771858442,2075651043
sw,-80.5476150512695,-62.8490447998046,33.37995343929143,-121.28688056744792,2075667710
sw,-80.0381774902343,-61.2725067138671,31.23109479696224,-111.0923152671047,2075684377
sw,-79.5864639282226,-59.9023780822753,28.875052389374726,-97.80701422950027,2075701044
sw,-79.1427764892578,-58.813060760498,26.400040323480734,-82.12162163659814,2075717711
sw,-78.7037887573242,-57.9681854248046,24.01596702466629,-65.03826948105419,2075734378
sw,-78.266357421875,-57.3815383911132,21.993047945450485,-47.69712789457569,2075751045
sw,-77.8189163208007,-57.0184898376464,20.57118922047972,-31.20589200457307,2075767712
sw,-77.3787689208984,-56.7829551696777,19.875831437205967,-16.507771889481102,2075784379
sw,-76.9128036499023,-56.6954269409179,19.87083467206531,-4.300797202168591,2075801046
sw,-76.3999862670898,-56.7826194763183,20.363676840443425,5.0009512713219415,2075817713
sw,-75.8429718017578,-57.0379371643066,21.060628274440585,11.282030719211937,2075834380
sw,-75.2536697387695,-57.367919921875,21.655073768315162,14.724856304117422,2075851047
sw,-74.6663970947265,-57.5690269470214,21.923494575156536,15.785709083956702,2075867714
sw,-74.1387710571289,-57.6087112426757,21.801599756029958,15.13420260027826,2075884381
sw,-73.6643524169921,-57.7294006347656,21.416902100821233,13.556097684882674,2075901048
sw,-73.2024383544921,-58.0017013549804,21.062402053544417,11.839494860195916,2075917715
sw,-72.7412567138671,-58.3881607055664,21.108595305521124,10.67131895864532,2075934382
sw,-72.2761535644531,-58.7648162841796,21.867577385852673,10.559096063488793,2075951049
sw,-71.8319091796875,-59.0836791992187,23.44103535107642,11.777685441059246,2075967716
sw,-71.4268722534179,-59.3141746520996,25.597042483815667,14.339655101379305,2075984383
sw,-71.1076354980468,-59.5348739624023,27.721142739198577,18.001337831001184,2076001050
sw,-70.7945175170898,-59.920841217041,28.871589803869956,22.326515052041053,2076017717
sw,-70.4330215454101,-60.5636558532714,27.940447909460705,26.817863331452905,2076034384
sw,-70.0616302490234,-61.7143058776855,23.89051325048997,31.090784211680432,2076051051
sw,-69.7407608032226,-63.0705680847168,16.012105784342406,35.023717705941195,2076067718
sw,-69.5919647216796,-64.119026184082,4.130771272478948,38.80377781375483,2076084385
sw,-69.740737915039,-64.7427520751953,-11.298155556630643,42.81984160854632,2076101052
sw,-70.3026809692382,-65.1728363037109,-29.246257408693015,47.43195713297015,2076117719
sw,-71.3164291381836,-65.7431106567382,-48.31341802037167,52.724635735744926,2076134386
sw,-72.8197555541992,-66.7707824707031,-67.01574282199448,58.3771544220737,2076151053
sw,-74.7684097290039,-68.3070297241211,-84.06484161509529,63.73031364520232,2076167720
sw,-77.0012435913086,-69.8816223144531,-98.54312610503055,68.02441520693371,2076184387
sw,-79.355712890625,-71.3577880859375,-109.9258388181006,70.69276743588031,2076201054
sw,-81.6983489990234,-72.7565536499023,-117.97661252761954,71.57286154971193,2076217721
sw,-83.9281463623046,-73.9850387573242,-122.6086586689092,70.9482748354687,2076234388
sw,-85.850601196289,-75.036148071289,-123.81565679859978,69.41880586168611,2076251055
sw,-86.7681427001953,-76.0029067993164,-121.7229981640786,67.66712916296656,2076267722
sw,-85.9751358032226,-76.9877090454101,-116.72282409780269,66.22088140903064,2076284389
sw,-84.427261352539,-78.0485153198242,-109.59020654373911,65.2970066070445,2076301056
sw,-82.9086227416992,-79.1991958618164,-101.47339600461581,64.77353298813387,2076317723
sw,-81.5499954223632,-80.3934631347656,-93.70957671484109,64.28335935369098,2076334390
sw,-80.3780822753906,-81.5955276489257,-87.50484126767216,63.38476052301067,2076351057
sw,-79.3329238891601,-82.8011245727539,-83.58786269799658,61.745159070507704,2076367724
sw,-78.0962905883789,-83.9321136474609,-81.96882763294651,59.27837035037182,2076384391
sw,-76.5917663574218,-84.8934326171875,-81.90044106469003,56.19478740544589,2076401058
sw,-74.9373703002929,-85.7002639770507,-82.0622652429444,52.95192286514771,2076417725
sw,-73.3514938354492,-86.430419921875,-80.90770668634637,50.12268203854015,2076434392
sw,-71.9726409912109,-87.0908813476562,-77.06199553502898,48.22264410500848,2076451059
sw,-70.8284530639648,-87.680923461914,-69.65786160115705,47.54821632350605,2076467726
sw,-69.8590850830078,-88.1812438964843,-58.5321300356748,48.07303628425623,2076484393
sw,-69.0500335693359,-88.4690322875976,-44.25324984214843,49.43431215173276,2076501060
sw,-68.4910736083984,-88.3392944335937,-27.986186119270815,51.018529370636536,2076517727
sw,-68.3882446289062,-87.739990234375,-11.226633247515545,52.129584126165916,2076534394
sw,-68.8819580078125,-86.8298568725586,4.537652260036617,52.19509767933628,2076551061
sw,-69.6416015625,-85.835578918457,18.152350592334127,50.946286652134624,2076567728
sw,-70.2310104370117,-84.9233322143554,29.010843124859043,48.50460805929541,2076584395
sw,-70.7282638549804,-84.1665267944336,37.087718871422055,45.33191747956464,2076601062
sw,-71.4395599365234,-83.5614242553711,42.79003633458178,42.04609651845162,2076617729
sw,-72.185302734375,-83.0695571899414,46.69683972391925,39.15478650795298,2076634396
sw,-72.8731994628906,-82.6441421508789,49.29373772236867,36.79531851669354,2076651063
sw,-73.6197052001953,-82.2506332397461,50.79982737766852,34.57471082124475,2076667730
sw,-74.3965301513671,-81.8303833007812,51.14464830697917,31.577281081961118,2076684397
sw,-75.3648300170898,-81.3587570190429,50.099792624078674,26.557249990663873,2076701064
sw,-76.6775131225586,-80.8568572998046,47.51292828596454,18.27441045566352,2076717731
sw,-77.7895584106445,-80.5209732055664,43.54527182183474,5.880347519155141,2076734398
sw,-78.6317367553711,-80.4681015014648,38.79963948656506,-10.761800361444939,2076751065
sw,-79.2385940551757,-80.7622909545898,34.26170658482778,-30.928816555008087,2076767732
sw,-79.6688232421875,-81.4364929199218,31.053134911023538,-53.1179593123944,2076784399
sw,-80.0005416870117,-82.5817794799804,30.077701600204794,-75.34681715139052,2076801066
sw,-80.2766647338867,-83.989273071289,31.692907812326755,-95.59407972905743,2076817733
sw,-80.4774856567382,-84.8487396240234,35.538404231052276,-112.25403677545417,2076834400
sw,-80.8953018188476,-84.3299255371093,40.598260810763904,-124.46830444702125,2076851067
sw,-81.7368240356445,-82.6451034545898,45.48479712109375,-132.2390528031396,2076867734
sw,-82.5942230224609,-80.6320037841796,48.84265242524277,-136.30759688971034,2076884401
sw,-83.2113800048828,-78.6448516845703,49.725587188872055,-137.8649013165767,2076901068
sw,-83.5661163330078,-76.7720336914062,47.82055487764521,-138.20470052376382,2076917735
sw,-83.6484069824218,-74.9909744262695,43.46919342614844,-138.4177374293252,2076934402
sw,-83.4619979858398,-73.3251953125,37.51914282182725,-139.1776501158014,2076951069
sw,-83.0191574096679,-71.6294479370117,31.08439834983508,-140.6257124273791,2076967736
sw,-82.4122238159179,-69.7981414794921,25.295933170027187,-142.34716856147048,2076984403
sw,-81.7161788940429,-67.7102890014648,21.099083863429712,-143.43769100256807,2077001070
sw,-81.0301208496093,-65.543830871582,19.124902239266877,-142.66062900601491,2077017737
sw,-80.4315414428711,-63.5545349121093,19.639763267333866,-138.68264150895615,2077034404
sw,-79.9185485839843,-61.617576599121,22.560956921576505,-130.35490369814684,2077051071
sw,-79.4422149658203,-59.7734870910644,27.514057895680335,-116.99175171413185,2077067738
sw,-78.9306106567382,-58.1597862243652,33.90332936363826,-98.59266856288792,2077084405
sw,-78.3313751220703,-56.9089431762695,40.973376404499,-75.95651643427222,2077101072
sw,-77.6650466918945,-56.0576477050781,47.85737308603398,-50.65046386973686,2077117739
sw,-76.9598007202148,-55.6532669067382,53.62618266007023,-24.820961506105746,2077134406
sw,-76.2006683349609,-55.6879653930664,57.362964564878816,-0.8660741435691203,2077151073
sw,-75.3794326782226,-56.1316566467285,58.28208277414195,18.97919521864169,2077167740
sw,-74.4928817749023,-57.0650978088378,55.88891886282312,33.06525505346634,2077184407
sw,-73.5636367797851,-58.1180343627929,50.14626181284347,40.661047658986774,2077201074
sw,-72.6629028320312,-59.0565147399902,41.58722371527578,42.104152991756955,2077217741
sw,-71.8994522094726,-59.6907997131347,31.30935394246189,38.70968460551011,2077234408
sw,-71.4179229736328,-60.2142639160156,20.80931651423323,32.44658349263934,2077251075
sw,-71.2579498291015,-60.6604080200195,11.668975001011946,25.464404300515543,2077267742
sw,-71.2928695678711,-60.9095573425293,5.163707634502183,19.602983257659613,2077284409
sw,-71.3371353149414,-61.1472625732421,1.9055959959905338,16.022942449874964,2077301076
sw,-71.2747039794921,-61.423412322998,1.6365933308687515,15.059671673887951,2077317743
sw,-71.1535339355468,-61.8675117492675,3.2458751717662113,16.33867630236082,2077334410
sw,-71.0044174194336,-62.7985076904296,5.016556383325969,19.107403499213735,2077351077
sw,-70.8824310302734,-64.2177352905273,5.0364133328743375,22.656208566888456,2077367744
sw,-70.8212738037109,-65.5924377441406,1.6602381014139396,26.65191333213004,2077384411
sw,-70.8939514160156,-66.3187103271484,-6.098966658769838,31.22922510971331,2077401078
sw,-71.2188034057617,-66.5403213500976,-18.347976840309023,36.791117315341666,2077417745
sw,-71.8946151733398,-66.6748352050781,-34.309559810486185,43.61921816287118,2077434412
sw,-72.981086730957,-67.1325073242187,-52.52666313913573,51.505996091638714,2077451079
sw,-74.5737838745117,-68.3401870727539,-71.20825768534982,59.619464201979014,2077467746
sw,-76.6140518188476,-70.1154479980468,-88.61140270657017,66.69177391814353,2077484413
sw,-78.9231262207031,-71.9679794311523,-103.34673507656869,71.45296217097342,2077501080
sw,-81.2408142089843,-73.7828674316406,-114.5294006186508,73.10698020170956,2077517747
sw,-83.5194091796875,-75.196548461914,-121.76749692355676,71.63298773406063,2077534414
sw,-85.651611328125,-76.1507263183593,-125.0529054954277,67.78757480656604,2077551081
sw,-87.1902160644531,-76.9136276245117,-124.65142075982689,62.82484037332039,2077567748
sw,-86.916633605957,-77.6454162597656,-121.0587625148913,58.06796172543394,2077584415
sw,-85.1958465576171,-78.4609832763671,-115.01760959364513,54.5083072924086,2077601082
sw,-83.3218612670898,-79.4004364013671,-107.52813205270652,52.57012477191842,2077617749
sw,-81.6810073852539,-80.4431991577148,-99.77270411380408,52.09324986590627,2077634416
sw,-80.2778701782226,-81.5576171875,-92.92113164305638,52.49995829427288,2077651083
sw,-79.1307983398437,-82.694351196289,-87.85646017474734,53.058852002587166,2077667750
sw,-77.9580459594726,-83.7898483276367,-84.91936279488407,53.14773947190067,2077684417
sw,-76.5377349853515,-84.7986984252929,-83.77833519238469,52.438721160540396,2077701084
sw,-74.939208984375,-85.6733322143554,-83.48777784143054,50.96528768047627,2077717751
sw,-73.3912200927734,-86.467529296875,-82.72110621274595,49.06926576306011,2077734418
sw,-72.046157836914,-87.2329635620117,-80.10281659669965,47.25655314436399,2077751085
sw,-70.9045791625976,-87.9797744750976,-74.54283194478462,46.010543102131635,2077767752
sw,-69.8891983032226,-88.7190017700195,-65.49692495133634,45.619308915420426,2077784419
sw,-68.9367752075195,-89.4517822265625,-53.11085655104231,46.06693218976419,2077801086
sw,-68.1277770996093,-89.5836334228515,-38.227792789272584,47.02162755565578,2077817753
sw,-67.6238021850586,-88.7464904785156,-22.247746553112112,47.92601525236521,2077834420
sw,-67.6734771728515,-87.8475112915039,-6.843769542566899,48.16417723516009,2077851087
sw,-68.263198852539,-86.9513702392578,6.421865639626349,47.255740415706335,2077867754
sw,-68.9848022460937,-86.1169815063476,16.48737667650044,45.01817653621151,2077884421
sw,-69.5145111083984,-85.3250885009765,23.064638195085685,41.647634269443714,2077901088
sw,-69.889663696289,-84.6269912719726,26.69869094365362,37.69133896408557,2077917755
sw,-70.3413543701171,-84.0474472045898,28.59063263392317,33.91290279283134,2077934422
sw,-70.9170532226562,-83.5714874267578,30.24291885151528,31.079065927202887,2077951089
sw,-71.545783996582,-83.1493453979492,33.03439544637752,29.718055053451902,2077967756
sw,-72.1507339477539,-82.7955780029296,37.837501611299636,29.9120966092512,2077984423
sw,-72.6828842163086,-82.4379730224609,44.77008374174447,31.18544157382925,2078001090
sw,-73.375,-81.929946899414,53.14564622797784,32.5310451863041,2078017757
sw,-74.4507827758789,-81.2812042236328,61.647030005851285,32.5840260037144,2078034424
sw,-76.0709609985351,-80.6493072509765,68.69156495637876,29.906251398962088,2078051091
sw,-77.6589126586914,-80.1448211669921,72.88989267635624,23.31012317634662,2078067758
sw,-78.8820343017578,-79.874397277832,73.45803675654204,12.136888416304814,2078084425
sw,-80.0533370971679,-79.8526458740234,70.4533564754865,-3.5802688550652655,2078101092
sw,-81.2669601440429,-80.123664855957,64.76683328228312,-23.105082137943747,2078117759
sw,-82.2504577636718,-80.7682647705078,57.88186529323624,-45.138052973155325,2078134426
sw,-82.7758255004882,-81.8955764770507,51.47168693512477,-68.07169340267765,2078151093
sw,-82.9074020385742,-83.3359375,46.94635162196659,-90.29688942308883,2078167760
sw,-82.9175338745117,-84.3725280761718,45.07673005962863,-110.4797929488164,2078184427
sw,-82.9828109741211,-84.2257919311523,45.80784981013578,-127.73641997352019,2078201094
sw,-83.156623840332,-82.8967056274414,48.318695147095795,-141.66994563283137,2078217761
sw,-83.2594528198242,-81.2356796264648,51.30367722588055,-152.29024001736278,2078234428
sw,-83.149917602539,-79.4771881103515,53.37665647590961,-159.8761915953685,2078251095
sw,-82.7650833129882,-77.5359802246093,53.46461708992451,-164.84262199363621,2078267762
sw,-82.179084777832,-75.4464797973632,51.07560112975669,-167.63690037344747,2078284429
sw,-81.4686203002929,-73.3705139160156,46.379489235284346,-168.64923724715138,2078301096
sw,-80.7231826782226,-71.1717224121093,40.10369939259922,-168.11272513356428,2078317763
sw,-80.0200500488281,-68.8724288940429,33.29646983961816,-165.99951585137168,2078334430
sw,-79.373046875,-66.547004699707,27.037499062330607,-161.95632723035027,2078351097
sw,-78.7491836547851,-64.2504806518554,22.178045242635005,-155.33141033770636,2078367764
sw,-78.1307067871093,-62.144416809082,19.17385648506222,-145.31932929445443,2078384431
sw,-77.5025939941406,-60.1704216003418,18.041264713733757,-131.20633818468798,2078401098
sw,-76.8763656616211,-58.2869758605957,18.42871379989764,-112.65813928428975,2078417765
sw,-76.2573852539062,-56.6915588378906,19.763948999540943,-89.96690102791449,2078434432
sw,-75.6516494750976,-55.5305290222168,21.42124379374812,-64.17389694388875,2078451099
sw,-75.0687408447265,-54.8984680175781,22.858276974676386,-37.011534658132724,2078467766
sw,-74.5136795043945,-54.8150024414062,23.69484520380096,-10.657947861695547,2078484433
sw,-74.0006790161132,-55.1708641052246,23.733862929057754,12.64755021795541,2078501100
sw,-73.4932632446289,-55.9298934936523,22.945245481696993,31.037373541842673,2078517767
sw,-72.9862442016601,-56.9724693298339,21.43727381116222,43.387757472766594,2078534434
sw,-72.4849319458007,-58.016357421875,19.429938272881767,49.530462877993635,2078551101
sw,-72.0009460449218,-58.7820434570312,17.229299718139824,50.242665368125664,2078567768
sw,-71.5401992797851,-59.4114112854003,15.189699931758765,47.01581585829733,2078584435
sw,-71.1393737792968,-60.0486259460449,13.64727766096355,41.673119574063634,2078601102
sw,-70.8472747802734,-60.6871681213378,12.817336756821582,35.952020978975135,2078617769
sw,-70.6789474487304,-61.2810440063476,12.670061122246604,31.171495687628195,2078634436
sw,-70.5353927612304,-61.7708740234375,12.826311833868168,28.067295326594962,2078651103
sw,-70.3522186279296,-62.3325119018554,12.53144108344675,26.821945432676422,2078667770
sw,-70.1481628417968,-63.1694564819335,10.753800689211369,27.257022036226054,2078684437
sw,-69.9797592163086,-64.4344100952148,6.412821093721581,29.101332738471083,2078701104
sw,-69.8929138183593,-65.6891708374023,-1.3147098740868086,32.21427726892916,2078717771
sw,-70.0315856933593,-66.4402389526367,-12.705317349595404,36.65442637024089,2078734438
sw,-70.5183410644531,-66.8560562133789,-27.320656938149966,42.55414224706848,2078751105
sw,-71.4153060913086,-67.3560714721679,-44.03216007283123,49.86703055892672,2078767772
sw,-72.7094802856445,-68.1618347167968,-61.246555591665626,58.134957948331206,2078784439
sw,-74.4174499511718,-69.418586730957,-77.26839309470594,66.42143760293212,2078801106
sw,-76.4974594116211,-71.0384063720703,-90.68260547435357,73.4753698854104,2078817773
sw,-78.7473449707031,-72.7602767944336,-100.62941438195898,78.07238049768112,2078834440
sw,-80.9873809814453,-74.4291763305664,-106.88658185739907,79.3944639705534,2078851107
sw,-83.1563110351562,-75.8479309082031,-109.75723896270206,77.29286817114576,2078867774
sw,-85.2329788208007,-76.92529296875,-109.84488805023075,72.33464533041533,2078884441
sw,-87.1028137207031,-77.7920455932617,-107.83321440695194,65.62704810380455,2078901108
sw,-88.0094375610351,-78.5985794067382,-104.35795106193316,58.4993262315387,2078917775
sw,-87.0822143554687,-79.4111557006836,-99.98648971157014,52.16163011294825,2078934442
sw,-85.5718994140625,-80.2648620605468,-95.25659586540579,47.44614013048955,2078951109
sw,-84.0424423217773,-81.1009292602539,-90.7033655201289,44.685576297351574,2078967776
sw,-82.5895309448242,-81.9104614257812,-86.8260146248442,43.73057626915521,2078984443
sw,-81.3106384277343,-82.7316970825195,-83.99146521024805,44.07240033032394,2079001110
sw,-80.1016693115234,-83.6019592285156,-82.3134466212619,45.02429059483042,2079017777
sw,-78.8396606445312,-84.4936294555664,-81.56560149119679,45.91462060259104,2079034444
sw,-77.4624862670898,-85.3236236572265,-81.1779215954947,46.249968793285134,2079051111
sw,-76.1110916137695,-86.1052474975586,-80.33332082875349,45.81584660794135,2079067778
sw,-74.8387832641601,-86.8713760375976,-78.14253615823976,44.69833709594542,2079084445
sw,-73.6420516967773,-87.5837860107421,-73.85015522232622,43.228269797207915,2079101112
sw,-72.571548461914,-88.1306228637695,-67.02033029571575,41.86531470269866,2079117779
sw,-71.6257095336914,-88.4277877807617,-57.66140084550789,41.050476285846884,2079134446
sw,-70.8766555786132,-88.4715881347656,-46.26379296359773,41.062981803366846,2079151113
sw,-70.3686294555664,-88.312629699707,-33.74041729989395,41.9203774816422,2079167780
sw,-70.0990524291992,-87.9662628173828,-21.274538641417866,43.35424568391635,2079184447
sw,-69.9985656738281,-87.4447250366211,-10.098028866752449,44.87553946548131,2079201114
sw,-70.0541687011718,-86.7637252807617,-1.2404278966030926,45.91668739052301,2079217781
sw,-70.3331069946289,-85.9507827758789,4.6987024330543985,46.01115668876627,2079234448
sw,-70.6482009887695,-85.0733642578125,7.699273663444226,44.95443731914436,2079251115
sw,-70.8799438476562,-84.2408142089843,8.347641905354843,42.89001674129384,2079267782
sw,-71.0648040771484,-83.5515594482421,7.7217806924549,40.282361688671955,2079284449
sw,-71.2592010498046,-82.9890213012695,7.15108466710812,37.77301101511237,2079301116
sw,-71.4169082641601,-82.5122375488281,7.901976433898643,35.95535270672829,2079317783
sw,-71.5724639892578,-82.03955078125,10.862312918873693,35.13385825184213,2079334450
sw,-71.7566680908203,-81.5509262084961,16.301915306709112,35.14268164968017,2079351117
sw,-72.0079345703125,-81.0456008911132,23.774671908015783,35.28395214860123,2079367784
sw,-72.4720001220703,-80.5118560791015,32.2008105678023,34.41425179796887,2079384451
sw,-73.2055740356445,-79.951301574707,40.126510069307336,31.168949904670917,2079401118
sw,-74.2907028198242,-79.4419708251953,46.10665258522162,24.27763615771902,2079417785
sw,-75.5059661865234,-79.0873413085937,49.109063387932,12.897411752802093,2079434452
sw,-76.5743560791015,-78.9936447143554,48.81665164671904,-3.119453373495104,2079451119
sw,-77.4284973144531,-79.1806335449218,45.72559416356548,-23.097376195811993,2079467786
sw,-77.9630126953125,-79.7149124145507,41.00238467816204,-45.59420864111052,2079484453
sw,-78.4238967895507,-80.6647262573242,36.14537271201014,-68.64583051098802,2079501120
sw,-78.7664794921875,-81.9797592163086,32.561427587568645,-90.15231829963379,2079517787
sw,-79.0406112670898,-83.3095397949218,31.19018696948763,-108.31370359802291,2079534454
sw,-79.3589096069336,-83.810562133789,32.28390484621638,-121.99684364461955,2079551121
sw,-79.7192153930664,-82.9033432006836,35.39475701971795,-130.92521047601653,2079567788
sw,-80.1839828491211,-81.1475448608398,39.55466333154628,-135.6374559508561,2079584455
sw,-80.7005615234375,-79.3195877075195,43.57618937103121,-137.2418119311426,2079601122
sw,-81.1067352294921,-77.6423645019531,46.37431209362078,-137.06287566315768,2079617789
sw,-81.3524169921875,-76.0171813964843,47.216317455576416,-136.2977489360954,2079634456
sw,-81.4999618530273,-74.5214614868164,45.845207997764575,-135.7651281343424,2079651123
sw,-81.4293670654296,-73.0369796752929,42.471828228744776,-135.777208878125,2079667790
sw,-81.1211242675781,-71.3747863769531,37.670071217258915,-136.1287323807269,2079684457
sw,-80.6642608642578,-69.4165267944336,32.22500818677682,-136.18728395642606,2079701124
sw,-80.1120452880859,-67.400764465332,26.97736224785301,-135.06348667736918,2079717791
sw,-79.4879837036132,-65.5449600219726,22.69069205501279,-131.8253017054752,2079734458
sw,-78.8638610839843,-63.8431091308593,19.95155946828155,-125.70715344109641,2079751125
sw,-78.3062591552734,-62.3473052978515,19.103758174092565,-116.26827374403294,2079767792
sw,-77.7995452880859,-61.0395240783691,20.215074690073404,-103.47704506054916,2079784459
sw,-77.3148651123046,-59.8838882446289,23.075854285820984,-87.72549504521383,2079801126
sw,-76.8354415893554,-58.8784866333007,27.229748139818376,-69.79411017236743,2079817793
sw,-76.3511810302734,-58.1093940734863,32.03579745826553,-50.78441272074096,2079834460
sw,-75.8697052001953,-57.6399383544921,36.75603522698754,-32.02175428535991,2079851127
sw,-75.3976821899414,-57.5259246826171,40.65612416371204,-14.919199763980668,2079867794
sw,-74.9101943969726,-57.7077026367187,43.10331618685747,-0.7978727030086399,2079884461
sw,-74.3589553833007,-58.097557067871,43.64931242846697,9.320384367389027,2079901128
sw,-73.7212982177734,-58.4804344177246,42.0925457732019,14.907877633549175,2079917795
sw,-73.0201797485351,-58.8323211669921,38.51854132165837,16.06057975197073,2079934462
sw,-72.3217315673828,-59.0991821289062,33.31434753396681,13.517396238777689,2079951129
sw,-71.7155380249023,-59.2838096618652,27.145654399017623,8.551202885460722,2079967796
sw,-71.2826995849609,-59.4805603027343,20.880224492956483,2.7486841974199914,2079984463
sw,-71.0316543579101,-59.6350364685058,15.446677165962486,-2.274732147183996,2080001130
sw,-70.9031600952148,-59.7390060424804,11.637175134234814,-5.164299674646931,2080017797
sw,-70.7932205200195,-59.8129234313964,9.891189436473438,-5.060206115393036,2080034464
sw,-70.6643142700195,-59.8193778991699,10.12157487344429,-1.72762929084777,2080051131
sw,-70.5202865600586,-59.8865547180175,11.647985186563401,4.45017441316709,2080067798
sw,-70.3521957397461,-60.2220916748046,13.27898353878014,12.623948083743313,2080084465
sw,-70.1848831176757,-61.0631980895996,13.540263993863064,21.746834946589928,2080101132
sw,-70.0813446044921,-62.4081306457519,10.999709279998733,30.885211071352398,2080117799
sw,-70.0980072021484,-63.9590339660644,4.608104321504121,39.4644937579459,2080134466
sw,-70.2919464111328,-65.0921554565429,-6.0332292750556284,47.348353650153,2080151133
sw,-70.7415695190429,-65.8380432128906,-20.549611980535737,54.71121273259065,2080167800
sw,-71.5387802124023,-66.4751434326171,-37.85076244417315,61.763188754966336,2080184467
sw,-72.7998123168945,-67.3382720947265,-56.35728357425515,68.47029815148024,2080201134
sw,-74.5626373291015,-68.810317993164,-74.33401578852872,74.42306596912935,2080217801
sw,-76.6868515014648,-70.6378860473632,-90.23136328090824,78.9278921697323,2080234468
sw,-78.9843292236328,-72.3658599853515,-102.9323459911791,81.2731145244386,2080251135
sw,-81.2538986206054,-74.0048217773437,-111.8450503518395,81.03227341019894,2080267802
sw,-83.385986328125,-75.4672775268554,-116.8518952467762,78.26051561700928,2080284469
sw,-85.2256698608398,-76.6731033325195,-118.18809829902423,73.5066260614703,2080301136
sw,-86.351333618164,-77.6797485351562,-116.33410441950025,67.65309369341267,2080317803
sw,-86.1501007080078,-78.5970458984375,-111.96560965900149,61.66287225614241,2080334470
sw,-84.9643325805664,-79.4896774291992,-105.9421238998463,56.332751935137885,2080351137
sw,-83.5353164672851,-80.3773117065429,-99.27445400770345,52.13248252023594,2080367804
sw,-82.1317672729492,-81.2693405151367,-93.01730012504137,49.164210632614015,2080384471
sw,-80.7905197143554,-82.1679229736328,-88.07767520557461,47.231260760601984,2080401138
sw,-79.596809387207,-83.0689926147461,-84.98481022116427,45.97523456431725,2080417805
sw,-78.4467468261718,-83.9519500732421,-83.70392248903222,45.03031895161923,2080434472
sw,-77.0998764038086,-84.7530517578125,-83.57785718316731,44.14915335183404,2080451139
sw,-75.5515365600586,-85.468879699707,-83.44435588833561,43.269159388809584,2080467806
sw,-73.9210433959961,-86.1314315795898,-81.91454173224707,42.507378627157635,2080484473
sw,-72.4112701416015,-86.7586517333984,-77.73622150210718,42.09215279617765,2080501140
sw,-71.1439666748046,-87.3455429077148,-70.13281480524705,42.25723516627909,2080517807
sw,-70.1133575439453,-87.8730316162109,-59.01855720764038,43.133998388756496,2080534474
sw,-69.2810134887695,-88.3445968627929,-45.03293689225031,44.677815952650654,2080551141
sw,-68.7444305419921,-88.6536102294921,-29.389774667033258,46.65461244370433,2080567808
sw,-68.6213455200195,-88.468391418457,-13.582659068147299,48.69389013106589,2080584475
sw,-69.0456848144531,-87.8060760498046,0.9755935591792171,50.38980176976729,2080601142
sw,-69.6088256835937,-86.9213333129882,13.278834354557581,51.411175948822205,2080617809
sw,-70.0930633544921,-85.9923019409179,22.92019844429671,51.57474429995602,2080634476
sw,-70.4589080810546,-85.1157302856445,30.092416515297003,50.84782352897698,2080651143
sw,-71.0890350341796,-84.3354187011718,35.40548254431769,49.2738425693102,2080667810
sw,-71.8812713623046,-83.6478500366211,39.5954199674441,46.846397325472715,2080684477
sw,-72.572525024414,-83.0620346069336,43.226391695771675,43.382614211679574,2080701144
sw,-73.1649627685546,-82.5557403564453,46.479883766743235,38.45439929095892,2080717811
sw,-73.7663955688476,-82.1068801879882,49.097418586844334,31.422459019305823,2080734478
sw,-74.6264572143554,-81.7169876098632,50.50573144093303,21.58583929077268,2080751145
sw,-75.9295959472656,-81.4488754272461,50.099195122824824,8.41842856765479,2080767812
sw,-77.487564086914,-81.3761596679687,47.58671864751275,-8.173449109285398,2080784479
sw,-78.6125030517578,-81.5625991821289,43.26010996603246,-27.65839173458439,2080801146
sw,-79.2343368530273,-82.0309295654296,38.04985364912215,-48.83243540158668,2080817813
sw,-79.6005172729492,-82.8496932983398,33.315899974522246,-69.96310619444125,2080834480
sw,-79.8332214355468,-83.9588928222656,30.438442486592145,-89.11488117582414,2080851147
sw,-80.1103820800781,-84.81787109375,30.36315617637231,-104.58044270797201,2080867814
sw,-80.3605117797851,-84.3659133911132,33.273775636379014,-115.29072151421242,2080884481
sw,-80.6128463745117,-82.495491027832,38.51213739657216,-121.06646364145607,2080901148
sw,-81.1756820678711,-80.0765533447265,44.771300063250074,-122.62033178661292,2080917815
sw,-81.9852600097656,-77.8343811035156,50.48785020376208,-121.30867213143323,2080934482
sw,-82.6677627563476,-76.0353775024414,54.28967519611763,-118.72486315405042,2080951149
sw,-83.0426940917968,-74.5418014526367,55.343257021097926,-116.2747852686114,2080967816
sw,-83.1324768066406,-73.201675415039,53.49712927786252,-114.85895996868092,2080984483
sw,-82.9030303955078,-71.8873138427734,49.209134897216934,-114.72539550495905,2081001150
sw,-82.4301376342773,-70.4564514160156,43.326443267564436,-115.49388843169774,2081017817
sw,-81.8277816772461,-68.7385635375976,36.822083417257744,-116.31463537674269,2081034484
sw,-81.1949844360351,-66.9961547851562,30.576105518347358,-116.11002142923904,2081051151
sw,-80.5404663085937,-65.3916778564453,25.24607062246899,-113.84346922654623,2081067818
sw,-79.9206619262695,-63.886734008789,21.228472502150133,-108.75781811250131,2081084485
sw,-79.4081954956054,-62.5796203613281,18.686392468193535,-100.53381989947927,2081101152
sw,-78.9771270751953,-61.4686431884765,17.610375136393838,-89.34128243578773,2081117819
sw,-78.57421875,-60.5583992004394,17.88297615164539,-75.78617447074913,2081134486
sw,-78.1550521850586,-59.831199645996,19.327304955531527,-60.784814561651196,2081151153
sw,-77.6803588867187,-59.3106231689453,21.732161645548,-45.40954041412518,2081167820
sw,-77.1988525390625,-59.0241203308105,24.85644131353661,-30.74511012425205,2081184487
sw,-76.7408828735351,-58.9307708740234,28.420621851501398,-17.777398673331465,2081201154
sw,-76.2884521484375,-58.9187889099121,32.0950956555484,-7.31591835860003,2081217821
sw,-75.8062438964843,-59.0244789123535,35.49680124338397,0.06226940574347162,2081234488
sw,-75.2421875,-59.2325057983398,38.20636654399116,4.06237770052853,2081251155
sw,-74.6009063720703,-59.4043502807617,39.81406581636123,4.720773656927377,2081267822
sw,-73.9369201660156,-59.5050926208496,39.99256701310157,2.441594057943772,2081284489
sw,-73.27001953125,-59.509593963623,38.58095928577429,-2.0020451935300456,2081301156
sw,-72.6281585693359,-59.4578552246093,35.6542583395547,-7.52325117928386,2081317823
sw,-72.0577011108398,-59.4217872619628,31.550820646576177,-12.839141192791356,2081334490
sw,-71.5763092041015,-59.4371604919433,26.8385232706824,-16.639800653159373,2081351157
sw,-71.1894378662109,-59.4777793884277,22.216844767192157,-17.785983524000223,2081367824
sw,-70.8997116088867,-59.5662803649902,18.370786267907718,-15.509610693690933,2081384491
sw,-70.6898956298828,-59.6339530944824,15.807551040657028,-9.588164410249822,2081401158
sw,-70.4953918457031,-59.6602554321289,14.713186512724246,-0.45545799281988025,2081417825
sw,-70.314224243164,-59.8398208618164,14.86279819226744,10.799199206695892,2081434492
sw,-70.1758880615234,-60.223388671875,15.607560190789286,22.58868475154032,2081451159
sw,-70.0621566772461,-60.95849609375,15.949135517362063,33.156031578134765,2081467826
sw,-69.9423904418945,-62.2522354125976,14.69869911042226,41.02361477976827,2081484493
sw,-69.8394317626953,-63.960090637207,10.701448595857785,45.44161766035061,2081501160
sw,-69.8195571899414,-65.8161544799804,3.0881535939856417,46.66821797392041,2081517827
sw,-69.9852600097656,-66.9247817993164,-8.501187126646013,45.93514901841347,2081534494
sw,-70.4396362304687,-67.2027893066406,-23.78090514342784,45.05686148903587,2081551161
sw,-71.2938003540039,-67.3213500976562,-41.81569690105922,45.79751028154114,2081567828
sw,-72.5786972045898,-67.6570510864257,-61.16254404800978,49.238094579907646,2081584495
sw,-74.3644561767578,-68.607307434082,-80.13036872738046,55.404791989086974,2081601162
sw,-76.5447235107421,-70.3219757080078,-97.09145320435736,63.30625555946836,2081617829
sw,-78.9289398193359,-72.1337051391601,-110.76023242789559,71.34097566779954,2081634496
sw,-81.2349166870117,-73.9630126953125,-120.3677346269994,77.87817355587038,2081651163
sw,-83.3355255126953,-75.6705932617187,-125.70194425469025,81.76652449008806,2081667830
sw,-85.0576400756836,-77.0661315917968,-127.03591097817481,82.59401704409629,2081684497
sw,-86.107666015625,-78.2030487060546,-124.9987999545452,80.65495206554105,2081701164
sw,-86.0630874633789,-79.2742462158203,-120.4440818773231,76.70289635533825,2081717831
sw,-84.9158477783203,-80.4013671875,-114.34006317844911,71.6308234339024,2081734498
sw,-83.3418884277343,-81.5620346069336,-107.67371320367528,66.2100865742663,2081751165
sw,-81.7040481567382,-82.72900390625,-101.34268063308464,60.960414209803446,2081767832
sw,-80.2070083618164,-83.8685760498046,-96.02262385353612,56.152090475374585,2081784499
sw,-78.9251861572265,-84.9339218139648,-92.02901412968686,51.89142791311857,2081801166
sw,-77.6148071289062,-85.8786849975586,-89.2226876968788,48.224746167315814,2081817833
sw,-76.1376342773437,-86.6730422973632,-87.01416499604208,45.2092570810742,2081834500
sw,-74.5343856811523,-87.3552932739257,-84.4936835309093,42.92779310008777,2081851167
sw,-73.0277786254882,-87.9939727783203,-80.66418943651206,41.45430195883271,2081867834
sw,-71.7466278076171,-88.6426086425781,-74.71138563637761,40.79805396460316,2081884501
sw,-70.6824569702148,-89.3276977539062,-66.23173359278869,40.86091025084277,2081901168
sw,-69.7212295532226,-90.0,-55.356750587790714,41.43378571624563,2081917835
sw,-68.8451385498046,-89.3350067138671,-42.74232699718371,42.24049133243806,2081934502
sw,-68.2680206298828,-88.4970169067382,-29.420275083411354,43.01634538880567,2081951169
sw,-68.1998825073242,-87.6425857543945,-16.53750442841007,43.59200662172101,2081967836
sw,-68.6370544433593,-86.8265838623046,-5.044104600297286,43.94605665373496,2081984503
sw,-69.1911163330078,-86.0653762817382,4.5724883571757715,44.19730300200858,2082001170
sw,-69.4312515258789,-85.3168029785156,12.403003014524158,44.528790070516386,2082017837
sw,-69.5378265380859,-84.5986251831054,19.023397947488327,45.062402460678896,2082034504
sw,-69.9722442626953,-83.9222106933593,25.221292391854146,45.724628256444596,2082051171
sw,-70.5219268798828,-83.2433853149414,31.64623957881798,46.15207753603197,2082067838
sw,-71.0479660034179,-82.5057983398437,38.513906582827794,45.67704791573359,2082084505
sw,-71.56689453125,-81.7673950195312,45.46798235490649,43.41145680559008,2082101172
sw,-72.3412094116211,-81.108772277832,51.65075200642891,38.41869903140487,2082117839
sw,-73.4854354858398,-80.559585571289,55.97094570617353,29.936509818165682,2082134506
sw,-74.8951721191406,-80.152961730957,57.49169008091498,17.59704338162307,2082151173
sw,-76.2652282714843,-80.0250473022461,55.807854131210206,1.5862348380041775,2082167840
sw,-77.3216476440429,-80.2217559814453,51.26986905866593,-17.306439741915597,2082184507
sw,-78.0098419189453,-80.7733154296875,44.95900628405433,-37.77493033721745,2082201174
sw,-78.4509353637695,-81.6961059570312,38.41294593713583,-58.21556593883891,2082217841
sw,-78.7172241210937,-83.0515518188476,33.197294193465396,-77.03694077944446,2082234508
sw,-78.936164855957,-84.6866989135742,30.47395150396888,-92.98681110177776,2082251175
sw,-79.1764755249023,-85.7060470581054,30.710227823408886,-105.40353264819657,2082267842
sw,-79.4804763793945,-84.879524230957,33.61241871796963,-114.30955513526538,2082284509
sw,-79.9637756347656,-82.8445968627929,38.28257326379884,-120.3119951478335,2082301176
sw,-80.4953155517578,-80.7354354858398,43.52121405970306,-124.34840663199375,2082317843
sw,-80.9119186401367,-78.8670043945312,48.15979995982827,-127.37771692247294,2082334510
sw,-81.1090545654296,-77.0533981323242,51.31729610829735,-130.1276220486114,2082351177
sw,-81.1650924682617,-75.365119934082,52.52567839748468,-132.96354542340316,2082367844
sw,-81.0679855346679,-73.735481262207,51.73056208726371,-135.87633644851002,2082384511
sw,-80.8504791259765,-72.0033569335937,49.2133596628129,-138.5433900114055,2082401178
sw,-80.5174942016601,-70.0571136474609,45.48557551942477,-140.41716547948423,2082417845
sw,-80.0046768188476,-68.043212890625,41.18401379059063,-140.81616925084202,2082434512
sw,-79.2964859008789,-66.2008972167968,36.97178381095629,-139.01165650016168,2082451179
sw,-78.5293197631836,-64.5164260864257,33.44242858030708,-134.31284720248715,2082467846
sw,-77.8674087524414,-62.9141998291015,31.03321057385056,-126.15896298654,2082484513
sw,-77.271858215332,-61.3692283630371,29.963755294888568,-114.22644903975322,2082501180
sw,-76.6983642578125,-59.8727416992187,30.214652754322177,-98.54848118376754,2082517847
sw,-76.1465530395507,-58.5802993774414,31.547906949497506,-79.6227637259143,2082534514
sw,-75.59228515625,-57.5989227294921,33.55830348766462,-58.4644153599893,2082551181
sw,-75.038345336914,-56.9996528625488,35.74072838869922,-36.55739444647856,2082567848
sw,-74.492317199707,-56.7681045532226,37.563192853535924,-15.677549731456727,2082584515
sw,-73.9270782470703,-57.0534973144531,38.54246044950091,2.40052409722834,2082601182
sw,-73.3332290649414,-57.7475547790527,38.32171605292196,16.25437477771032,2082617849
sw,-72.7117462158203,-58.4308471679687,36.744209325694115,25.127793334406395,2082634516
sw,-72.0699996948242,-59.0950851440429,33.905879497243475,29.106311551264444,2082651183
sw,-71.4439010620117,-59.6032104492187,30.16167002207089,29.085249179998456,2082667850
sw,-70.8992614746093,-60.1009330749511,26.06314214790465,26.527565479979977,2082684517
sw,-70.4799346923828,-60.5154914855957,22.222446905429567,23.081064725091906,2082701184
sw,-70.2197189331054,-60.8608169555664,19.125549499943396,20.171898370041756,2082717851
sw,-70.0365753173828,-61.2279396057128,16.945340202884186,18.697629690096523,2082734518
sw,-69.8486404418945,-61.581558227539,15.419259511172687,18.911372288584325,2082751185
sw,-69.662368774414,-62.1115226745605,13.845412729667924,20.529983238118966,2082767852
sw,-69.5046691894531,-63.2073554992675,11.215592225455897,23.02467821317054,2082784519
sw,-69.4389038085937,-64.6344985961914,6.4566055934565725,25.977013916540272,2082801186
sw,-69.4556045532226,-65.9541015625,-1.2871529508077346,29.33763239234342,2082817853
sw,-69.6062622070312,-66.5464172363281,-12.412190453621989,33.44910846693961,2082834520
sw,-70.0343017578125,-66.7320327758789,-26.72644700692397,38.8021440907526,2082851187
sw,-70.9069213867187,-66.9273223876953,-43.469856415820395,45.6419879525169,2082867854
sw,-72.3128890991211,-67.5284576416015,-61.476493876565726,53.6400896510891,2082884521
sw,-74.2248306274414,-68.8914489746093,-79.42207202475389,61.82470512665823,2082901188
sw,-76.487075805664,-70.6168746948242,-96.0695691094733,68.83071212165999,2082917855
sw,-78.9088516235351,-72.4000625610351,-110.43087648740133,73.3636530442186,2082934522
sw,-81.3181838989257,-74.176513671875,-121.80925022976359,74.66981139044982,2082951189
sw,-83.6964721679687,-75.5770187377929,-129.75507310929967,72.80975248976587,2082967856
sw,-85.9282150268554,-76.493667602539,-134.01379417576976,68.63069576694271,2082984523
sw,-87.2144165039062,-77.2305908203125,-134.53547654355106,63.46730812295009,2083001190
sw,-86.3138427734375,-78.0163345336914,-131.55417123794902,58.70749281213208,2083017857
sw,-84.3419952392578,-78.9856185913086,-125.67537387171882,55.394570542780734,2083034524
sw,-82.4041595458984,-80.0695877075195,-117.88004787377676,53.99429779993861,2083051191
sw,-80.6669387817382,-81.1486511230468,-109.3837775869257,54.3699202918578,2083067858
sw,-79.1856307983398,-82.2516937255859,-101.36142386435705,55.93038090735639,2083084525
sw,-77.9887161254882,-83.443603515625,-94.62209864348456,57.875046089185986,2083101192
sw,-76.7257690429687,-84.6592559814453,-89.35907345991552,59.45147355640949,2083117859
sw,-75.2586135864257,-85.7528762817382,-85.08386408775557,60.155716024167724,2083134526
sw,-73.6356887817382,-86.6516342163086,-80.78657774335866,59.827895362552425,2083151193
sw,-72.0769348144531,-87.3084106445312,-75.27451792166045,58.62700431656456,2083167860
sw,-70.7507095336914,-87.6676254272461,-67.57119314389422,56.903789271144326,2083184527
sw,-69.6982803344726,-87.7460632324218,-57.24043582722187,55.02004956496321,2083201194
sw,-68.8899612426757,-87.6559066772461,-44.536203843777606,53.17865206766113,2083217861
sw,-68.3249206542968,-87.4026412963867,-30.34215739905921,51.327093318456605,2083234528
sw,-68.1151733398437,-86.9164428710937,-15.927618549133719,49.17665888346569,2083251195
sw,-68.4456024169921,-86.1627349853515,-2.594157301507227,46.33978157694357,2083267862
sw,-69.0393371582031,-85.2589721679687,8.682583016691982,42.539042196478405,2083284529
sw,-69.58544921875,-84.4050064086914,17.504034878532213,37.80206856290634,2083301196
sw,-69.8997344970703,-83.7189636230468,24.10919782842489,32.549411971973214,2083317863
sw,-70.4009246826171,-83.2621002197265,29.22465470490987,27.51696027166457,2083334530
sw,-71.0403137207031,-83.0305786132812,33.75841474816327,23.51914260574686,2083351197
sw,-71.6124114990234,-82.9473419189453,38.4416683956588,21.12669555528094,2083367864
sw,-72.162483215332,-82.8454132080078,43.5335764083139,20.374141594740426,2083384531
sw,-72.7609024047851,-82.6518020629882,48.685287271407795,20.61015671905656,2083401198
sw,-73.6046905517578,-82.3437118530273,53.01968833308141,20.559501440106022,2083417865
sw,-74.8400650024414,-81.933235168457,55.42246805044416,18.595465012386725,2083434532
sw,-76.4431228637695,-81.4909133911132,54.96346861672063,13.152217122041145,2083451199
sw,-77.8021926879882,-81.2131118774414,51.30199624216484,3.159912497191968,2083467866
sw,-78.7749710083007,-81.1645584106445,44.914902140061145,-11.624867790659874,2083484533
sw,-79.3483047485351,-81.4596939086914,37.04339584214378,-30.493056581862763,2083501200
sw,-79.6409454345703,-82.177978515625,29.36421259182296,-51.90418183943689,2083517867
sw,-79.7361679077148,-83.3489303588867,23.501125726437852,-73.82666144043324,2083534534
sw,-79.838508605957,-84.7040557861328,20.553505663126312,-94.20361271971319,2083551201
sw,-80.0157394409179,-85.4743728637695,20.807231578315378,-111.40928058967236,2083567868
sw,-80.3037719726562,-84.6682891845703,23.719002820637403,-124.56182099457693,2083584535
