Label,Left_Hip_q,Right_Hip_q,Left_Hip_qd,Right_Hip_qd,SampleTimeFine
sq,59.8177265167236,60.0294159889221,22.7228105068207,-45.4054176807404,509833278
sq,60.1812914848328,59.3029293060303,-30.11906361230674,-61.743489078992205,509849945
sq,59.6997207641601,58.3152193069458,-44.09026094532504,-68.13081102333076,509866612
sq,58.7826513290405,57.3682283401489,-57.202841353823906,-74.61970554475185,509883279
sq,57.7930225372314,56.2557720184326,-68.71934450893978,-81.22229423516929,509899946
sq,56.7233585357666,55.0007699966431,-78.14676483218085,-87.83935017803579,509916613
sq,55.4851707458496,53.5904516220093,-85.28515763726878,-94.2744530783753,509933280
sq,54.0897058486939,52.037396812439,-90.21891043496225,-100.28817031902042,509949947
sq,52.694020652771,50.3690990447998,-93.26476970675802,-105.66721226921557,509966614
sq,51.1856254577637,48.6509269714356,-94.89366451582843,-110.28172575680044,509983281
sq,49.6641010284424,46.8865627288818,-95.64211300140677,-114.11331032722022,509999948
sq,48.1433929443359,45.0812744140625,-96.02695190732491,-117.24971738834516,510016615
sq,46.6360229492187,43.1811603546143,-96.47522637439472,-119.85269685793148,510033282
sq,45.1100524902344,41.2848915100098,-97.2786479447134,-122.11051303860621,510049949
sq,43.5527862548828,39.3161739349365,-98.57789988017475,-124.1878680121757,510066616
sq,41.9588607788086,37.3476871490479,-100.37668358067486,-126.18568634381293,510083283
sq,40.3659748077393,35.3920616149902,-102.58084503177383,-128.12171693917668,510099950
sq,38.7868618011475,33.3620590209961,-105.05501816877882,-129.9385746941634,510116617
sq,37.1041454315186,31.2824272155762,-107.68604764721326,-131.53761697191374,510133284
sq,35.3073448181152,29.1459144592285,-110.43762196422084,-132.82712929463648,510149951
sq,33.4761756896973,26.9503768920898,-113.37738449551502,-133.76690888757605,510166618
sq,31.6174873352051,24.7817977905273,-116.66227459098762,-134.39292624106042,510183285
sq,29.7512573242187,22.6743911743164,-120.4814960619289,-134.81496228340475,510199952
sq,27.8888076782227,20.5381683349609,-124.97330244468328,-135.1912723519828,510216619
sq,25.9127830505371,18.3796981811523,-130.14286034244913,-135.6905577171379,510233286
sq,23.8660377502441,16.2337478637695,-135.80878297122155,-136.45043461715602,510249953
sq,21.7598518371582,14.0203804016113,-141.59661238346297,-137.5363606903396,510266620
sq,19.503645324707,11.7790550231934,-146.98291970284097,-138.90065780378583,510283287
sq,17.1231101989746,9.5324462890625,-151.37820463706447,-140.3414446718181,510299954
sq,14.6658805847168,7.29381790161133,-154.22473083377264,-141.46681161696205,510316621
sq,12.1711524963379,4.97942962646484,-155.08084412795924,-141.678337188458,510333288
sq,9.62795104980469,2.78518524169922,-153.66772861382503,-140.19608012255668,510349955
sq,7.05663146972656,0.781317138671875,-149.86684331706255,-136.14877310855846,510366622
sq,4.6583122253418,-1.21831665039063,-143.6746019839418,-128.74000343919954,510383289
sq,2.48706665039062,-3.46592864990234,-135.14113211303192,-117.4696122341225,510399956
sq,0.476087951660157,-5.43575439453125,-124.33250695166451,-102.35087176339995,510416623
sq,-1.40980682373047,-7.23654327392578,-111.34934515569849,-84.04247216551492,510433290
sq,-3.15921173095703,-8.81263122558594,-96.40679068116935,-63.82677867423255,510449957
sq,-4.7646728515625,-9.93602905273437,-79.943089474894,-43.40955401233389,510466624
sq,-6.23115692138672,-10.6844879150391,-62.695120684004564,-24.57627849734422,510483291
sq,-7.56414184570312,-10.85,-45.676517494189596,-8.796794805334127,510499958
sq,-8.54477081298828,-10.4709945678711,-30.026684015441095,3.1001712863587354,510516625
sq,-8.59868774414062,-10.3052001953125,-16.75985552263703,11.078873234141884,510533292
sq,-8.68393096923828,-10.2677932739258,-6.501972095086532,15.83604495762583,510549959
sq,-8.51754913330078,-10.1634307861328,0.6794674481600963,18.568787566391638,510566626
sq,-8.47442016601562,-9.97643432617187,5.28572033606583,20.66159415600756,510583293
sq,-8.45935974121094,-9.73200378417969,8.240514627798744,23.384813463299853,510599960
sq,-8.48591766357422,-9.34639892578125,10.65213622508961,27.66532106915644,510616627
sq,-8.51751861572266,-8.78025970458984,13.574781786102767,33.953459897856554,510633294
sq,-8.43266448974609,-8.30494079589844,17.84482531887002,42.18717581392188,510649961
sq,-8.14294586181641,-7.74481353759766,24.023403307197622,51.84695366235843,510666628
sq,-7.68161926269531,-6.97952423095703,32.42532634711616,62.09246519865207,510683295
sq,-7.00217590332031,-5.91681060791016,43.178369821049166,71.96186741430243,510699962
sq,-6.09958801269531,-4.77383575439453,56.25124718388967,80.59789052873795,510716629
sq,-5.05150756835937,-3.49048767089844,71.41538634989301,87.451420927158,510733296
sq,-4.01164398193359,-1.93847045898438,88.15425775832956,92.41060149884098,510749963
sq,-2.91145477294922,-0.263787841796875,105.58132982060374,95.81352628645168,510766630
sq,-1.52869567871094,1.32267608642578,122.44512871998069,98.32767654481532,510783297
sq,0.465444946289063,3.11346664428711,137.27129674854544,100.71981028238014,510799964
sq,2.74226989746094,4.33031311035156,148.63006562597116,103.5861564745731,510816631
sq,5.11901321411133,5.73084487915039,155.4579133110167,107.14211980079855,510833298
sq,7.80106582641601,7.09998931884766,157.3325565625511,111.1590739104268,510849965
sq,10.5347427368164,9.00248565673828,154.6068027805401,115.07747654222194,510866632
sq,13.3098739624023,10.9932922363281,148.3433953032827,118.24628772727696,510883299
sq,15.722868347168,13.1899322509766,140.0536230063463,120.18224720265549,510899966
sq,17.8208984375,15.3695014953613,131.31393327547775,120.73951899824311,510916633
sq,19.4220413208008,17.2875350952148,123.3888267726388,120.1290611290739,510933300
sq,20.9843353271484,19.1873649597168,116.991652244367,118.79958584410186,510949967
sq,22.8985847473145,20.7823280334473,112.25467566895767,117.25132336688279,510966634
sq,25.0278533935547,22.3727821350098,108.88325143525515,115.87237185741299,510983301
sq,27.1069053649902,24.2426361083984,106.39302766294078,114.85879103174103,510999968
sq,28.9208358764648,26.3947662353516,104.31844071384789,114.22382909057757,511016635
sq,30.3759330749512,28.3553871154785,102.3308585868112,113.85683512402397,511033302
sq,31.8807395935059,30.0135864257812,100.26919028382335,113.58630136529544,511049969
sq,33.4628852844238,31.7643188476562,98.11931911510305,113.2261520805927,511066636
sq,35.1610206604004,33.6608489990234,95.97293907398344,112.60827504393836,511083303
sq,36.8170894622803,35.4113945007324,93.97663374621395,111.60908384730881,511099970
sq,38.2247337341309,37.1980518341064,92.27524232451258,110.17092451273301,511116637
sq,39.5552295684814,38.9976734161377,90.96232400561068,108.31344420006495,511133304
sq,40.9712833404541,40.8349746704101,90.05707632420157,106.12994139303034,511149971
sq,42.4065689086914,42.4248279571533,89.51721951054492,103.76859701058534,511166638
sq,43.9192203521729,44.0255569458008,89.27615492798012,101.40538242260779,511183305
sq,45.5084060668945,45.6550354003906,89.27726879473435,99.21777904176282,511199972
sq,46.9402603149414,47.2567314147949,89.4810440443828,97.3624564311138,511216639
sq,48.3529991149902,48.9822563171387,89.84025330295859,95.95195905752732,511233306
sq,49.7052520751953,50.5251678466797,90.26170406269699,95.02597745265724,511249973
sq,51.0024532318115,51.8140062332153,90.5842573731826,94.52398767129466,511266640
sq,52.4405654907226,53.3632968902588,90.59463121905955,94.27653700507511,511283307
sq,53.9193710327148,54.8018297195435,90.07967714152747,94.02891036846366,511299974
sq,55.4924444198608,56.3420986175537,88.89044209901577,93.49360285509357,511316641
sq,56.9957336425781,57.9825853347778,86.98418494312426,92.4105564807243,511333308
sq,58.4546178817749,59.5116485595703,84.42159240258354,90.58970994471802,511349975
sq,59.6823266983032,60.9291523933411,81.32081835315141,87.92191024743671,511366642
sq,60.9386128425598,62.2242268562317,77.79237067868716,84.36294498068561,511383309
sq,62.0787915229797,63.5668477058411,73.88591674961698,79.90736835320999,511399976
sq,63.3344434738159,64.8801025390625,69.56952084424886,74.56666244116829,511416643
sq,64.4399081707001,66.109309399128,64.74323552693536,68.35610353881088,511433310
sq,65.506288433075,67.2180376291275,59.27486881135038,61.28793907213813,511449977
sq,66.4731049776077,68.1504934072495,53.04199646921762,53.36964581216422,511466644
sq,67.3709103703499,68.9493037700653,45.96871075871846,44.61002398547114,511483311
sq,67.9812913775444,69.6607457637787,38.05264747454055,35.03536093504671,511499978
sq,68.5469433307648,70.2860931396484,29.381691053755954,24.711542717839176,511516645
sq,69.1715393304825,70.7334152698517,20.137179360627574,13.761790326018476,511533312
sq,69.5846288442612,70.9287659168243,10.575990285346032,2.3703864954332823,511549979
sq,69.7012788295746,70.9383813381195,0.9875569528542908,-9.229836004691752,511566646
sq,69.6242121696472,70.7711998462677,-8.36464587730863,-20.781120631792948,511583313
sq,69.4377329587936,70.4964810848236,-17.296063501015936,-32.02837523497036,511599980
sq,69.2208947181702,69.9647957324982,-25.728976754643437,-42.74532088812272,511616647
sq,68.7838868141174,69.2570337295532,-33.68785662004007,-52.75496134696257,511633314
sq,68.2117735981941,68.3731620550156,-41.26640806903845,-61.9401742411284,511649981
sq,67.5635021492839,67.4072205066681,-48.57703826279073,-70.24212051027264,511666648
sq,66.8168524742127,66.2982834815979,-55.696749738122485,-77.64867067060028,511683315
sq,65.9223307609558,65.0631075143814,-62.62511730974738,-84.17889591566187,511699982
sq,64.9947489738464,63.7328905105591,-69.26838873474883,-89.86980998471246,511716649
sq,63.9453329086304,62.2753991127014,-75.45698305943309,-94.76848317139662,511733316
sq,62.7039035797119,60.7644394874573,-80.992073660255,-98.92912769275405,511749983
sq,61.3198150634766,59.1743539810181,-85.70447984375862,-102.41287745149074,511766650
sq,59.8773697853088,57.5222171783447,-89.50322902682164,-105.28816005268311,511783317
sq,58.4738096237183,55.8357023239136,-92.39725117961889,-107.63108885860524,511799984
sq,57.0312665939331,54.17476978302,-94.48812986043379,-109.5268544802623,511816651
sq,55.5574001312256,52.4240278244018,-95.94419855675017,-111.07272714196074,511833318
sq,54.0073741912842,50.5909351348877,-96.9691643049502,-112.3801153741375,511849985
sq,52.4405197143555,48.7442268371582,-97.77356050714727,-113.56995761044354,511866652
sq,50.8605712890625,46.9521221160889,-98.5515678586374,-114.75723310155716,511883319
sq,49.3419288635254,45.1257308959961,-99.46344640787868,-116.02709768766215,511899986
sq,47.7229389190674,43.3049606323242,-100.62389152699438,-117.411782732493,511916653
sq,46.0668224334717,41.4752925872803,-102.09640554707629,-118.87836277124474,511933320
sq,44.4771522521973,39.5197128295898,-103.89343537684137,-120.33221147010352,511949987
sq,42.8157810211182,37.5643447875976,-105.98301698256783,-121.63382438513895,511966654
sq,41.117004776001,35.6213096618652,-108.30395805898196,-122.62330265349581,511983321
sq,39.4331630706787,33.6659301757812,-110.79069527087987,-123.14907603733307,511999988
sq,37.6755012512207,31.7691940307617,-113.4050462275282,-123.1015465587209,512016655
sq,35.8299774169922,29.8176712036133,-116.16620428316789,-122.4522756105881,512033322
sq,33.920435333252,27.8545783996582,-119.16523776066366,-121.29277058160818,512049989
sq,31.9219268798828,25.8530181884766,-122.55060688849788,-119.85756546597979,512066656
sq,29.9472297668457,23.8359016418457,-126.48024285891023,-118.51158854539351,512083323
sq,28.0027297973633,21.915380859375,-131.05121279639715,-117.68771825010185,512099990
sq,25.9762748718262,19.9999183654785,-136.231222429409,-117.776791923874,512116657
sq,23.8092750549316,18.1440757751465,-141.81822665991479,-118.9927225744976,512133324
sq,21.5933250427246,16.2614540100098,-147.4435625731661,-121.25144900636113,512149991
sq,19.2948936462402,14.4788841247559,-152.6161649370189,-124.10789279685333,512166658
sq,16.7343696594238,12.6657089233398,-156.7882637331379,-126.78569696801866,512183325
sq,13.990030670166,10.6708015441894,-159.4143473296543,-128.30850094070178,512199992
sq,11.4177154541016,8.48147048950195,-159.98354596855933,-127.704817126623,512216659
sq,9.01627197265625,6.28731384277344,-158.03136844054453,-124.22791880944602,512233326
sq,6.75650634765625,4.21222152709961,-153.16249693286989,-117.52535774544812,512249993
sq,4.42934265136719,2.35672607421875,-145.11673126165368,-107.71309927177592,512266660
sq,2.00124206542969,0.616644287109375,-133.87731185930068,-95.34270342521675,512283327
sq,-0.385942077636718,-0.992875671386718,-119.77635796437113,-81.2792913257218,512299994
sq,-2.55223236083984,-2.25084838867187,-103.53092582751556,-66.52676974630216,512316661
sq,-4.32488403320312,-3.21357879638672,-86.16516791369304,-52.04684070306128,512333328
sq,-5.52793273925781,-3.83365783691406,-68.82867405623476,-38.618366076574645,512349995
sq,-6.32101593017578,-4.43705902099609,-52.57431667558673,-26.767815828413276,512366662
sq,-7.16096649169922,-5.00598297119141,-38.1772908107168,-16.77145830905155,512383329
sq,-7.59028778076172,-5.39517364501953,-26.051726661008814,-8.701730373376153,512399996
sq,-8.23271331787109,-5.53128204345703,-16.27266538880196,-2.4821409063369795,512416663
sq,-8.49280700683594,-5.49614868164062,-8.66982636515777,2.0711908598844517,512433330
sq,-8.65760955810547,-5.43753967285156,-2.9433164547902773,5.223912567298999,512449997
sq,-8.76156005859375,-5.35234985351562,1.241648253284812,7.307404365116563,512466664
sq,-8.78691253662109,-5.34004364013672,4.206248344061874,8.708496086278998,512483331
sq,-8.74257049560547,-5.25530395507812,6.2622370890720465,9.8640889512117,512499998
sq,-8.65313110351562,-4.97553405761719,7.758166779105495,11.255164447505887,512516665
sq,-8.48528442382812,-4.73490295410156,9.142969294811783,13.386309543657996,512533332
sq,-8.2746826171875,-4.47437438964844,11.014316176524376,16.736132303619367,512549999
sq,-8.03901062011719,-4.19988403320312,14.120788066656123,21.676119746790526,512566666
sq,-7.78564605712891,-3.85034332275391,19.29841595872331,28.37451982496624,512583333
sq,-7.41439971923828,-3.44602355957031,27.340510303486752,36.71749810371624,512600000
sq,-6.94214019775391,-2.98657379150391,38.82025191567624,46.2851815469729,512616667
sq,-6.38373718261719,-2.43647155761719,53.90418983783734,56.41111880272496,512633334
sq,-5.63868865966797,-1.5835205078125,72.20687266438333,66.3280625915577,512650001
sq,-4.59440765380859,-0.346551513671875,92.73598899806308,75.36634712572167,512666668
sq,-3.17778930664062,1.01824798583984,113.95981237913092,83.14066671820785,512683335
sq,-1.30588684082031,2.45483245849609,133.9989916691441,89.6560713164944,512700002
sq,0.861105346679688,3.86230316162109,150.91464441057656,95.28883810190591,512716669
sq,3.1413330078125,5.57008972167969,163.04410448530356,100.6391097335993,512733336
sq,5.72793426513672,7.41959609985351,169.32411542645326,106.29489850136797,512750003
sq,8.60162582397461,8.63112869262695,169.53274634398102,112.58441146578804,512766670
sq,11.5738395690918,10.0132011413574,164.37861420924588,119.4135769775418,512783337
sq,14.545378112793,11.840788269043,155.38447462270258,126.26505358259386,512800004
sq,17.0513366699219,13.9959053039551,144.56350990326456,132.3680814498164,512816671
sq,19.2249740600586,16.3677467346191,133.9595475458409,136.96970964386804,512833338
sq,20.9852355957031,18.5414260864258,125.1832431780822,139.59489848573756,512850005
sq,22.7161239624023,21.2326683044434,119.08981961407264,140.19437757754116,512866672
sq,24.4185585021973,23.5676254272461,115.69801713706782,139.13130825248328,512883339
sq,26.1475471496582,25.4927963256836,114.3622909592676,137.02636539164365,512900006
sq,28.1893905639648,27.5093063354492,114.11668194480102,134.53774749947564,512916673
sq,30.6402648925781,29.4616683959961,114.04761330837898,132.16988624158734,512933340
sq,32.8009323120117,31.6214164733887,113.55466769265115,130.1747918051127,512950007
sq,34.3826583862305,33.8310722351074,112.4279308161755,128.556966937939,512966674
sq,35.7673686981201,35.8603157043457,110.76860239913334,127.15095300925047,512983341
sq,37.3972286224365,37.9324058532715,108.84190104146973,125.72631129996005,513000008
sq,39.3008769989014,40.0291465759277,106.94413821797134,124.08186587926389,513016675
sq,41.1635116577148,41.9701427459717,105.31627641922674,122.10572081577499,513033342
sq,42.7699550628662,43.9781803131104,104.09683845644581,119.79209659444915,513050009
sq,44.4204925537109,45.8847068786621,103.30095430043806,117.21831287052518,513066676
sq,46.0128234863281,47.843567276001,102.82357441275609,114.49492446832006,513083343
sq,47.5819591522217,49.4527439117432,102.46966908220065,111.7086811790611,513100010
sq,49.2788928985596,51.2886985778809,102.00591854693174,108.87904759060183,513116677
sq,51.0168594360351,53.040796661377,101.21575383385847,105.94146453842171,513133344
sq,52.7273515701294,54.6991437911987,99.93506835344735,102.75726191936984,513150011
sq,54.2922157287598,56.4590486526489,98.05581417551676,99.13963040126536,513166678
sq,55.7447504043579,58.024321937561,95.5032892329481,94.88313825525795,513183345
sq,57.2569488525391,59.5224384307861,92.20614117043101,89.7898241057328,513200012
sq,58.746022605896,60.9061540603638,88.0768321846009,83.69204008198572,513216679
sq,60.1742819786072,62.2081068992615,83.00879251180652,76.47443996088263,513233346
sq,61.5185936927795,63.5503157615662,76.88609646709503,68.0931195362312,513250013
sq,62.802979850769,64.6683856487274,69.5989989236246,58.58482513452453,513266680
sq,63.8247813224792,65.5913940906525,61.06258225194486,48.06094326221556,513283347
sq,64.7736383914948,66.2886892795563,51.24007529099402,36.689559578916416,513300014
sq,65.608859205246,66.8522944092751,40.171614876321,24.675826670589515,513316681
sq,66.2527315855026,67.2703137636185,28.00285229852272,12.249372844315483,513333348
sq,66.7729572892189,67.475640887022,15.00128110997383,-0.3402751596598228,513350015
sq,67.0568497419357,67.49451597929,1.5478825790671442,-12.825888413018689,513366682
sq,67.0974156498909,67.2646672964096,-11.900403406446799,-24.92921044184112,513383349
sq,66.8019504189491,66.9012563169003,-24.869739684694927,-36.376161574102404,513400016
sq,66.4226144790649,66.3449830651283,-36.93348993972213,-46.920640920683795,513416683
sq,65.8312248229981,65.5576948165894,-47.7645076094222,-56.37289330684683,513433350
sq,65.0364886760712,64.6497835159302,-57.16522875506779,-64.62475063114303,513450017
sq,64.1111096382141,63.566512966156,-65.07292414794811,-71.66290932908309,513466684
sq,63.0906533241272,62.4170922279358,-71.54340437967768,-77.56472956443663,513483351
sq,61.9758967399597,61.2069820404053,-76.72025429431328,-82.47774225342094,513500018
sq,60.7176817893982,59.9269627571106,-80.79782051536489,-86.58994550718178,513516685
sq,59.4102796554565,58.5306228637695,-83.98492255817173,-90.0991093783826,513533352
sq,58.1117080688476,57.0396551132202,-86.47468297000053,-93.18586601799268,513550019
sq,56.7331851959229,55.5590442657471,-88.42504830308016,-95.99178281150468,513566686
sq,55.3365215301514,54.0621971130371,-89.95281136935114,-98.60344636395541,513583353
sq,53.8903411865234,52.4997333526611,-91.1398920313656,-101.04517402483788,513600020
sq,52.3920196533203,50.8449577331543,-92.04604958721087,-103.28244186416863,513616687
sq,50.9187072753906,49.2013858795166,-92.72031864238083,-105.23522711512558,513633354
sq,49.4121440887451,47.5199951171875,-93.20580176376626,-106.79830953512065,513650021
sq,47.9369930267334,45.8366302490234,-93.53758761713762,-107.86542596605592,513666688
sq,46.4969085693359,44.1173194885254,-93.73811243509132,-108.35403632577531,513683355
sq,44.9728607177734,42.3257411956787,-93.81518790036812,-108.2259612478918,513700022
sq,43.4388011932373,40.5913757324219,-93.76506295268213,-107.4982070233908,513716689
sq,41.9398044586182,38.844995880127,-93.5796870192338,-106.24084605211924,513733356
sq,40.4708637237549,37.1592334747314,-93.25699426060108,-104.56492055491357,513750023
sq,39.0402797698975,35.5426906585693,-92.81413441352964,-102.60932742747511,513766690
sq,37.5139430999756,33.9734062194824,-92.30203708202839,-100.5366594252882,513783357
sq,35.9568447113037,32.3480361938477,-91.81536479625221,-98.54138237913217,513800024
sq,34.458032989502,30.7105659484863,-91.49039660259541,-96.86214316270271,513816691
sq,33.0643791198731,29.110506439209,-91.48905126270922,-95.78117917762228,513833358
sq,31.6306785583496,27.519083404541,-91.97622122318242,-95.59506963425407,513850025
sq,30.2043937683105,25.9578155517578,-93.1010358486946,-96.55334723337532,513866692
sq,28.7166847229004,24.4397148132324,-94.9866981570704,-98.77917286477259,513883359
sq,27.0924819946289,22.9431098937988,-97.72326981494746,-102.20105619917096,513900026
sq,25.4331878662109,21.4698661804199,-101.35284816866054,-106.52826427914738,513916693
sq,23.8559059143066,19.8526557922363,-105.84325767813006,-111.28960265157247,513933360
sq,22.2659858703613,17.9628204345703,-111.06105688404519,-115.92791240193382,513950027
sq,20.5616516113281,15.9737266540527,-116.7646914725532,-119.9142025839592,513966694
sq,18.7903160095215,13.9458755493164,-122.63276682711705,-122.8339018369436,513983361
sq,16.8638366699219,11.9066452026367,-128.32086319782132,-124.41201795325696,514000028
sq,14.4999488830566,9.99529495239258,-133.51544004174565,-124.4758575677125,514016695
sq,12.1475738525391,8.05896224975586,-137.94409429630358,-122.88510677533614,514033362
sq,9.95330657958984,6.17478790283203,-141.32192803952378,-119.4741176206197,514050029
sq,7.87645950317383,4.39712753295898,-143.25776945883464,-114.04511242857465,514066696
sq,5.72497406005859,2.63477935791016,-143.18295680077253,-106.42769820588818,514083363
sq,3.65178146362305,0.903257751464844,-140.37096377483348,-96.58819683683603,514100030
sq,1.57539215087891,-0.812051391601562,-134.08223655093522,-84.74363954824663,514116697
sq,-0.599176025390625,-2.31689605712891,-123.81064471076937,-71.42364474288728,514133364
sq,-2.86703643798828,-3.58552703857422,-109.55094606284857,-57.43792022320694,514150031
sq,-4.84085235595703,-4.50373992919922,-91.97717587360613,-43.74418339935253,514166698
sq,-6.60311279296875,-5.05710754394531,-72.43820973408087,-31.254019875538912,514183365
sq,-7.87438354492187,-5.32103118896484,-52.737249690094586,-20.640874451066214,514200032
sq,-8.64586791992187,-5.67445526123047,-34.743752579665866,-12.211048623725146,514216699
sq,-8.81800231933594,-5.95298156738281,-19.95561870286548,-5.869779490198155,514233366
sq,-8.8564697265625,-6.03241882324219,-9.155039064322462,-1.1808680573924215,514250033
sq,-8.80174407958984,-5.90776214599609,-2.2689295868972033,2.5025471719584953,514266700
sq,-8.83295593261719,-5.78270111083984,1.5322391206633106,5.868200638328939,514283367
sq,-8.99554595947266,-6.01033172607422,3.5492429405533925,9.477163542778893,514300034
sq,-9.15140686035156,-5.94636688232422,5.191380839025729,13.645868508648435,514316701
sq,-9.22285614013672,-5.73135528564453,7.653182483930701,18.413759205395507,514333368
sq,-9.17753753662109,-5.42759857177734,11.712066683123226,23.601762163205272,514350035
sq,-8.92770538330078,-5.01355133056641,17.672660963652724,28.93326046732028,514366702
sq,-8.60713348388672,-4.49547729492187,25.433748041809466,34.170549818417086,514383369
sq,-8.16378936767578,-3.85991058349609,34.62624548915627,39.219530763503194,514400036
sq,-7.55318603515625,-3.17463836669922,44.76647699448874,44.16875802292603,514416703
sq,-6.76057586669922,-2.40156707763672,55.38038235115833,49.25087554170915,514433370
sq,-5.78537139892578,-1.58609924316406,66.07369121927287,54.74039715868482,514450037
sq,-4.72155151367187,-0.804566955566406,76.546542569783,60.8257983734434,514466704
sq,-3.67675933837891,0.0299209594726566,86.57340380233228,67.50782147672362,514483371
sq,-2.45447692871094,0.869635009765625,95.97992659171815,74.570743609591,514500038
sq,-0.882989501953125,2.02760162353516,104.63825137597692,81.64479010950072,514516705
sq,0.964018249511719,3.56903305053711,112.47628698757637,88.3346104838289,514533372
sq,2.9157470703125,5.13223876953125,119.4758702464151,94.35380808832305,514550039
sq,4.85425796508789,6.75064697265625,125.63897334099741,99.60181299598152,514566706
sq,6.79243698120117,8.41906967163086,130.92865753349247,104.1501348309678,514583373
sq,8.66290130615234,10.011629486084,135.22019889200087,108.15159617564687,514600040
sq,10.5867980957031,11.577433013916,138.30312788185168,111.72378814160587,514616707
sq,12.8725608825684,13.1609214782715,139.9480481886535,114.86932654564558,514633374
sq,15.4802268981934,14.8355583190918,140.00897796073588,117.474565007553,514650041
sq,17.7834609985352,16.8582748413086,138.5052581533916,119.38357466841862,514666708
sq,20.0073265075684,19.1647476196289,135.63914516691003,120.49977712956678,514683375
sq,22.1299957275391,21.1745246887207,131.74577855298116,120.85359834437902,514700042
sq,23.9973968505859,22.8838371276855,127.20893378141976,120.60176173838332,514716709
sq,26.0107597351074,24.7623352050781,122.38491572137143,119.96917103234735,514733376
sq,28.1900505065918,26.6999229431152,117.55958096514303,119.17177949965308,514750043
sq,30.0352081298828,28.5669692993164,112.94024679556382,118.35600070061494,514766710
sq,31.5890907287598,30.4695266723633,108.67300899413004,117.57257481295515,514783377
sq,33.4211944580078,32.2953132629395,104.87431345254646,116.78736458734303,514800044
sq,35.2948249816895,34.1136497497559,101.66127806169192,115.92117408573425,514816711
sq,37.0110439300537,36.085188293457,99.16093096995823,114.90208888665823,514833378
sq,38.518766784668,38.0525497436523,97.48814890946949,113.70896891873437,514850045
sq,39.9335216522217,39.8518890380859,96.70423019405978,112.38985033149086,514866712
sq,41.3994220733643,41.4162162780762,96.78255639942404,111.05347058806358,514883379
sq,43.0359939575195,43.2681182861328,97.60092073853104,109.84346433612744,514900046
sq,44.6826538085937,45.1949943542481,98.96043279284493,108.903109919717,514916713
sq,46.2348731994629,46.9432834625244,100.61742745418826,108.33175776969446,514933380
sq,47.7777503967285,48.6208118438721,102.3153977826861,108.1370572844478,514950047
sq,49.4125236511231,50.2036708831787,103.81039284878705,108.19872471440456,514966714
sq,51.2121337890625,51.8701662063599,104.88593025973533,108.26372342549479,514983381
sq,52.9160360336304,53.7509588241577,105.35413946819747,107.98054445210252,515000048
sq,54.4724897384643,55.4841789245606,105.04542546577872,106.96144520159821,515016715
sq,56.0734762191772,57.1186279296875,103.79689585642673,104.85121204122125,515033382
sq,57.800860786438,58.8637393951416,101.44996891161038,101.38263337447535,515050049
sq,59.5305923461914,60.5542768478393,97.85837579883452,96.40532385426124,515066716
sq,61.1086925506592,62.1925562858582,92.90055184880555,89.88247722414052,515083383
sq,62.4257658958435,63.5286532878876,86.49341540594853,81.86205058695407,515100050
sq,63.7354933261871,64.626969242096,78.61026526807336,72.44133497772273,515116717
sq,65.1391901016235,65.8606474637985,69.30172539465191,61.745359297751946,515133384
sq,66.4204266309738,66.9680726952851,58.70796238943182,49.926005851549945,515150051
sq,67.3276300668716,67.7924185633659,47.049055506656885,37.17274858326521,515166718
sq,67.9367440879345,68.2634876012802,34.595313348570336,23.722206578689853,515183385
sq,68.3388537406921,68.6280946969986,21.63572228723452,9.8601442046924,515200052
sq,68.7658889532089,68.9145525932312,8.461485414140055,-4.086286374464288,515216719
sq,69.0715353727341,68.8981328248978,-4.636220889746015,-17.768929546411375,515233386
sq,69.0482344865799,68.5528866291046,-17.36921017555126,-30.851602972539975,515250053
sq,68.617632651329,67.9452635884285,-29.466357944493275,-43.04703910632377,515266720
sq,68.07338347435,67.2755001425743,-40.694073894063166,-54.14439125642437,515283387
sq,67.4961024090648,66.4842371582985,-50.87173337020603,-64.01962411134281,515300054
sq,66.7290050029755,65.4313680171967,-59.877635814557955,-72.63117230145691,515316721
sq,65.7614290952683,64.2803451061249,-67.65005113302819,-80.00787544507638,515333388
sq,64.6726197242737,62.9643134117127,-74.18842300674207,-86.23427183986077,515350055
sq,63.4808157920837,61.6344861030579,-79.55410580868319,-91.43535569200701,515366722
sq,62.1822632789612,60.1874474525452,-83.8657553466118,-95.76160670254642,515383389
sq,60.8135346412659,58.6057371139526,-87.28507914984142,-99.37389415653912,515400056
sq,59.4197296142578,56.9703353881836,-89.99302510117782,-102.4265458484704,515416723
sq,58.0280088424683,55.3390573501587,-92.16198681823316,-105.04842912204215,515433390
sq,56.5595649719238,53.7403635025024,-93.93280314632219,-107.32703217910083,515450057
sq,55.0928997039795,52.0563053131104,-95.40359961217032,-109.30412571110386,515466724
sq,53.5243553161621,50.3016399383545,-96.63161999299209,-110.98791084963136,515483391
sq,51.9446014404297,48.4836925506592,-97.6433428522224,-112.37690626648029,515500058
sq,50.3596996307373,46.6237319946289,-98.44682914887416,-113.48302877793483,515516725
sq,48.8502372741699,44.7867893218994,-99.04408869538815,-114.34205363421505,515533392
sq,47.2994178771973,43.0152629852295,-99.44582808612768,-115.00836607668549,515550059
sq,45.7089103698731,41.2012351989746,-99.69053818437047,-115.5406080081896,515566726
sq,44.0742420196533,39.3829883575439,-99.86384512993118,-115.98809675497003,515583393
sq,42.4222129821777,37.4833244323731,-100.10807453639238,-116.3833934258127,515600060
sq,40.8196548461914,35.5768417358398,-100.61229451690541,-116.73966038199416,515616727
sq,39.1966079711914,33.7055458068848,-101.58045706867307,-117.04922749469814,515633394
sq,37.5946964263916,31.9137100219727,-103.1849812648905,-117.28328087605374,515650061
sq,35.9778923034668,30.0600112915039,-105.51967599112727,-117.3962771074885,515666728
sq,34.3213027954102,28.1468299865723,-108.56640675849222,-117.33682349040525,515683395
sq,32.5679496765137,26.1814102172852,-112.18479050442357,-117.0609256953629,515700062
sq,30.7878440856934,24.3149360656738,-116.12644050078653,-116.54122510482912,515716729
sq,28.8961585998535,22.5504440307617,-120.06880658711474,-115.77067623675167,515733396
sq,26.9596542358398,20.7028182983398,-123.66102596640309,-114.76514637593525,515750063
sq,25.0324348449707,18.8579620361328,-126.57513352335371,-113.56867802937526,515766730
sq,23.0383056640625,17.001734161377,-128.55748278599063,-112.25802551432537,515783397
sq,20.9457725524902,15.1341957092285,-129.47392405380953,-110.93768481750577,515800064
sq,18.8447250366211,13.3736557006836,-129.33832958697496,-109.71926503453292,515816731
sq,16.758211517334,11.6808341979981,-128.31180067249093,-108.68796504811111,515833398
sq,14.6539138793945,9.94783630371094,-126.66333705236241,-107.86665527340433,515850065
sq,12.5635589599609,8.2437614440918,-124.6921981915789,-107.18865531914183,515866732
sq,10.5744079589844,6.46618118286133,-122.62554440458366,-106.48474213605978,515883399
sq,8.72357406616211,4.78502883911133,-120.51842103611703,-105.48434866287033,515900066
sq,6.82361068725586,3.07885971069336,-118.19029562815547,-103.8298453315386,515916733
sq,5.04324188232422,1.41690673828125,-115.22712000934493,-101.10556700630731,515933400
sq,3.20690765380859,-0.138726806640625,-111.06021580975742,-96.88607882122518,515950067
sq,1.42635955810547,-1.63926086425781,-105.10970203210964,-90.8072281077045,515966734
sq,-0.24410400390625,-3.02430114746094,-96.95895792702257,-82.65613062847885,515983401
sq,-1.84387359619141,-4.37509307861328,-86.51339007102986,-72.46255152507115,516000068
sq,-3.39057312011719,-5.65522155761719,-74.09442759033853,-60.55976515419891,516016735
sq,-4.73520812988281,-6.81705627441406,-60.430870120253346,-47.578597826980136,516033402
sq,-5.61985931396484,-7.67799530029297,-46.53586181265922,-34.35364194585568,516050069
sq,-6.52421722412109,-8.17854461669922,-33.49342277014595,-21.754836286436184,516066736
sq,-6.85392150878906,-8.24862823486328,-22.210954908869777,-10.494730908544222,516083403
sq,-7.04442749023437,-8.32539520263672,-13.210374158884745,-0.9784023216923066,516100070
sq,-7.09625396728516,-8.31039581298828,-6.522053552809274,6.753487738690635,516116737
sq,-7.15828094482422,-8.10946044921875,-1.712029215601103,12.978144037150631,516133404
sq,-7.26496276855469,-8.18775329589844,1.9743066977125676,18.170636755139014,516150071
sq,-7.39273986816406,-7.94337615966797,5.408194205100559,22.860764679361488,516166738
sq,-7.43943939208984,-7.51702270507812,9.382662420236821,27.51090098023197,516183405
sq,-7.30387268066406,-7.02675018310547,14.479881274312104,32.43661828439831,516200072
sq,-7.02523193359375,-6.50060424804687,21.019764513341105,37.77268721269378,516216739
sq,-6.68121490478516,-5.99098358154297,29.076664855161855,43.48138873879719,516233406
sq,-6.20324859619141,-5.35992584228516,38.5336034136083,49.40109954138767,516250073
sq,-5.47666320800781,-4.59391937255859,49.1420680189202,55.32824704707302,516266740
sq,-4.59381256103516,-3.67187652587891,60.56540796346742,61.11196730101177,516283407
sq,-3.71116790771484,-2.58249816894531,72.40114883661391,66.72686641090972,516300074
sq,-2.70191345214844,-1.29115447998047,84.19527369723053,72.28797698962595,516316741
sq,-1.47255096435547,-0.0231033325195309,95.46749284787585,77.99152738127593,516333408
sq,0.222158813476563,0.930525207519532,105.75395322133629,84.00115831835986,516350075
sq,2.10602416992187,2.09141387939453,114.65377141836291,90.33125048684728,516366742
sq,3.91777648925781,3.60644378662109,121.85964625994376,96.78348155259972,516383409
sq,5.75691452026367,5.16121520996094,127.16830937951109,102.96673908276385,516400076
sq,7.56608047485352,6.57283630371094,130.4864797581519,108.39410638709764,516416743
sq,9.60011901855469,8.46531906127929,131.84820564270856,112.6219605811369,516433410
sq,12.0373748779297,10.4857658386231,131.43663656996344,115.3797361121588,516450077
sq,14.3241142272949,12.4640602111816,129.58103616749028,116.63906526790291,516466744
sq,16.2906288146973,14.3589653015137,126.70489668154114,116.59498061262782,516483411
sq,18.1965240478516,16.0783485412598,123.23254571921177,115.57273670387674,516500078
sq,20.1185516357422,17.8318962097168,119.49147682307583,113.9080543471128,516516745
sq,21.9817756652832,19.4865936279297,115.65216888924124,111.85575949337232,516533412
sq,23.8048271179199,21.2372230529785,111.72856191659575,109.55989316860985,516550079
sq,25.5216773986816,23.1873001098633,107.63667226529114,107.08238818926202,516566746
sq,27.3033737182617,24.9479469299316,103.28703943765717,104.45894826737313,516583413
sq,29.1313385009766,26.6046051025391,98.67355725041567,101.74479554238006,516600080
sq,30.8042892456055,28.3422264099121,93.92216678253172,99.02806907885619,516616747
sq,32.2381576538086,29.9116729736328,89.2809269886673,96.41153392495166,516633414
sq,33.6268600463867,31.2805618286133,85.06010564318132,93.98134291384105,516650081
sq,34.9371742248535,32.6773208618164,81.55098285342076,91.78711085227775,516666748
sq,36.2062801361084,34.3073333740234,78.95512167676311,89.84735037952547,516683415
sq,37.4783042907715,35.7689346313476,77.34538076114313,88.17555374501931,516700082
sq,38.7155384063721,37.1544574737549,76.66562748192956,86.81012786416939,516716749
sq,39.8526844024658,38.5310596466064,76.76435006870341,85.83301769616969,516733416
sq,41.1414093017578,39.9081920623779,77.44883085091158,85.36958213212156,516750083
sq,42.4721225738525,41.3362754821777,78.5406900934276,85.56728502484737,516766750
sq,43.766455078125,42.7364982604981,79.91334344783311,86.55381828091727,516783417
sq,45.0057243347168,44.1810955047607,81.50039720705752,88.38182142381912,516800084
sq,46.3019966125488,45.4863304138184,83.27767688512655,90.97789220624419,516816751
sq,47.6246322631836,46.6962303161621,85.23178620806335,94.12037726433324,516833418
sq,48.8884033203125,48.3184856414795,87.32958143520209,97.46321990981372,516850085
sq,50.3753570556641,49.8979629516601,89.49717528364377,100.60131651054445,516866752
sq,51.8593915939331,51.6121658325195,91.60957663260777,103.15071084612485,516883419
sq,53.3012670516968,53.3442234039307,93.48903161814013,104.8111675834014,516900086
sq,54.7153734207153,54.9888919830322,94.9131438271489,105.39198164885381,516916753
sq,56.1482471466064,56.5820077896118,95.63647060727068,104.80267421633877,516933420
sq,57.7835430145264,58.2307542800903,95.4241221530025,103.02385925506113,516950087
sq,59.3862051010132,59.9122570991516,94.08564000551002,100.07337037016029,516966754
sq,60.9523653030395,61.6193188667297,91.49362346893676,95.97441334745722,516983421
sq,62.3661107063293,63.1288343906403,87.58083864806653,90.72785575258216,517000088
sq,63.6674651145935,64.4974287986755,82.32491779223172,84.29467469324918,517016755
sq,64.9215845108032,65.7052923679352,75.73739920969392,76.59935166833245,517033422
sq,66.1668913602829,67.0115686260164,67.86687958111362,67.55982328234026,517050089
sq,67.3722236096859,68.2086191415787,58.811137151555094,57.135101536214634,517066756
sq,68.3617583155632,69.1664220333099,48.72429066935345,45.37112020958368,517083423
sq,69.0906708478928,69.7775491714478,37.81030595296552,32.42888201545448,517100090
sq,69.5366084814072,70.2779106140137,26.306926287157484,18.590816761170952,517116757
sq,69.9925214290619,70.6102015018463,14.470024240020924,4.247946281214784,517133424
sq,70.3776790142059,70.7670611381531,2.56179043132635,-10.131489454457494,517150091
sq,70.4299229621887,70.6230050563812,-9.162730476620498,-24.052913327790595,517166758
sq,70.1900505065918,70.1698466777802,-20.47498612087918,-37.060860502511915,517183425
sq,69.8149701595306,69.5437380313873,-31.193114578719854,-48.80473442490701,517200092
sq,69.3477534294128,68.7633879423142,-41.19338193077583,-59.08696223076981,517216759
sq,68.6963911294937,67.8080530405045,-50.40845742299517,-67.88058474415065,517233426
sq,67.9326486229897,66.6882976233959,-58.81587962402725,-75.31233203984726,517250093
sq,66.9455510020256,65.4663938522339,-66.4226350665574,-81.61572928379536,517266760
sq,65.8692364931107,64.1790358066559,-73.24963761304139,-87.06589771385708,517283427
sq,64.7212356567383,62.8321894645691,-79.3180439179127,-91.91310405339458,517300094
sq,63.4859861373901,61.4083780288696,-84.63975312175107,-96.33321123152886,517316761
sq,62.1022666931152,59.8771862030029,-89.2147525955042,-100.40769160377909,517333428
sq,60.6658667564392,58.2722095489502,-93.03626181928168,-104.1352088026551,517350095
sq,59.2275852203369,56.5873979568481,-96.10217108844874,-107.46575161238442,517366762
sq,57.6607698440552,54.8308624267578,-98.42963729413921,-110.34169004949912,517383429
sq,56.0486196517944,53.0243848800659,-100.06875710480132,-112.73019658192175,517400096
sq,54.4658836364746,51.2130474090576,-101.11127344178576,-114.63772367327773,517416763
sq,52.869518661499,49.4169773101807,-101.69208137776809,-116.10660099269774,517433430
sq,51.2332977294922,47.5906604766846,-101.9835935333978,-117.20139031849811,517450097
sq,49.6017021179199,45.7112316131592,-102.18354633306659,-117.99438631628922,517466764
sq,47.9342140197754,43.8071388244629,-102.49597296716682,-118.55581715867743,517483431
sq,46.2775329589844,41.9313777923584,-103.10555857789613,-118.9489909400333,517500098
sq,44.6247142791748,39.9908088684082,-104.14898932209158,-119.22759847972146,517516765
sq,43.0232223510742,38.0956996917725,-105.69156446222905,-119.43231575978902,517533432
sq,41.3710140228271,36.180517578125,-107.71910820156472,-119.58551775954466,517550099
sq,39.6734718322754,34.2947639465332,-110.1505295793308,-119.68479305058962,517566766
sq,37.8807929992676,32.3348487854004,-112.86606227615847,-119.69695388672586,517583433
sq,35.9881175994873,30.3978866577148,-115.73639399687264,-119.55481266887989,517600100
sq,34.0390953063965,28.5156387329102,-118.63645350019982,-119.16075281950708,517616767
sq,32.1443237304687,26.6672119140625,-121.43833780730294,-118.40356427830808,517633434
sq,30.3678916931152,24.858065032959,-123.99544745318747,-117.19379370335176,517650101
sq,28.4820274353027,22.9846939086914,-126.14091931098709,-115.51387031412864,517666768
sq,26.456941986084,21.0101379394531,-127.71665182114671,-113.46508580249153,517683435
sq,24.3389266967773,19.0768493652344,-128.6275897448683,-111.28450277955983,517700102
sq,22.1957992553711,17.2352394104004,-128.895625043085,-109.31154964163441,517716769
sq,20.0901550292969,15.5750411987305,-128.68298212272634,-107.90623330398097,517733436
sq,18.0298217773437,13.9576858520508,-128.26745740180053,-107.3451065580369,517750103
sq,15.9576896667481,12.2601036071777,-127.97166692216891,-107.7313100206194,517766770
sq,13.9921669006348,10.5287384033203,-128.06479989344527,-108.94645625834492,517783437
sq,11.9207557678223,8.83913269042969,-128.66285498326906,-110.65369855813371,517800104
sq,9.86245193481445,6.99951019287109,-129.65234775977976,-112.34485272404545,517816771
sq,7.85034790039063,5.21765747070312,-130.65677569719838,-113.41538342895366,517833438
sq,5.78014221191406,3.38429870605469,-131.05792980857737,-113.24906736606872,517850105
sq,3.67569198608398,1.52171936035156,-130.0758627144989,-111.29725380701008,517866772
sq,1.67620697021484,-0.289979553222656,-126.90137129235899,-107.14411372762156,517883439
sq,-0.33211669921875,-1.86947784423828,-120.86342635577401,-100.55683738300493,517900106
sq,-2.25325164794922,-3.46604309082031,-111.60164282716153,-91.52398052387582,517916773
sq,-4.24173126220703,-4.97361145019531,-99.2032747128096,-80.28183364862592,517933440
sq,-5.7776123046875,-6.33781585693359,-84.26197458845586,-67.32040009411703,517950107
sq,-7.353173828125,-7.42160949707031,-67.82784967661345,-53.35650403609294,517966774
sq,-8.47346649169922,-8.24806365966797,-51.24485253133886,-39.267100209992854,517983441
sq,-9.25923309326172,-8.93189392089844,-35.90551040812714,-25.986995249107085,518000108
sq,-9.69511566162109,-9.39575347900391,-22.983354620584056,-14.385541963749104,518016775
sq,-9.84925231933594,-9.53959808349609,-13.216361106422,-5.1447241103690065,518033442
sq,-10.0028625488281,-9.55555114746094,-6.800656847889256,1.334272233949588,518050109
sq,-10.1227279663086,-9.37716064453125,-3.416649175280269,4.972267162812113,518066776
sq,-10.1980682373047,-9.37553558349609,-2.366813617427155,5.992885516223452,518083443
sq,-10.3180404663086,-9.41674957275391,-2.7742047951328694,4.856641197118609,518100110
sq,-10.4704299926758,-9.39277038574219,-3.7820979643977433,2.1755310966979473,518116777
sq,-10.5871597290039,-9.26548919677734,-4.706245636306813,-1.3689248736879032,518133444
sq,-10.6617065429687,-9.26667175292969,-5.1146821406759715,-5.096589611412885,518150111
sq,-10.7086349487305,-9.37768707275391,-4.835888808921933,-8.392134056040682,518166778
sq,-10.7542205810547,-9.46988067626953,-3.914678242203695,-10.764809819809257,518183445
sq,-10.7993637084961,-9.62631378173828,-2.5414876729577847,-11.902426760040894,518200112
sq,-10.8403564453125,-9.82585296630859,-0.9770534746995057,-11.711100677637365,518216779
sq,-10.85,-10.0702987670898,0.5133487942391523,-10.327947658243904,518233446
sq,-10.8140502929687,-10.328141784668,1.709034194848239,-8.093888850165138,518250113
sq,-10.802522277832,-10.4975448608398,2.464473093334855,-5.481781845898181,518266780
sq,-10.7863784790039,-10.5374389648437,2.722853858851763,-2.991007214165343,518283447
sq,-10.7403274536133,-10.4920516967773,2.515750885307509,-1.0359735112650401,518300114
sq,-10.691796875,-10.4309936523437,1.9511685669551029,0.13784959867942367,518316781
sq,-10.6247116088867,-10.4059005737305,1.1905372733097817,0.4860935521782111,518333448
sq,-10.5922866821289,-10.4109741210937,0.41559394156467944,0.14171667428513077,518350115
sq,-10.6006790161133,-10.4537368774414,-0.21028481684694678,-0.6487730932804754,518366782
sq,-10.6456390380859,-10.526643371582,-0.5770696980337363,-1.6025524459538198,518383449
sq,-10.686051940918,-10.5842224121094,-0.648643853874049,-2.4665426288609447,518400116
sq,-10.7012802124023,-10.5983444213867,-0.4622815613595928,-3.0587511620448793,518416783
sq,-10.6917282104492,-10.6139389038086,-0.10836271305539322,-3.2842953293533537,518433450
sq,-10.6721969604492,-10.6507202148437,0.3010468476119486,-3.1331899068347293,518450117
sq,-10.650537109375,-10.7279373168945,0.6633452620555378,-2.6670879848262152,518466784
sq,-10.6322723388672,-10.7884384155273,0.9072157773544297,-1.9983672279485247,518483451
sq,-10.6234680175781,-10.8301788330078,1.0012462227630097,-1.2628231288756364,518500118
sq,-10.6071716308594,-10.8358474731445,0.9505248849879605,-0.5889632914976355,518516785
sq,-10.5958190917969,-10.8243804931641,0.785471652143586,-0.07019786590383563,518533452
sq,-10.5901809692383,-10.8092895507812,0.5480463989881973,0.2525501491221274,518550119
sq,-10.5891052246094,-10.7927947998047,0.2798045938146722,0.39277419818205106,518566786
sq,-10.5875411987305,-10.785302734375,0.014667473557038086,0.4049353042538869,518583453
sq,-10.5892807006836,-10.793733215332,-0.22281121929770495,0.3610394839108414,518600120
sq,-10.5890823364258,-10.8111053466797,-0.41492757129734986,0.325836663505826,518616787
sq,-10.5903335571289,-10.8207794189453,-0.5466565766397913,0.33893443052180877,518633454
sq,-10.5918212890625,-10.8125549316406,-0.6026739901477361,0.4085300637600682,518650121
sq,-10.5946746826172,-10.8001647949219,-0.5674944599316007,0.516473800459104,518666788
sq,-10.6103759765625,-10.7827850341797,-0.42892219284567495,0.6304978342246612,518683455
sq,-10.6224151611328,-10.7680068969727,-0.18326866257517238,0.7181479580148622,518700122
sq,-10.6264511108398,-10.7546020507812,0.1600899487013674,0.7579611774885644,518716789
sq,-10.6290756225586,-10.743310546875,0.5769207266801407,0.7454552640755338,518733456
sq,-10.6183792114258,-10.7251602172852,1.0300907082870905,0.6933954911013169,518750123
