Label,Left_Hip_q,Right_Hip_q,Left_Hip_qd,Right_Hip_qd,SampleTimeFine
sq,-8.07293853759766,-10.85,-18.1403160095215,108.75940322876,450794038
sq,-8.36318359375,-9.10984954833984,-34.3001509283109,246.9781435314957,450810705
sq,-8.91208801269531,-5.15774688720703,-29.55423238499597,197.5654878090819,450827372
sq,-9.60308990478516,-0.834634399414062,-24.487121983033262,149.4849362141643,450844039
sq,-10.2034851074219,2.44680633544922,-18.933664015246823,104.23427357943022,450860706
sq,-10.6203475952148,4.24078979492188,-12.976968866955584,63.515225100891726,450877373
sq,-10.85,4.88300933837891,-6.932493391951469,28.97496050422533,450894040
sq,-10.8140655517578,4.79800262451172,-1.2438331814240762,1.8086098514990228,450910707
sq,-10.7023941040039,4.38915863037109,3.6572653368504673,-17.569908538968363,450927374
sq,-10.5849014282227,3.94290008544922,7.4689528102002605,-29.629691999526553,450944041
sq,-10.4763885498047,3.62415161132812,10.079055442652933,-35.56298454291522,450960708
sq,-10.3361450195312,3.36762084960937,11.560976960436587,-36.94901530214868,450977375
sq,-10.1760269165039,3.04749145507812,12.123182315768576,-35.38435979320409,450994042
sq,-10.0087371826172,2.58354797363281,12.038452746063701,-32.20524033554891,451010709
sq,-9.84213409423828,2.03485717773437,11.576453060238958,-28.361467246850744,451027376
sq,-9.66846618652344,1.48030700683594,10.954956454240172,-24.43038454704949,451044043
sq,-9.4916015625,1.00028076171875,10.315716760777114,-20.714869618131917,451060710
sq,-9.31504974365234,0.597463989257813,9.723173637161722,-17.361295906708133,451077377
sq,-9.15797576904297,0.301496887207032,9.179519078186729,-14.45117151154937,451094044
sq,-9.00566253662109,0.0675643920898441,8.64837286016907,-12.047121016319998,451110711
sq,-8.86536560058594,-0.0981155395507809,8.080293941455542,-10.196848421669385,451127378
sq,-8.73371276855469,-0.240098571777343,7.435107518198931,-8.911722068711573,451144045
sq,-8.61204681396484,-0.382096862792968,6.697666889880275,-8.139764103658766,451160712
sq,-8.50150451660156,-0.496690368652343,5.885027758892499,-7.749588924448821,451177379
sq,-8.39969787597656,-0.571664428710937,5.044278393527437,-7.53587962202777,451194046
sq,-8.31335601806641,-0.674310302734375,4.241709921046015,-7.249809827533863,451210713
sq,-8.24710235595703,-0.802659606933593,3.545737103156506,-6.649425417485777,451227380
sq,-8.19917449951172,-0.938066101074218,3.0076719547678694,-5.556844473694226,451244047
sq,-8.15315399169922,-1.06209716796875,2.6454115366508013,-3.9047376210995943,451260714
sq,-8.12085113525391,-1.15617523193359,2.4347769840397087,-1.756614077360896,451277381
sq,-8.09142456054687,-1.20311889648438,2.3116369123858247,0.7065524442978515,451294048
sq,-8.06124267578125,-1.19885406494141,2.1854319451212527,3.2299312450820516,451310715
sq,-8.02626190185547,-1.11576995849609,1.9617404195539463,5.545289507128939,451327382
sq,-7.9900146484375,-0.950898742675781,1.5687197368317778,7.429553739963871,451344049
sq,-7.95317993164062,-0.834359741210937,0.9804798518240263,8.744594105000957,451360716
sq,-7.92254791259766,-0.70577392578125,0.2304504164905119,9.449845517027311,451377383
sq,-7.90690765380859,-0.534761047363281,-0.5901256763371708,9.589962523523504,451394050
sq,-7.90455780029297,-0.428948974609375,-1.3496324691172945,9.267069892729312,451410717
sq,-7.92962799072266,-0.290414428710937,-1.9058870028430852,8.609074637863818,451427384
sq,-7.9778076171875,-0.157167053222656,-2.140684635111627,7.742809702357549,451444051
sq,-8.03067932128906,-0.0085235595703121,-1.9895292006122256,6.775856289666816,451460718
sq,-8.07487640380859,0.0925735473632816,-1.458210076865967,5.786731556318222,451477385
sq,-8.10301361083984,0.184210205078125,-0.6219069026221891,4.821674199770268,451494052
sq,-8.11347351074219,0.258299255371094,0.39232632127847256,3.8968881896176875,451510719
sq,-8.10493621826172,0.312109375,1.434403279246573,3.005789660481061,451527386
sq,-8.07235107421875,0.356886291503907,2.363478187543396,2.130362917025071,451544053
sq,-8.01730499267578,0.392256164550782,3.0753095899739518,1.2543584205859384,451560720
sq,-7.95228729248047,0.424940490722657,3.518089196382996,0.3746395243320338,451577387
sq,-7.89003143310547,0.450468444824219,3.6937447003582737,-0.4933843319726924,451594054
sq,-7.83354339599609,0.449850463867188,3.6463975442834364,-1.3187319234926393,451610721
sq,-7.79371795654297,0.421873474121094,3.4437222571095356,-2.065389643011784,451627388
sq,-7.76249847412109,0.3644775390625,3.158615956370747,-2.7061160171469476,451644055
sq,-7.72039184570312,0.308378601074219,2.8568950318258315,-3.233872296220717,451660722
sq,-7.66173706054687,0.268881225585938,2.5924545245000665,-3.6669726063542942,451677389
sq,-7.59687957763672,0.215834045410157,2.4069599547487064,-4.0474398512922445,451694056
sq,-7.54636535644531,0.154188537597657,2.3294971723193747,-4.434556419517406,451710723
sq,-7.51375732421875,0.0825408935546879,2.373610011552127,-4.895929086848921,451727390
sq,-7.4914794921875,-0.0020156860351559,2.532999969614488,-5.497354678735014,451744057
sq,-7.46775207519531,-0.0924926757812496,2.779781822338967,-6.2919198273004495,451760724
sq,-7.43115386962891,-0.195130920410156,3.068677822206616,-7.308875027529594,451777391
sq,-7.37267456054687,-0.310090637207031,3.3473894010967085,-8.54367523493961,451794058
sq,-7.30158386230469,-0.449517822265625,3.569894223035286,-9.95154219431405,451810725
sq,-7.24189910888672,-0.598382568359375,3.7078825009058054,-11.447425052380307,451827392
sq,-7.18574676513672,-0.757508850097656,3.756620121867846,-12.914825681429313,451844059
sq,-7.122216796875,-0.95430908203125,3.733971315382701,-14.224029208761745,451860726
sq,-7.05424652099609,-1.19252166748047,3.673511460692105,-15.256768083359557,451877393
sq,-7.00029144287109,-1.46768341064453,3.614075893374502,-15.930720016672685,451894060
sq,-6.95343170166016,-1.74278411865234,3.588943464101873,-16.216104633594473,451910727
sq,-6.90387878417969,-1.99680480957031,3.6179763419232076,-16.13942534880641,451927394
sq,-6.84892425537109,-2.22861633300781,3.7049475771900595,-15.774488987310882,451944061
sq,-6.78434143066406,-2.48452911376953,3.8401952339804257,-15.22473369321135,451960728
sq,-6.71958312988281,-2.74284515380859,4.006721705062645,-14.60162371573735,451977395
sq,-6.65196380615234,-2.98217926025391,4.186924618045107,-14.002741523643275,451994062
sq,-6.58079681396484,-3.20082244873047,4.367501210654803,-13.492743340774442,452010729
sq,-6.50835571289062,-3.38865814208984,4.541239452511265,-13.091011514519268,452027396
sq,-6.43744049072266,-3.59131774902344,4.7057941789909385,-12.769776667233257,452044063
sq,-6.36844787597656,-3.79568634033203,4.860655971570933,-12.464154493786765,452060730
sq,-6.28810272216797,-3.99833068847656,5.00400309275717,-12.091684541635328,452077397
sq,-6.20725402832031,-4.20711669921875,5.1309342412706265,-11.575777312603966,452094064
sq,-6.13630065917969,-4.39862976074219,5.233989085321936,-10.866569632936521,452110731
sq,-6.05525360107422,-4.56697998046875,5.306060293000398,-9.954030713376731,452127398
sq,-5.96766052246094,-4.73636016845703,5.344709957703159,-8.870579169859493,452144065
sq,-5.87241516113281,-4.88326416015625,5.355734428263251,-7.6828094169946235,452160732
sq,-5.77684936523437,-5.01725158691406,5.353374185020156,-6.473950870914892,452177399
sq,-5.68655548095703,-5.12439880371094,5.355551087308366,-5.320833731904706,452194066
sq,-5.60041198730469,-5.18604431152344,5.374757987831867,-4.271355146663393,452210733
sq,-5.51873168945312,-5.23375854492187,5.407725567117932,-3.3295679899577406,452227400
sq,-5.44381103515625,-5.29123077392578,5.428593942318545,-2.4542131824395854,452244067
sq,-5.37274322509766,-5.32252655029297,5.390215703382771,-1.5728251519368546,452260734
sq,-5.30304107666016,-5.31122741699219,5.236091291279133,-0.6088552484086719,452277401
sq,-5.21705017089844,-5.34578857421875,4.921594581850022,0.48523925806892376,452294068
sq,-5.12853393554687,-5.37821350097656,4.438760469592911,1.6994844227868866,452310735
sq,-5.04477844238281,-5.35897979736328,3.8357904632448006,2.953760248947149,452327402
sq,-4.95790252685547,-5.34551391601562,3.2221438525950363,4.1086052378668105,452344069
sq,-4.87719116210937,-5.30929718017578,2.7531956356303833,4.999173119346131,452360736
sq,-4.82563934326172,-5.19609985351562,2.5944974337711746,5.4827481409479955,452377403
sq,-4.79519805908203,-5.05919036865234,2.8731552555779714,5.4830220478158225,452394070
sq,-4.77401885986328,-4.88043365478516,3.6301078400311013,5.013370430346133,452410737
sq,-4.758447265625,-4.81867370605469,4.7892669751134616,4.169234013328585,452427404
sq,-4.69994506835937,-4.79138336181641,6.156100781785916,3.093775962048991,452444071
sq,-4.59158477783203,-4.73584136962891,7.45039209683798,1.93360886567414,452460738
sq,-4.50275573730469,-4.80182037353516,8.368640217532022,0.805587074368489,452477405
sq,-4.38028106689453,-4.86433563232422,8.663633034182734,-0.21050138107998895,452494072
sq,-4.20917663574219,-4.78205261230469,8.223010393372176,-1.0523075286613308,452510739
sq,-4.0281005859375,-4.73033294677734,7.125787207140873,-1.6420542097174142,452527406
sq,-3.85106048583984,-4.74474487304687,5.657991906474267,-1.860885515432371,452544073
sq,-3.74112854003906,-4.78643951416016,4.277735303934809,-1.5456473278494667,452560740
sq,-3.69434509277344,-4.79865417480469,3.5342932658301813,-0.5114601890039483,452577407
sq,-3.67754516601562,-4.81486663818359,3.9592357308509,1.4064639452505998,452594074
sq,-3.65024719238281,-4.81148681640625,5.954136154222987,4.302776318898597,452610741
sq,-3.54828796386719,-4.73522338867187,9.697120087896998,8.155175495004206,452627408
sq,-3.34517822265625,-4.58708343505859,15.083244965151186,12.791044605801279,452644075
sq,-3.1333251953125,-4.37236175537109,21.70753448740221,17.87679625886228,452660742
sq,-2.84452972412109,-4.13890991210937,28.897043566132332,22.939210145587026,452677409
sq,-2.4306884765625,-3.9153076171875,35.796141406326086,27.426367151979292,452694076
sq,-1.88072357177734,-3.49720916748047,41.50193923485593,30.80696820175674,452710743
sq,-1.25225982666016,-2.92660675048828,45.233479891823556,32.689569442791495,452727410
sq,-0.516481018066406,-2.22189483642578,46.50311085674268,32.926555553887425,452744077
sq,0.360723876953125,-1.67149505615234,45.24751966551263,31.665635953873526,452760744
sq,1.22232666015625,-1.16128692626953,41.87586367793747,29.329361457496358,452777411
sq,1.98116149902344,-0.740357971191406,37.20865263218052,26.530190672816445,452794078
sq,2.55895080566406,-0.359933471679687,32.31219165027242,23.948849197445323,452810745
sq,3.00900115966797,0.0112213134765629,28.268269366663876,22.209066528213885,452827412
sq,3.39367523193359,0.3630126953125,25.942301495413293,21.775376720425,452844079
sq,3.65815582275391,0.684225463867188,25.815918514331656,22.890136832997822,452860746
sq,3.91435852050781,1.02052154541016,27.931322017203154,25.55626550227792,452877413
sq,4.32849731445313,1.42835845947266,31.959692481311247,29.564079066733164,452894080
sq,4.95233001708984,1.91789855957031,37.364548397033836,34.55329149834332,452910747
sq,5.68737640380859,2.48310699462891,43.598761065588235,40.09564178230498,452927414
sq,6.44560089111328,3.10816802978516,50.26534954494245,45.78118395655097,452944081
sq,7.35933532714844,3.79264678955078,57.18995833303758,51.29137497249321,452960748
sq,8.34694519042969,4.78996887207031,64.38714500828651,56.44319680533775,452977415
sq,9.36202087402344,5.71654357910156,71.94009299536815,61.19251915728202,452994082
sq,10.384317779541,6.67782440185547,79.8436842912223,65.59577971484244,453010749
sq,11.5386108398437,7.67159881591797,87.87500768174772,69.74497002246035,453027416
sq,12.7769454956055,8.66636505126953,95.54657314934832,73.70186791404666,453044083
sq,14.3109992980957,9.89517822265625,102.16703548007055,77.45508997377021,453060750
sq,16.0416625976562,11.21201171875,106.99422541280144,80.91063342939445,453077417
sq,17.7050765991211,12.3893455505371,109.43270859315132,83.91378251286474,453094084
sq,19.5315689086914,13.7547210693359,109.21364727267905,86.29407179229436,453110751
sq,21.4711135864258,15.1642059326172,106.49859345257761,87.9225474355285,453127418
sq,23.3506988525391,16.4434875488281,101.86827921982311,88.76674134111921,453144085
sq,25.0031913757324,17.9999374389648,96.19202602341116,88.92351232675826,453160752
sq,26.3563293457031,19.6486953735352,90.41631238381197,88.60856710976738,453177419
sq,27.5701736450195,21.1003211975098,85.34260465349239,88.09236482640947,453194086
sq,28.8699096679687,22.3780387878418,81.46456329213429,87.598053311781,453210753
sq,30.2835945129395,23.5875915527344,78.90295746201544,87.20473408628726,453227420
sq,31.626921081543,24.830534362793,77.43594869738702,86.8058215413179,453244087
sq,32.8028434753418,26.2388786315918,76.59806800517732,86.14773549049409,453260754
sq,33.92978515625,27.7474578857422,75.81798893567172,84.9330509118244,453277421
sq,35.1760047912598,29.2200988769531,74.56857690685233,82.94088501393519,453294088
sq,36.484156036377,30.6371444702148,72.50076569104806,80.11340032797402,453310755
sq,37.713606262207,31.9395050048828,69.53004871844327,76.57926754188308,453327422
sq,38.8837989807129,33.0677284240723,65.85203523218179,72.61670501169706,453344089
sq,39.914404296875,34.1373237609863,61.883500646744736,68.5820051826797,453360756
sq,40.8906711578369,35.2488121032715,58.148320115065076,64.83419967252988,453377423
sq,41.7906078338623,36.3230880737305,55.143100882479814,61.67564125910464,453394090
sq,42.5669673919678,37.3202270507812,53.22062271740882,59.31404438157045,453410757
sq,43.3603309631348,38.2708553314209,52.52080088856025,57.844385623738816,453427424
sq,44.2554611206055,39.1647151947021,52.96198767944104,57.249585294930476,453444091
sq,45.0707515716553,39.9840473175049,54.28618469864473,57.42030977405196,453460758
sq,45.9660228729248,40.9739059448242,56.13757847971932,58.19070926800046,453477425
sq,46.9445861816406,41.9464515686035,58.14875656161269,59.37935327623419,453494092
sq,47.8832458496094,42.9651569366455,60.01242442247954,60.82018452751944,453510759
sq,48.8026126861572,43.9436763763428,61.52550317950896,62.37316419737068,453527426
sq,49.802868270874,44.8713478088379,62.60260331240921,63.91644561682069,453544093
sq,50.8467735290527,45.8564533233643,63.26267548659456,65.33238871988472,453560760
sq,51.8365921020508,46.8609050750732,63.595831391093334,66.50073244857214,453577427
sq,52.8473094940186,47.9897521972656,63.71964047579491,67.30399551044975,453594094
sq,53.8499340057373,49.1234973907471,63.73629648309107,67.64042505987499,453610761
sq,54.8572601318359,50.1765312194824,63.70189638088228,67.43672479599331,453627428
sq,55.8144134521484,51.2267459869385,63.61534492938257,66.65728896579473,453644095
sq,56.8391107559204,52.221346282959,63.427518185814925,65.31181835560403,453660762
sq,57.9288190841675,53.2865795135498,63.063336200170255,63.4619355122307,453677429
sq,58.9617094039917,54.415604019165,62.44452169675142,61.220656467271425,453694096
sq,59.9479516983032,55.4556030273437,61.5029128539245,58.73490330979056,453710763
sq,60.9204200744629,56.3280700683594,60.18190718722207,56.14775874706329,453727430
sq,61.8712934494018,57.2249044418335,58.43094633404628,53.550857869163316,453744097
sq,62.8160213470459,58.0227188110351,56.20053606448399,50.9474510179029,453760764
sq,63.6529983520508,58.6669677734375,53.44343794564946,48.245069730737,453777431
sq,64.5428356170654,59.631614112854,50.12357763740672,45.28368881797879,453794098
sq,65.3805412292481,60.3054718017578,46.22982206384146,41.888595414039244,453810765
sq,66.0905789375305,61.0131105422974,41.7891745500521,37.927084282153835,453827432
sq,66.7309979438782,61.6588438987732,36.87413503801988,33.349325370274435,453844099
sq,67.3805693626404,62.2219747543335,31.600386675122415,28.202672375950844,453860766
sq,67.9399670600891,62.6389750480652,26.112496892390006,22.619403510629738,453877433
sq,68.3472603797913,62.9743517875671,20.55904772770304,16.78654725680725,453894100
sq,68.5795473098755,63.2047924041748,15.065231345228629,10.910021429465635,453910767
sq,68.7806314468384,63.4166201591492,9.715162603442783,5.182608375509865,453927434
sq,68.9781457424164,63.5309909820557,4.552040661819474,-0.24046819864727936,453944101
sq,69.0754150390625,63.5005358695984,-0.4061314063339679,-5.258121277434445,453960768
sq,69.056774520874,63.3805021286011,-5.1458992783893605,-9.8315277833153,453977435
sq,69.0241850852966,63.2270764350891,-9.644416887320475,-13.982335880830462,453994102
sq,68.8681272506714,63.0137256622314,-13.869078874014878,-17.78144086739299,454010769
sq,68.6546701431274,62.7590822219849,-17.79082569386161,-21.332304598005923,454027436
sq,68.3598259925842,62.4348114967346,-21.404904204667876,-24.753946325122577,454044103
sq,67.9808277130127,61.9868015289307,-24.74887903569375,-28.166310586869226,454060770
sq,67.5293263435364,61.504672908783,-27.90802190739038,-31.677755748372643,454077437
sq,67.1066807746887,61.067594909668,-31.003620102136093,-35.37447863478185,454094104
sq,66.6625570297241,60.5395769119263,-34.16784418579664,-39.31387514679171,454110771
sq,66.1188210487366,59.8589614868164,-37.5143991807199,-43.5235942013449,454127438
sq,65.4919380187988,59.1364387512207,-41.113803789939126,-48.00423315775791,454144105
sq,64.817932510376,58.3561443328857,-44.97805115375796,-52.730986976421306,454160772
sq,64.156365776062,57.5333246231079,-49.05637036407468,-57.65197030384249,454177439
sq,63.3767599105835,56.6362880706787,-53.242791849890715,-62.68596606682927,454194106
sq,62.4852060317993,55.6283639907837,-57.39456013832903,-67.7248833650755,454210773
sq,61.5862144470215,54.5723499298096,-61.35739918538426,-72.64426980388427,454227440
sq,60.6049217224121,53.4027637481689,-64.99157797998652,-77.32066432496585,454244107
sq,59.5211547851562,52.1302436828613,-68.19314917879366,-81.65031943232232,454260774
sq,58.4415153503418,50.7931636810303,-70.90696328047268,-85.56234372045365,454277441
sq,57.3503927230835,49.4383892059326,-73.13089666772605,-89.02194366962298,454294108
sq,56.1619781494141,48.0377582550049,-74.9126301786143,-92.02478934899608,454310775
sq,54.9310688018799,46.6029438018799,-76.34011273206363,-94.58749353584201,454327442
sq,53.7031024932861,45.0579189300537,-77.52598461926081,-96.73860273136683,454344109
sq,52.4912628173828,43.4820808410645,-78.58730818691508,-98.51070249722494,454360776
sq,51.2337860107422,41.8891338348389,-79.62454273209427,-99.93188561797231,454377443
sq,49.991516494751,40.320862197876,-80.70472779958433,-101.0166750219629,454394110
sq,48.6501335144043,38.7502178192139,-81.85202135013245,-101.76015661784824,454410777
sq,47.3249382019043,37.1089958190918,-83.04633613090618,-102.13980998242553,454427444
sq,46.0590385437012,35.4493812561035,-84.23048735329611,-102.12585469496223,454444111
sq,44.7174591064453,33.8338874816894,-85.32716273131444,-101.69615514897406,454460778
sq,43.3857902526856,32.1918930053711,-86.26540790828774,-100.84954750861579,454477445
sq,42.0003646850586,30.5755638122559,-87.01047848647536,-99.61217813708234,454494112
sq,40.5072387695312,28.9475654602051,-87.58430644851997,-98.03359757559716,454510779
sq,39.0132774353027,27.3585418701172,-88.06305771190782,-96.17266208179015,454527446
sq,37.6496795654297,25.8749870300293,-88.54759809673102,-94.07788232441621,454544113
sq,36.3167366027832,24.3757041931152,-89.11841102269044,-91.77077705904956,454560780
sq,34.9712966918945,22.9424003601074,-89.79724327986551,-89.24079229828608,454577447
sq,33.5450462341309,21.5004600524902,-90.53422746719075,-86.45550543032444,454594114
sq,32.0323165893555,20.1072639465332,-91.22391557882563,-83.38299204990027,454610781
sq,30.5035499572754,18.7458442687988,-91.73874203649554,-80.01846036272298,454627448
sq,29.0243629455566,17.490518951416,-91.9645550759191,-76.40653048810859,454644115
sq,27.6527236938477,16.2617401123047,-91.82997306043274,-72.65264760757435,454660782
sq,26.227564239502,15.105924987793,-91.32957605062482,-68.91932791559717,454677449
sq,24.7011817932129,13.9703506469727,-90.54100616185558,-65.40401456002786,454694116
sq,23.214136505127,12.8388923645019,-89.62908249083719,-62.29725458092456,454710783
sq,21.7262138366699,11.8051513671875,-88.82581676891776,-59.72632737751168,454727450
sq,20.2567771911621,10.9167503356934,-88.38090934225673,-57.70095832718187,454744117
sq,18.9108184814453,10.2571434020996,-88.49070057780008,-56.08731348700746,454760784
sq,17.5611480712891,9.31167449951172,-89.22610430065406,-54.6322941511411,454777451
sq,16.1290992736816,8.41410675048828,-90.48383128198944,-53.03840061060486,454794118
sq,14.7144950866699,7.43519821166992,-91.97848680016082,-51.062792625047805,454810785
sq,13.2557434082031,6.58289947509766,-93.28078916323724,-48.6014753746894,454827452
sq,11.7802986145019,5.79726257324219,-93.89515741462463,-45.72756190436365,454844119
sq,10.2854217529297,5.03567352294922,-93.36057698811896,-42.672640507450666,454860786
sq,8.73443450927734,4.30760040283203,-91.35217126115519,-39.760347620187524,454877453
sq,7.23729553222656,3.77955474853516,-87.75864826151593,-37.31514209183211,454894120
sq,5.78784790039063,3.31769409179687,-82.71491153846682,-35.57451837492609,454910787
sq,4.44666900634766,2.62000122070312,-76.57971962333794,-34.62747799983402,454927454
sq,3.21484222412109,2.00256195068359,-69.86225335578752,-34.389411667291235,454944121
sq,2.10037078857422,1.52171173095703,-63.11442691039968,-34.61399346031068,454960788
sq,1.11245574951172,1.13391723632812,-56.814548202477944,-34.94117016703856,454977455
sq,0.2447265625,0.558660888671875,-51.27096487671342,-34.97814932492136,454994122
sq,-0.46871337890625,-0.0639587402343746,-46.570691865794245,-34.398478275503564,455010789
sq,-1.23200378417969,-0.740380859375,-42.58708799821181,-33.029232608696454,455027456
sq,-1.84327850341797,-1.35295257568359,-39.04389590729941,-30.893442803561868,455044123
sq,-2.56023559570312,-1.84966430664063,-35.61540742582369,-28.190752293304804,455060790
sq,-3.19894561767578,-2.24608764648437,-32.03116299638298,-25.22532861019214,455077457
sq,-3.71766052246094,-2.57664642333984,-28.153522239504202,-22.31100880307516,455094124
sq,-4.21775970458984,-2.86035308837891,-24.00740885006577,-19.689009994680962,455110791
sq,-4.63427124023437,-3.15907440185547,-19.758172339068754,-17.482767149175807,455127458
sq,-4.91066131591797,-3.48942718505859,-15.649513352530992,-15.695487958780728,455144125
sq,-5.09697875976562,-3.77704010009766,-11.924363501783086,-14.239617654853049,455160792
sq,-5.26987609863281,-3.98056945800781,-8.75438792739594,-12.98069554498859,455177459
sq,-5.38025817871094,-4.209130859375,-6.197453533318354,-11.78052386438698,455194126
sq,-5.45661315917969,-4.39602813720703,-4.190158759937092,-10.530391108446068,455210793
sq,-5.56518707275391,-4.58588562011719,-2.5699631319807175,-9.169824513892202,455227460
sq,-5.65821990966797,-4.73134002685547,-1.113379882465477,-7.68965389569366,455244127
sq,-5.6723876953125,-4.83662567138672,0.42426583773608645,-6.121043218160046,455260794
sq,-5.64906463623047,-4.92644653320312,2.276593767887997,-4.514216529953509,455277461
sq,-5.60993347167969,-5.04457244873047,4.643240394296837,-2.9111926223721625,455294128
sq,-5.542626953125,-5.09253845214844,7.673640529381108,-1.3170254739351805,455310795
sq,-5.41566619873047,-5.08845672607422,11.454272395718604,0.32440378232305506,455327462
sq,-5.20630035400391,-5.03589782714844,15.997319040252515,2.1418910203784893,455344129
sq,-4.92366180419922,-5.00299987792969,21.23079931424987,4.3282784083724675,455360796
sq,-4.60039672851562,-4.92646179199219,26.99376910641951,7.109452699205175,455377463
sq,-4.22281799316406,-4.83777770996094,33.04425878145364,10.695819668039128,455394130
sq,-3.74948272705078,-4.65462646484375,39.08850121579075,15.226108047575833,455410797
sq,-3.09825286865234,-4.40270385742187,44.83451634989533,20.71495828144648,455427464
sq,-2.40123901367187,-4.06514129638672,50.062625471190394,27.01568594506065,455444131
sq,-1.61513671875,-3.64582214355469,54.69511390751772,33.809842972832286,455460798
sq,-0.593301391601562,-3.17535552978516,58.84177939025527,40.63503104428622,455477465
sq,0.349653625488282,-2.6531005859375,62.80025119762923,46.95791454543186,455494132
sq,1.34184112548828,-1.93138275146484,67.00033485354379,52.286389310301885,455510799
sq,2.45767822265625,-0.892953491210937,71.89688777708744,56.29518134195921,455527466
sq,3.69323577880859,-0.0580154418945309,77.83053592648821,58.923315537348806,455544133
sq,4.88470306396484,1.08863677978516,84.88772603533975,60.401945237803616,455560800
sq,6.00141754150391,2.29956665039062,92.79974172858692,61.1910701163787,455577467
sq,7.48903503417969,3.04995574951172,100.91796574610493,61.83873240968408,455594134
sq,9.2197364807129,3.94248046875,108.28535437704899,62.81293573694127,455610801
sq,10.9098114013672,4.63001861572266,113.80013624463827,64.37351099337296,455627468
sq,12.4347900390625,5.66742935180664,116.44907319078949,66.53281743061773,455644135
sq,14.2202323913574,6.87723388671875,115.57120540503183,69.10872703201005,455660802
sq,16.2973655700684,8.20624389648438,111.08849737970718,71.83073103536378,455677469
sq,18.62216796875,9.32007827758789,103.61750003565939,74.4473199013163,455694136
sq,20.4998229980469,10.3236793518066,94.3886365588254,76.80069763710594,455710803
sq,21.94638671875,11.6338256835938,84.96465569793101,78.85958935708895,455727470
sq,23.0096611022949,13.0177139282227,76.8401085246068,80.71193546689062,455744137
sq,23.9654563903809,14.3711799621582,71.06518334326732,82.52052365513023,455760804
sq,24.6638702392578,15.6710304260254,68.03221818609215,84.45185771006403,455777471
sq,25.5639633178711,16.8437103271484,67.49316423772191,86.60372455417856,455794138
sq,27.1142868041992,18.0926307678223,68.77517155745154,88.96481242732406,455810805
sq,28.6292900085449,19.581697845459,71.08070555747715,91.42754163339939,455827472
sq,29.8085922241211,21.0802864074707,73.7426004534175,93.84805412135638,455844139
sq,30.9115127563477,22.5769218444824,76.35642776358227,96.12286742741941,455860806
sq,32.0378173828125,24.2864593505859,78.7883052884766,98.24378051100723,455877473
sq,33.1669639587402,26.0186981201172,81.10499274210522,100.30348845665378,455894140
sq,34.4497436523437,27.4580177307129,83.47832712519195,102.44913630418944,455910807
sq,35.9140800476074,29.0193771362305,86.09496373675017,104.80881819994471,455927474
sq,37.3680786132812,30.5771278381348,89.08124688724513,107.43033164085185,455944141
sq,38.6315635681152,32.2663597106934,92.44687913555042,110.26207173921232,455960808
sq,40.0011734008789,34.0966018676758,96.05540636358971,113.17978079884566,455977475
sq,41.6285804748535,35.9869445800781,99.6290733447184,116.03786708097935,455994142
sq,43.3531974792481,37.8469528198242,102.78522373138638,118.71396000600934,456010809
sq,44.9940856933594,39.8393424987793,105.09319562829396,121.1223379114089,456027476
sq,46.6025661468506,41.8471035003662,106.14534958515544,123.18971427122065,456044143
sq,48.0865482330322,43.8145278930664,105.64577587610601,124.8085762932871,456060810
sq,49.786402130127,45.5698589324951,103.51801577524176,125.80170321077064,456077477
sq,51.5746311187744,47.385237121582,100.0138013680079,125.9355000108556,456094144
sq,53.262907409668,49.4712280273437,95.78313771699372,124.99986540461424,456110811
sq,54.8691524505615,51.6027263641357,91.86129235656645,122.93513783650454,456127478
sq,56.3093532562256,53.6145013809204,89.5450112689564,119.95562623598855,456144145
sq,57.8923429489136,55.6282857894897,90.15793091193919,116.61359027990456,456160812
sq,59.4510454177856,57.5317071914673,94.73379260307914,113.76600231653973,456177479
sq,61.0824321746826,59.2985118865967,103.67580228421146,112.43423956307804,456194146
sq,62.4658140182495,61.2616218566895,116.48195512430394,113.572108304255,456210813
sq,63.9796041488647,63.1854342460632,131.64560853102793,117.77888129890157,456227480
sq,65.4444684028626,65.1249245643616,146.82102550388214,125.01723231689935,456244147
sq,67.7226542472839,66.9767550468445,159.26726568525606,134.42253251439672,456260814
sq,70.8032213687897,68.4551097989082,166.4694471933923,144.30357108056938,456277481
sq,73.860201382637,69.8480141401291,166.7425633600545,152.40209318065538,456294148
sq,77.1137432098389,73.0512832641602,159.61115090223808,156.37985876550943,456310815
sq,79.7729758262634,76.3741125106812,145.84315251970676,154.3763191211429,456327482
sq,81.7889951705933,79.3458770751953,127.15371175555487,145.42083266183732,456344149
sq,83.4621337890625,81.5957321166992,105.71190027864345,129.5517142166263,456360816
sq,84.911061668396,83.1576808929443,83.6258952658311,107.64516191723786,456377483
sq,86.3025039672852,84.6860822677612,62.54433408036137,81.08065165803576,456394150
sq,87.3823884963989,86.0374320983887,43.434346969163435,51.3980059675612,456410817
sq,88.0637592315674,86.7978710174561,26.53102715944781,20.05361761551547,456427484
sq,88.4684957504273,86.9088768005371,11.422421971331326,-11.683088395257652,456444151
sq,88.6737426757813,86.6286777496338,-2.7701234083419446,-42.70403844783386,456460818
sq,88.6656660079956,86.1163429260254,-17.152344710530674,-71.95812742816,456477485
sq,88.3645538330078,85.195657157898,-32.790509889147,-98.3469166263886,456494152
sq,87.7639793395996,83.7836269378662,-50.44789946403349,-120.70304846123447,456510819
sq,86.9483360290527,82.0247873306274,-70.35496701441778,-137.90181969119,456527486
sq,85.8781675338745,79.9613298416138,-92.0494459211266,-149.0962120902621,456544153
sq,84.4489654541016,77.4091018676758,-114.32934231113295,-153.9994114431843,456560820
sq,82.8063720703125,74.4709180831909,-135.3603451074271,-153.0929409700164,456577487
sq,80.9462398529053,71.2711175918579,-152.96014081710132,-147.64219788469543,456594154
sq,78.7447127342224,69.1163269817829,-165.03888693155173,-139.47181972911204,456610821
sq,75.8703547954559,67.5658120155335,-170.11089124654777,-130.56555625402046,456627488
sq,72.7623369857669,65.6304201126099,-167.7310431414277,-122.6390740357762,456644155
sq,69.4747449398041,63.7482918739319,-158.692222495257,-116.83236738618824,456660822
sq,66.1451267242432,61.8154090881348,-144.88046479400455,-113.59433068305232,456677489
sq,64.7285427093506,59.9663652420044,-128.81536097781597,-112.74790753548406,456694156
sq,63.3197101593018,58.1465181350708,-113.03931259077805,-113.6752056789427,456710823
sq,61.5191720962524,56.2282890319824,-99.5736572741435,-115.5504700563285,456727490
sq,59.956791305542,54.3139518737793,-89.60050817760491,-117.55853139452701,456744157
sq,58.5539611816406,52.3887752532959,-83.41241606214064,-119.05567099249551,456760824
sq,57.1623529434204,50.4679683685303,-80.57669009138036,-119.65340236692784,456777491
sq,55.706510925293,48.5632652282715,-80.21806015173789,-119.22842829168698,456794158
sq,54.3206676483154,46.7125896453857,-81.32092720905217,-117.87839371865623,456810825
sq,52.938257598877,44.8456882476807,-82.97493715944081,-115.84957363291547,456827492
sq,51.6034587860107,43.0099586486816,-84.52374265505688,-113.459656916294,456844159
sq,50.3006786346436,41.1888469696045,-85.61360530134772,-111.03019688743204,456860826
sq,48.949934387207,39.3888210296631,-86.16403984550918,-108.8345115639286,456877493
sq,47.5604328155518,37.6550563812256,-86.29275845386638,-107.06174750018998,456894160
sq,46.2109245300293,35.9348243713379,-86.22570836278452,-105.7970376734071,456910827
sq,44.8927406311035,34.2784523010254,-86.21646742952767,-105.01888222013831,456927494
sq,43.5307201385498,32.6234840393066,-86.49067106824182,-104.61490600380263,456944161
sq,42.1579078674316,30.9052337646484,-87.22042568749649,-104.41442298544811,456960828
sq,40.7028793334961,29.2530578613281,-88.52250606210094,-104.23208297533486,456977495
sq,39.2517799377442,27.6047615051269,-90.46725896143433,-103.91389750306037,456994162
sq,37.8039916992187,25.9058135986328,-93.08606836867085,-103.37604494033341,457010829
sq,36.3521026611328,24.226976776123,-96.3722075144714,-102.62744150237363,457027496
sq,34.8034729003906,22.562181854248,-100.27699992133621,-101.76960471545821,457044163
sq,33.2006477355957,20.9275039672852,-104.70586572783382,-100.9728190180339,457060830
sq,31.5294631958008,19.3570007324219,-109.51745740039175,-100.43456751064113,457077497
sq,29.7303146362305,17.7792953491211,-114.52714272036785,-100.33068778338148,457094164
sq,27.9537300109863,16.1548637390137,-119.51582076939962,-100.76894970244726,457110831
sq,26.089640045166,14.4969161987305,-124.24540777243212,-101.75036385640644,457127498
sq,24.0755180358887,12.8491653442383,-128.4803225099164,-103.14066707951197,457144165
sq,21.9834808349609,11.2445587158203,-132.009257459299,-104.65642177586584,457160832
sq,19.8293899536133,9.62930526733399,-134.6575900996612,-105.8742085045918,457177499
sq,17.6415351867676,7.94861450195313,-136.28307708553652,-106.27117529497822,457194166
sq,15.503515625,6.25204315185547,-136.75607905188048,-105.2978674496819,457210833
sq,13.339079284668,4.57899322509766,-135.93510875408643,-102.47316611209082,457227500
sq,11.167822265625,2.91031494140625,-133.65301910288292,-97.48197110934105,457244167
sq,9.09406127929688,1.25665893554687,-129.72644348712294,-90.2527496833547,457260834
sq,7.08289184570313,-0.173753356933593,-123.99246019268581,-80.99574761567185,457277501
sq,5.03597106933594,-1.45411834716797,-116.3642880073659,-70.19244976509714,457294168
sq,3.11018981933594,-2.60749969482422,-106.88636014996248,-58.538269464837775,457310835
sq,1.26309814453125,-3.52617034912109,-95.76564405979525,-46.848513866440584,457327502
sq,-0.227433776855468,-4.27626190185547,-83.3658699955964,-35.941396476234935,457344169
sq,-1.43950805664063,-4.89660034179687,-70.16989181446601,-26.513616645292153,457360836
sq,-2.53257141113281,-5.35339508056641,-56.72918173958893,-19.02647771294237,457377503
sq,-3.37025604248047,-5.58701477050781,-43.617662327830594,-13.624634590868377,457394170
sq,-4.21775970458984,-5.66247711181641,-31.392498298723332,-10.112011188768214,457410837
sq,-4.81632385253906,-5.67508087158203,-20.55143561724651,-8.002208807900564,457427504
sq,-5.15976867675781,-5.8884521484375,-11.477751843415005,-6.6388735195578645,457444171
sq,-5.20694122314453,-6.19038543701172,-4.379432186021457,-5.353285416816277,457460838
sq,-5.22287902832031,-6.35931549072266,0.7553020444487584,-3.611050116837281,457477505
sq,-5.18670043945312,-6.33124694824219,4.16286685753689,-1.1090998265590493,457494172
sq,-5.12947235107422,-6.26609191894531,6.260529332277599,2.191270647620983,457510839
sq,-5.03067932128906,-6.30750427246094,7.563415200759004,6.090517627295987,457527506
sq,-4.93901977539062,-6.37909851074219,8.584191398170576,10.225520920274047,457544173
sq,-4.84590301513672,-6.17442474365234,9.740639355162255,14.179015056530636,457560840
sq,-4.714990234375,-5.82007751464844,11.292277778726719,17.59944439385022,457577507
sq,-4.51812133789062,-5.41662750244141,13.318541257019588,20.296413331064635,457594174
sq,-4.32183990478516,-5.06395111083984,15.741079728684412,22.28143041884068,457610841
sq,-4.14899597167969,-4.77179107666016,18.383999562968757,23.7452114386257,457627508
sq,-3.85917816162109,-4.4587646484375,21.057873405485605,24.987184120201384,457644175
sq,-3.40921936035156,-3.99785003662109,23.645193766870413,26.325288857740908,457660842
sq,-2.94632873535156,-3.60004577636719,26.160472717901573,28.012860349821217,457677509
sq,-2.55718383789062,-3.25149688720703,28.763739223308747,30.181957872411814,457694176
sq,-2.12410888671875,-2.80356750488281,31.721259123660413,32.82377257223239,457710843
sq,-1.57428131103516,-2.23592529296875,35.32305842835984,35.805570350826756,457727510
sq,-0.932023620605468,-1.5930419921875,39.776741679256816,38.91146562008205,457744177
sq,-0.335824584960937,-0.909837341308593,45.10339709131556,41.8885560537464,457760844
sq,0.254537963867188,-0.271073913574218,51.06709778088893,44.485577240932265,457777511
sq,0.968458557128907,0.367727661132813,57.16961043789337,46.48327535019168,457794178
sq,1.84538879394531,0.953138732910157,62.728415719322015,47.72252222502845,457810845
sq,2.82031097412109,1.92560424804687,67.02962318014092,48.13085085132853,457827512
sq,3.96101226806641,2.86669769287109,69.51847607163765,47.737506720089364,457844179
sq,5.09390869140625,3.47633209228516,69.97083468803923,46.66649540370153,457860846
sq,6.46423187255859,4.09361114501953,68.58647837959474,45.11008395424111,457877513
sq,7.72913970947266,4.88203277587891,65.96273707068912,43.29659524198369,457894180
sq,8.75646820068359,5.53037490844727,62.944220291976436,41.462539999075574,457910847
sq,9.63459625244141,6.34912338256836,60.39053609136177,39.82648699821804,457927514
sq,10.4592842102051,7.02947845458985,58.93769829482367,38.556739539642,457944181
sq,11.2097267150879,7.54646911621094,58.83203127224861,37.73312417930722,457960848
sq,12.0799201965332,8.06306304931641,59.885854662757794,37.316363912026205,457977515
sq,13.029997253418,8.60253753662109,61.55624692975603,37.142639864923666,457994182
sq,14.2885917663574,9.30138244628906,63.10355467330447,36.95075593567447,458010849
sq,15.518350982666,9.93021621704102,63.76635855473832,36.433891610817724,458027516
sq,16.3366645812988,10.507551574707,62.90378000761548,35.30060042395632,458044183
sq,17.2059196472168,11.0039390563965,60.090409478585684,33.33342315592719,458060850
sq,18.2736839294434,11.4712928771973,55.17470166793367,30.439171269072585,458077517
sq,19.10458984375,12.0604232788086,48.312547926885046,26.683884782572306,458094184
sq,19.8030609130859,12.6223663330078,39.973690368073214,22.300427250238176,458110851
sq,20.6496604919434,12.9706748962402,30.90693167612702,17.6586126246732,458127518
sq,21.2904876708984,13.1885475158691,22.04971576946977,13.201523579680746,458144185
sq,21.5374206542969,13.3541091918945,14.381615143351535,9.368361185017612,458160852
sq,21.776335144043,13.4323715209961,8.74585192052781,6.530341197364447,458177519
sq,21.8454689025879,13.5003723144531,5.684613060484967,4.957420345792125,458194186
sq,21.7712539672852,13.6481002807617,5.338819781987132,4.816501555214868,458210853
sq,21.6856178283691,13.7669052124023,7.447178752139437,6.18671773930218,458227520
sq,21.8625053405762,13.9127182006836,11.447024792112773,9.072499371599614,458244187
sq,22.212183380127,14.1061271667481,16.642115523303566,13.402250041414385,458260854
sq,22.5998176574707,14.2627700805664,22.378714981691736,19.014665304154935,458277521
sq,22.9873794555664,14.5007843017578,28.174976464043024,25.647393821562712,458294188
sq,23.410684967041,14.8153060913086,33.77538676580378,32.94580183991543,458310855
sq,23.9492172241211,15.3643211364746,39.13314597172486,40.50006520795416,458327522
sq,24.5383934020996,16.1165985107422,44.34309114768488,47.90222306980019,458344189
sq,25.2036079406738,16.9178833007812,49.552804443203826,54.8028827882415,458360856
sq,26.0048202514648,17.7807258605957,54.8748031122658,60.948294874454525,458377523
sq,26.9764083862305,18.7757705688477,60.31501425771732,66.19003633605044,458394190
sq,27.9086936950684,19.7990898132324,65.72826926989296,70.47205973669048,458410857
sq,28.8545707702637,20.9196571350098,70.8121582888857,73.80652516571128,458427524
sq,29.845182800293,22.0837692260742,75.14983085447462,76.2499277285544,458444191
sq,31.0457443237305,23.252840423584,78.3007603483757,77.88669550441536,458460858
sq,32.4660247802734,24.5526222229004,79.9167278039529,78.82091386046922,458477525
sq,33.9212135314942,25.8360847473144,79.84345547586234,79.17093742457007,458494192
sq,35.1192764282226,27.1479858398437,78.17228595229136,79.06004385582355,458510859
sq,36.3044914245606,28.4241928100586,75.22933275050026,78.60092428133241,458527526
sq,37.4845794677734,29.5333236694336,71.51289275363482,77.87958249543132,458544193
sq,38.7310928344726,30.8091262817383,67.59890757588265,76.94791807050215,458560860
sq,39.8851913452148,32.0715621948242,64.0330109635093,75.82948155790388,458577527
sq,40.7885002136231,33.3153633117676,61.22881680534722,74.5338812154576,458594194
sq,41.6166347503662,34.5659469604492,59.39704364007217,73.07109631146315,458610861
sq,42.5409854888916,35.6566604614258,58.52736265224812,71.46108600772459,458627528
sq,43.54404296875,36.7505821228027,58.42751487004882,69.74103757474452,458644195
sq,44.5315689086914,37.8514617919922,58.801524524904856,67.97413174001326,458660862
sq,45.5315212249756,39.0216430664062,59.3366449634329,66.25774716567803,458677529
sq,46.4788326263428,40.1282772064209,59.773034665477304,64.72215875105528,458694196
sq,47.404581451416,41.1356681823731,59.94406854189844,63.51113761015982,458710863
sq,48.3727535247803,42.1811069488525,59.78794498552225,62.744325094692044,458727530
sq,49.3157371520996,43.2429584503174,59.337221252767335,62.472064326950026,458744197
sq,50.282942199707,44.0590538024902,58.69315053232482,62.64082788440588,458760864
sq,51.214136505127,44.9805683135986,57.99018762795017,63.087308270241444,458777531
sq,52.174715423584,46.065412902832,57.35563958435006,63.568416184125475,458794198
sq,53.0797981262207,47.1364177703857,56.870863146749684,63.816424996023265,458810865
sq,53.9839691162109,48.2492317199707,56.542813871123926,63.595830001528924,458827532
sq,54.7964004516601,49.2661785125732,56.29573937083222,62.741166033764294,458844199
sq,55.6491836547851,50.1815074920654,55.9889014166631,61.16953241425012,458860866
sq,56.6229309082031,51.152779006958,55.45613237404095,58.875090592515214,458877533
sq,57.5646213531494,52.0800632476807,54.551570178471714,55.915941601489656,458894200
sq,58.4836887359619,53.0209297180176,53.18181884580859,52.39788691817423,458910867
sq,59.3628705978393,53.9177621841431,51.312493171212374,48.453365160416126,458927534
sq,60.1326612472534,54.7225526809692,48.951941958124515,44.21464605068466,458944201
sq,60.7926830291748,55.2825635910034,46.12683280836214,39.78758786483253,458960868
sq,61.5366930007935,55.8543142318726,42.865110601305894,35.23758041890577,458977535
sq,62.3244079589844,56.4912847518921,39.191781803764115,30.594495581110902,458994202
sq,63.004718208313,57.0662273406982,35.13176749523115,25.8708827118548,459010869
sq,63.480340385437,57.4754461288452,30.712141805173605,21.079332625979234,459027536
sq,63.9506229400635,57.8090900421143,25.962743258747672,16.23863073182461,459044203
sq,64.3569978713989,58.0148796081543,20.91921475542667,11.368828600631492,459060870
sq,64.6876949310303,58.2103179931641,15.62976760873467,6.482401388120386,459077537
sq,65.0382298469544,58.322999382019,10.160611468351656,1.5783740726156843,459094204
sq,65.1985634803772,58.3570989608765,4.593017894360529,-3.357579127132897,459110871
sq,65.2211040496826,58.2485288619995,-0.9898286952194199,-8.347048696827269,459127538
sq,65.1885899543762,58.1350101470947,-6.520358428579033,-13.408468123378523,459144205
sq,65.0949062347412,57.9594100952148,-11.959348207056863,-18.54588746118209,459160872
sq,64.8856367111206,57.6654819488525,-17.29756266083859,-23.741814667743824,459177539
sq,64.5753664016724,57.2820724487305,-22.545673338542223,-28.957570025677793,459194206
sq,64.2604135513306,56.7837232589722,-27.7169342667307,-34.140910939582085,459210873
sq,63.849294090271,56.2890628814697,-32.81018654475347,-39.23779868102661,459227540
sq,63.3321193695068,55.6573556900024,-37.80033940769439,-44.20433355635132,459244207
sq,62.6872085571289,54.9021886825562,-42.63914570218125,-49.014676529785646,459260874
sq,62.0084117889404,54.0867837905884,-47.26391394839725,-53.661074588085505,459277541
sq,61.2709306716919,53.2447704315186,-51.609567578530786,-58.14503048312278,459294208
sq,60.4362043380737,52.366890335083,-55.62030237728003,-62.46404922308467,459310875
sq,59.5278629302979,51.3935779571533,-59.25849000417342,-66.60176724127318,459327542
sq,58.5708498001099,50.2874931335449,-62.50945492034255,-70.52688906949791,459344209
sq,57.5944494247437,49.1554874420166,-65.38218950962931,-74.20032457313184,459360876
sq,56.5682872772217,47.96081199646,-67.90766753975983,-77.58571666980941,459377543
sq,55.4731792449951,46.7447151184082,-70.13632430079664,-80.65858364004517,459394210
sq,54.3368591308594,45.4407810211182,-72.13407218673906,-83.41129425985842,459410877
sq,53.1465858459473,44.0718864440918,-73.97428742371854,-85.85247243515688,459427544
sq,51.9707912445068,42.6970523834229,-75.72425887499308,-88.00066454621458,459444211
sq,50.7728427886963,41.3118022918701,-77.42860519489696,-89.8746625246651,459460878
sq,49.5426906585693,39.9059928894043,-79.09623717716008,-91.48564226769064,459477545
sq,48.3158248901367,38.4562953948975,-80.6984161419027,-92.836145294328,459494212
sq,47.0434078216553,36.9474357604981,-82.1822165229299,-93.92685022642377,459510879
sq,45.7026523590088,35.4099334716797,-83.4974563557457,-94.76697009361213,459527546
sq,44.3542407989502,33.9115509033203,-84.62882228053614,-95.38205495255593,459544213
sq,42.9859031677246,32.385538482666,-85.62174615276905,-95.8150269884301,459560880
sq,41.5949348449707,30.8330177307129,-86.59199312959107,-96.11991935656735,459577547
sq,40.2222389221192,29.3198417663574,-87.71355791787526,-96.35038366522744,459594214
sq,38.7880233764648,27.7605232238769,-89.18497618217663,-96.5461244012725,459610881
sq,37.3403305053711,26.2330001831055,-91.17932159757265,-96.72067222888157,459627548
sq,35.8926071166992,24.6633514404297,-93.7881184899865,-96.85372175935404,459644215
sq,34.4298004150391,23.1603645324707,-96.97380529706535,-96.89066239720727,459660882
sq,32.9278396606445,21.6325057983398,-100.54682499637636,-96.75035732081535,459677549
sq,31.3726028442383,20.0344337463379,-104.1788699102144,-96.33906220534692,459694216
sq,29.6723274230957,18.4594596862793,-107.45313169207097,-95.56511925951781,459710883
sq,27.9159225463867,16.913786315918,-109.94005365022815,-94.3493056278517,459727550
sq,26.1258758544922,15.4519256591797,-111.27959005361501,-92.63070401947023,459744217
sq,24.3649925231934,14.0320495605469,-111.2516405851963,-90.37337019082653,459760884
sq,22.6168579101562,12.6015876770019,-109.82211891962079,-87.57862085175672,459777551
sq,20.8443511962891,11.1520294189453,-107.15697293235067,-84.30025828551119,459794218
sq,19.0460494995117,9.69960250854492,-103.59811558098109,-80.651823269861,459810885
sq,17.3334564208984,8.43064346313477,-99.5978440489486,-76.79450770176793,459827552
sq,15.6785682678223,7.17384185791016,-95.61769451365099,-72.90392464735869,459844219
sq,14.255655670166,6.07863464355469,-92.01348768836388,-69.12708478728698,459860886
sq,12.9138320922852,5.04641571044922,-88.94164252263829,-65.54828841193523,459877553
sq,11.5636466979981,4.01915588378906,-86.32114151267886,-62.1790491205958,459894220
sq,10.1869186401367,2.99484100341797,-83.86709376196485,-58.97457236056809,459910887
sq,8.74150695800781,1.99493255615234,-81.1847967107843,-55.865490829725495,459927554
sq,7.47436370849609,1.05483856201172,-77.89256534683632,-52.78719970719543,459944221
sq,6.19597473144531,0.203901672363282,-73.73563494939008,-49.69364418877661,459960888
sq,4.935400390625,-0.559259033203125,-68.65950399683335,-46.55370563522389,459977555
sq,3.76133575439453,-1.26563415527344,-62.823359509185394,-43.33848156070475,459994222
sq,2.76338806152344,-1.94757995605469,-56.550513082980444,-40.010869447919355,460010889
sq,1.89055480957031,-2.59649047851562,-50.231330097472494,-36.52473399418171,460027556
sq,1.07256927490234,-3.20581207275391,-44.2094953547405,-32.83413775344897,460044223
sq,0.489096069335938,-3.71362457275391,-38.68859122099768,-28.908580981304297,460060890
sq,0.0060256958007816,-4.1543212890625,-33.689951192222125,-24.74918505450474,460077557
sq,-0.518510437011718,-4.56856689453125,-29.07440653434742,-20.401014765118017,460094224
sq,-1.10508117675781,-4.92636260986328,-24.614568604277405,-15.956455229530874,460110891
sq,-1.65546569824219,-5.19125518798828,-20.083512053411486,-11.544997262299468,460127558
sq,-1.94349822998047,-5.41633758544922,-15.323845959890326,-7.308332539791987,460144225
sq,-2.15801391601562,-5.54847869873047,-10.278542316102454,-3.366469961301945,460160892
sq,-2.29893646240234,-5.42201385498047,-4.986826205021767,0.21275875848002837,460177559
sq,-2.36026916503906,-5.43588409423828,0.4398707744997063,3.427812675743484,460194226
sq,-2.33824310302734,-5.45064697265625,5.847884578696489,6.336726785176582,460210893
sq,-2.27340087890625,-5.39975128173828,11.07006131815264,9.03714815078289,460227560
sq,-2.11824951171875,-5.22596893310547,15.951837360785229,11.64578243915335,460244227
sq,-1.85167083740234,-5.03327331542969,20.37471457883487,14.285007233454772,460260894
sq,-1.51670989990234,-4.84493408203125,24.27512686288804,17.07612803522952,460277561
sq,-1.09322509765625,-4.55993804931641,27.654401495463283,20.133351228521818,460294228
sq,-0.642884826660156,-4.12346038818359,30.576206383536878,23.551012301244175,460310895
sq,-0.185334777832031,-3.75572357177734,33.15177202255267,27.379363288758803,460327562
sq,0.327345275878907,-3.32547912597656,35.51736765074323,31.59244478631942,460344229
sq,0.935812377929688,-2.88925323486328,37.80998560184428,36.06193697274464,460360896
sq,1.54219665527344,-2.40455017089844,40.146191975060205,40.5552905248038,460377563
sq,2.15282287597656,-1.76883087158203,42.608240696113114,44.76926121289443,460394230
sq,2.78517761230469,-1.00601348876953,45.24120146241225,48.39378371936622,460410897
sq,3.47290649414062,-0.201051330566406,48.06189436465663,51.18520057848639,460427564
sq,4.30058135986328,0.737440490722657,51.073136524526404,53.02174524289695,460444231
sq,5.22543182373047,1.58373870849609,54.2695932898501,53.92140527875705,460460898
sq,6.15795745849609,2.37824859619141,57.622603784829074,54.0183842562127,460477565
sq,7.04411926269531,3.26759185791016,61.04446570959054,53.50992676586423,460494232
sq,7.92658843994141,4.12080230712891,64.3511280643364,52.59292834234889,460510899
sq,8.8489402770996,4.94879760742188,67.25255008730453,51.40960265845508,460527566
sq,9.80486526489258,5.72157897949219,69.3923754536346,50.01800734826699,460544233
sq,11.0369476318359,6.5109619140625,70.43500846518937,48.39832289113801,460560900
sq,12.2554000854492,7.17806854248047,70.17199968246854,46.49760814101219,460577567
sq,13.3657020568848,7.90878143310547,68.60663108177263,44.30282530740078,460594234
sq,14.6178344726562,8.74156036376953,65.98233986690686,41.91670816898639,460610901
sq,15.720442199707,9.56151809692383,62.74188864487353,39.601670633927405,460627568
sq,16.619310760498,10.2503608703613,59.43015860890798,37.76340622073769,460644235
sq,17.4920448303223,10.8296989440918,56.57425049984,36.86982646546499,460660902
sq,18.3373550415039,11.3692764282227,54.58097421088496,37.33085624458287,460677569
sq,19.1739562988281,11.8091491699219,53.680616719187306,39.38341233864769,460694236
sq,20.0490211486816,12.3442977905273,53.92422627449968,43.02344802041552,460710903
sq,20.9401306152344,13.0389083862305,55.221211833887956,48.00480697901252,460727570
sq,21.8701499938965,13.9536880493164,57.392783426096564,53.895049739736635,460744237
sq,22.8326705932617,14.9195121765137,60.216795732160556,60.15883738694079,460760904
sq,23.9062294006348,15.8260787963867,63.449387493127524,66.24084341625763,460777571
sq,24.8147644042969,16.7729820251465,66.82468315550861,71.63670428510216,460794238
sq,25.7966827392578,17.9041236877441,70.04883849522622,75.95433029570255,460810905
sq,26.8932479858398,19.1353324890137,72.8098765168813,78.96693853850577,460827572
sq,28.050463104248,20.499250793457,74.81588403762878,80.64838322661267,460844239
sq,29.1924880981445,21.8504852294922,75.85662812986396,81.17500026450473,460860906
sq,30.4742111206055,23.0995124816894,75.86722626651178,80.88445468729758,460877573
sq,31.8719657897949,24.4729217529297,74.96465672237122,80.19722801408965,460894240
sq,33.1373313903809,25.6859268188477,73.43398194125126,79.52110952380427,460910907
sq,34.2605690002442,26.8570121765137,71.66231867935124,79.16654774183782,460927574
sq,35.2377990722656,28.1218170166016,70.04495040205393,79.29806807993955,460944241
sq,36.2890953063965,29.2886833190918,68.90160498033913,79.93412355861037,460960908
sq,37.4215797424317,30.6525291442871,68.431817249435,80.98896304817814,460977575
sq,38.5123733520508,32.0510200500488,68.7144087820388,82.3340704470808,460994242
sq,39.6733421325684,33.4036582946777,69.73466618261249,83.85225022278566,461010909
sq,40.8927196502686,34.6918357849121,71.41523711604913,85.46665633182631,461027576
sq,42.0338748931885,35.9979232788086,73.63390958747594,87.14210927358879,461044243
sq,43.1347259521484,37.4928516387939,76.22683402038521,88.86586353646116,461060910
sq,44.2868045806885,38.9532970428467,78.98900908346572,90.61718500110246,461077577
sq,45.5682739257812,40.3501247406006,81.68604595911519,92.33627976438886,461094244
sq,46.8558944702148,41.642094039917,84.08212727380258,93.90605100080666,461110911
sq,48.2703746795654,43.2226871490479,85.97711827784046,95.15808938308267,461127578
sq,49.6537345886231,44.80842628479,87.23958862064678,95.90270234998309,461144245
sq,51.0223411560059,46.326851272583,87.82420533760462,95.96943669519852,461160912
sq,52.4587635040283,47.9331382751465,87.76794339130907,95.24062942603297,461177579
sq,53.9130805969238,49.4316505432129,87.16569486190544,93.66735938585828,461194246
sq,55.3058532714844,50.9447387695312,86.13150117178525,91.26776626875721,461210913
sq,56.6208290100098,52.3461097717285,84.7575277590162,88.1155649997328,461227580
sq,57.8704961776733,53.7098201751709,83.08609761927269,84.32842432625272,461244247
sq,59.2294563293457,55.0541652679443,81.10534598316838,80.06083805613711,461260914
sq,60.6089900970459,56.4237789154053,78.76688326658953,75.497147851801,461277581
sq,61.9170431137085,57.7191108703613,76.01335835441935,70.83481975965852,461294248
sq,63.091104888916,58.8577913284302,72.80359542267146,66.25278003001193,461310915
sq,64.163165473938,59.7840007781982,69.13071575370675,61.87303126850636,461327582
sq,65.2771815299988,60.6994089126587,65.03379269117433,57.734484994289325,461344249
sq,66.4643167495728,61.6061200141907,60.60087730527284,53.794712910589205,461360916
sq,67.4565948486328,62.5761283874512,55.95763350090849,49.95928574764039,461377583
sq,68.2891673088074,63.4187692642212,51.24062617092832,46.12282465198372,461394250
sq,69.0184003353119,64.1220849990845,46.56523931968952,42.20267817760644,461410917
sq,69.741970205307,64.7935384750366,42.00328986940835,38.15444353465894,461427584
sq,70.4681149959564,65.4381240844727,37.57838373893843,33.96877703120374,461444251
sq,71.1339745759964,65.9694625377655,33.27501138408359,29.654755037412585,461460918
sq,71.6239151000977,66.4523154735565,29.05156708096049,25.217449258584885,461477585
sq,72.0969097256661,66.8016659259796,24.850811884420835,20.638619756306664,461494252
sq,72.4413741469383,67.0966247558594,20.607296630661207,15.868456923114119,461510919
sq,72.7934065606445,67.374600315094,16.253123550924364,10.831365102546545,461527586
sq,73.1290072143078,67.6044765949249,11.721170458265044,5.441750863623659,461544253
sq,73.2916814625263,67.6976459264755,6.943687720573073,-0.37814607657782473,461560920
sq,73.3865880608559,67.674757027626,1.8473652142418893,-6.684016046845481,461577587
sq,73.3906217455864,67.5132893562317,-3.649068134228744,-13.498944219759771,461594254
sq,73.2991600871086,67.2959233760834,-9.627327460309496,-20.804192083653067,461610921
sq,73.1291678190231,67.0112222671509,-16.149264391952602,-28.5318157080569,461627588
sq,72.9224737152457,66.6077174186707,-23.228583322823514,-36.563705586354644,461644255
sq,72.5700436472893,65.9920310020447,-30.80536435255834,-44.74102970695372,461660922
sq,72.0970748901367,65.2194794654846,-38.73459438047585,-52.8825411582239,461677589
sq,71.4708754062653,64.4024929046631,-46.79466140651088,-60.805477062206414,461694256
sq,70.7198540210724,63.4363683700562,-54.714434501204046,-68.34312121584695,461710923
sq,69.8393827915192,62.3352540969849,-62.21207740056012,-75.35660405857642,461727590
sq,68.8486770629883,61.0793670654297,-69.03651027236448,-81.74131015185156,461744257
sq,67.7216361999512,59.8457855224609,-75.00262065638374,-87.42977376179495,461760924
sq,66.4992403030396,58.4501012802124,-80.01306128781187,-92.39380983963919,461777591
sq,65.2023262023926,56.9781583786011,-84.06285644497109,-96.64751889476558,461794258
sq,63.8872045516968,55.3734773635864,-87.22794393163252,-100.24925584706324,461810925
sq,62.4937480926514,53.7567619323731,-89.64343777698828,-103.29802979773683,461827592
sq,61.0696224212646,52.1384662628174,-91.47933732065631,-105.92150368497674,461844259
sq,59.6387504577637,50.4708274841309,-92.91974317516117,-108.25716639459732,461860926
sq,58.1293930053711,48.7107242584229,-94.1476416474671,-110.43069185570826,461877593
sq,56.5664524078369,46.8869365692139,-95.3335116870842,-112.53476410539344,461894260
sq,55.0684341430664,45.1287998199463,-96.625074310201,-114.61123822475476,461910927
sq,53.5694755554199,43.3511814117432,-98.13790034695437,-116.64147241888557,461927594
sq,51.9998401641846,41.4868606567383,-99.94892519888309,-118.55062336881197,461944261
sq,50.3709243774414,39.5784534454346,-102.09370551918909,-120.22782409957921,461960928
sq,48.6733287811279,37.6293949127197,-104.56524027149229,-121.55737308911488,461977595
sq,47.0372776031494,35.6756996154785,-107.31245235681105,-122.45179289978597,461994262
sq,45.3552631378174,33.733511352539,-110.24107415457561,-122.87819352774706,462010929
sq,43.6370433807373,31.8006958007812,-113.22353256564296,-122.8721651395314,462027596
sq,41.8217414855957,29.7858604431152,-116.12205864159317,-122.534836726389,462044263
sq,39.9648002624512,27.7719253540039,-118.82109095491158,-122.00893004983165,462060930
sq,38.0266937255859,25.7392639160156,-121.25655813233918,-121.43296553980312,462077597
sq,36.0240043640137,23.8487915039062,-123.42635453810617,-120.88250883165881,462094264
sq,33.9918731689453,22.0575813293457,-125.37105794811302,-120.31942310183882,462110931
sq,31.9590629577637,20.1733306884766,-127.12635637497714,-119.57419799392312,462127598
sq,30.0072120666504,18.2333053588867,-128.6645702091938,-118.37603244283567,462144265
sq,28.0744804382324,16.3548988342285,-129.85368826400142,-116.42558891424054,462160932
sq,26.0977844238281,14.5179924011231,-130.45937128937697,-113.48761354714708,462177599
sq,23.9988616943359,12.5982574462891,-130.19589533104948,-109.47165047520899,462194266
sq,21.7566017150879,10.7275871276856,-128.80535211237776,-104.46993847906835,462210933
sq,19.5479415893555,9.02126922607422,-126.12804659766732,-98.7333304007696,462227600
sq,17.5306266784668,7.3933967590332,-122.13351779780288,-92.58842467844786,462244267
sq,15.7143272399902,6.04664840698242,-116.9064414761479,-86.32470555968898,462260934
sq,13.9136795043945,4.80113830566406,-110.60530317466883,-80.09636243906144,462277601
sq,12.101789855957,3.59503784179687,-103.41739401693857,-73.87932176129512,462294268
sq,10.3705123901367,2.41951599121094,-95.52308770322045,-67.5001187450996,462310935
sq,8.83650054931641,1.27181091308594,-87.07102277562599,-60.721579875034095,462327602
sq,7.53368988037109,0.2016357421875,-78.16419932929855,-53.34732216464809,462344269
sq,6.30531158447266,-0.735650634765625,-68.86080898554415,-45.303302229018875,462360936
sq,5.18448486328125,-1.47718963623047,-59.193043560308865,-36.66957912295758,462377603
sq,4.22345581054688,-2.01321563720703,-49.20013886907479,-27.659479460950124,462394270
sq,3.44946136474609,-2.39853057861328,-38.96455408427456,-18.56359985612075,462410937
sq,2.8044189453125,-2.677392578125,-28.637410328448446,-9.683683196092586,462427604
sq,2.28237762451172,-2.84229431152344,-18.441159047231263,-1.2763600173315868,462444271
sq,1.9543212890625,-2.87117919921875,-8.6430332299146,6.483663650498887,462460938
sq,1.83756866455078,-2.77861938476562,0.49789016630525296,13.519365482605625,462477605
sq,1.88086547851562,-2.55413970947266,8.796602171373147,19.847356236467075,462494272
sq,2.04939117431641,-2.10987243652344,16.201031846616775,25.555984260820093,462510939
sq,2.31420745849609,-1.74936065673828,22.82479050947564,30.771144645177646,462527606
sq,2.72730865478516,-1.38398132324219,28.941906157217872,35.62236066342392,462544273
sq,3.20719757080078,-0.960763549804687,34.94154544478797,40.22452132710352,462560940
sq,3.7284912109375,-0.119668579101562,41.250562818617006,44.68112043653168,462577607
sq,4.38733520507813,0.650404357910157,48.23942375988663,49.09781908857315,462594274
sq,5.17625274658203,1.42596282958984,56.13083322031416,53.58657852689197,462610941
sq,6.08973541259766,2.30933227539062,64.93059152909856,58.24853020740723,462627608
sq,6.99568786621094,3.20026245117187,74.39837862645047,63.139779023655606,462644275
sq,8.10201873779297,4.27387084960938,84.07079490375585,68.23642705057486,462660942
sq,9.48917236328124,5.21510162353516,93.3363481666257,73.41900211056837,462677609
sq,11.1175712585449,6.22822036743164,101.5448336762823,78.49157163334272,462694276
sq,12.8219284057617,7.54999389648438,108.12324176558901,83.23525508635501,462710943
sq,14.3326057434082,9.09598007202148,112.6746761063318,87.47387124477359,462727610
sq,16.0643333435059,10.6930488586426,115.04728513895097,91.11762213940959,462744277
sq,18.0851921081543,12.0257743835449,115.36183354643515,94.16394789068148,462760944
sq,20.2315849304199,13.1600898742676,113.98109660940189,96.66420725317371,462777611
sq,22.1674369812012,14.8849739074707,111.41268430130113,98.6822651793919,462794278
sq,23.5257820129395,16.7417472839355,108.16945297701191,100.26266203591034,462810945
sq,25.0175422668457,18.2568916320801,104.64481367114233,101.41096724660821,462827612
sq,26.7004417419434,19.5151084899902,101.05819553372856,102.08908518442502,462844279
sq,28.5234550476074,21.1779388427734,97.48436109318307,102.2341141871327,462860946
sq,30.1800369262695,23.0760902404785,93.93406542752867,101.79908869222132,462877613
sq,31.5953353881836,24.7883323669434,90.43714810139076,100.7939568492039,462894280
sq,33.0763648986817,26.3685516357422,87.09290168195496,99.30211242191464,462910947
sq,34.5777076721192,27.7973770141602,84.07445012289001,97.4674446833596,462927614
sq,35.9725975036621,29.3235343933105,81.59062676696773,95.46665036810546,462944281
sq,37.1569694519043,30.9714492797852,79.82238820890647,93.48274480883856,462960948
sq,38.285383605957,32.4975303649902,78.86110535075564,91.68430003891122,462977615
sq,39.5667785644531,33.8992713928223,78.67469904936048,90.20787683345159,462994282
sq,40.9190334320068,35.290007019043,79.1118741758122,89.14350126355555,463010949
sq,42.2434219360351,36.7893890380859,79.93675346299679,88.5265246371862,463027616
sq,43.4322360992432,38.2211936950684,80.87988305447423,88.33791286409546,463044283
sq,44.6031555175781,39.5503067016601,81.69560498864287,88.51224719313969,463060950
sq,46.0045398712158,41.0057052612305,82.21737438954617,88.95191316087988,463077617
sq,47.4431861877441,42.4210037231445,82.396620519268,89.5451695850837,463094284
sq,48.8395446777344,43.8616680145264,82.30750627941015,90.18348087987346,463110951
sq,50.1144870758057,45.356521987915,82.11058330898226,90.77217424711102,463127618
sq,51.352335357666,46.8330139160156,81.9886837435268,91.23100679936866,463144285
sq,52.5393547058106,48.2446807861328,82.08248686863958,91.48735823739126,463160952
sq,53.8941444396973,49.6505187988281,82.45009610085361,91.47069977379184,463177619
sq,55.249365234375,51.0583976745605,83.05852748844347,91.117146866589,463194286
sq,56.623258972168,52.5733264923096,83.79887358398089,90.38502345707492,463210953
sq,57.9721807479858,54.1232990264893,84.51166193231363,89.27182721785455,463227620
sq,59.2948364257812,55.5423387527466,85.01412764481778,87.81926597154018,463244287
sq,60.5771421432495,56.9217609405518,85.12823659343739,86.10006602888407,463260954
sq,61.9681600570679,58.2911485671997,84.70953560073555,84.19194382412846,463277621
sq,63.3709539413452,59.5919822692871,83.6717476866582,82.15112241975083,463294288
sq,64.7995161056519,60.8976367950439,81.99730439640273,79.99637496342365,463310955
sq,66.0813068389893,62.1714247703552,79.72706332285173,77.70756233549206,463327622
sq,67.3196624755859,63.4611763000488,76.93302612964598,75.23485167229022,463344289
sq,68.4937194824219,64.6579851150513,73.68762922442926,72.51031294120769,463360956
sq,69.6339220046997,65.8624886512756,70.04392293374585,69.45432979711066,463377623
sq,70.7926382064819,66.9660979747772,66.03211443235915,65.9743246382523,463394290
sq,71.8683431386948,67.9976679325104,61.666360254055824,61.95973452852407,463410957
sq,72.9786000937223,68.963512802124,56.94990659578106,57.28150792679141,463427624
sq,73.8460047483444,69.8382320046425,51.871095960684706,51.803902943422536,463444291
sq,74.5852222681046,70.6486901283264,46.39404400983259,45.41045853494695,463460958
sq,75.2600809574127,71.4408093929291,40.45601876457524,38.03728259956566,463477625
sq,75.9706927776337,72.1226450443268,33.980654215727185,29.700690513970855,463494292
sq,76.5719791889191,72.5708109378815,26.904959664473814,20.507770084875283,463510959
sq,76.9700936317444,72.8648365974426,19.209502153934174,10.647114289490924,463527626
sq,77.2290429115295,73.0217632293701,10.940957592840421,0.3658592393502459,463544293
sq,77.4745272636414,73.0384992599487,2.220214602100499,-10.058089788931262,463560960
sq,77.596596622467,72.8744648933411,-6.767468735932517,-20.342762103477313,463577627
sq,77.4289149284363,72.5589193344116,-15.799332801598922,-30.225783005923546,463594294
sq,77.0957225799561,72.0741545200348,-24.650799132216267,-39.48466803976278,463610961
sq,76.7119921684265,71.443347120285,-33.1268597374416,-47.953042509737315,463627628
sq,76.1781202793121,70.6584239244461,-41.07933477793045,-55.53122272472867,463644295
sq,75.5452612876892,69.7797310292721,-48.40899557451007,-62.189452537421325,463660962
sq,74.781142616272,68.7715220093727,-55.05836331832866,-67.96300288885244,463677629
sq,73.9010942220688,67.6881747484207,-61.00206549548443,-72.93986309652325,463694296
sq,72.9244993939996,66.5326034069061,-66.23883135555516,-77.2431005116922,463710963
sq,71.856935107708,65.293675327301,-70.78592747150475,-81.01054666961309,463727630
sq,70.7334279060364,63.9849351882935,-74.67501314040098,-84.37426317337902,463744297
sq,69.5018042564392,62.6214050292969,-77.94829472443134,-87.44204481017954,463760964
sq,68.2959312438965,61.2488283157349,-80.65491558620981,-90.2838803334532,463777631
sq,67.0023879051209,59.8287929534912,-82.84871178483657,-92.92714301615005,463794298
sq,65.6854743003845,58.3593191146851,-84.58847542467359,-95.36321826603968,463810965
sq,64.3189653396607,56.8070501327515,-85.94024745361538,-97.56434504137887,463827632
sq,62.9329246520996,55.2344392776489,-86.97925014493504,-99.5047369849512,463844299
sq,61.529599571228,53.6237682342529,-87.7887390900177,-101.1779699501946,463860966
sq,60.1524709701538,52.0029949188232,-88.45465258480158,-102.60458393374212,463877633
sq,58.7207101821899,50.3601650238037,-89.05702603763919,-103.82830770777227,463894300
sq,57.295977973938,48.7013610839844,-89.66025424418741,-104.90370343830718,463910967
sq,55.8427242279053,47.0283740997314,-90.30456727021044,-105.88071407168553,463927634
sq,54.4276145935059,45.3643611907959,-91.00155911853567,-106.79209514086106,463944301
sq,53.0036262512207,43.6528800964355,-91.73697035173257,-107.64803737427643,463960968
sq,51.5199340820312,41.9206832885742,-92.48247640109076,-108.43902252209732,463977635
sq,50.0279449462891,40.1700614929199,-93.21457956418914,-109.14475662223823,463994302
sq,48.5484413146973,38.43737449646,-93.93505202929289,-109.74571500748664,464010969
sq,47.011291885376,36.6887535095215,-94.68615311201165,-110.23447267439263,464027636
sq,45.4949573516846,34.9301704406738,-95.55537419854726,-110.62477476775462,464044303
sq,43.9775337219238,33.1552604675293,-96.66758975507327,-110.95583010648632,464060970
sq,42.4212459564209,31.3362716674805,-98.16579424717334,-111.2884534292619,464077637
sq,40.8583263397217,29.5127510070801,-100.1838978059758,-111.69095356673874,464094304
sq,39.2294067382812,27.7837432861328,-102.81612079428116,-112.21748160527439,464110971
sq,37.6186050415039,26.0281280517578,-106.08818983794171,-112.88743427586243,464127638
sq,35.8726867675781,24.2560905456543,-109.93643636169635,-113.67605108773824,464144305
sq,34.1770309448242,22.4070838928223,-114.20163516580274,-114.52083391993808,464160972
sq,32.4035514831543,20.5420249938965,-118.64341884817568,-115.33955362274077,464177639
sq,30.5273651123047,18.7428268432617,-122.97608010578588,-116.04974249058517,464194306
sq,28.5089477539062,16.7929862976074,-126.91728700246573,-116.5794782786143,464210973
sq,26.3723167419434,14.9288124084473,-130.23270301193796,-116.86360568855251,464227640
sq,24.2603668212891,13.100798034668,-132.75954566556635,-116.82616686945495,464244307
sq,22.1714958190918,11.2157005310059,-134.40326102325741,-116.35628868772991,464260974
sq,20.1075805664062,9.39710845947266,-135.116360683455,-115.2880080312808,464277641
sq,18.0419296264648,7.49529495239258,-134.87518646475962,-113.39346757644195,464294308
sq,15.7710784912109,5.73275985717774,-133.6636506706237,-110.39590912177168,464310975
sq,13.5019973754883,3.98757019042969,-131.46046399109753,-106.00607256103343,464327642
sq,11.4180854797363,2.35937347412109,-128.22222588151257,-99.98178536276144,464344309
sq,9.43759002685546,0.727323913574219,-123.864617701362,-92.20334110390698,464360976
sq,7.54251708984375,-0.788865661621093,-118.25748055524055,-82.74782213789788,464377643
sq,5.75349273681641,-2.10185394287109,-111.25128465637388,-71.93888438053678,464394310
sq,3.94895782470703,-3.35879669189453,-102.73764355160466,-60.349184253291625,464410977
sq,2.09573211669922,-4.37809143066406,-92.72517076713982,-48.74153150851951,464427644
sq,0.618994140625,-5.18403015136719,-81.40031771780068,-37.95057523233837,464444311
sq,-0.571595764160156,-5.74988708496094,-69.14905996290905,-28.726061569455617,464460978
sq,-1.86187896728516,-6.24581298828125,-56.53222335431061,-21.575593151707185,464477645
sq,-2.62079772949219,-6.42575988769531,-44.22182066147282,-16.65291745928404,464494312
sq,-3.36224517822266,-6.43736419677734,-32.912822282461164,-13.731607972424031,464510979
sq,-3.89762268066406,-6.67292175292969,-23.226400564108644,-12.27976182686771,464527646
sq,-4.25743255615234,-7.04525909423828,-15.619321060823623,-11.613592063987044,464544313
sq,-4.50505981445312,-7.35385284423828,-10.311795155178789,-11.075414315709061,464560980
sq,-4.64017639160156,-7.62243041992187,-7.244128843227239,-10.175638546658206,464577647
sq,-4.73340759277344,-7.76193389892578,-6.070008670350273,-8.661593560208363,464594314
sq,-4.84184417724609,-7.85653839111328,-6.1898525539558245,-6.510487412856188,464610981
sq,-4.95069274902344,-7.92513427734375,-6.822106263586346,-3.869092670700875,464627648
