Label,Left_Hip_q,Right_Hip_q,Left_Hip_qd,Right_Hip_qd,SampleTimeFine
sq,62.8372406005859,68.1999483272433,-151.923626661301,-298.56202704832,2101983619
sq,60.4064625740051,63.4229558944702,-111.3307292128822,-188.2333604066108,2102000286
sq,58.6283792495728,60.4151581764221,-128.20421267340186,-184.55844228754236,2102016953
sq,56.6542171478271,58.8361190795898,-144.8018774663258,-180.69949188875253,2102033620
sq,54.3090852737427,55.4493249893189,-160.88759799722698,-176.60595302000493,2102050287
sq,51.8378986358643,52.2743114471436,-176.14364774453742,-172.42376636072737,2102066954
sq,49.0206760406494,49.5854228973389,-190.16026560997312,-168.56615402427045,2102083621
sq,45.8624481201172,46.578861618042,-202.45587819101385,-165.6939326260416,2102100288
sq,42.6875633239746,43.9484085083008,-212.5199587787152,-164.57930593930945,2102116955
sq,39.2825912475586,41.4158996582031,-219.86884639789733,-165.88255090936477,2102133622
sq,35.8019241333008,38.8643001556396,-224.1073749436225,-169.9127693323299,2102150289
sq,32.2213348388672,36.3262981414795,-224.9898065944332,-176.45583421967916,2102166956
sq,28.5531791687012,33.5652145385742,-222.47046230133847,-184.73390388254268,2102183623
sq,25.024683380127,30.8542121887207,-216.73147466280133,-193.51972015550848,2102200290
sq,21.4962181091309,27.7354644775391,-208.1763750601989,-201.37786229662544,2102216957
sq,18.120287322998,24.0324462890625,-197.384492104332,-206.9597728039393,2102233624
sq,14.939379119873,20.6362060546875,-185.03107035736687,-209.26059661199372,2102250291
sq,12.0630020141602,17.4023078918457,-171.78928081472046,-207.76736766939004,2102266958
sq,9.37323226928711,14.1090530395508,-158.2379302376001,-202.4759418251698,2102283625
sq,6.92462005615234,10.7468399047852,-144.79673509982916,-193.79599801725055,2102300292
sq,4.39293518066406,7.59961929321289,-131.69962636172517,-182.38348120068284,2102316959
sq,2.34792938232422,4.83140411376953,-119.00470022322452,-168.94746354285243,2102333626
sq,0.669706726074219,2.19393768310547,-106.63513269341952,-154.0826963141183,2102350293
sq,-1.20838317871094,-0.173295593261718,-94.4447841483105,-138.17464059078034,2102366960
sq,-2.70577392578125,-2.28207550048828,-82.29707419084987,-121.40363930832888,2102383627
sq,-4.06868896484375,-4.1684814453125,-70.13832304755864,-103.84247899250363,2102400294
sq,-5.13009033203125,-5.85251770019531,-58.045780715763804,-85.6067032307847,2102416961
sq,-6.15209350585937,-7.56588134765625,-46.23676710607514,-66.99190952601839,2102433628
sq,-6.93718872070312,-8.89003143310547,-35.03360868383891,-48.53188112290822,2102450295
sq,-7.49656829833984,-9.59235534667969,-24.788290312336102,-30.945052309012677,2102466962
sq,-7.87692413330078,-9.89944610595703,-15.782098702448115,-14.991934841522587,2102483629
sq,-8.11556396484375,-9.95335540771484,-8.125959214696005,-1.3092343640537678,2102500296
sq,-8.10669097900391,-9.84892425537109,-1.6908866364005237,9.710319209650011,2102516963
sq,-8.15563354492187,-9.73593292236328,3.9082734358780318,17.9581760037064,2102533630
sq,-8.072900390625,-9.57683715820312,9.267261964595377,23.582382459020412,2102550297
sq,-7.90239868164062,-9.31399688720703,15.093694741322286,26.934025006913515,2102566964
sq,-7.70214996337891,-8.95371398925781,22.077338744597967,28.529291595469466,2102583631
sq,-7.46594390869141,-8.52127990722656,30.75736170026373,29.044394613099975,2102600298
sq,-6.79828033447266,-7.97230682373047,41.41274327562293,29.32903491258554,2102616965
sq,-6.23414001464844,-7.36102447509766,53.99612943375387,30.402604390403937,2102633632
sq,-5.38733062744141,-6.79829559326172,68.1265183732525,33.39632193161633,2102650299
sq,-4.44002685546875,-6.26010284423828,83.15203481718945,39.42384850309203,2102666966
sq,-3.23956451416016,-5.6269775390625,98.28294036440603,49.39233481245889,2102683633
sq,-1.71460113525391,-4.83497009277344,112.77095772609889,63.79174910254129,2102700300
sq,0.383406066894532,-3.90696868896484,126.08064568133916,82.51444881957904,2102716967
sq,2.81107940673828,-2.69339141845703,137.9832314877943,104.75752576256652,2102733634
sq,5.12760391235351,-1.06172332763672,148.5260334589549,129.0480006210533,2102750301
sq,7.22109451293945,0.922865295410157,157.8911603588163,153.4073927750747,2102766968
sq,9.34989776611328,3.27264251708984,166.21957181557363,175.64202165393064,2102783635
sq,11.9327224731445,6.07282485961914,173.49427705278927,193.71344103458952,2102800302
sq,14.6392539978027,9.09705581665039,179.5355984066051,206.11336945580672,2102816969
sq,17.7934135437012,12.8848365783691,184.0934350160772,212.14729027720094,2102833636
sq,20.8256629943848,16.8850616455078,186.9722154572941,212.0387380761085,2102850303
sq,23.7371047973633,19.9237808227539,188.1173184812314,206.8189333621556,2102866970
sq,27.4634460449219,22.8082374572754,187.6216040277896,198.04868068878721,2102883637
sq,29.8840965270996,25.9962409973144,185.65927398083193,187.47871172906602,2102900304
sq,32.2925628662109,28.6792778015137,182.39790210735316,176.74945518766665,2102916971
sq,35.6242546081543,31.8880905151367,177.94822987185475,167.17593608306248,2102933638
sq,38.4501804351807,34.753874206543,172.37538414951032,159.61015017298038,2102950305
sq,41.4764083862305,37.7260688781738,165.74885399993101,154.36305945294146,2102966972
sq,43.9320892333984,39.2359546661377,158.19463228311332,151.20157571677316,2102983639
sq,46.4929584503174,41.2142204284668,149.93232212262953,149.46730748808676,2103000306
sq,48.8211387634277,43.9338172912598,141.3022617539612,148.33900509145383,2103016973
sq,51.1264881134033,46.6935104370117,132.7931580427642,147.18095609146306,2103033640
sq,53.0541233062744,49.1696018218994,125.07173060052976,145.85181498099342,2103050307
sq,55.0907424926758,51.5352920532226,119.00040364939174,144.8488470296165,2103066974
sq,57.0809549331665,53.9352621078491,115.61186694211274,145.21982930168377,2103083641
sq,59.2309593200684,56.5898746490479,115.99894906578854,148.2444214011453,2103100308
sq,61.2760461807251,59.2870506286621,121.08984784917656,154.95005320282345,2103116975
sq,63.2946862220764,61.3253044128418,131.32103731989974,165.5904634991701,2103133642
sq,65.3061183929443,63.4664410591125,146.2820147867238,179.26682558224817,2103150309
sq,67.4360385477543,65.6812027931213,164.45965930379,193.87003900999898,2103166976
sq,69.4463045835495,68.1254836671054,183.22452226705687,206.43330669593772,2103183643
sq,71.6224164009094,72.2748831748962,199.15313219434583,213.8246318991314,2103200310
sq,74.9388488769531,76.3382162094116,208.66444322229518,213.55696416261094,2103216977
sq,79.0301002502441,79.9000019073486,208.80149589770554,204.4383119296177,2103233644
sq,83.4078468322754,83.3306221008301,197.8938882592392,186.85278955846425,2103250311
sq,86.6369556427002,86.7451366424561,175.86849700498476,162.60311541568092,2103266978
sq,89.3142417907715,89.1928638458252,144.12865335702946,134.38320534037106,2103283645
sq,91.2436660766602,91.0253108978272,105.10150211092692,105.04904358240995,2103300312
sq,92.6395992279053,92.3213371276856,61.65809312662182,76.90229053727204,2103316979
sq,93.4028820037842,93.291263961792,16.607459206052642,51.18211584201783,2103333646
sq,93.4219192504883,94.0464176177979,-27.612776109397466,27.88307874635245,2103350313
sq,93.0161212921143,94.616344833374,-69.03003399199504,5.915768046909909,2103366980
sq,92.1965450286865,94.6865715026856,-106.08400355289419,-16.455962963961653,2103383647
sq,90.8950637817383,94.3029502868652,-137.54243680363973,-41.012688810041496,2103400314
sq,88.9708751678467,93.5690998077393,-162.48557856346906,-68.9415938621277,2103416981
sq,86.311642074585,92.5561241149902,-180.38976309590498,-100.30393050645067,2103433648
sq,82.8781017303467,91.4157070159912,-191.25545636928484,-133.75595457567883,2103450315
sq,79.2359756469727,90.0159572601318,-195.68071053596486,-166.65076536042994,2103466982
sq,76.5569375991821,87.8169540405273,-194.81118568548533,-195.56750069603328,2103483649
sq,73.8730572700501,84.4523719787598,-190.1760071535448,-217.1707125549923,2103500316
sq,70.7200471401215,80.4027523040772,-183.4752620574075,-229.14772993793616,2103516983
sq,67.6419498711824,75.48402967453,-176.3792216680476,-230.89320449460104,2103533650
sq,64.722404384613,70.6034220695496,-170.3595241046463,-223.67839407452914,2103550317
sq,62.0481561660767,68.3873756468296,-166.54966930023903,-210.25176141281304,2103566984
sq,59.4706834793091,65.5641278266907,-165.6391894748413,-194.05959740497622,2103583651
sq,56.9025539398193,62.5828541755676,-167.81905961250573,-178.4045682884071,2103600318
sq,54.2542175292969,60.1766728401184,-172.79406474091624,-165.81621062972457,2103616985
sq,51.410913848877,57.5476831436157,-179.8612485242912,-157.7584688249719,2103633652
sq,48.5086368560791,54.6683162689209,-188.03561806975156,-154.65118446405265,2103650319
sq,45.4893592834473,52.1293567657471,-196.1964043964742,-156.09307844906684,2103666986
sq,42.3346446990967,49.3949569702148,-203.23076046974728,-161.15328001831216,2103683653
sq,39.1160816192627,46.8065437316895,-208.16026894329843,-168.63135958281845,2103700320
sq,35.7864803314209,44.0596031188965,-210.2420847177505,-177.24187445858283,2103716987
sq,32.4195999145508,41.4356845855713,-209.0384025192627,-185.72870674868688,2103733654
sq,29.0614074707031,38.5296043395996,-204.4469216403071,-192.9392452078954,2103750321
sq,25.6695617675781,35.390779876709,-196.68511933965294,-197.88551907578653,2103766988
sq,22.5763648986816,32.1876815795898,-186.2263896924307,-199.8000158868096,2103783655
sq,19.5122627258301,28.8684257507324,-173.6972322667688,-198.177398340764,2103800322
sq,16.8044647216797,25.7817138671875,-159.75791451253207,-192.79205150954505,2103816989
sq,14.3123611450195,22.7132629394531,-144.998032887127,-183.6918326917671,2103833656
sq,12.1917289733887,19.862100982666,-129.8768329513725,-171.17762212022052,2103850323
sq,10.0664047241211,17.053076171875,-114.7224039850352,-155.77753948347552,2103866990
sq,8.13261642456055,14.5452751159668,-99.77841919500146,-138.21649476065636,2103883657
sq,6.38302841186523,12.3638290405273,-85.26660927532156,-119.37459193159546,2103900324
sq,5.06190719604492,10.4784072875977,-71.43195482056919,-100.22632126952469,2103916991
sq,3.95515670776367,8.63622131347656,-58.554850357118596,-81.75558185767105,2103933658
sq,3.05867614746094,7.32758560180664,-46.9345865037238,-64.84985474851969,2103950325
sq,2.34236755371094,6.61771621704102,-36.85698153197999,-50.1907912192207,2103966992
sq,1.69513549804687,5.67407836914062,-28.55480739656543,-38.16953071839996,2103983659
sq,1.16034545898437,5.06456604003906,-22.16223255325564,-28.851685345874788,2104000326
sq,0.831533813476563,4.69592132568359,-17.663410869005514,-22.00137358194749,2104016993
sq,0.511610412597657,4.34787216186523,-14.842773621763813,-17.1580471479368,2104033660
sq,0.364004516601563,4.17510452270508,-13.254639069432665,-13.747970820812338,2104050327
sq,0.323255920410157,3.83402099609375,-12.233163649956872,-11.200398743940903,2104066994
sq,0.127821350097657,3.40619506835937,-10.953830242881713,-9.030178889261554,2104083661
sq,-0.187074279785156,3.22649230957031,-8.536686160315133,-6.855437773837889,2104100328
sq,-0.417794799804687,3.15702667236328,-4.162552902717157,-4.346256578359613,2104116995
sq,-0.512750244140625,3.18389739990234,2.8286254409082057,-1.1354279568330405,2104133662
sq,-0.4067626953125,3.27004089355469,12.871914772970234,3.25597290987473,2104150329
sq,-0.105111694335937,3.46406402587891,26.138603088462908,9.429644685996628,2104166996
sq,0.319456481933594,3.65923919677734,42.511026927706276,18.035731422465854,2104183663
sq,1.00521697998047,3.85768737792969,61.56484611463792,29.627161292342418,2104200330
sq,1.89296569824219,4.28368225097656,82.56609147379451,44.48693525525221,2104216997
sq,3.19048156738281,4.86327972412109,104.49824714401342,62.48470370629445,2104233664
sq,5.05812301635742,5.79044952392578,126.13319588775548,83.00939126706695,2104250331
sq,6.87162628173828,7.24658432006836,146.15429508075934,105.00054757567598,2104266998
sq,8.83171310424805,8.76647415161133,163.3323136791704,127.07489455466163,2104283665
sq,11.4988082885742,10.7521194458008,176.7357288059184,147.72434976720783,2104300332
sq,14.6645111083984,13.1601356506348,185.92212326519746,165.5467118554229,2104316999
sq,18.4888442993164,15.9448112487793,191.0333220359108,179.4584920016898,2104333666
sq,20.5142311096191,19.2805961608887,192.7393843953656,188.83946393434542,2104350333
sq,24.2829040527344,21.7705749511719,192.04061783539782,193.58040602151118,2104367000
sq,27.1087898254395,24.7756446838379,189.99589659156388,194.03973750192944,2104383667
sq,29.6193794250488,28.5816177368164,187.46628858377866,190.93678533394478,2104400334
sq,32.9787010192871,30.8104118347168,184.94761170512913,185.211155411129,2104417001
sq,35.6964744567871,34.0348152160644,182.52853713812468,177.87238284412038,2104433668
sq,38.493770980835,37.540438079834,179.96710765328635,169.86114191086992,2104450335
sq,41.7184661865234,39.2961124420166,176.84370109728653,161.94417982414794,2104467002
sq,44.6899188995361,41.9560340881348,172.73357501439978,154.66732796148912,2104483669
sq,47.4361919403076,44.8231605529785,167.35259717155225,148.38117457394955,2104500336
sq,49.7945541381836,46.9469856262207,160.65939399245732,143.32730135210073,2104517003
sq,52.4395927429199,49.3395885467529,152.92186162833144,139.75001147120645,2104533670
sq,54.8394483566284,51.3052238464356,144.7546128132118,137.99337963786576,2104550337
sq,57.3323215484619,53.9154209136963,137.113337027884,138.54428027966435,2104567004
sq,59.5661386489868,56.0689195632935,131.2171624447063,141.98160042122035,2104583671
sq,61.7295311927795,58.9342397689819,128.37618919252117,148.80557810362325,2104600338
sq,63.9618441104889,61.237450504303,129.7258109908629,159.1644127547665,2104617005
sq,66.0382604837418,63.1467279434204,135.90305533520623,172.55751261886596,2104633672
sq,68.2099789619446,66.3249541759491,146.73532127400375,187.64085477244984,2104650339
sq,70.3731273651123,68.7355551362038,161.03954848747927,202.25861901784987,2104667006
sq,72.5626663208008,70.9376584529877,176.6352855295042,213.7691229397779,2104683673
sq,74.7526673316956,74.4735101699829,190.63981490438567,219.62710580014877,2104700340
sq,77.4101203918457,79.3033584594727,200.025636317173,218.05243029773035,2104717007
sq,81.9037822723389,83.386439704895,202.29915296038132,208.5307220756319,2104733674
sq,85.6102127075195,86.751770401001,196.0709207801959,191.93609916728377,2104750341
sq,88.8933986663818,89.8256229400635,181.30672730096376,170.23061111843572,2104767008
sq,91.8766159057617,92.1656917572022,159.178870543921,145.87409690727205,2104783675
sq,94.2790512084961,94.0568183898926,131.59930339471083,121.17356735745888,2104800342
sq,95.9585460662842,95.5318778991699,100.62537555648439,97.78703378277062,2104817009
sq,97.1295589447022,97.0511631011963,67.95101342505116,76.50106797970032,2104833676
sq,98.0157608032227,98.6500324249268,34.63962227589766,57.27596325144017,2104850343
sq,98.6370452880859,99.8637126922607,1.149550529723876,39.45691052870138,2104867010
sq,98.8099521636963,100.630102539063,-32.40641517768823,22.025973904739754,2104883677
sq,98.4078105926514,100.964071655273,-65.89671878450146,3.8144680521786136,2104900344
sq,97.4501708984375,100.93874206543,-98.84675760629246,-16.33399796417018,2104917011
sq,96.1413692474365,100.490015411377,-130.27168646044714,-39.40883666764104,2104933678
sq,94.4240859985352,99.5718788146973,-158.7291119524116,-66.03702687160332,2104950345
sq,91.9143260955811,98.2607158660889,-182.58256994125895,-96.23297114121365,2104967012
sq,88.5583023071289,96.6421684265137,-200.38981537306555,-129.14653801252794,2104983679
sq,84.6506828308106,95.3153308868408,-211.28116761913407,-162.93271931727614,2105000346
sq,81.9929317474365,93.8246673583984,-215.20546910327084,-194.89011577069033,2105017013
sq,78.1586240768433,91.0447048187256,-212.98507411410256,-221.94048419687107,2105033680
sq,74.6651195526123,86.6798042297363,-206.18818464568838,-241.3521349292792,2105050347
sq,71.636850976944,81.64134349823,-196.8644144625527,-251.44327732044675,2105067014
sq,68.2503224551678,76.2293704986572,-187.20430063772613,-251.97211528738845,2105083681
sq,65.4188024044037,73.4650005340576,-179.18967592343571,-244.0775762584251,2105100348
sq,62.6859907150268,70.5611273288727,-174.30040010554083,-229.87238519295389,2105117015
sq,60.0633019447327,66.773712182045,-173.3297178059871,-211.92970760236898,2105133682
sq,57.2131923675537,63.3407353401184,-176.3337056088337,-192.86425438952978,2105150349
sq,54.26780834198,60.0631698608398,-182.70651592213113,-175.07078180235612,2105167016
sq,51.493074798584,57.2349313735962,-191.3474616540402,-160.57718775914424,2105183683
sq,48.3650802612305,54.6668914794922,-200.87703077555614,-150.9428510686682,2105200350
sq,45.1055168151856,52.0180839538574,-209.86068960201837,-147.15472744684013,2105217017
sq,41.6835807800293,49.4165157318115,-217.00408580624529,-149.50987256049157,2105233684
sq,38.0933193206787,47.3949131011963,-221.29233643735793,-157.51275039033462,2105250351
sq,34.6328605651856,45.2685512542725,-222.0626968790762,-169.84729350504895,2105267018
sq,31.1555770874023,42.4577201843262,-219.01906330560408,-184.4833484017371,2105283685
sq,27.7202743530273,39.434309387207,-212.20745478073138,-198.9362026410651,2105300352
sq,24.2462066650391,36.4909633636475,-201.96795395568407,-210.64150418226532,2105317019
sq,20.9114974975586,32.8537696838379,-188.86736625368238,-217.3678593502624,2105333686
sq,17.8874382019043,29.2246688842773,-173.61197000409103,-217.57599531300338,2105350353
sq,15.0633071899414,25.5726455688477,-156.9480419170005,-210.64480317411494,2105367020
sq,12.7639411926269,22.1982139587402,-139.57223713338328,-196.9194008285347,2105383687
sq,10.6056655883789,18.9875129699707,-122.07968511769614,-177.58525220152015,2105400354
sq,8.74661483764648,16.353254699707,-104.9648853777936,-154.4159902373344,2105417021
sq,6.8666748046875,13.929167175293,-88.6632648297809,-129.464291355411,2105433688
sq,5.34660186767578,11.9620384216309,-73.59724166825339,-104.7604242478963,2105450355
sq,4.09551086425781,10.0836967468262,-60.18784453970084,-82.06071174996865,2105467022
sq,3.12686004638672,8.83333435058594,-48.814118818605955,-62.665294207750335,2105483689
sq,2.39040985107422,7.93485107421875,-39.733579118879355,-47.313744981207606,2105500356
sq,1.872412109375,7.21544876098633,-32.9996190521268,-36.16477123587155,2105517023
sq,1.44546356201172,6.71938552856445,-28.41547552068564,-28.859603881354786,2105533690
sq,1.0336669921875,6.14161911010742,-25.548748014575875,-24.65301568541315,2105550357
sq,0.517935180664063,5.67164840698242,-23.804034013539145,-22.58013705540894,2105567024
sq,0.164427185058594,5.32811584472656,-22.527451348641247,-21.62279804034231,2105583691
sq,-0.290727233886718,5.02366104125977,-21.1063984150628,-20.847444364483387,2105600358
sq,-0.678849792480468,4.6285041809082,-19.032620036588945,-19.49907322790147,2105617025
sq,-1.02900085449219,4.25384368896484,-15.911727884577981,-17.0447516735978,2105633692
sq,-1.33532104492188,3.92986145019531,-11.422479096002373,-13.167897547544346,2105650359
sq,-1.49023590087891,3.80750122070312,-5.249953668183661,-7.725098017040398,2105667026
sq,-1.45984039306641,3.75337066650391,2.9673400163185115,-0.6879776558053111,2105683693
sq,-1.21978912353516,3.72711791992187,13.633241274696335,7.904634449511356,2105700360
sq,-0.889291381835937,3.90912475585937,27.10598107029351,17.96740265143291,2105717027
sq,-0.447671508789062,4.24924697875977,43.53568194188782,29.359980518683127,2105733694
sq,0.110029602050782,4.67876281738281,62.67869507161652,41.86212615857279,2105750361
sq,0.909323120117188,5.22839965820313,83.76791406123353,55.15594652593797,2105767028
sq,2.01347198486328,6.05238189697266,105.51453295650545,68.84011055762099,2105783695
sq,3.67400970458984,7.02894821166992,126.27898598455732,82.4881685084911,2105800362
sq,5.68452682495117,8.43280639648438,144.3909156403403,95.73860154346494,2105817029
sq,7.92783203125,10.0665458679199,158.54155645756583,108.37910010241323,2105833696
sq,10.4747909545898,11.9705909729004,168.13293197194847,120.377029137536,2105850363
sq,14.0018943786621,14.2811798095703,173.45650693638595,131.8237820371837,2105867030
sq,17.0902770996094,16.0764068603516,175.60493194075553,142.8022201952118,2105883697
sq,20.1586250305176,17.8160766601562,176.10873417606646,153.23239738518902,2105900364
sq,22.1540054321289,20.6826080322266,176.4137226497679,162.76806429293237,2105917031
sq,24.2118095397949,23.3901123046875,177.4046915529522,170.7938641172548,2105933698
sq,27.2623275756836,25.3952583312988,179.16873356155583,176.53504936362867,2105950365
sq,29.4201988220215,28.5042518615723,181.07647715455857,179.2597281548713,2105967032
sq,33.2427200317383,31.5637840270996,182.11186088813545,178.52329927721937,2105983699
sq,36.7944301605225,34.3307365417481,181.28489631055163,174.37618251921424,2106000366
sq,39.1050552368164,37.5658954620361,177.96185646083907,167.45083297938453,2106017033
sq,42.4632266998291,40.5584377288818,172.02549097006914,158.8772344713676,2106033700
sq,44.9172462463379,42.9389614105225,163.8713192314666,150.0406620045973,2106050367
sq,47.3758739471436,45.121508026123,154.3018960162156,142.26783063441587,2106067034
sq,49.6498207092285,46.6112884521484,144.38862419246408,136.56912478085806,2106083701
sq,52.152480506897,49.1027015686035,135.34448991197942,133.54126645399805,2106100368
sq,54.3778757095337,50.7929252624512,128.41293503562673,133.45050705740627,2106117035
sq,56.4216932296753,53.2894004821777,124.75268416157968,136.41619246779425,2106133702
sq,58.4036325454712,56.4127897262573,125.29714556115941,142.55342536249927,2106150369
sq,60.6401013374329,58.9347356796265,130.5817188896125,151.95037060316642,2106167036
sq,62.8275455474854,61.0208190917969,140.55332521164863,164.4532034629309,2106183703
sq,64.963497543335,63.3082317352295,154.40322487077967,179.35822992143704,2106200370
sq,67.2907442688942,66.0341421604157,170.4920268565023,195.1869284382914,2106217037
sq,69.7927803039551,68.7500098586083,186.44679762689842,209.7040739101797,2106233704
sq,72.1167539596558,71.1308993339539,199.48342924495282,220.2477579025438,2106250371
sq,74.8616165161133,75.6573952674866,206.93238549660506,224.3108596630191,2106267038
sq,79.4250205993652,79.5910696029663,206.83834040132487,220.1935558980267,2106283705
sq,83.3199657440186,83.3135684967041,198.42331401883777,207.49609788202525,2106300372
sq,86.6504596710205,87.0492977142334,182.22269420424487,187.27297446663562,2106317039
sq,89.4756492614746,90.3597644805908,159.83388030811778,161.79322747330232,2106333706
sq,91.8515247344971,92.493339920044,133.37909169517133,133.98650994265785,2106350373
sq,93.5636829376221,94.2522663116455,104.88469728394463,106.75139930574956,2106367040
sq,94.9375289916992,95.5841831207275,75.78570441130407,82.32809777636456,2106383707
sq,95.9807094573975,96.985205078125,46.69603042890351,61.88452154819309,2106400374
sq,96.7423271179199,98.0823253631592,17.482310180521477,45.36872236196534,2106417041
sq,97.1425365447998,98.9340461730957,-12.418311098464422,31.5992525487307,2106433708
sq,97.0463088989258,99.4669498443604,-43.557703880847164,18.532533476815207,2106450375
sq,96.4143260955811,99.7319416046143,-76.0519542290144,3.655317065500429,2106467042
sq,95.3441738128662,99.5549549102783,-109.29296662205013,-15.529316202369047,2106483709
sq,93.8327278137207,99.0496734619141,-141.87948921918695,-40.95114716756959,2106500376
sq,91.9615119934082,98.2658885955811,-171.79815761413326,-73.41506881250142,2106517043
sq,89.1274284362793,97.1600994110107,-196.8172669382316,-112.14932545791194,2106533710
sq,85.3329872131348,96.0158237457275,-214.98632445495426,-154.62349183671222,2106550377
sq,81.4734558105469,94.7111591339111,-225.10004470427893,-196.79709662156893,2106567044
sq,78.8509449005127,92.0625595092773,-227.01185300933855,-233.8585090405331,2106583711
sq,75.1354607582092,87.6473812103272,-221.7399297350095,-261.32010505109196,2106600378
sq,70.1817461490631,82.4706157684326,-211.34656564039602,-276.13901234147465,2106617045
sq,67.3103697538376,76.4167293548584,-198.59317684631097,-277.4654335740671,2106633712
sq,64.4109632015228,72.0599364280701,-186.42332318789673,-266.7550882507655,2106650379
sq,61.5463193893433,68.794036591053,-177.3960746355976,-247.25521177995216,2106667046
sq,58.9211582183838,65.1781693935394,-173.2204278109528,-223.11981331539593,2106683713
sq,56.4251903533936,61.8492754936218,-174.50220662835477,-198.4939288025688,2106700380
sq,53.5059408187866,59.0725883483887,-180.7396993231257,-176.8245802418777,2106717047
sq,50.4523662567139,56.2958330154419,-190.5333785791229,-160.50195342949408,2106733714
sq,47.5243934631348,53.3121427536011,-201.93127108198038,-150.79599553189297,2106750381
sq,44.0743488311768,50.6730388641357,-212.82111269161823,-147.97328125465566,2106767048
sq,40.6661418914795,48.1336158752441,-221.29415478977825,-151.47013396627628,2106783715
sq,37.1741088867187,45.5372509002686,-225.9283209658145,-160.04954042019506,2106800382
sq,33.5412315368652,43.5188869476318,-225.96001957994395,-171.94286746710748,2106817049
sq,29.7284568786621,40.8718799591064,-221.33051231486346,-185.0253557851897,2106833716
sq,26.0854591369629,38.2130893707275,-212.60808359397984,-197.06750982784308,2106850383
sq,22.8926223754883,34.818830871582,-200.8079167140188,-206.0496134979417,2106867050
sq,19.7252563476562,30.9769271850586,-187.1536631265288,-210.46518922081364,2106883717
sq,16.6265625,27.5909217834473,-172.8347913473285,-209.5196508789887,2106900384
sq,13.9329551696777,24.3635620117187,-158.8075464298693,-203.16862906563458,2106917051
sq,11.6483444213867,21.051611328125,-145.67310966738825,-192.00645204618428,2106933718
sq,9.22855987548828,18.1092132568359,-133.64904982396556,-177.06421795054078,2106950385
sq,7.0513557434082,15.5414375305176,-122.62755757631032,-159.5885555964869,2106967052
sq,5.11673965454101,12.8258346557617,-112.29137917659413,-140.85392718211918,2106983719
sq,3.15180053710937,10.5767616271973,-102.24743153948961,-122.02999386908576,2107000386
sq,1.50878753662109,8.68684234619141,-92.14337069793544,-104.09821250734605,2107017053
sq,0.137449645996094,6.84787979125977,-81.74809962394505,-87.79958757463929,2107033720
sq,-1.21093139648438,5.4264892578125,-70.99313445255773,-73.5985654886144,2107050387
sq,-2.31890258789062,4.24651947021484,-59.97963041478895,-61.66066436271023,2107067054
sq,-3.33323059082031,3.51635589599609,-48.95525835857304,-51.85562310324592,2107083721
sq,-4.11112365722656,2.62463226318359,-38.2626392846915,-43.80228139164996,2107100388
sq,-4.72464141845703,1.95405426025391,-28.26218253215915,-36.9591425810402,2107117055
sq,-5.29135284423828,1.32758941650391,-19.237387968621103,-30.742963886232367,2107133722
sq,-5.51085815429687,0.729002380371094,-11.29834438577937,-24.64214758179747,2107150389
sq,-5.61554870605469,0.209677124023438,-4.306505072943594,-18.292078434662688,2107167056
sq,-5.63985595703125,-0.139932250976562,2.154685217874533,-11.496141558931619,2107183723
sq,-5.58783874511719,0.0711807250976566,8.747648021831052,-4.200073600183551,2107200390
sq,-5.45149383544922,-0.133645629882812,16.28788206995181,3.558070739309601,2107217057
sq,-5.25431976318359,-0.125527954101562,25.606796201173488,11.70589737818475,2107233724
sq,-4.88215026855469,-0.0723892211914059,37.39371937292665,20.202488964296577,2107250391
sq,-4.06501922607422,0.156828308105469,52.040267482740035,29.116205818415583,2107267058
sq,-3.28058013916016,0.639105224609375,69.50994525086371,38.70121371888356,2107283725
sq,-2.27060852050781,1.43468322753906,89.26213014076298,49.43312818978215,2107300392
sq,-1.05876312255859,2.62676086425781,110.26631812775697,61.952524770909285,2107317059
sq,0.622648620605469,3.70927276611328,131.13384464371214,76.88723439005891,2107333726
sq,2.62734832763672,4.85088958740235,150.36213644926443,94.58008082261499,2107350393
sq,4.94157257080078,6.10534896850586,166.6403454951564,114.81125742786712,2107367060
sq,8.27797546386719,7.51034774780274,179.12683255256553,136.6343837388334,2107383727
sq,11.4102233886719,9.50116958618164,187.6042512374975,158.41807712557483,2107400394
sq,13.9092048645019,12.2363494873047,192.4599378777869,178.10996647636674,2107417061
sq,17.0853637695312,15.1735748291016,194.50624167916268,193.6560288774741,2107433728
sq,20.6033615112305,18.3708290100098,194.70600230712637,203.45604250037323,2107450395
sq,23.593775177002,21.5235122680664,193.88872749008843,206.72977237076344,2107467062
sq,25.5014442443848,25.4282974243164,192.54552511285073,203.6954390280005,2107483729
sq,29.0621284484863,29.3048194885254,190.7685230091197,195.51159015624356,2107500396
sq,32.7166656494141,30.9392112731934,188.34039172044834,184.00310691235194,2107517063
sq,35.2249588012695,34.8195556640625,184.9148591643197,171.25881183629565,2107533730
sq,38.4850849151611,37.7889179229736,180.21006785354854,159.2174431345084,2107550397
sq,41.3621906280518,38.9202808380127,174.1616372146949,149.3489095713036,2107567064
sq,44.112682723999,41.8511795043945,167.0130300546395,142.50709665640707,2107583731
sq,46.751001739502,44.3142971038818,159.3386787158314,138.97864633721835,2107600398
sq,49.3612007141113,45.8112892150879,152.0037435905352,138.68394098726813,2107617065
sq,51.7464508056641,48.7531379699707,146.06710499317163,141.43168780580967,2107633732
sq,54.171014213562,51.3084739685059,142.63444176581487,147.10906017282173,2107650399
sq,56.4741310119629,53.8265174865723,142.67080869507873,155.71172082189977,2107667066
sq,58.7038740158081,56.3630002975464,146.78889458574196,167.18337883905988,2107683733
sq,61.1832384109497,59.0885213851929,155.03873196477258,181.12292745609466,2107700400
sq,63.8040296077728,61.7334574699402,166.7366862532799,196.49034177960036,2107717067
sq,66.4083682537079,64.507919216156,180.3879259280587,211.47170800722185,2107733734
sq,68.8143197536469,67.0745790243149,193.7715951670334,223.63378507500147,2107750401
sq,71.3031865596771,69.9245400667191,204.2471102633166,230.39888863398482,2107767068
sq,74.0548862457275,75.0242980957031,209.27330867735736,229.7178949079831,2107783735
sq,78.7245115280151,79.4891675949097,207.01637163883103,220.68773399654552,2107800402
sq,82.6848405838013,83.2727464675903,196.82808852663396,203.85018898191427,2107817069
sq,85.9730609893799,86.5442394256592,179.39097857714154,181.04681339840977,2107833736
sq,88.7911361694336,89.1005882263184,156.46308914872384,154.90152250765328,2107850403
sq,91.0529445648193,91.2362789154053,130.32705258812643,128.139778341159,2107867070
sq,92.6479839324951,92.9010585784912,103.1548250887363,102.97909457044143,2107883737
sq,93.9675373077393,94.3122619628906,76.50341263519624,80.75859823709452,2107900404
sq,95.1020168304443,95.6185649871826,51.07928439430812,61.862737419364514,2107917071
sq,96.0605644226074,96.8381408691406,26.79728070101196,45.884504404010656,2107933738
sq,96.5675186157227,97.8869918823242,3.063517744447693,31.90622182404825,2107950405
sq,96.7206443786621,98.5631965637207,-20.83720045572056,18.77084325405507,2107967072
sq,96.4656604766846,98.9159320831299,-45.369950283964016,5.265683859837055,2107983739
sq,95.7730068206787,98.9715408325195,-70.48793462721318,-9.78748250840975,2108000406
sq,94.7449954986572,98.6485809326172,-95.53932582875994,-27.482128417625873,2108017073
sq,93.4622711181641,97.9396347045898,-119.3659670113172,-48.73794295261833,2108033740
sq,91.8498500823975,96.8406604766846,-140.5754205113893,-74.11342679950859,2108050407
sq,89.4989532470703,95.367363357544,-157.91386402221602,-103.52081212548576,2108067074
sq,86.2404998779297,93.83288230896,-170.61480980758046,-135.93084217256038,2108083741
sq,82.7193359375,92.698282623291,-178.5887795245773,-169.23079853344592,2108100408
sq,80.5753635406494,90.9344562530518,-182.38545364868645,-200.40468316475574,2108117075
sq,77.8601411819458,87.7969745635986,-182.97435061754624,-226.09538428467113,2108133742
sq,75.2071737289429,83.4496683120728,-181.4709671511098,-243.41500660649572,2108150409
sq,72.3693059921265,78.4371389389038,-178.92832459084988,-250.70619737619285,2108167076
sq,69.5140398979187,73.1788558006287,-176.24232983339726,-247.946600069162,2108183743
sq,66.4453252792358,70.2972699642181,-174.14451508895837,-236.65567381670922,2108200410
sq,63.3243888854981,67.0701707839966,-173.21981292176253,-219.40126967510162,2108217077
sq,60.8197859764099,63.7145203590393,-173.8984907665261,-199.15446763392242,2108233744
sq,58.0663179397583,60.6726302146912,-176.4109788507499,-178.73127916058095,2108250411
sq,55.182190322876,57.8695425033569,-180.7293370723409,-160.44590236788707,2108267078
sq,52.2904705047607,55.3686670303345,-186.5302359806737,-145.98158180568421,2108283745
sq,49.6054328918457,52.7948488235474,-193.20680379634027,-136.41080233786278,2108300412
sq,46.478784942627,50.3562187194824,-199.94054513763427,-132.268796816378,2108317079
sq,43.0451930999756,48.0006832122803,-205.82277686142712,-133.59884921694947,2108333746
sq,39.7920249938965,45.8943714141846,-209.9959632079497,-139.9386641906397,2108350413
sq,36.4039882659912,43.9213317871094,-211.7825515355276,-150.28171839518743,2108367080
sq,33.0989707946777,41.7909378051758,-210.7820422862521,-163.09002543326045,2108383747
sq,29.7723754882812,39.3551525115967,-206.93002849246557,-176.4286483009619,2108400414
sq,26.4295066833496,36.4613880157471,-200.5141487797258,-188.24070725843353,2108417081
sq,23.0653060913086,33.481787109375,-192.13570580470807,-196.71421398061125,2108433748
sq,19.8119415283203,30.1434272766113,-182.60615082489062,-200.6421809477911,2108450415
sq,17.0232032775879,26.5998786926269,-172.78452278228505,-199.66397174356143,2108467082
sq,14.2926506042481,23.1348747253418,-163.38956890029743,-194.30336425153328,2108483749
sq,11.8598617553711,20.0421585083008,-154.83995061504973,-185.78161173162613,2108500416
sq,9.40774383544922,17.2333282470703,-147.17266524055404,-175.6610468760555,2108517083
sq,7.14193954467773,14.7930358886719,-140.06470615891143,-165.431762799003,2108533750
sq,4.90920486450195,12.1307014465332,-132.94890532635333,-156.16287399924022,2108550417
sq,2.58881225585937,9.65957489013672,-125.18597784164743,-148.30232845900997,2108567084
sq,0.564024353027344,7.4292854309082,-116.24149800113855,-141.65287637298798,2108583751
sq,-1.30407867431641,5.01587905883789,-105.82274884459876,-135.504500773944,2108600418
sq,-2.99894866943359,2.87712707519531,-93.94982771336196,-128.87540950570255,2108617085
sq,-4.55728302001953,0.943540954589844,-80.9558143870065,-120.8009575982918,2108633752
sq,-5.82332000732422,-1.15349731445313,-67.42488474975511,-110.60583021884906,2108650419
sq,-6.92006072998047,-3.12686309814453,-54.08578590249755,-98.09676246987392,2108667086
sq,-7.78252563476562,-4.85053405761719,-41.68362189984506,-83.62705383378255,2108683753
sq,-8.38695678710937,-6.15948638916016,-30.855515245391338,-68.01727855320212,2108700420
sq,-8.85726318359375,-7.20022735595703,-22.034129312583534,-52.361460409494526,2108717087
sq,-9.17514953613281,-7.84798583984375,-15.39632132190671,-37.78314556077264,2108733754
sq,-9.38524017333984,-8.37091979980469,-10.863022527175362,-25.21384992433932,2108750421
sq,-9.6159912109375,-8.76930389404297,-8.143846174486393,-15.24674959474257,2108767088
sq,-9.76629028320312,-9.01976165771484,-6.810350644399943,-8.085279007260628,2108783755
sq,-9.87756500244141,-9.15536651611328,-6.3787795264692875,-3.576743537224395,2108800422
sq,-9.97850952148437,-9.22696838378906,-6.386291969069262,-1.304477552250385,2108817089
sq,-10.0909744262695,-9.26471099853516,-6.450458222885703,-0.7075032290582852,2108833756
sq,-10.2101989746094,-9.31274566650391,-6.30663755370711,-1.1989972325055034,2108850423
sq,-10.3220077514648,-9.35946807861328,-5.821406288785164,-2.2608971800003497,2108867090
sq,-10.4110809326172,-9.41434631347656,-4.983681439984084,-3.5006385309465027,2108883757
sq,-10.476220703125,-9.49974212646484,-3.8786466851114767,-4.6664006401001865,2108900424
sq,-10.538346862793,-9.55488739013672,-2.6517635664191457,-5.627636271232156,2108917091
sq,-10.5857177734375,-9.61314544677734,-1.4702576180090208,-6.3356760996837815,2108933758
sq,-10.5943618774414,-9.66842803955078,-0.4881616295846634,-6.78221899551556,2108950425
sq,-10.5978408813477,-9.7605224609375,0.1806637996390521,-6.9700003349923465,2108967092
sq,-10.5921646118164,-9.89499816894531,0.47886907926386985,-6.901363831045134,2108983759
sq,-10.5841384887695,-10.0219665527344,0.4106427853200493,-6.581435602119985,2109000426
sq,-10.5851684570312,-10.1350799560547,0.03661229875280115,-6.027725974221878,2109017093
sq,-10.5844436645508,-10.2329574584961,-0.5391363550520445,-5.278452149588442,2109033760
sq,-10.5777450561523,-10.3191696166992,-1.1874827144841196,-4.395319270016561,2109050427
sq,-10.5994659423828,-10.3884292602539,-1.775674720466099,-3.4599154795596334,2109067094
sq,-10.641633605957,-10.4423538208008,-2.1887688894177053,-2.5649142706150543,2109083761
sq,-10.6829772949219,-10.4850021362305,-2.3476791538341484,-1.8020975278760794,2109100428
sq,-10.7123199462891,-10.5173126220703,-2.220844703844162,-1.2494335180761031,2109117095
sq,-10.7416778564453,-10.5347152709961,-1.827817415770441,-0.9595594375788647,2109133762
sq,-10.7805419921875,-10.5443206787109,-1.234117173095723,-0.9521504185836335,2109150429
sq,-10.8209854125977,-10.5449310302734,-0.5371681102765069,-1.2124239024300427,2109167096
sq,-10.85,-10.5602966308594,0.15577889334455214,-1.6968382353407803,2109183763
sq,-10.8264633178711,-10.5884033203125,0.7540132194549771,-2.3447948770681784,2109200430
sq,-10.7876525878906,-10.6341110229492,1.2068514741989809,-3.092666568012343,2109217097
sq,-10.7474609375,-10.708154296875,1.515916269270517,-3.8851564340594726,2109233764
sq,-10.715119934082,-10.7770629882812,1.730909442662093,-4.6799587714650865,2109250431
