Label,Left_Hip_q,Right_Hip_q,Left_Hip_qd,Right_Hip_qd,SampleTimeFine
sq,-6.73515472412109,-6.00850067138672,88.2000923156738,-54.2688369750977,2127158207
sq,-5.32395324707031,-6.87680206298828,23.97745684893418,-6.104546579561007,2127174874
sq,-4.94161376953125,-6.97496948242187,-6.222177001726957,-16.161611833464782,2127191541
sq,-5.12011108398437,-7.03585205078125,-32.5298923247054,-25.227593374392793,2127208208
sq,-5.67148742675781,-7.19492492675781,-51.79857516460718,-32.38774151602647,2127224875
sq,-6.94309387207031,-7.63990936279297,-62.19314485769989,-36.87937047654123,2127241542
sq,-8.31708679199219,-8.38428649902344,-63.45776041466146,-38.20968673957301,2127258209
sq,-9.50458679199219,-9.214990234375,-56.820077488889694,-36.262304295421494,2127274876
sq,-10.3439804077148,-9.93096313476562,-44.57056659951072,-31.33745050570522,2127291543
sq,-10.7510620117187,-10.4459396362305,-29.450705738669825,-24.09470119497314,2127308210
sq,-10.8484512329102,-10.717431640625,-14.034194879632684,-15.411484821367745,2127324877
sq,-10.85,-10.8373046875,-0.2679104014578169,-6.206709050614598,2127341544
sq,-10.8051620483398,-10.85,10.734645871591567,2.7124937564583824,2127358211
sq,-10.7009216308594,-10.7802673339844,18.64877448471782,10.74150188842992,2127374878
sq,-10.5505844116211,-10.652848815918,23.719023258312337,17.498160215928817,2127391545
sq,-10.3246475219727,-10.4234634399414,26.473421656216974,22.790111936385475,2127408212
sq,-10.009049987793,-10.0852828979492,27.470432082705912,26.559286944642093,2127424879
sq,-9.60902557373047,-9.68310699462891,27.14010867672775,28.830233589337194,2127441546
sq,-9.16752014160156,-9.24531707763672,25.73549368182692,29.677713606516555,2127458213
sq,-8.72029266357422,-8.77440795898437,23.372985753407082,29.216413296762706,2127474880
sq,-8.28425750732422,-8.27709350585937,20.11982442099309,27.605716026951,2127491547
sq,-7.89309844970703,-7.79290161132812,16.08385756434856,25.05726540934788,2127508214
sq,-7.60248718261719,-7.37825927734375,11.47147341835158,21.833833401962448,2127524881
sq,-7.41336212158203,-7.03685913085937,6.597782859238428,18.23412407298537,2127541548
sq,-7.30980834960937,-6.76576385498047,1.8519170057484609,14.565934367425648,2127558215
sq,-7.30981597900391,-6.54860076904297,-2.3660514892540365,11.115033904931531,2127574882
sq,-7.38681182861328,-6.36742553710937,-5.714347931070975,8.117249032502892,2127591549
sq,-7.51069793701172,-6.22630462646484,-7.9648304679279,5.738175443512984,2127608216
sq,-7.63689575195312,-6.13491973876953,-9.032277172743774,4.061873864293713,2127624883
sq,-7.76545867919922,-6.07767639160156,-8.97548258206185,3.0886894039793953,2127641550
sq,-7.89769134521484,-6.03048095703125,-7.975809641016018,2.7424563020601322,2127658217
sq,-8.01820526123047,-6.01088104248047,-6.301842723321483,2.8871098491538056,2127674884
sq,-8.12817535400391,-5.96435699462891,-4.267645959213078,3.3510482089818905,2127691551
sq,-8.20642242431641,-5.87959442138672,-2.1896558970796662,3.954928082844248,2127708218
sq,-8.23848114013672,-5.80796203613281,-0.3459150526486554,4.536796744045123,2127724885
sq,-8.23871002197266,-5.73230133056641,1.0582908605851855,4.96933891220227,2127741552
sq,-8.20910034179687,-5.66680297851562,1.913539486383628,5.1672355794628295,2127758219
sq,-8.16696319580078,-5.58110961914062,2.2136302473452973,5.085888212316817,2127774886
sq,-8.12115631103516,-5.48452911376953,2.0448851906091527,4.714331959134518,2127791553
sq,-8.08287963867187,-5.41841278076172,1.5586694040953815,4.065453432945675,2127808220
sq,-8.05777893066406,-5.37248382568359,0.932401953427945,3.166701854232648,2127824887
sq,-8.05547485351562,-5.32617340087891,0.32759674231622005,2.0541333012854803,2127841554
sq,-8.06979522705078,-5.28582916259766,-0.14507920682886158,0.7710422846982091,2127858221
sq,-8.09969482421875,-5.27053985595703,-0.44501371473870954,-0.6299422765464321,2127874888
sq,-8.11581573486328,-5.2771240234375,-0.600645911860531,-2.0840405236340125,2127891555
sq,-8.11434326171875,-5.30420837402344,-0.6899348618129494,-3.513534781646732,2127908222
sq,-8.11133728027344,-5.36242065429687,-0.8096879833855852,-4.8306132461733755,2127924889
sq,-8.10525665283203,-5.44391021728516,-1.043877328495345,-5.94406693133106,2127941556
sq,-8.11534271240234,-5.53563842773437,-1.4399006524288438,-6.769104207287134,2127958223
sq,-8.13609466552734,-5.63660583496094,-1.997784750427649,-7.2391078769598955,2127974890
sq,-8.16500244140625,-5.74576721191406,-2.672713770946522,-7.317761196642507,2127991557
sq,-8.21772918701172,-5.87121734619141,-3.3877245412285384,-7.009119292655965,2128008224
sq,-8.27589569091797,-6.00107727050781,-4.051676269101716,-6.362264864580955,2128024891
sq,-8.34369049072266,-6.11105499267578,-4.5776073772311,-5.467350711437225,2128041558
sq,-8.42112121582031,-6.20353851318359,-4.8978049817292835,-4.441889450158501,2128058225
sq,-8.50093231201172,-6.26847991943359,-4.9735983053153285,-3.4094756683407548,2128074892
sq,-8.57566986083984,-6.31599578857422,-4.79941120345005,-2.4760825842516336,2128091559
sq,-8.65178833007812,-6.34533081054687,-4.401592782648877,-1.7102913239121733,2128108226
sq,-8.72746429443359,-6.36256561279297,-3.8329076550571175,-1.1329092113540544,2128124893
sq,-8.79437408447266,-6.37020263671875,-3.1636283187911776,-0.7188468573009171,2128141560
sq,-8.84046325683594,-6.37993774414062,-2.470448648786357,-0.4106382582020941,2128158227
sq,-8.87346801757812,-6.39994201660156,-1.8250061340615973,-0.1395744588961009,2128174894
sq,-8.90126953125,-6.40198669433594,-1.2841032709861488,0.1518526473342796,2128191561
sq,-8.92279968261719,-6.40642700195312,-0.8832780396928142,0.49291009182207013,2128208228
sq,-8.93580017089844,-6.43349609375,-0.6344177094378811,0.8781632050480391,2128224895
sq,-8.94282684326172,-6.42746887207031,-0.5272117659633488,1.2734622021089763,2128241562
sq,-8.95186767578125,-6.37597045898437,-0.5336320402238555,1.631683453782127,2128258229
sq,-8.96317443847656,-6.34066162109375,-0.6142115724406686,1.9115061030341234,2128274896
sq,-8.97799835205078,-6.29850921630859,-0.7246916473936922,2.0914683342127924,2128291563
sq,-8.98871765136719,-6.25872955322266,-0.8218166494655302,2.174190539235575,2128308230
sq,-8.99828491210937,-6.21803436279297,-0.8676522053989453,2.1802034815954667,2128324897
sq,-9.01213989257812,-6.19067535400391,-0.8323828464533283,2.1350274652855328,2128341564
sq,-9.02908477783203,-6.17907867431641,-0.6957531317825103,2.0556630060366343,2128358231
sq,-9.03988037109375,-6.16034088134766,-0.4472500159860536,1.9426979808838996,2128374898
sq,-9.04699096679687,-6.13203582763672,-0.08514544315165402,1.7815954124070839,2128391565
sq,-9.05208740234375,-6.09436950683594,0.3852127368837533,1.552474520144141,2128408232
sq,-9.04817352294922,-6.05920562744141,0.9530403781725182,1.2440101125153757,2128424899
sq,-9.02443084716797,-6.03190002441406,1.602423915082604,0.8657303566813679,2128441566
sq,-8.9851318359375,-6.01615295410156,2.309957317812223,0.45416341722540254,2128458233
sq,-8.93541870117187,-6.00603637695312,3.039338856903643,0.07079143778678905,2128474900
sq,-8.89850769042969,-6.00721893310547,3.7348300301645363,-0.20777061893965315,2128491567
sq,-8.86338958740234,-6.01365051269531,4.317985123490157,-0.3053168196708743,2128508234
sq,-8.81331024169922,-6.00952301025391,4.692691844679668,-0.16448981566537396,2128524901
sq,-8.73333892822266,-6.00946960449219,4.761035083478457,0.23506692785039124,2128541568
sq,-8.64880523681641,-6.00766906738281,4.447913247157926,0.8625473503177783,2128558235
sq,-8.57019195556641,-6.00131378173828,3.7284386754456813,1.6302490475444888,2128574902
sq,-8.50216827392578,-5.98563537597656,2.6509182395818667,2.4009882906176596,2128591569
sq,-8.45391235351562,-5.96521148681641,1.3495774695730811,3.0123421607470817,2128608236
sq,-8.42478332519531,-5.93075714111328,0.04392312512311647,3.31858714870375,2128624903
sq,-8.42119750976562,-5.88585815429687,-0.9753478390855926,3.246830621237912,2128641570
sq,-8.44061431884766,-5.83937225341797,-1.3713089128799623,2.8586905507315428,2128658237
sq,-8.48121032714844,-5.78276214599609,-0.7922870827112504,2.404183312534615,2128674904
sq,-8.49455413818359,-5.72415313720703,1.0947069902929967,2.351576393649318,2128691571
sq,-8.4603515625,-5.65613708496094,4.571912056861877,3.3770752914216273,2128708238
sq,-8.37974700927734,-5.56958923339844,9.841948502659015,6.302178424098376,2128724905
sq,-8.22722778320312,-5.41807708740234,17.003859433542544,11.974593567706696,2128741572
sq,-7.96720275878906,-5.17752227783203,26.037007467250515,21.100519047357285,2128758239
sq,-7.56895599365234,-4.80782470703125,36.79662487758725,34.05115357278935,2128774906
sq,-6.99133453369141,-4.28327331542969,49.023548639752,50.682534335795026,2128791573
sq,-6.20664367675781,-3.56548461914062,62.36718538845608,70.22067012645932,2128808240
sq,-5.19351348876953,-2.61744842529297,76.41652844732215,91.26617852971485,2128824907
sq,-4.00090942382812,-1.35794982910156,90.7309298435057,111.95657543690253,2128841574
sq,-2.45645294189453,0.31058349609375,104.86164853553473,130.28663649027703,2128858241
sq,-0.7279296875,2.42158355712891,118.35846456372983,144.5339228069429,2128874908
sq,1.19889678955078,4.85410919189453,130.76474882690394,153.6844413239642,2128891575
sq,3.239111328125,7.72253265380859,141.6181706605789,157.7250959967466,2128908242
sq,5.22994842529297,10.5982612609863,150.48436286854877,157.6845438432067,2128924909
sq,7.51895370483398,13.2712844848633,157.04404064711923,155.36850565276615,2128941576
sq,9.95802536010743,15.9074615478516,161.22297404325897,152.83509889834406,2128958243
sq,12.7854942321777,18.2147201538086,163.30969152060172,151.75841665006888,2128974910
sq,16.0597099304199,19.9223045349121,163.9781352021039,152.89570665715473,2128991577
sq,18.7782424926758,21.330778503418,164.15413749315888,155.86660229612954,2129008244
sq,21.1723617553711,23.7014602661133,164.7394623047281,159.3478089665597,2129024911
sq,23.4119590759277,27.216234588623,166.29385488789313,161.6109422228641,2129041578
sq,25.7572120666504,30.2601303100586,168.81379059820512,161.17920940967312,2129058245
sq,28.2117980957031,33.0332511901856,171.70830900958956,157.34633323323146,2129074912
sq,31.4138130187988,35.5452560424805,173.9834505401377,150.39487183504835,2129091579
sq,34.1664184570312,37.6528553009033,174.56233711672613,141.48799695985417,2129108246
sq,36.7671112060547,40.37336769104,172.627711473282,132.30759841899948,2129124913
sq,40.028625869751,42.7515892028809,167.87864079441133,124.55825609210582,2129141580
sq,42.999250793457,43.782022857666,160.62450069111605,119.47966411554069,2129158247
sq,45.5269683837891,45.5283645629883,151.69011834380788,117.51571889786732,2129174914
sq,47.6809143066406,47.3385070800781,142.17098259449608,118.24902931149353,2129191581
sq,49.8318408966064,48.9117530822754,133.13009236142827,120.61748477580689,2129208248
sq,51.9663433074951,51.4918006896973,125.3389153427358,123.32599590159785,2129224915
sq,53.8680023193359,53.5817798614502,119.13566335831979,125.30462641368254,2129241582
sq,55.5044445037842,55.5960506439209,114.42929213765956,126.06696425094485,2129258249
sq,57.5434698104858,57.7481292724609,110.83449696051542,125.87449931713842,2129274916
sq,59.3645652770996,59.7290910720825,107.88735759554652,125.67770986565863,2129291583
sq,61.2476591110229,61.8657368659973,105.27198044468551,126.85511313889485,2129308250
sq,62.8900751113892,63.9128130912781,102.99369606890194,130.80497693097425,2129324917
sq,64.4717144012451,66.2013887405396,101.45726051482968,138.47119776707808,2129341584
sq,66.1756159305573,68.366599881649,101.4313240743827,149.9121912576515,2129358251
sq,67.8723924398422,70.2481602668762,103.89363095560383,164.04374068916985,2129374918
sq,69.7630301356316,72.3398760795593,109.76242856274023,178.67969478125897,2129391585
sq,71.7473632335663,74.4437159538269,119.54335313480031,190.9276731513794,2129408252
sq,73.5691513061523,78.3373798370361,132.96395169374074,197.86899466355223,2129424919
sq,75.4267391204834,82.0068286895752,148.71617211770112,197.31846451181042,2129441586
sq,76.9359530448914,85.585604095459,164.44553324656312,188.40514157157412,2129458253
sq,78.8392595291138,88.711408996582,177.07396624432127,171.77911914185157,2129474920
sq,82.3521350860596,91.7223724365234,183.41310990405282,149.39033206162028,2129491587
sq,86.2484859466553,93.8714679718018,180.8750958999095,123.92820434883068,2129508254
sq,89.526012802124,95.5565437316895,168.02214567126813,98.10513155892146,2129524921
sq,92.3209289550781,96.809257888794,144.77186196925962,73.99443306081444,2129541588
sq,94.4834159851074,97.7317623138428,112.2421564608211,52.59531967843681,2129558255
sq,95.868412399292,98.4661602020264,72.37088800566924,33.712138223340965,2129574922
sq,96.6151966094971,99.2654384613037,27.50653144864391,16.137435376859177,2129591589
sq,96.7686370849609,99.6460174560547,-19.871351804974935,-1.9443484866608807,2129608256
sq,96.3463329315186,99.6162570953369,-67.24599184886469,-22.442033520739283,2129624923
sq,95.5467208862305,99.0728610992432,-112.03386304720145,-46.8290418275193,2129641590
sq,94.2821849822998,98.17659034729,-151.57518098707322,-75.679162318541,2129658257
sq,92.5397571563721,97.0176528930664,-183.2917500586842,-108.34559646235253,2129674924
sq,89.8878253936768,95.8268627166748,-205.0723882983192,-142.8774422069346,2129691591
sq,86.3376354217529,94.193025970459,-215.7978346006107,-176.26067707336176,2129708258
sq,81.4440893173218,91.6593288421631,-215.78476612310953,-205.00243474559747,2129724925
sq,77.0013231277466,88.1639808654785,-206.90748434347958,-225.94873288739794,2129741592
sq,74.9295786857605,83.8740533828735,-192.2854028972305,-237.09417719193436,2129758259
sq,71.8227221012116,78.5852979660034,-175.62837814558446,-238.0944625134041,2129774926
sq,69.3087753593922,74.3711699485779,-160.4705714403304,-230.28812799539597,2129791593
sq,66.9656642913818,72.3632391929627,-149.52732292136514,-216.24519869249445,2129808260
sq,64.8513401985169,68.9029845237732,-144.32191652419684,-199.06153067118566,2129824927
sq,62.4695276260376,65.8280648231506,-145.12279043857467,-181.6795853299225,2129841594
sq,60.042991065979,63.2639492988586,-151.1437750495377,-166.42852724708516,2129858261
sq,57.5302623748779,60.4541801452637,-160.904504729098,-154.83661149614193,2129874928
sq,54.7657627105713,57.7434419631958,-172.63321240524252,-147.66402650017235,2129891595
sq,51.9080890655518,55.3705543518066,-184.61552024348046,-145.05749483813645,2129908262
sq,48.9492820739746,52.9551776885986,-195.43495131037128,-146.72923353597753,2129924929
sq,45.8727306365967,50.2696193695068,-204.09540401970523,-152.0956856037174,2129941596
sq,42.7086585998535,48.0866321563721,-210.04722114246934,-160.3571278276974,2129958263
sq,39.3839782714844,45.8007530212402,-213.14872140650243,-170.53987582526054,2129974930
sq,35.7359870910645,42.8365253448486,-213.58859186586614,-181.54124055623427,2129991597
sq,32.4626602172851,40.0943416595459,-211.78545854586977,-192.207239471538,2130008264
sq,29.1907180786133,37.1014007568359,-208.2791020025231,-201.4475229462611,2130024931
sq,25.8285354614258,33.851171875,-203.62837368654488,-208.36795694455958,2130041598
sq,22.492399597168,30.3948654174805,-198.32470114358105,-212.38413955553366,2130058265
sq,19.306623840332,26.7736305236816,-192.72004728987926,-213.27245191313696,2130074932
sq,16.2395881652832,23.352522277832,-186.96505949133334,-211.12784839320128,2130091599
sq,13.1049827575684,19.8941215515137,-180.96031112560345,-206.2308910573085,2130108266
sq,10.2315887451172,16.638224029541,-174.3362247702402,-198.8672504470854,2130124933
sq,7.72101058959961,13.7364067077637,-166.48853379609005,-189.17184973794977,2130141600
sq,5.30202331542969,10.9750503540039,-156.69475983549674,-177.07115943011877,2130158267
sq,2.73497619628906,8.29126205444336,-144.31134914441475,-162.36304741529273,2130174934
sq,0.189787292480469,5.5050910949707,-129.00658081763817,-144.9123828088433,2130191601
sq,-2.060693359375,2.99095764160156,-110.94995904592518,-124.88077802264411,2130208268
sq,-3.89801940917969,0.648733520507813,-90.88156637146838,-102.88464881172317,2130224935
sq,-5.42809448242187,-1.07455596923828,-70.02417638039294,-80.00283680714166,2130241602
sq,-6.65830383300781,-2.34228668212891,-49.85428886006446,-57.61947495076178,2130258269
sq,-7.38978729248047,-3.08050689697266,-31.79490547516065,-37.15609873297093,2130274936
sq,-7.55736694335937,-3.45661315917969,-16.921571202331602,-19.786600870450044,2130291603
sq,-7.58110961914062,-3.6916748046875,-5.773347298857854,-6.224897939903255,2130308270
sq,-7.58372650146484,-3.75380096435547,1.6765799502690453,3.3633813001995043,2130324937
sq,-7.71098480224609,-3.73405609130859,5.900232166322373,9.324010421932181,2130341604
sq,-7.86356506347656,-3.69654998779297,7.613244614530743,12.389451372341705,2130358271
sq,-7.91061553955078,-3.64158782958984,7.5833168269240145,13.518100012080586,2130374938
sq,-7.82940063476562,-3.34700927734375,6.514997147454382,13.739860856247859,2130391605
sq,-7.65960083007812,-3.08621368408203,5.02557878812961,14.028343189805787,2130408272
sq,-7.45416412353516,-2.84676513671875,3.6799338023241113,15.201390583971417,2130424939
sq,-7.25518188476562,-2.58698425292969,3.032191641615538,17.846540321969158,2130441606
sq,-7.17113647460937,-2.3227783203125,3.633216776826664,22.273515287165914,2130458273
sq,-7.15377197265625,-2.09582672119141,5.992940541285837,28.50171643965081,2130474940
sq,-7.14952239990234,-1.679833984375,10.516764500006989,36.28845274450558,2130491607
sq,-7.08905944824219,-0.932313537597656,17.449458906677542,45.19242467188051,2130508274
sq,-6.862451171875,-0.19161376953125,26.852649423646078,54.65534430778624,2130524941
sq,-6.40052947998047,0.735845947265625,38.61944713716337,64.08406708269506,2130541608
sq,-5.64576873779297,1.69164123535156,52.50617175832836,72.92791965289248,2130558275
sq,-4.67813262939453,2.69356384277344,68.15146535909186,80.75902928658562,2130574942
sq,-3.48529205322266,3.78410949707031,85.06543496541447,87.362025115866,2130591609
sq,-2.26964721679687,5.52467193603516,102.60054527104232,92.81937779187274,2130608276
sq,-0.92318115234375,7.15607681274413,119.9431783421152,97.55493494211686,2130624943
sq,1.10207977294922,8.61057891845702,136.1690947354249,102.29431825199134,2130641610
sq,3.08899536132812,10.3172821044922,150.3812121990771,107.92340352132422,2130658277
sq,5.38514556884766,12.2687515258789,161.90675479787217,115.25960200694597,2130674944
sq,8.15083923339844,14.0805572509766,170.49049556359972,124.78097922173284,2130691611
sq,11.2321723937988,15.8144477844238,176.39651734419138,136.38339887598374,2130708278
sq,14.6520065307617,17.9857810974121,180.34159218259953,149.25053146423951,2130724945
sq,17.4483169555664,20.2642349243164,183.24413008206346,161.9125329231901,2130741612
sq,19.919416809082,21.7260955810547,185.8672083539097,172.52659533990195,2130758279
sq,22.5079597473145,24.984228515625,188.50726739830588,179.334693396177,2130774946
sq,25.0501808166504,29.2179054260254,190.87680314296577,181.1630595951728,2130791613
sq,28.1217712402344,31.4672454833984,192.24313700703993,177.783765004677,2130808280
sq,31.4866508483887,34.4273246765137,191.76333495582307,170.0055445136256,2130824947
sq,34.9635414123535,37.9446834564209,188.8639618813201,159.4665293116751,2130841614
sq,38.3832706451416,39.9002384185791,183.49942200495627,148.2007504440648,2130858281
sq,41.3900341033936,42.2288230895996,176.1872512037771,138.11695906198986,2130874948
sq,44.1230434417725,44.187483215332,167.82535173130898,130.55822531480067,2130891615
sq,46.3290828704834,45.3526996612549,159.38941538090813,126.08745369504851,2130908282
sq,48.8126510620117,47.7976573944092,151.64547705222589,124.56073331071937,2130924949
sq,51.0911544799805,49.9482311248779,144.98419663223623,125.43628776236902,2130941616
sq,53.5821775436401,51.877466583252,139.41793661182805,128.1743722088669,2130958283
sq,55.639369392395,54.4371494293213,134.7189975125299,132.5529983898037,2130974950
sq,57.8508352279663,57.2623943328857,130.63933904092983,138.76154284632995,2130991617
sq,59.9723094940186,59.2774442672729,127.13583040989705,147.2239180674009,2131008284
sq,62.1744250297546,61.3055786132812,124.52160140995285,158.2178467157582,2131024951
sq,64.4287070274353,63.7383302688599,123.47476157593631,171.44894883281955,2131041618
sq,66.5490337848663,66.1096457481384,124.868368847114,185.76284935114523,2131058285
sq,68.6029317617416,69.0379920840263,129.4403696668789,199.1326155508559,2131074952
sq,70.6710430622101,71.5717796325684,137.38588692323074,208.97168030720215,2131091619
sq,72.6594485282898,74.555704498291,148.0049896666689,212.7157951849934,2131108286
sq,74.4070838928223,79.0270332336426,159.55433391687416,208.5066979545599,2131124953
sq,76.4131053924561,83.1509078979492,169.41057686359466,195.73782984055325,2131141620
sq,78.992248916626,86.3033374786377,174.55035074869923,175.2492407919899,2131158287
sq,82.6626523971558,89.2290328979492,172.2165273677742,149.09335974422476,2131174954
sq,86.0455326080322,91.3356803894043,160.54671265363098,119.96198152997444,2131191621
sq,88.7713150024414,92.8766883850098,138.95488975777533,90.47720704697815,2131208288
sq,90.9214862823486,94.085489654541,108.17701667014693,62.56841454315183,2131224955
sq,92.3075775146484,94.9382442474365,70.03762897105281,37.10102311047792,2131241622
sq,93.1099857330322,95.440735244751,27.08193379034161,13.829815647052154,2131258289
sq,93.3821166992188,95.6652416229248,-17.784442941507326,-8.34257628310568,2131274956
sq,93.0690826416016,95.5892604827881,-61.57289618333243,-30.889591191405152,2131291623
sq,92.2305892944336,95.0630325317383,-101.41438728608696,-55.09294099363027,2131308290
sq,90.9752391815186,94.2543033599854,-134.7502689492992,-81.522485483034,2131324957
sq,89.2798923492432,93.2309688568115,-159.5754993292346,-109.69787565490024,2131341624
sq,86.7406028747559,91.9379371643066,-174.74106816021964,-138.03929578253036,2131358291
sq,83.5934967041016,90.0136913299561,-180.2335233054859,-164.15508273002203,2131374958
sq,79.3664220809937,87.4474262237549,-177.28819543464314,-185.41866796284916,2131391625
sq,76.7063855171204,84.2473691940308,-168.22101207060138,-199.67921299765354,2131408292
sq,74.6490258216858,80.4588340759277,-155.98474922587087,-205.87537971744584,2131424959
sq,72.3538700580597,75.989231967926,-143.58819670191735,-204.32856306381274,2131441626
sq,70.2068410754204,72.2677928447723,-133.5659555855276,-196.6064100900073,2131458293
sq,68.2146775960922,70.9804189443588,-127.63588540047475,-185.03590749763134,2131474960
sq,66.2274190425873,68.3703099727631,-126.58799831007724,-172.09824534510653,2131491627
sq,64.0141834259033,65.3238328933716,-130.36958153155322,-159.94532479713186,2131508294
sq,61.7719000816345,62.5314487457275,-138.28827033191183,-150.15062695619827,2131524961
sq,59.4911197662354,60.2720731735229,-149.24986405427762,-143.66747714555464,2131541628
sq,57.1059841156006,57.9326814651489,-161.9728691825452,-140.90682831924263,2131558295
sq,54.6000331878662,55.3755544662476,-175.15769256686704,-141.85346268662906,2131574962
sq,51.8264316558838,53.0804084777832,-187.6139726916223,-146.1683296321909,2131591629
sq,48.8455070495606,50.9350093841553,-198.35576739232116,-153.2571882676295,2131608296
sq,45.5918296813965,48.4210857391357,-206.6670292387327,-162.31579692088317,2131624963
sq,42.3023590087891,45.842008972168,-212.13126703938772,-172.37768743720844,2131641630
sq,38.7804626464844,43.2949737548828,-214.61860106804713,-182.3869831616041,2131658297
sq,35.3479598999023,40.3545917510986,-214.23252197153312,-191.30237442599204,2131674964
sq,31.9741691589355,37.0759948730469,-211.23329400938923,-198.21809785077326,2131691631
sq,28.8436225891113,33.9527000427246,-205.96569628974564,-202.47345842507045,2131708298
sq,25.5175727844238,30.7151321411133,-198.8148556532785,-203.72297014859842,2131724965
sq,22.1527809143066,27.4960388183594,-190.19395223442345,-201.9516783096665,2131741632
sq,19.1759208679199,24.1623176574707,-180.54586254993208,-197.43263410553092,2131758299
sq,16.1951736450195,20.8426307678223,-170.33418988467633,-190.6318877727916,2131774966
sq,13.4186805725098,17.850984954834,-160.0096348258638,-182.07802749699317,2131791633
sq,10.976358795166,15.1586517333984,-149.95450621234582,-172.23020856929264,2131808300
sq,8.53725280761719,12.4989189147949,-140.4210437651884,-161.38796781844135,2131824967
sq,6.29590454101563,9.85477294921874,-131.48384953888925,-149.67419206482106,2131841634
sq,4.25914611816406,7.53332366943359,-123.02392702842064,-137.09335183767516,2131858301
sq,2.36579742431641,5.27422943115234,-114.75442703897683,-123.63824712196995,2131874968
sq,0.499586486816407,3.28031005859375,-106.28741228419524,-109.40269851747422,2131891635
sq,-1.26110992431641,1.37724914550781,-97.22830946626607,-94.65649676524998,2131908302
sq,-2.84767303466797,-0.305703735351562,-87.27581701709788,-79.85169995783943,2131924969
sq,-4.22027740478516,-1.54515228271484,-76.30513059611067,-65.5556500703584,2131941636
sq,-5.428125,-2.3427978515625,-64.41942414839612,-52.33796262240004,2131958303
sq,-6.50689849853516,-3.14877471923828,-51.961801130781936,-40.65829152537678,2131974970
sq,-7.32786712646484,-3.76517639160156,-39.48407022968598,-30.79512887618491,2131991637
sq,-8.00666961669922,-4.31611785888672,-27.67198542900843,-22.829374492827963,2132008304
sq,-8.52087554931641,-4.73148498535156,-17.232601998323236,-16.67034712088254,2132024971
sq,-8.83561096191406,-5.02366790771484,-8.759809240062053,-12.101198159112377,2132041638
sq,-8.85803375244141,-5.22212371826172,-2.6072477540444736,-8.825283792338869,2132058305
sq,-8.735986328125,-5.33743438720703,1.1935467405482643,-6.506081003349566,2132074972
sq,-8.62115631103516,-5.4203125,2.938398526614395,-4.8019919102685575,2132091639
sq,-8.6093994140625,-5.48211822509766,3.172913138835813,-3.3997816331980135,2132108306
sq,-8.67880401611328,-5.547998046875,2.5584655914988934,-2.0472786554874682,2132124973
sq,-8.74566040039062,-5.59138641357422,1.7289484891281401,-0.5810637077300878,2132141640
sq,-8.78170928955078,-5.62950286865234,1.182428667116751,1.0579978202386022,2132158307
sq,-8.71968994140625,-5.61347351074219,1.2291509784523122,2.827566566168075,2132174974
sq,-8.62122497558594,-5.56987152099609,1.990715850017204,4.607143162379112,2132191641
sq,-8.55035552978516,-5.49757537841797,3.4301050776804893,6.239217038160864,2132208308
sq,-8.50407562255859,-5.40486297607422,5.393638922230066,7.581855295032747,2132224975
sq,-8.44037017822266,-5.28759155273437,7.6573520054979145,8.564052068948655,2132241642
sq,-8.37723693847656,-5.146875,9.980409150051962,9.233611830929645,2132258309
sq,-8.25956878662109,-4.99124298095703,12.169547395613646,9.786232125784178,2132274976
sq,-8.04910430908203,-4.78281555175781,14.150875019388488,10.564722642760564,2132291643
sq,-7.75911865234375,-4.55807647705078,16.034333014497857,12.020886499011533,2132308310
sq,-7.46601257324219,-4.36416778564453,18.149572222490395,14.64099440609514,2132324977
sq,-7.14637145996094,-4.13270721435547,21.03486456035006,18.847864846906244,2132341644
sq,-6.79959259033203,-3.83224639892578,25.37164610729447,24.90409165371761,2132358311
sq,-6.388330078125,-3.54242095947266,31.8707746313952,32.84686644515548,2132374978
sq,-5.88970336914062,-3.15216217041016,41.12756383172019,42.480990313553555,2132391645
sq,-5.20962677001953,-2.48130950927734,53.4694563323655,53.44079807147711,2132408312
sq,-4.3183837890625,-1.54786834716797,68.82415836315933,65.3069317528555,2132424979
sq,-3.22137603759766,-0.554612731933593,86.63958717971158,77.74027569634877,2132441646
sq,-1.97479400634766,0.783491516113282,105.88972254141925,90.58318184307943,2132458313
sq,-0.566522216796875,2.44788208007812,125.19521912976853,103.88149671487788,2132474980
sq,1.24527587890625,4.3462890625,143.06282324252024,117.80155421365323,2132491647
sq,3.71069183349609,6.14105072021484,158.20025870535272,132.45515075674336,2132508314
sq,6.51721801757813,8.02140655517579,169.81180068205097,147.6920918240965,2132524981
sq,9.47535171508788,10.1234382629394,177.75860692754608,162.9480318730675,2132541648
sq,13.3821701049805,12.6034950256348,182.5047398450363,177.22197502293446,2132558315
sq,15.3218788146973,15.4509948730469,184.86289905140384,189.20598553674864,2132574982
sq,17.5477584838867,18.6952270507812,185.65640175688333,197.5285617444943,2132591649
sq,20.6230834960937,22.1847785949707,185.4515468249241,201.0370098940355,2132608316
sq,23.965242767334,24.96787109375,184.45577621737607,199.04795102403872,2132624983
sq,26.5952629089355,28.1361793518066,182.57722392618754,191.52277482828376,2132641650
sq,29.7861503601074,31.7405227661133,179.57809936552684,179.14670320175705,2132658317
sq,32.8382247924805,33.938272857666,175.2470534999433,163.29594203926143,2132674984
sq,35.4164299011231,37.077059173584,169.53710178860834,145.88008029184542,2132691651
sq,38.1222995758057,39.7646545410156,162.64147782716114,129.059374773214,2132708318
sq,41.1310924530029,41.6394142150879,154.999208376268,114.86603130502795,2132724985
sq,43.1537860870361,43.5507053375244,147.23418262754097,104.80607116105429,2132741652
sq,45.8097347259521,44.8210948944092,140.04168311481823,99.56339791485706,2132758319
sq,48.0954784393311,45.5853733062744,134.04691360069015,98.9314275466012,2132774986
sq,49.9860061645508,46.9206203460693,129.66860096199528,102.03200755314164,2132791653
sq,52.2247203826904,49.0524448394775,127.0257474603957,107.75697515029222,2132808320
sq,54.0403245925903,51.5479358673096,125.9235359099016,115.24620936493154,2132824987
sq,55.7768520355225,53.8389381408691,125.93907792904773,124.18022244721632,2132841654
sq,57.8008083343506,55.8568510055542,126.5957158756752,134.7490984262214,2132858321
sq,59.9796327590942,57.7867063522339,127.57111967202195,147.31268362692248,2132874988
sq,62.4005140304565,60.2475484848022,128.84944764941093,161.90204513377225,2132891655
sq,64.588503742218,62.2952350616455,130.7285433202981,177.77509807021545,2132908322
sq,66.8444103240967,64.5501145362854,133.63977702893533,193.2240613557622,2132924989
sq,69.0768504083157,67.4657368898392,137.8133665353438,205.7508073512575,2132941656
sq,71.1735540866852,70.1122107744217,142.89636121089015,212.59337957073913,2132958323
sq,73.0615343093872,74.4723485946655,147.67846136565421,211.43803332941314,2132974990
sq,74.8196519851685,78.9751848220825,150.080214579294,201.05128588522646,2132991657
sq,76.3765434265137,82.3293699264526,147.4891598354722,181.5833079801861,2133008324
sq,79.5182718276978,85.026275062561,137.39581404369557,154.43629998422884,2133024991
sq,82.3499254226685,87.5310138702393,118.13725933975716,121.7800322207712,2133041658
sq,84.5302061080933,88.8793701171875,89.48839808429805,85.92632706256093,2133058325
sq,86.2610038757324,89.9909633636475,52.89595952290035,48.79773945808749,2133074992
sq,87.0360168457031,90.4471096038818,11.288365269415964,11.660555499553078,2133091659
sq,87.041077041626,90.5315021514893,-31.466697310953776,-24.821226674846788,2133108326
sq,86.4333595275879,90.2008785247803,-71.30110077139805,-60.27522974007681,2133124993
sq,85.3253025054932,89.5260490417481,-104.70366920693606,-94.209435939609,2133141660
sq,83.6277069091797,88.4929393768311,-129.33573676607153,-125.69192592741993,2133158327
sq,81.1172317504883,86.94616355896,-144.37764103821564,-153.27925126940576,2133174994
sq,77.5991186141968,84.5946020126343,-150.53014382775282,-175.2536550632128,2133191661
sq,76.3443006515503,81.8118700027466,-149.68316372084752,-190.09859258590916,2133208328
sq,74.1469301223755,78.3781980514526,-144.3734372326896,-197.02666555117497,2133224995
sq,72.0525807380676,73.9687131881714,-137.21555104440927,-196.32751742574882,2133241662
sq,69.8994591474533,69.9819790959358,-130.46084478716318,-189.36652193182388,2133258329
sq,67.7949090242386,68.5371169686317,-125.74897781849722,-178.23136418086537,2133274996
sq,65.618817949295,66.1959637641907,-124.03569584582256,-165.2014127048954,2133291663
sq,63.6324080467224,63.4581278800964,-125.64218633323793,-152.27787195270844,2133308330
sq,61.5728129386902,61.0200075149536,-130.3707795788992,-140.92778031508928,2133324997
sq,59.5639032363892,58.6843446731567,-137.64870207092622,-132.0548063228085,2133341664
sq,57.364786529541,56.554953956604,-146.6779444033725,-126.11747623628808,2133358331
sq,54.9940895080566,54.2886070251465,-156.57615911435613,-123.29291932492936,2133374998
sq,52.3939765930176,52.1540340423584,-166.49363545505432,-123.60384608262613,2133391665
sq,49.6469139099121,50.2647003173828,-175.6939064971448,-126.96586724027655,2133408332
sq,47.0014766693115,48.2286190032959,-183.59549620686,-133.15752269047573,2133424999
sq,44.115202331543,46.162186050415,-189.78399577320758,-141.75031931034363,2133441666
sq,40.9731620788574,43.8886970520019,-194.00674864956525,-152.04991543021478,2133458333
sq,37.8402160644531,41.6842292785645,-196.15617815161747,-163.09371146573898,2133475000
sq,34.6821006774902,39.2669090270996,-196.24278939467814,-173.72930278083427,2133491667
sq,31.6729721069336,36.2337097167969,-194.3618962497447,-182.7658207363906,2133508334
sq,28.4996398925781,33.0775627136231,-190.66330471554133,-189.1576891850316,2133525001
sq,25.5243782043457,30.2900871276855,-185.33208290141948,-192.16766062728948,2133541668
sq,22.4424613952637,27.0251449584961,-178.58140273507232,-191.46986861725736,2133558335
sq,19.8146499633789,23.9948867797852,-170.65114602535832,-187.17834930901952,2133575002
sq,16.6957153320312,21.0198921203613,-161.80237953047137,-179.8050208544502,2133591669
sq,14.2878974914551,18.1319984436035,-152.29989292446328,-170.1610593528325,2133608336
sq,11.8671897888184,15.3482154846191,-142.38370321966386,-159.22090454463745,2133625003
sq,9.63736953735352,13.040266418457,-132.24062353992224,-147.9700589315375,2133641670
sq,7.4791130065918,10.3182586669922,-121.98956726726342,-137.2566767678819,2133658337
sq,5.58035888671874,8.39062728881836,-111.687447323015,-127.66482478853385,2133675004
sq,3.847265625,6.25161590576172,-101.35273712779035,-119.42694069081412,2133691671
sq,2.10652770996094,4.43279876708984,-90.99594183510071,-112.39320727743105,2133708338
sq,0.581503295898438,2.62601318359375,-80.64275336794358,-106.07163093705124,2133725005
sq,-0.751107788085937,1.03359832763672,-70.34038442925142,-99.74245594064571,2133741672
sq,-1.73836669921875,-0.417253112792968,-60.15086290190903,-92.63488150186578,2133758339
sq,-2.62976989746094,-2.04915008544922,-50.14747018057172,-84.133666918249,2133775006
sq,-3.35307464599609,-3.50345001220703,-40.42947919919522,-73.96358080920542,2133791673
sq,-4.05809173583984,-4.86016235351562,-31.153663552639237,-62.293812404770215,2133808340
sq,-4.70456848144531,-5.96005401611328,-22.56054394346758,-49.7229165733546,2133825007
sq,-5.18558654785156,-6.72898254394531,-14.965748843474216,-37.14362217397752,2133841674
sq,-5.46608123779297,-7.21383056640625,-8.700912165469276,-25.528616633640237,2133858341
sq,-5.49257049560547,-7.50923309326172,-4.017644967772593,-15.704107632579532,2133875008
sq,-5.42004547119141,-7.67987213134766,-0.9939443848311216,-8.177577886011516,2133891675
sq,-5.32230529785156,-7.73741302490234,0.5125288685459423,-3.0629496244329206,2133908342
sq,-5.29186401367187,-7.76146850585937,0.8397058594010816,-0.11231292142836327,2133925009
sq,-5.34609375,-7.80999908447266,0.4334563508617348,1.16898814341801,2133941676
sq,-5.45069274902344,-7.88489685058594,-0.26669068069274515,1.3686496207017895,2133958343
sq,-5.54425201416016,-7.95140991210937,-0.9239362380582777,1.025007592791805,2133975010
sq,-5.58630523681641,-7.98915252685547,-1.3515234701328371,0.5339535789495813,2133991677
sq,-5.56834564208984,-7.94166717529297,-1.5052032352319076,0.12003517906432831,2134008344
sq,-5.52201232910156,-7.91434631347656,-1.4381890710596827,-0.1369752980066392,2134025011
sq,-5.50303802490234,-7.91477355957031,-1.2459256500227986,-0.2433636098652298,2134041678
sq,-5.51015625,-7.90654144287109,-1.0230435638619135,-0.22717271487911544,2134058345
sq,-5.55024108886719,-7.85618743896484,-0.8415140637775981,-0.09061899347594397,2134075012
sq,-5.59626922607422,-7.80208740234375,-0.7466120945093673,0.2063883713795312,2134091679
sq,-5.61480865478516,-7.78290710449219,-0.7619188114408706,0.7281859385408923,2134108346
sq,-5.60594329833984,-7.80150756835937,-0.8962365546661425,1.5206088435888632,2134125013
sq,-5.60522613525391,-7.83468780517578,-1.149456066237204,2.564701384881504,2134141680
sq,-5.631005859375,-7.87015686035156,-1.5165582335261754,3.7511543752267458,2134158347
sq,-5.68232116699219,-7.84443054199219,-1.988245166633928,4.891691754907753,2134175014
sq,-5.73606262207031,-7.74531707763672,-2.5460051707808597,5.767339578353643,2134191681
sq,-5.77884826660156,-7.60714111328125,-3.1515514622735585,6.196651379825785,2134208348
sq,-5.80003509521484,-7.44980773925781,-3.73513809078066,6.097729509915118,2134225015
sq,-5.83238372802734,-7.30964050292969,-4.190870810631796,5.5202930983816305,2134241682
sq,-5.88369903564453,-7.21632537841797,-4.386520576981472,4.636039604622381,2134258349
sq,-5.94436798095703,-7.16050872802734,-4.190125423788933,3.690897638616946,2134275016
sq,-6.01309356689453,-7.11302337646484,-3.50833705723464,2.934915243812695,2134291683
sq,-6.08658752441406,-7.08330688476562,-2.3252587123174755,2.5509148972682425,2134308350
sq,-6.14864501953125,-7.06107482910156,-0.7276313375607913,2.6020429827179594,2134325017
sq,-6.18807373046875,-7.04294738769531,1.0964207153669363,3.013361549223391,2134341684
sq,-6.19976196289062,-7.02021942138672,2.892349961156497,3.5956118466041502,2134358351
sq,-6.18591461181641,-6.99970397949219,4.406301119242899,4.110829921462603,2134375018
sq,-6.12296447753906,-6.96339569091797,5.472232620255425,4.369611409241099,2134391685
sq,-5.98465118408203,-6.86554870605469,6.096966920210529,4.339206759229804,2134408352
sq,-5.80532989501953,-6.74394378662109,6.51579529034316,4.232970313575563,2134425019
sq,-5.64188537597656,-6.59671936035156,7.1949515800148465,4.549467822383829,2134441686
sq,-5.50081787109375,-6.46561584472656,8.771193505164803,6.037342846914356,2134458353
sq,-5.38076934814453,-6.33062896728516,11.93852565762157,9.57943397065491,2134475020
sq,-5.2151123046875,-6.16694030761719,17.309774235993014,16.01187649574121,2134491687
sq,-5.02778015136719,-5.93785247802734,25.28934204532776,25.914514598544343,2134508354
sq,-4.68940124511719,-5.53701934814453,35.99001219307684,39.42260292658097,2134525021
sq,-4.13249359130859,-5.02331695556641,49.2122836860333,56.11340031293832,2134541688
sq,-3.35206756591797,-4.302880859375,64.48440567170653,75.0124494091225,2134558355
sq,-2.26266632080078,-3.24459228515625,81.14266827496925,94.74023921955124,2134575022
sq,-0.872430419921875,-1.75476989746094,98.4221826027152,113.78070230829694,2134591689
sq,0.895559692382813,0.153334045410157,115.53337443355963,130.80764335371396,2134608356
sq,2.54647674560547,2.47522583007812,131.71799085401008,144.97192766758502,2134625023
sq,4.36414184570313,5.21698608398438,146.29888584339446,156.05059135408817,2134641690
sq,6.80725326538086,7.70028533935547,158.7410334929185,164.39830665576608,2134658357
sq,9.41112747192383,10.2758010864258,168.72033461164992,170.71127247675693,2134675024
sq,12.371923828125,13.2188514709473,176.1709297190892,175.68555739040573,2134691691
sq,15.1607574462891,15.4776748657227,181.27781541090678,179.69779117199684,2134708358
sq,18.0042976379395,17.7507881164551,184.40484273671905,182.63722937813708,2134725025
sq,20.9260429382324,20.6307968139648,185.97912135136428,183.96382558785461,2134741692
sq,23.8098129272461,23.965486907959,186.37000190900932,182.96801242440628,2134758359
sq,26.9846710205078,27.105265045166,185.79987581235608,179.11348386202235,2134775026
sq,29.7617897033691,30.4214767456055,184.31468589386816,172.31266133954685,2134791693
sq,32.2737831115723,33.1759132385254,181.82941666260942,163.03121265772745,2134808360
sq,35.3648361206055,35.4541687011719,178.23987718208696,152.20581248091224,2134825027
sq,38.4630702972412,38.0397209167481,173.55449566991433,141.03432083206687,2134841694
sq,41.7690795898437,40.2061065673828,167.97390186170117,130.72862324279353,2134858361
sq,44.435795211792,41.9378170013428,161.86635968596494,122.31160006452758,2134875028
sq,46.570934677124,44.1600364685059,155.65198949762043,116.51062870469178,2134891695
sq,48.8989585876465,45.7613719940186,149.67005760572496,113.76381075180245,2134908362
sq,51.1926177978515,47.3239559173584,144.11233356769472,114.3170329346995,2134925029
sq,53.483797454834,49.4716762542725,139.0593752816636,118.35307994457418,2134941696
sq,55.9973749160767,51.7785095214844,134.59541032219343,126.06711715956911,2134958363
sq,58.0022644042969,53.9928812026978,130.9402610683343,137.60759253324838,2134975030
sq,60.1502717971802,56.3481906890869,128.53295465807022,152.85518203716535,2134991697
sq,62.3784841537476,58.8822416305542,128.01750049697884,171.10079405969918,2135008364
sq,64.6313523292542,61.0720094680786,130.10436652396638,190.76626477187278,2135025031
sq,66.8033498764038,63.6315330505371,135.31335448308687,209.34554068303365,2135041698
sq,69.0259924769402,66.2252422809601,143.6492909735819,223.69893945175815,2135058365
sq,71.2887076377869,69.1717565596104,154.31215344679597,230.701526507704,2135075032
sq,73.0821644306183,74.5748714447022,165.57457642555804,228.06891821831425,2135091699
sq,74.9079979896545,78.8228954315186,174.94077745933066,215.05530017274367,2135108366
sq,77.5754188537598,82.5598148345947,179.60844783877863,192.7357926546291,2135125033
sq,81.6237434387207,85.7866500854492,177.11136619352018,163.7534285145516,2135141700
sq,85.018748664856,87.9238037109375,165.9111457941627,131.62673677655374,2135158367
sq,87.7363666534424,89.6724075317383,145.719155759869,99.85970335856426,2135175034
sq,90.1421646118164,91.0408824920654,117.46211106794085,71.12471781619674,2135191701
sq,91.634561920166,92.0032371520996,82.96466597944645,46.72447800990956,2135208368
sq,92.5795692443848,92.6701110839844,44.51673890316502,26.433249008065964,2135225035
sq,93.0118831634522,93.0139144897461,4.491909731563319,8.71679986475938,2135241702
sq,93.1580242156982,93.1681522369385,-34.88989331562259,-8.74524410065992,2135258369
sq,92.729029083252,92.9947780609131,-71.65787657793356,-28.359863376220705,2135275036
sq,91.8315223693848,92.5890850067139,-104.11492424439533,-51.896855872608484,2135291703
sq,90.3812278747559,91.9699634552002,-130.87567572065842,-79.90322611861882,2135308370
sq,88.381912612915,91.1049045562744,-150.96515814232797,-111.4052567905794,2135325037
sq,85.859400177002,89.7423824310303,-163.9626348870586,-144.00091936476466,2135341704
sq,82.7939476013184,87.6930183410645,-170.12303178735613,-174.35643622520703,2135358371
sq,79.8288082122803,84.8743270874023,-170.39727099030165,-199.00154323414435,2135375038
sq,77.2839254379273,81.2285694122315,-166.31250178520315,-215.20550537903864,2135391705
sq,74.8893951416016,76.9566234588623,-159.73750113175504,-221.66210094162125,2135408372
sq,72.3448711872101,72.3525871276856,-152.6019267024947,-218.76047322120937,2135425039
sq,69.8518736600876,69.5483380198479,-146.63685528517766,-208.3726766287652,2135441706
sq,67.4849390029907,67.0149187088013,-143.1751225905056,-193.28068231611735,2135458373
sq,65.2158397674561,63.89223279953,-143.0246980793426,-176.4851637154837,2135475040
sq,63.0294097900391,61.2655347824097,-146.41852480577404,-160.62485471642023,2135491707
sq,60.6226629257202,58.7074073791504,-153.04111887769656,-147.6315768317474,2135508374
sq,58.2037118911743,56.5535129547119,-162.12624746630183,-138.6366617742636,2135525041
sq,55.7777303695679,54.2437967300415,-172.6104648329343,-134.07072366095858,2135541708
sq,52.7984203338623,51.729029083252,-183.3169597743737,-133.8588929193225,2135558375
sq,49.8379405975342,49.3167633056641,-193.13642627981176,-137.60742374764357,2135575042
sq,46.8090709686279,47.1718448638916,-201.17177528969324,-144.7118200376905,2135591709
sq,43.5154651641846,44.931681060791,-206.8234551719319,-154.37898724549362,2135608376
sq,40.0285572052002,42.745724105835,-209.80736788693227,-165.61080286892638,2135625043
sq,36.8140167236328,40.0087284088135,-210.11380904324363,-177.21373601650998,2135641710
sq,33.5418418884277,37.3709568023682,-207.9313241859397,-187.8777152072208,2135658377
sq,30.298811340332,34.3974250793457,-203.56631286875637,-196.32766431238576,2135675044
sq,27.0624984741211,31.142561340332,-197.3798460765168,-201.5132254961029,2135691711
sq,23.6290687561035,27.5760139465332,-189.74341893986676,-202.77950257187845,2135708378
sq,20.6724914550781,24.5263771057129,-181.00297140266707,-199.9636811733844,2135725045
sq,17.769026184082,21.2483772277832,-171.44618209502144,-193.38814178006288,2135741712
sq,15.247843170166,17.9995674133301,-161.28276503042545,-183.75434036078693,2135758379
sq,12.6962379455566,15.240389251709,-150.65200702409032,-171.96769464690644,2135775046
sq,10.0663932800293,12.3934730529785,-139.65849484262492,-158.9391077481432,2135791713
sq,7.88719024658204,9.98906173706055,-128.41856873992376,-145.4150267497536,2135808380
sq,5.84046783447266,7.94215621948243,-117.09363986589028,-131.88170947637678,2135825047
sq,3.88882293701172,5.78434219360352,-105.89453909077604,-118.5665476719107,2135841714
sq,2.16717376708984,3.73084869384766,-95.05399758504942,-105.52409296057887,2135858381
sq,0.654959106445313,2.05279388427734,-84.77608288138555,-92.76309083756695,2135875048
sq,-0.6548095703125,0.445127868652344,-75.18140022488879,-80.3606111594359,2135891715
sq,-1.75454864501953,-0.854585266113281,-66.27215071646914,-68.52237413045341,2135908382
sq,-2.7678466796875,-2.01981506347656,-57.93643298706353,-57.5729123312137,2135925049
sq,-3.74485931396484,-2.86741790771484,-49.99610252197522,-47.88360226639108,2135941716
sq,-4.5305419921875,-3.65551910400391,-42.28407679989278,-39.76477561653349,2135958383
sq,-5.23947296142578,-4.3645263671875,-34.72418565939479,-33.35789556966249,2135975050
sq,-5.85189208984375,-4.57432708740234,-27.38378686037086,-28.565147475508667,2135991717
sq,-6.39650115966797,-5.10138092041016,-20.475913413149087,-25.045558856173372,2136008384
sq,-6.79518280029297,-5.39729461669922,-14.302843087772075,-22.286643748970473,2136025051
sq,-7.00856170654297,-5.82769165039062,-9.155264857359356,-19.732633400534997,2136041718
sq,-6.99915466308594,-6.2517333984375,-5.203819461395429,-16.927220961567045,2136058385
sq,-6.91459045410156,-6.62804565429687,-2.4299523633882383,-13.622404490499674,2136075052
sq,-6.87253723144531,-6.89844665527344,-0.630312204341838,-9.818555523392932,2136091719
sq,-6.943505859375,-7.03277740478516,0.5041861217581536,-5.727671847196532,2136108386
sq,-7.05337677001953,-7.070703125,1.27001967596555,-1.6792655063303819,2136125053
sq,-7.17148742675781,-7.03489837646484,1.8480469007926457,1.9954308741713063,2136141720
sq,-7.22820434570312,-6.96107635498047,2.262254522506027,5.065040284426419,2136158387
sq,-7.18095550537109,-6.87143859863281,2.416945488268851,7.461684797304505,2136175054
sq,-7.07142791748047,-6.78167877197266,2.1941032995749286,9.29934831451717,2136191721
sq,-6.94035491943359,-6.63497314453125,1.5693117451266574,10.852414419372378,2136208388
sq,-6.84928283691406,-6.46290740966797,0.7017015038651738,12.505567817134047,2136225055
sq,-6.83280334472656,-6.23615417480469,-0.03135819500740867,14.68660328015875,2136241722
sq,-6.85326538085937,-5.97541961669922,-0.06117093750615199,17.79308872929749,2136258389
sq,-6.89258728027344,-5.74844512939453,1.296341771420021,22.1250423467708,2136275056
sq,-6.88706359863281,-5.47063598632812,4.736580926794461,27.836943311907536,2136291723
sq,-6.79684600830078,-5.03496704101562,10.853622551743943,34.91888911781878,2136308390
sq,-6.58638916015625,-4.34986267089844,20.03321913769582,43.2077627237009,2136325057
sq,-6.26630554199219,-3.65364227294922,32.362590815979566,52.42155504440911,2136341724
sq,-5.78435668945312,-2.86335144042969,47.56917205886524,62.2106159254909,2136358391
sq,-5.09746704101562,-1.98739013671875,65.00226767958206,72.22553263129514,2136375058
sq,-3.98945007324219,-0.960130310058593,83.66943155475725,82.20043060105577,2136391725
sq,-2.67096099853516,0.412443542480469,102.33306008520553,92.03524955213062,2136408392
sq,-1.02140197753906,2.26133575439453,119.66650097145195,101.83987023442054,2136425059
sq,0.733236694335938,3.94383850097656,134.46437453151628,111.89854251406443,2136441726
sq,2.55113830566406,5.75812377929688,145.89098803875922,122.53930326270768,2136458393
sq,4.81016387939453,7.66423645019531,153.72155794507114,133.93971959509102,2136475060
sq,7.61231460571288,9.73254241943359,158.4852472394754,145.94049203190812,2136491727
sq,11.2821754455566,11.809610748291,161.39193508114354,157.95127905770804,2136508394
sq,15.1592124938965,13.7566284179687,163.97610156592324,169.01040191006564,2136525061
sq,15.8206352233887,16.7638877868652,167.54331076644223,178.00197261322498,2136541728
sq,16.8595375061035,19.6993011474609,172.6681091849892,183.95746901540468,2136558395
sq,19.9036888122559,23.3982528686523,179.00825670069065,186.3163421714499,2136575062
sq,23.2630218505859,26.904581451416,185.5180901049093,185.03685741665177,2136591729
sq,27.0948204040527,28.7678092956543,190.90805478415805,180.53583188420723,2136608396
sq,30.7890342712402,31.3710693359375,194.09813053806846,173.53205233340123,2136625063
sq,32.7561553955078,34.2453788757324,194.4915935567963,164.89322997519469,2136641730
sq,36.0533317565918,37.2644485473633,192.03947871478985,155.52850621386727,2136658397
sq,39.3982433319092,40.3567642211914,187.1515494042135,146.30196429765576,2136675064
sq,42.6179088592529,42.2345375061035,180.516686354164,137.9413531387009,2136691731
sq,45.4285129547119,44.0626491546631,172.88684499956568,130.9712617831284,2136708398
sq,47.4526027679443,45.5879272460937,164.89196555840354,125.73629120976067,2136725065
sq,50.0164627075195,47.6142467498779,156.95715805327328,122.54021801265368,2136741732
sq,52.8869480133057,50.2701343536377,149.35109813550875,121.83145088346322,2136758399
sq,55.3766473770142,52.9693912506104,142.32642990754593,124.2941666424553,2136775066
sq,57.5593999862671,54.87043800354,136.27205818778558,130.72806090974115,2136791733
sq,59.8104356765747,56.5386499404907,131.802774753105,141.7099010849439,2136808400
sq,61.9435290336609,59.019236946106,129.73866245193977,157.14956326370816,2136825067
sq,64.3727687835693,61.6490954399109,130.95213181513054,175.91508368251436,2136841734
sq,66.5932978630066,63.6499723434448,136.08944779072274,195.70089763752077,2136858401
sq,68.7199140429497,65.8764664173126,145.2182476221134,213.26595826872173,2136875068
sq,70.8615142345429,68.8017672538757,157.50436609040068,225.0599641306771,2136891735
sq,73.0223728656769,73.6748894691467,171.05203765983626,228.08785387062773,2136908402
sq,75.3772348403931,78.2455505371094,183.02388718060254,220.7157536075087,2136925069
sq,77.3527101516724,81.9429105758667,190.07976032278884,203.10861353594169,2136941736
sq,81.464284324646,85.43151512146,189.0502013204643,177.1360030174219,2136958403
sq,85.1858238220215,88.1170715332031,177.64436436878893,145.79559716716713,2136975070
sq,88.2151607513428,89.9119571685791,154.9611419365008,112.36791070923793,2136991737
sq,90.742399597168,91.5386680603027,121.65905152682427,79.57634864194033,2137008404
sq,92.4857257843018,92.5046104431152,79.78727520524785,48.99122101759689,2137025071
sq,93.3891223907471,93.0688022613525,32.393026570699575,20.821467506045057,2137041738
sq,93.7407077789307,93.2394794464111,-16.94997641251866,-5.876538094103162,2137058405
sq,93.5168346405029,93.1190570831299,-64.58809175532748,-32.65015781003186,2137075072
sq,92.6856121063232,92.6804660797119,-107.17225562899914,-60.92287058182107,2137091739
sq,91.1659606933594,92.0112842559815,-141.9892225211073,-91.29954140056877,2137108406
sq,89.0434059143066,91.0501750946045,-167.24886655053695,-123.11957715711043,2137125073
sq,86.1325172424316,89.5588878631592,-182.30081810145913,-154.41790980616557,2137141740
sq,82.7492984771729,87.5333675384522,-187.7167902390831,-182.33976507254704,2137158407
sq,79.3280509948731,84.4788049697876,-185.1777718161252,-203.9031812654662,2137175074
sq,76.9739588737488,80.5040954589844,-177.16143956985903,-216.8622394513234,2137191741
sq,74.2166565895081,75.8603514671326,-166.50086366574493,-220.36306753914718,2137208408
sq,71.5498236656189,71.5339128017426,-155.9258749569914,-215.15878571457034,2137225075
sq,69.1122390419245,69.5965834498406,-147.68318995427632,-203.3434001955141,2137241742
sq,66.8110944271088,66.484641456604,-143.28843716078714,-187.7694774452402,2137258409
sq,64.6073111534119,63.5654453277588,-143.42515391863813,-171.4027802387398,2137275076
sq,62.2265166282654,61.0680574417114,-147.97973877613697,-156.81079344155705,2137291743
sq,59.8415693283081,58.3374074935913,-156.18286637697543,-145.86317919162207,2137308410
sq,57.3624805450439,56.0577339172363,-166.81766544210228,-139.6286940958707,2137325077
sq,54.6441883087158,53.7271465301514,-178.45445040214554,-138.41102026535728,2137341744
sq,51.761291885376,51.3966144561768,-189.6775309022787,-141.86180889429124,2137358411
sq,48.7477039337158,48.999723815918,-199.27719522692374,-149.12616702340836,2137375078
sq,45.5731071472168,47.0276550292969,-206.38706713017115,-159.0001840798416,2137391745
sq,42.2513565063476,44.4392971038818,-210.5523687991526,-170.0961790765415,2137408412
sq,38.6082118988037,41.4496406555176,-211.71994859237208,-181.0083802806861,2137425079
sq,35.2766212463379,38.4290145874023,-210.15284323042607,-190.45980739533593,2137441746
sq,32.0589202880859,35.6654800415039,-206.2934325083452,-197.41232898859414,2137458413
sq,28.8459915161133,32.5191482543945,-200.6188518518427,-201.13803387196523,2137475080
sq,25.7095512390137,29.2873825073242,-193.53340979274282,-201.25958007223844,2137491747
sq,22.6726402282715,25.9892791748047,-185.3216416654085,-197.7589312167455,2137508414
sq,19.5325149536133,22.6636299133301,-176.15594866710035,-190.94256475318429,2137525081
sq,16.6021789550781,19.5843605041504,-166.13303130681047,-181.3553951182191,2137541748
sq,14.0024971008301,16.8385948181152,-155.31391242319592,-169.6559179248505,2137558415
sq,11.668497467041,14.1233352661133,-143.75808772256096,-156.48608208051274,2137575082
sq,9.31316986083984,11.6372207641602,-131.55600945260764,-142.375836111383,2137591749
sq,7.20106735229493,9.64667739868163,-118.86349532241104,-127.71065572532892,2137608416
sq,5.33536758422852,7.45976104736329,-105.93120694104043,-112.7663963679426,2137625083
sq,3.56265106201172,5.56419219970702,-93.11404333493618,-97.78845087585485,2137641750
sq,1.92447509765625,3.92352142333984,-80.84590489205756,-83.07375091583842,2137658417
sq,0.618116760253907,2.58854522705078,-69.57621814588646,-69.01532416572589,2137675084
sq,-0.311051940917968,1.37244262695312,-59.683026382811676,-56.08820973121885,2137691751
sq,-1.24282989501953,0.536367797851563,-51.39273342430864,-44.780491777674214,2137708418
sq,-2.04384002685547,-0.103303527832031,-44.736483904609145,-35.49325807322816,2137725085
sq,-2.71972808837891,-0.727822875976562,-39.55725430989886,-28.443112759407086,2137741752
sq,-3.40951690673828,-1.07207641601563,-35.56158636208777,-23.599432851627675,2137758419
sq,-4.00680694580078,-1.35304412841797,-32.39638980075007,-20.678176529203125,2137775086
sq,-4.49682006835937,-1.69561920166016,-29.72745595688536,-19.197569031801976,2137791753
sq,-5.03399047851562,-2.051171875,-27.29985843050273,-18.58145197809946,2137808420
sq,-5.53320465087891,-2.39518127441406,-24.96780811777574,-18.280088032946377,2137825087
sq,-5.89154205322266,-2.73262939453125,-22.690985525866466,-17.873407510253706,2137841754
sq,-6.23004302978516,-3.06508026123047,-20.5044368740814,-17.1296729345169,2137858421
sq,-6.54271087646484,-3.39506683349609,-18.47605505943019,-16.00856289198466,2137875088
sq,-6.82397613525391,-3.61016235351562,-16.66603643355439,-14.615762188625931,2137891755
sq,-7.09497985839844,-3.77897796630859,-15.097712178526534,-13.130922722256201,2137908422
sq,-7.37170562744141,-3.94747314453125,-13.743390275647268,-11.736986461505825,2137925089
sq,-7.566796875,-4.0791259765625,-12.525785232309936,-10.573414207775452,2137941756
sq,-7.71727905273437,-4.25800476074219,-11.335082559425341,-9.721492789902435,2137958423
sq,-7.87249908447266,-4.45253143310547,-10.060336591510525,-9.213840112435712,2137975090
sq,-8.06250152587891,-4.70321044921875,-8.628901683470442,-9.050485792980844,2137991757
sq,-8.26208648681641,-4.87385711669922,-7.0409471391221885,-9.205613399834641,2138008424
sq,-8.40849456787109,-4.95942840576172,-5.383781798217345,-9.621041633235551,2138025091
sq,-8.51109466552734,-5.01920471191406,-3.816573224693636,-10.196084620355792,2138041758
sq,-8.57074127197266,-5.19146881103516,-2.527815623912503,-10.7879227738989,2138058425
sq,-8.58179626464844,-5.38402709960937,-1.6794517308024595,-11.22917019723998,2138075092
sq,-8.55526123046875,-5.59880981445312,-1.3575231058566846,-11.357536873828666,2138091759
sq,-8.52978668212891,-5.79087219238281,-1.5471595166592724,-11.04606636035446,2138108426
sq,-8.54190216064453,-5.97232971191406,-2.140213571909195,-10.224242502830945,2138125093
sq,-8.61071166992187,-6.13034973144531,-2.9706786227638404,-8.886356363461758,2138141760
sq,-8.70797119140625,-6.26148376464844,-3.862364720383639,-7.088879948296211,2138158427
sq,-8.80328521728516,-6.35164794921875,-4.670544805822259,-4.94071841663538,2138175094
sq,-8.87785491943359,-6.45594940185547,-5.305310056542278,-2.5892393773425635,2138191761
sq,-8.93598327636719,-6.51429138183594,-5.7347755817865265,-0.20283170981139254,2138208428
sq,-9.00115356445312,-6.52047882080078,-5.974545515155976,2.050009596579435,2138225095
sq,-9.0954833984375,-6.47587738037109,-6.071979137140016,4.023343212638725,2138241762
sq,-9.20757446289062,-6.40388641357422,-6.090642214680292,5.613782957880958,2138258429
sq,-9.31947479248047,-6.29770812988281,-6.096044223951776,6.772376656254663,2138275096
sq,-9.42052612304687,-6.17049560546875,-6.142048785020089,7.504626697462668,2138291763
sq,-9.51196441650391,-6.05392608642578,-6.2587558865873,7.858810394620876,2138308430
sq,-9.59253082275391,-5.95066223144531,-6.444981485889227,7.907099293755936,2138325097
sq,-9.67467651367187,-5.84971771240234,-6.66901975333362,7.726479892266795,2138341764
sq,-9.78013763427734,-5.72918853759766,-6.878988841914187,7.385420416117191,2138358431
sq,-9.90654144287109,-5.58986053466797,-7.019782245675209,6.938176705420258,2138375098
sq,-10.0449691772461,-5.46602783203125,-7.050151635528738,6.424544576761117,2138391765
sq,-10.1688858032227,-5.36571655273437,-6.953234183865403,5.8715785750983684,2138408432
sq,-10.2776809692383,-5.28417358398437,-6.7372698231216654,5.2953855861977095,2138425099
sq,-10.3750396728516,-5.20097503662109,-6.428194317639248,4.703216454205113,2138441766
sq,-10.4619842529297,-5.1228271484375,-6.059274540477348,4.096697327971924,2138458433
sq,-10.544953918457,-5.05719146728516,-5.663233320940188,3.476236896522782,2138475100
