Label,Left_Hip_q,Right_Hip_q,Left_Hip_qd,Right_Hip_qd,SampleTimeFine
sts,-76.7784957885742,-68.7791976928711,-13.5459337234497,41.4256286621093,1843216931
sts,-76.5155563354492,-69.7023620605468,-16.3806858062744,52.8269615173339,1843233598
sts,-76.2176055908203,-70.7878952026367,-21.3098220825195,63.7075805664062,1843250265
sts,-75.8389663696289,-71.9225997924804,-24.6878242492675,70.2511215209961,1843266932
sts,-75.4376220703125,-73.0038375854492,-23.8078536987304,72.1111984252929,1843283599
sts,-75.125373840332,-73.8726119995117,-18.8109798431396,59.5380134582519,1843300266
sts,-74.9384613037109,-74.7184906005859,-12.6647243499755,67.0219497680664,1843316933
sts,-74.7889633178711,-75.4483566284179,-10.0859584808349,65.8188095092773,1843333600
sts,-74.6312942504882,-76.0971755981445,-6.87146997451782,53.3476104736328,1843350267
sts,-74.4345474243164,-76.7437438964843,-4.73578119277954,39.58736038208,1843366934
sts,-74.1929473876953,-77.4396362304687,-3.81001782417297,31.6311016082763,1843383601
sts,-73.9578399658203,-77.8134765625,-1.6396404504776,9.3667516708374,1843400268
sts,-73.7578659057617,-77.6908874511718,-0.999626398086547,-15.448655128479,1843416935
sts,-73.5662460327148,-77.3986511230468,-3.78372812271118,-24.9942283630371,1843433602
sts,-73.3127975463867,-77.2897491455078,-11.8040952682495,-17.9714984893798,1843450269
sts,-72.9574737548828,-77.2378463745117,-20.491153717041,-23.1305408477783,1843466936
sts,-72.4610061645507,-77.0693817138671,-29.4638442993164,-33.7888145446777,1843483603
sts,-71.8632202148437,-76.7224655151367,-34.6643676757812,-40.1562957763671,1843500270
sts,-71.2414093017578,-76.2453308105468,-35.4988441467285,-39.7901802062988,1843516937
sts,-70.6368179321289,-75.6649093627929,-35.7966156005859,-40.7943840026855,1843533604
sts,-69.9688568115234,-75.0569534301757,-37.8033790588378,-39.5339851379394,1843550271
sts,-69.2029418945312,-74.412727355957,-41.8433151245117,-42.6885375976562,1843566938
sts,-68.3855285644531,-73.5688018798828,-46.9912376403808,-59.1767654418945,1843583605
sts,-67.5081787109375,-72.4023056030273,-49.291332244873,-82.2579040527343,1843600272
sts,-66.4216232299804,-71.0217971801757,-62.0012664794921,-94.6115798950195,1843616939
sts,-64.9990921020507,-69.6334228515625,-80.2576828002929,-94.4514083862304,1843633606
sts,-63.3302040100097,-68.1093215942382,-93.2021560668945,-102.862319946289,1843650273
sts,-61.5621147155761,-66.4122467041015,-103.927558898925,-115.766845703125,1843666940
sts,-59.4325103759765,-63.9856224060058,-126.333488464355,-155.423828125,1843683607
sts,-57.3693084716796,-60.9155464172363,-132.116455078125,-179.703796386718,1843700274
sts,-55.3542098999023,-57.752269744873,-112.361083984375,-170.558319091796,1843716941
sts,-53.0596237182617,-54.3626022338867,-133.85627746582,-189.678649902343,1843733608
sts,-50.4867515563964,-51.0997085571289,-153.907318115234,-192.634735107421,1843750275
sts,-47.6166534423828,-47.8958358764648,-164.896987915039,-190.464248657226,1843766942
sts,-44.868293762207,-44.9361686706543,-154.437515258789,-181.338775634765,1843783609
sts,-42.3806915283203,-41.9598159790039,-139.130462646484,-180.026123046875,1843800276
sts,-40.1294479370117,-39.0074310302734,-129.615402221679,-178.214569091796,1843816943
sts,-38.1008529663085,-36.1935310363769,-118.631301879882,-168.970565795898,1843833610
sts,-36.0856781005859,-33.3314704895019,-120.223571777343,-164.798400878906,1843850277
sts,-33.9746055603027,-30.6613178253173,-132.548385620117,-149.412185668945,1843866944
sts,-31.6867504119873,-28.3706970214843,-139.845932006835,-129.361236572265,1843883611
sts,-29.6446437835693,-26.2449321746826,-118.546073913574,-123.791007995605,1843900278
sts,-27.6682338714599,-24.2376194000244,-114.211196899414,-115.988868713378,1843916945
sts,-25.7592067718505,-22.0993957519531,-108.209503173828,-122.089622497558,1843933612
sts,-23.8054809570312,-19.978006362915,-106.90266418457,-123.311294555664,1843950279
sts,-21.9871501922607,-17.6781921386718,-95.4320449829101,-135.595977783203,1843966946
sts,-20.3028812408447,-15.5198373794555,-84.1765365600586,-127.15909576416,1843983613
sts,-18.6393699645996,-13.6178712844848,-80.8980178833007,-111.225730895996,1844000280
sts,-17.0533809661865,-11.7410888671875,-78.6487731933593,-108.603630065917,1844016947
sts,-15.5904331207275,-9.97234058380127,-74.3612365722656,-103.248901367187,1844033614
sts,-14.2435092926025,-8.29999351501464,-67.4213409423828,-99.3646240234375,1844050281
sts,-13.0071334838867,-6.72223854064941,-58.9994735717773,-94.3615341186523,1844066948
sts,-11.8265285491943,-5.22735881805419,-52.9943656921386,-87.5306625366211,1844083615
sts,-10.6561994552612,-3.73568105697631,-51.9926109313964,-85.2821273803711,1844100282
sts,-9.62557697296142,-2.38028717041015,-44.7675094604492,-78.0458831787109,1844116949
sts,-8.60016918182373,-1.16696453094482,-44.9514808654785,-70.3559875488281,1844133616
sts,-7.56403160095214,-0.142599821090698,-44.6534423828125,-58.2444877624511,1844150283
sts,-6.22331476211547,0.920326828956604,-62.266845703125,-58.8687858581543,1844166950
sts,-4.65626192092895,1.93781054019927,-75.8293151855468,-55.5227966308593,1844183617
sts,-2.679363489151,2.7959566116333,-96.5449829101562,-46.9488449096679,1844200284
sts,-0.67309820652008,3.55231690406799,-101.874404907226,-42.1030807495117,1844216951
sts,1.05643832683563,4.2838168144226,-91.0880737304687,-38.4194564819335,1844233618
sts,2.70365452766418,4.90507078170776,-87.6421279907226,-28.8074016571044,1844250285
sts,4.25841999053955,5.58393287658691,-81.8567810058593,-31.9196949005126,1844266952
sts,5.56599569320678,6.22233152389526,-71.1050567626953,-31.0315380096435,1844283619
sts,6.62410545349121,6.71879482269287,-60.4167747497558,-24.35591506958,1844300286
sts,7.41720628738403,7.18465566635131,-45.543716430664,-23.3229656219482,1844316953
sts,7.99795532226562,7.48670101165771,-33.8582229614257,-13.0342321395874,1844333620
sts,8.50068664550781,7.74247789382934,-30.1257286071777,-10.4209985733032,1844350287
sts,8.92603874206543,8.00762939453125,-26.0524597167968,-11.6103782653808,1844366954
sts,9.31402969360351,8.20348358154296,-24.13134765625,-7.10158634185791,1844383621
sts,9.64262104034423,8.37494945526123,-20.352834701538,-5.14141941070556,1844400288
sts,9.8610782623291,8.509765625,-13.5849285125732,-4.61238861083984,1844416955
sts,9.99732780456543,8.61964893341064,-9.2458438873291,-4.373215675354,1844433622
sts,10.058702468872,8.64633750915527,-5.1508297920227,0.0172821730375289,1844450289
sts,10.0651359558105,8.65478610992431,-1.81168866157531,0.279069572687149,1844466956
sts,10.0035009384155,8.61065673828125,2.07391834259033,2.20505499839782,1844483623
sts,9.81159400939941,8.46543598175048,9.68760585784912,7.19569253921508,1844500290
sts,9.53451156616211,8.2185001373291,14.3100261688232,12.7027883529663,1844516957
sts,9.18690872192382,7.89427900314331,17.7690467834472,16.102403640747,1844533624
sts,8.76049900054931,7.45413064956665,22.4555492401123,22.5441589355468,1844550291
sts,8.17961883544921,6.91312932968139,31.9258213043212,28.0897636413574,1844566958
sts,7.41689729690551,6.28696393966674,42.140022277832,33.1232414245605,1844583625
sts,6.5217900276184,5.57083654403686,48.3604698181152,38.7593765258789,1844600292
sts,5.44199085235595,4.74511814117431,57.2963829040527,44.9853897094726,1844616959
sts,4.19036293029785,3.80498242378234,65.6725845336914,50.994831085205,1844633626
sts,2.52677845954895,2.78663229942321,88.4263839721679,55.5509033203125,1844650293
sts,0.238012269139289,1.6612160205841,118.367576599121,61.9407272338867,1844666960
sts,-1.95144033432006,0.460954636335372,110.767173767089,66.3530578613281,1844683627
sts,-4.01450014114379,-0.759587585926055,101.574882507324,68.0341567993164,1844700294
sts,-5.20151805877685,-2.03773427009582,62.3019142150878,71.242202758789,1844716961
sts,-6.26342248916626,-3.40346765518188,57.1768722534179,76.5348281860351,1844733628
sts,-7.43854808807373,-4.87370777130126,64.3610458374023,83.1364593505859,1844750295
sts,-8.54718399047851,-6.36041927337646,60.5479469299316,85.2620773315429,1844766962
sts,-9.65844345092773,-7.89941453933715,62.7057800292968,89.8964614868164,1844783629
sts,-10.8977861404418,-9.52181529998779,71.2627792358398,95.9044113159179,1844800296
sts,-12.1846723556518,-11.2240009307861,73.2706451416015,101.755699157714,1844816963
sts,-13.5433902740478,-12.9341821670532,77.1825561523437,103.366546630859,1844833630
sts,-14.989049911499,-14.6519050598144,83.1126556396484,102.851470947265,1844850297
sts,-16.5221996307373,-16.4214286804199,88.0266647338867,104.079895019531,1844866964
sts,-18.1384658813476,-18.3303127288818,91.1085968017578,112.186935424804,1844883631
sts,-19.8073654174804,-20.2787780761718,93.8390502929687,115.04490661621,1844900298
sts,-21.4972114562988,-22.2460842132568,95.0987091064453,116.188606262207,1844916965
sts,-23.259199142456,-24.2670955657959,98.7528305053711,118.638786315917,1844933632
sts,-25.1052417755126,-26.1943778991699,103.240966796875,113.087081909179,1844950299
sts,-26.8996696472167,-28.1029357910156,99.3698043823242,111.786575317382,1844966966
sts,-28.7879734039306,-30.2461547851562,102.311126708984,125.258171081542,1844983633
sts,-30.8645229339599,-32.3908882141113,111.853973388671,124.199256896972,1845000300
sts,-32.9366722106933,-34.5381164550781,111.964797973632,123.301376342773,1845016967
sts,-35.0271835327148,-36.7985877990722,112.876609802246,130.764785766601,1845033634
sts,-37.086139678955,-39.1328125,106.405281066894,135.320816040039,1845050301
sts,-39.2871513366699,-41.5158805847168,118.180427551269,137.850433349609,1845066968
sts,-41.4166374206543,-43.9743843078613,117.099479675292,142.241241455078,1845083635
sts,-43.5768585205078,-46.4661521911621,112.645706176757,143.068237304687,1845100302
sts,-45.8978729248046,-49.187271118164,118.158515930175,156.752868652343,1845116969
sts,-48.1151504516601,-51.8181190490722,116.737098693847,152.796524047851,1845133636
sts,-50.3180618286132,-54.31103515625,121.588134765625,145.731475830078,1845150303
sts,-52.4716720581054,-56.8473930358886,116.51365661621,146.566253662109,1845166970
sts,-54.4284210205078,-59.2712707519531,104.8486328125,141.487503051757,1845183637
sts,-56.2273063659668,-61.5424652099609,91.2764587402343,133.504302978515,1845200304
sts,-57.9015083312988,-63.5694999694824,88.1352310180664,118.983428955078,1845216971
sts,-59.5356254577636,-65.4287490844726,90.4055480957031,108.431533813476,1845233638
sts,-61.0587768554687,-67.1303558349609,85.025634765625,97.9818344116211,1845250305
sts,-62.3936500549316,-68.6788253784179,74.2559127807617,87.8359069824218,1845266972
sts,-63.5700950622558,-70.0408172607421,63.1057243347168,76.669921875,1845283639
sts,-64.5681762695312,-71.2710342407226,55.3527603149414,69.3708114624023,1845300306
sts,-65.5374603271484,-72.2658081054687,58.0121726989746,58.688606262207,1845316973
sts,-66.4683227539062,-73.2560043334961,58.4718017578125,63.3374862670898,1845333640
sts,-67.3264694213867,-74.2016448974609,53.249885559082,61.2833061218261,1845350307
sts,-68.0788879394531,-75.1365280151367,46.8389511108398,58.9323081970214,1845366974
sts,-68.7216033935546,-76.0235977172851,37.9992446899414,55.9903831481933,1845383641
sts,-69.1705322265625,-76.7962951660156,26.6140117645263,51.1121826171875,1845400308
sts,-69.4993286132812,-77.4192276000976,20.1393814086914,44.2881050109863,1845416975
sts,-69.741096496582,-77.7802963256836,15.2352237701416,30.1073608398437,1845433642
sts,-70.0395202636718,-78.0181198120117,21.2021503448486,20.9958972930908,1845450309
sts,-70.5712738037109,-78.2162857055664,32.8198738098144,16.1627292633056,1845466976
sts,-71.2069549560546,-78.4663467407226,40.3180694580078,17.246145248413,1845483643
sts,-71.7526473999023,-78.6940155029296,31.3537006378173,13.8113689422607,1845500310
sts,-72.000991821289,-78.7881622314453,9.69288730621337,4.32254076004028,1845516977
sts,-72.054817199707,-78.8221893310546,-0.694746553897857,3.80556750297546,1845533644
sts,-72.1004104614257,-78.8096694946289,-1.83286309242248,3.29929494857788,1845550311
sts,-72.103530883789,-78.8199462890625,-7.97723484039306,4.52053499221801,1845566978
sts,-72.0587310791015,-78.8446350097656,-12.4641704559326,-0.163204282522201,1845583645
sts,-71.9268035888671,-78.8423461914062,-13.7319974899292,-5.6396141052246,1845600312
sts,-71.7757415771484,-78.8641052246093,-6.72229623794555,-4.19283962249755,1845616979
sts,-71.6860198974609,-78.8591156005859,1.61491954326629,-2.9473693370819,1845633646
sts,-71.6143188476562,-78.8423461914062,1.39784848690032,1.45574915409088,1845650313
sts,-71.5469970703125,-78.8195114135742,-0.912568569183349,1.48706722259521,1845666980
sts,-71.5496520996093,-78.7021789550781,-2.7866895198822,-7.61948680877685,1845683647
sts,-71.6429595947265,-78.548225402832,-3.82724356651306,-12.3820829391479,1845700314
sts,-71.729133605957,-78.3942718505859,-10.8248138427734,-12.2435426712036,1845716981
sts,-71.631233215332,-78.1958541870117,-25.2936840057373,-15.9525623321533,1845733648
sts,-71.3851089477539,-77.873306274414,-31.5523433685302,-24.9509105682373,1845750315
sts,-71.090347290039,-77.3550109863281,-30.049331665039,-36.9194183349609,1845766982
sts,-70.697769165039,-76.7150344848632,-33.0276527404785,-43.9546012878418,1845783649
sts,-70.1999893188476,-76.0139541625976,-37.2810592651367,-47.1736907958984,1845800316
sts,-69.6246566772461,-75.2641525268554,-37.3496589660644,-50.6009635925293,1845816983
sts,-68.9081573486328,-74.375862121582,-42.7538032531738,-58.0201835632324,1845833650
sts,-68.0605239868164,-73.449478149414,-47.9849281311035,-58.586856842041,1845850317
sts,-67.1216812133789,-72.4713973999023,-52.3911247253418,-61.3492736816406,1845866984
sts,-66.0458297729492,-71.368408203125,-61.0663986206054,-69.2361755371093,1845883651
sts,-64.6579513549804,-70.0824203491211,-77.1932601928711,-83.0089950561523,1845900318
sts,-62.9946098327636,-68.2218475341796,-92.4126358032226,-115.491302490234,1845916985
sts,-61.1574668884277,-66.1072082519531,-99.0671234130859,-123.551170349121,1845933652
sts,-59.2729835510253,-63.9929733276367,-102.091194152832,-119.398033142089,1845950319
sts,-57.4942932128906,-61.5015182495117,-100.220169067382,-146.744247436523,1845966986
sts,-55.2973747253418,-58.365135192871,-126.45319366455,-187.403549194335,1845983653
sts,-53.1815490722656,-54.784683227539,-113.336227416992,-209.478958129882,1846000320
sts,-50.7573280334472,-51.3504600524902,-130.790939331054,-192.826034545898,1846016987
sts,-48.2015266418457,-48.5274658203125,-139.112243652343,-163.827438354492,1846033654
sts,-45.4188346862793,-45.8741455078125,-146.825469970703,-164.171356201171,1846050321
sts,-42.5935592651367,-42.9567413330078,-144.395904541015,-181.479553222656,1846066988
sts,-40.2979469299316,-39.6934585571289,-122.430992126464,-193.585510253906,1846083655
sts,-38.2857513427734,-37.1195526123046,-111.748153686523,-145.143753051757,1846100322
sts,-36.0677108764648,-34.9231529235839,-130.040603637695,-124.557792663574,1846116989
sts,-33.7576293945312,-32.4645843505859,-141.049972534179,-141.827316284179,1846133656
sts,-31.617841720581,-30.0153923034667,-127.467575073242,-143.357925415039,1846150323
sts,-29.6652221679687,-27.7572975158691,-113.609054565429,-132.763900756835,1846166990
sts,-27.6988220214843,-25.7167797088623,-111.583694458007,-121.52082824707,1846183657
sts,-25.7412643432617,-23.606834411621,-109.601249694824,-126.490013122558,1846200324
sts,-23.9524402618408,-21.5863552093505,-100.42642211914,-123.188552856445,1846216991
sts,-22.273530960083,-19.6624240875244,-93.7382278442382,-116.59814453125,1846233658
sts,-20.6745834350585,-17.8295745849609,-89.3552932739257,-113.242095947265,1846250325
sts,-19.1295185089111,-15.9616403579711,-85.0394821166992,-113.57755279541,1846266992
sts,-17.6269397735595,-14.2209863662719,-82.0877227783203,-103.706748962402,1846283659
sts,-16.2782802581787,-12.5012445449829,-72.1252670288086,-102.68569946289,1846300326
sts,-14.9657611846923,-10.7394227981567,-69.7110290527343,-104.689903259277,1846316993
sts,-13.6896333694458,-9.0673542022705,-68.3600997924804,-99.4687423706054,1846333660
sts,-12.4844532012939,-7.65262413024902,-64.1361083984375,-84.5446624755859,1846350327
sts,-11.3529729843139,-6.37551641464233,-58.9369316101074,-75.4434127807617,1846366994
sts,-10.3244724273681,-5.1292815208435,-51.9876556396484,-71.4619140625,1846383661
sts,-9.37550830841064,-3.91528439521789,-45.9694175720214,-68.5597763061523,1846400328
sts,-8.47631072998046,-2.73156547546386,-43.0800552368164,-67.4754028320312,1846416995
sts,-7.4599380493164,-1.5834469795227,-50.8152656555175,-66.6151733398437,1846433662
sts,-6.34521961212158,-0.512769162654876,-56.0586853027343,-62.0489311218261,1846450329
sts,-5.25367021560668,0.552059054374694,-53.9681777954101,-59.8649291992187,1846466996
sts,-4.06629180908203,1.59063220024108,-62.2448043823242,-56.6569786071777,1846483663
sts,-2.50104904174804,2.50778365135192,-76.3992385864257,-49.7796783447265,1846500330
sts,-1.14465546607971,3.2907555103302,-67.0544738769531,-41.1492118835449,1846516997
sts,0.594819486141204,4.05994415283203,-89.811050415039,-39.0802116394043,1846533664
sts,2.1754195690155,4.839852809906,-83.1116790771484,-38.2314643859863,1846550331
sts,3.68770742416381,5.61308002471923,-79.8104248046875,-37.5545120239257,1846566998
sts,4.95276451110839,6.27173614501953,-67.9237594604492,-31.5796127319335,1846583665
sts,6.01990842819213,6.83885383605957,-59.4502258300781,-28.5084705352783,1846600332
sts,6.77620697021484,7.3264775276184,-42.9507484436035,-25.8704490661621,1846616999
sts,7.40314579010009,7.77306604385376,-36.6448249816894,-24.4162902832031,1846633666
sts,7.82999229431152,8.119797706604,-25.8080615997314,-19.2575321197509,1846650333
sts,8.19173145294189,8.35460472106933,-21.9661865234375,-14.1383619308471,1846667000
sts,8.46890640258789,8.49689865112304,-17.318359375,-10.1238346099853,1846683667
sts,8.63696098327636,8.53064537048339,-10.7168617248535,-4.62716484069824,1846700334
sts,8.7160358428955,8.45829772949218,-5.06089067459106,1.05218911170959,1846717001
sts,8.72379398345947,8.30295944213867,-0.701915979385376,5.66907262802124,1846733668
sts,8.62916564941406,8.05974864959716,5.55982208251953,10.9608421325683,1846750335
sts,8.41366100311279,7.74544668197631,13.1012306213378,15.5262022018432,1846767002
sts,8.04384708404541,7.3209547996521,21.5913867950439,22.8677825927734,1846783669
sts,7.50107336044311,6.87718725204467,30.3562602996826,24.1681938171386,1846800336
sts,6.80493211746215,6.36724805831909,37.9251556396484,27.9312076568603,1846817003
sts,5.9661955833435,5.76096200942993,44.7625885009765,33.17822265625,1846833670
sts,4.98978233337402,5.0097279548645,51.0221138000488,41.4635009765625,1846850337
sts,3.83384037017822,4.11213302612304,59.4255142211914,50.1315574645996,1846867004
sts,2.3040120601654,3.13190507888793,77.5988082885742,55.2113151550293,1846883671
sts,0.510113418102264,2.15032839775085,87.8044357299804,55.7703399658203,1846900338
sts,-1.30582928657531,1.13781094551086,88.3179550170898,59.0500946044921,1846917005
sts,-2.86376786231994,0.0261354018002748,74.2603988647461,64.912239074707,1846933672
sts,-4.2478551864624,-1.21747398376464,64.3419952392578,73.1029891967773,1846950339
sts,-5.20449113845825,-2.52592468261718,39.0443038940429,76.8914184570312,1846967006
sts,-6.35133552551269,-3.85779643058776,54.4269065856933,78.8702011108398,1846983673
sts,-7.48235034942626,-5.21513700485229,56.1393775939941,81.2607955932617,1847000340
sts,-8.52686595916748,-6.67607736587524,52.8498649597168,87.9745864868164,1847017007
sts,-9.60007381439209,-8.20874214172363,54.6669273376464,92.9047393798828,1847033674
sts,-10.7875595092773,-9.76840305328369,63.1636581420898,95.2644119262695,1847050341
sts,-12.0655946731567,-11.3307619094848,70.6268005371093,95.7576446533203,1847067008
sts,-13.3850736618042,-12.9757890701293,73.8458557128906,101.574165344238,1847083675
sts,-14.7941265106201,-14.7455568313598,78.4243698120117,108.819732666015,1847100342
sts,-16.288272857666,-16.5329418182373,83.5278244018554,109.254508972167,1847117009
sts,-17.8379459381103,-18.267105102539,87.0392761230468,107.172134399414,1847133676
sts,-19.442678451538,-20.0007514953613,90.0736465454101,107.828742980957,1847150343
sts,-21.096529006958,-21.831184387207,92.2499313354492,112.89794921875,1847167010
sts,-22.7861423492431,-23.7586460113525,92.4133682250976,117.587455749511,1847183677
sts,-24.5211277008056,-25.6593074798584,92.595947265625,114.353080749511,1847200344
sts,-26.2492923736572,-27.564395904541,90.6839752197265,114.50724029541,1847217011
sts,-28.2060451507568,-29.4568195343017,100.279678344726,113.895736694335,1847233678
sts,-29.9708881378173,-31.3923759460449,91.5149917602539,116.052467346191,1847250345
sts,-31.8330459594726,-33.4327735900878,97.4766464233398,121.566902160644,1847267012
sts,-33.8429641723632,-35.4113502502441,105.343635559082,117.56721496582,1847283679
sts,-35.9904136657714,-37.5910034179687,115.373046875,128.706741333007,1847300346
sts,-38.0446701049804,-39.8510131835937,109.017356872558,133.017822265625,1847317013
sts,-40.1524085998535,-42.1103210449218,106.77651977539,132.895187377929,1847333680
sts,-42.4806594848632,-44.42866897583,119.54759979248,136.017196655273,1847350347
sts,-44.9644393920898,-47.0678443908691,128.998809814453,152.235473632812,1847367014
sts,-47.2966766357421,-49.809024810791,116.275802612304,156.34895324707,1847383681
sts,-49.59126663208,-52.5856590270996,115.148849487304,157.397720336914,1847400348
sts,-51.7867965698242,-55.269172668457,109.95890045166,152.208343505859,1847417015
sts,-53.8801574707031,-57.9215126037597,108.749053955078,150.248718261718,1847433682
sts,-55.7987899780273,-60.4688682556152,98.3181610107421,144.93472290039,1847450349
sts,-57.6040344238281,-62.8830986022949,93.6739044189453,138.189849853515,1847467016
sts,-59.3150215148925,-65.1727676391601,93.4735641479492,131.710952758789,1847483683
sts,-60.9895935058593,-67.2435684204101,96.8507919311523,118.638816833496,1847500350
sts,-62.5457916259765,-68.9850082397461,88.2754898071289,99.3955001831054,1847517017
sts,-63.9563903808593,-70.5827713012695,79.8465805053711,90.8733978271484,1847533684
sts,-65.1509628295898,-72.1108703613281,66.0789947509765,87.5901184082031,1847550351
sts,-66.2140655517578,-73.5513763427734,64.8189315795898,83.7337799072265,1847567018
sts,-67.1907806396484,-74.7585067749023,62.8543319702148,71.8148193359375,1847583685
sts,-68.0601959228515,-75.7832260131836,57.7060432434082,65.1354751586914,1847600352
sts,-68.8617324829101,-76.6480255126953,52.9592704772949,57.7561607360839,1847617019
sts,-69.644790649414,-77.3635559082031,46.1998672485351,47.7320213317871,1847633686
sts,-70.4586105346679,-77.9844284057617,50.7034873962402,41.0339813232421,1847650353
sts,-71.2396011352539,-78.4205093383789,51.8210334777832,30.346544265747,1847667020
sts,-71.9320755004882,-78.6741333007812,48.2619857788085,22.1429710388183,1847683687
sts,-72.4781265258789,-78.8310852050781,42.3089141845703,17.4122123718261,1847700354
sts,-72.8509063720703,-78.8775558471679,32.863468170166,9.67574310302734,1847717021
sts,-73.0873794555664,-78.8509521484375,22.3500232696533,2.54197883605957,1847733688
sts,-73.3599472045898,-78.8649826049804,23.817304611206,1.0843585729599,1847750355
sts,-73.6870498657226,-78.8718719482421,22.2360191345214,-2.27088618278503,1847767022
sts,-73.9870986938476,-78.9431915283203,16.2360458374023,2.88003945350646,1847783689
sts,-74.1936721801757,-79.0398406982421,7.96264123916626,3.07718110084533,1847800356
sts,-74.2510910034179,-79.0777511596679,-0.780892848968505,0.967692553997039,1847817023
sts,-74.2491760253906,-79.113166809082,-3.17740893363952,2.9033727645874,1847833690
sts,-74.2733764648437,-79.1704940795898,-1.40433156490325,4.25142002105712,1847850357
sts,-74.3376922607421,-79.3195724487304,-0.329545825719833,9.71270370483398,1847867024
sts,-74.3924026489257,-79.4578475952148,-0.385304719209671,7.45850419998168,1847883691
sts,-74.3911514282226,-79.4808883666992,-5.71678352355957,0.0787142440676689,1847900358
sts,-74.345458984375,-79.4618377685546,-7.37913417816162,-0.902027904987335,1847917025
sts,-74.3014602661132,-79.431655883789,-7.11144399642944,-1.41014552116394,1847933692
sts,-74.2225799560546,-79.3640213012695,-7.86845302581787,-5.08569717407226,1847950359
sts,-74.1231842041015,-79.2495193481445,-9.15369796752929,-9.09512710571289,1847967026
sts,-74.0100784301757,-79.05419921875,-12.3994607925415,-15.6585435867309,1847983693
sts,-73.8840866088867,-78.7950057983398,-13.40487575531,-19.7753982543945,1848000360
sts,-73.7345809936523,-78.4786682128906,-14.0046911239624,-22.6377792358398,1848017027
sts,-73.4378662109375,-78.0616302490234,-24.7531433105468,-28.2616939544677,1848033694
sts,-73.0163040161132,-77.4790496826171,-30.0980243682861,-38.6486358642578,1848050361
sts,-72.3686828613281,-76.703369140625,-45.5543403625488,-49.9099464416503,1848067028
sts,-71.5152816772461,-75.8073043823242,-56.2394828796386,-56.7136039733886,1848083695
sts,-70.5714111328125,-74.9700622558593,-55.4740486145019,-50.8442726135253,1848100362
sts,-69.4599838256836,-74.2355346679687,-62.0217781066894,-41.9076385498046,1848117029
sts,-68.1338729858398,-73.3446578979492,-74.4133071899414,-53.6086120605468,1848133696
sts,-66.7807006835937,-72.2742462158203,-73.2630386352539,-70.8699645996093,1848150363
sts,-65.3435974121093,-70.9826049804687,-78.091552734375,-89.6006546020507,1848167030
sts,-63.7728538513183,-69.3788604736328,-86.9786987304687,-103.256912231445,1848183697
sts,-62.0050392150878,-67.7013931274414,-99.7586288452148,-99.3442993164062,1848200364
sts,-59.9950714111328,-65.9668350219726,-111.187446594238,-100.864852905273,1848217031
sts,-57.6205291748046,-63.7001266479492,-124.700798034667,-130.421447753906,1848233698
sts,-55.2864151000976,-60.9441108703613,-113.6773147583,-155.399291992187,1848250365
sts,-53.127197265625,-57.9236869812011,-114.924125671386,-175.190841674804,1848267032
sts,-51.0235977172851,-54.5803337097168,-115.892616271972,-200.368225097656,1848283699
sts,-48.6880569458007,-51.5694160461425,-134.154800415039,-179.897491455078,1848300366
sts,-46.5722045898437,-48.8081092834472,-111.983352661132,-160.779083251953,1848317033
sts,-44.0721359252929,-46.0685920715332,-136.715194702148,-160.751144409179,1848333700
sts,-41.3899307250976,-43.172077178955,-141.575820922851,-173.067962646484,1848350367
sts,-38.998737335205,-40.3389930725097,-128.382064819335,-173.350692749023,1848367034
sts,-36.8675460815429,-37.5825157165527,-120.684745788574,-168.145797729492,1848383701
sts,-34.7139625549316,-34.7868728637695,-129.971221923828,-164.996643066406,1848400368
sts,-32.6330528259277,-32.1194458007812,-129.94807434082,-153.187805175781,1848417035
sts,-30.6737613677978,-29.8092746734619,-119.254356384277,-132.212188720703,1848433702
sts,-28.7634334564209,-27.7685184478759,-112.07836151123,-115.838737487792,1848450369
sts,-26.7621459960937,-25.687593460083,-111.251754760742,-118.105773925781,1848467036
sts,-24.939619064331,-23.7445011138916,-101.221817016601,-114.180061340332,1848483703
sts,-23.257921218872,-21.5243453979492,-93.3590774536132,-132.604309082031,1848500370
sts,-21.5143985748291,-19.4874286651611,-100.750831604003,-123.581062316894,1848517037
sts,-19.8627529144287,-17.5247154235839,-97.2123413085937,-118.426231384277,1848533704
sts,-18.2972660064697,-15.7036094665527,-92.6440734863281,-108.447120666503,1848550371
sts,-16.7770709991455,-14.0533466339111,-88.2737045288086,-96.1990814208984,1848567038
sts,-15.3557767868042,-12.3831062316894,-77.2996520996093,-96.1199264526367,1848583705
sts,-13.999508857727,-10.6705465316772,-69.4980773925781,-98.07373046875,1848600372
sts,-12.6610116958618,-8.98050880432128,-71.1372299194336,-98.0353393554687,1848617039
sts,-11.3880052566528,-7.42762422561645,-68.550552368164,-90.3649749755859,1848633706
sts,-10.2140216827392,-5.9131212234497,-62.1715583801269,-87.8091049194336,1848650373
sts,-9.12158966064453,-4.50064277648925,-54.7070083618164,-81.7714614868164,1848667040
sts,-8.07083797454834,-3.20855474472045,-50.8078842163085,-74.2897033691406,1848683707
sts,-7.02353382110595,-1.97492957115173,-52.8576622009277,-70.7681884765625,1848700374
sts,-6.02993106842041,-0.784107148647308,-50.8891563415527,-68.3305969238281,1848717041
sts,-5.06838417053222,0.324774116277694,-49.1350059509277,-63.6644401550293,1848733708
sts,-4.14712762832641,1.39085364341735,-45.9704322814941,-61.4325103759765,1848750375
sts,-3.19156527519226,2.37246584892272,-47.8216171264648,-56.5782585144043,1848767042
sts,-2.07878279685974,3.25207018852233,-54.6577529907226,-50.3235931396484,1848783709
sts,-0.549570560455322,4.10231590270996,-73.7102737426757,-47.6187591552734,1848800376
sts,1.09894406795501,4.9515471458435,-80.0944671630859,-46.4098052978515,1848817043
sts,2.44744491577148,5.70099830627441,-65.3948898315429,-41.2751922607421,1848833710
sts,3.74384093284606,6.30626249313354,-63.6803474426269,-33.9718208312988,1848850377
sts,4.99101305007934,6.76478719711303,-63.1449432373046,-25.1699123382568,1848867044
sts,5.86218214035034,7.14844846725463,-45.0407257080078,-20.4893817901611,1848883711
sts,6.61036443710327,7.46269273757934,-40.0473976135253,-16.9355716705322,1848900378
sts,7.2519474029541,7.71318674087524,-35.378433227539,-13.0106725692749,1848917045
sts,7.67994165420532,7.9132342338562,-25.133014678955,-10.1235027313232,1848933712
sts,8.00736618041992,8.03820896148681,-19.9398593902587,-6.15484905242919,1848950379
sts,8.21211147308349,8.11542892456054,-12.9797744750976,-4.19319677352905,1848967046
sts,8.30170440673828,8.11104965209961,-6.90957927703857,0.116147197782993,1848983713
sts,8.27931880950927,8.04020881652832,-0.6874321103096,4.0664324760437,1849000380
sts,8.16104507446289,7.88352060317993,4.4557204246521,8.90295982360839,1849017047
sts,7.90653657913208,7.64782428741455,11.8861169815063,13.5613536834716,1849033714
sts,7.56430387496948,7.34102916717529,16.4954986572265,17.4246654510498,1849050381
sts,7.09241151809692,6.93914461135864,23.2810554504394,22.9647216796875,1849067048
sts,6.52260637283325,6.43331861495971,28.0014953613281,28.9421787261962,1849083715
sts,5.78429365158081,5.85052347183227,36.4845848083496,32.9644012451171,1849100382
sts,4.84248828887939,5.18302917480468,46.3717613220214,37.9867324829101,1849117049
sts,3.73010420799255,4.40980339050293,53.3150405883789,44.4152221679687,1849133716
sts,2.05295610427856,3.5683159828186,82.2493209838867,48.7707405090332,1849150383
sts,0.337946891784667,2.5751769542694,83.595962524414,58.2450790405273,1849167050
sts,-1.38800287246704,1.45786082744598,82.1609268188476,64.8109436035156,1849183717
sts,-2.7885353565216,0.253971010446548,61.6959533691406,70.2665176391601,1849200384
sts,-3.82536315917968,-1.00916445255279,49.2190589904785,74.7685623168945,1849217051
sts,-4.96268892288208,-2.31909155845642,54.1242141723632,78.0105056762695,1849233718
sts,-6.08213710784912,-3.74156475067138,54.7711486816406,84.8384399414062,1849250385
sts,-7.23687934875488,-5.23644065856933,58.4170722961425,89.7697448730468,1849267052
sts,-8.37084102630615,-6.73007535934448,59.7527770996093,90.5758056640625,1849283719
sts,-9.5405158996582,-8.23104953765869,61.7636528015136,91.7158889770507,1849300386
sts,-10.762864112854,-9.77728748321533,64.9432983398437,94.4630126953125,1849317053
sts,-12.0790567398071,-11.4074039459228,71.8647155761718,100.215110778808,1849333720
sts,-13.4501705169677,-13.0447006225585,76.9845962524414,101.251266479492,1849350387
sts,-14.9209852218627,-14.7435426712036,83.811050415039,105.416107177734,1849367054
sts,-16.4437351226806,-16.5148296356201,85.297378540039,108.992286682128,1849383721
sts,-18.0117683410644,-18.3608360290527,87.5314254760742,112.785194396972,1849400388
sts,-19.633975982666,-20.2702293395996,90.978775024414,116.38362121582,1849417055
sts,-21.3127727508544,-22.1459503173828,93.905044555664,114.337036132812,1849433722
sts,-23.1132545471191,-23.9973239898681,99.3755950927734,113.536354064941,1849450389
sts,-24.9328136444091,-25.9519691467285,98.3473281860351,118.980545043945,1849467056
sts,-26.7706470489501,-27.9425067901611,99.3172912597656,121.361549377441,1849483723
sts,-28.6370983123779,-30.0152492523193,99.1760177612304,126.71817779541,1849500390
sts,-30.5382957458496,-32.063003540039,98.5874633789062,123.999992370605,1849517057
sts,-32.4865036010742,-34.1003036499023,101.684684753417,121.295661926269,1849533724
sts,-34.5625686645507,-36.2428970336914,108.654380798339,126.805374145507,1849550391
sts,-36.927146911621,-38.7200775146484,128.025070190429,145.751846313476,1849567058
sts,-39.0506439208984,-41.2009048461914,111.289596557617,146.84521484375,1849583725
sts,-41.1671028137207,-43.7062644958496,108.151153564453,149.719436645507,1849600392
sts,-43.3444633483886,-46.1487197875976,113.240135192871,148.389511108398,1849617059
sts,-45.8023262023925,-48.7607498168945,136.172912597656,156.979690551757,1849633726
sts,-48.2657814025878,-51.5639877319335,139.11033630371,165.212982177734,1849650393
sts,-50.6343116760253,-54.4646530151367,125.247230529785,169.715148925781,1849667060
sts,-52.9998626708984,-57.4066352844238,121.201477050781,171.603866577148,1849683727
sts,-55.2824668884277,-60.2925262451171,115.164146423339,168.988052368164,1849700394
sts,-57.5421867370605,-63.1077461242675,119.104309082031,164.903198242187,1849717061
sts,-59.7200584411621,-65.4975662231445,117.384040832519,138.431030273437,1849733728
sts,-61.6702766418457,-67.5288925170898,103.334800720214,114.913833618164,1849750395
sts,-63.3744010925293,-69.3963623046875,85.1013717651367,105.156593322753,1849767062
sts,-64.9701766967773,-71.0731887817382,82.3292007446289,93.8021469116211,1849783729
sts,-66.3814468383789,-72.5382537841796,72.8117904663086,81.4951934814453,1849800396
sts,-67.5928802490234,-73.8306732177734,63.5993537902832,71.7235260009765,1849817063
sts,-68.6135787963867,-74.9458923339843,58.9444427490234,64.5293960571289,1849833730
sts,-69.5803833007812,-75.9094696044921,62.335277557373,62.8175582885742,1849850397
sts,-70.4920883178711,-76.8831405639648,61.9702796936035,69.9907455444336,1849867064
sts,-71.3195114135742,-77.7847824096679,58.327335357666,67.0878982543945,1849883731
sts,-72.1522216796875,-78.5298385620117,61.4639778137207,57.2189865112304,1849900398
sts,-72.9999389648437,-78.9247741699218,66.4816665649414,33.4735450744628,1849917065
sts,-73.8429183959961,-79.0299835205078,71.1670837402343,21.9018688201904,1849933732
sts,-74.646743774414,-79.2560348510742,63.1614723205566,27.7793369293212,1849950399
sts,-75.3364105224609,-79.5936126708984,55.5564575195312,27.3281631469726,1849967066
sts,-75.7756805419921,-79.8688659667968,27.5888481140136,17.1676216125488,1849983733
sts,-75.9949111938476,-80.0704956054687,5.90447902679443,3.53633642196655,1850000400
sts,-76.0778732299804,-80.1759185791015,-4.46984148025512,-4.69911527633667,1850017067
sts,-76.1456832885742,-80.3506164550781,-5.36036252975463,-0.884154081344604,1850033734
sts,-76.201187133789,-80.4907455444336,-4.94097280502319,-1.19194257259368,1850050401
sts,-76.185188293457,-80.5356521606445,-3.05535221099853,-0.0348205231130123,1850067068
sts,-76.0702056884765,-80.5349426269531,-0.26118579506874,1.35435485839843,1850083735
sts,-75.8513259887695,-80.3963851928711,-2.61908292770385,-4.54017877578735,1850100402
sts,-75.5851135253906,-80.3158264160156,-8.3202953338623,3.81298398971557,1850117069
sts,-75.4169692993164,-80.3406295776367,-5.04865407943725,9.28812980651855,1850133736
sts,-75.3948211669921,-80.301040649414,-3.60913825035095,3.1009361743927,1850150403
sts,-75.4268569946289,-80.2277297973632,-7.33025407791137,-4.54059362411499,1850167070
sts,-75.4698104858398,-80.202163696289,-10.8226928710937,-6.34831619262695,1850183737
sts,-75.5015029907226,-80.201904296875,-13.8010931015014,-7.87055158615112,1850200404
sts,-75.5879135131836,-80.2378768920898,-9.47040557861328,-7.52702331542968,1850217071
sts,-75.5592193603515,-80.2420043945312,-18.9042949676513,-10.515040397644,1850233738
sts,-75.416519165039,-80.1352233886718,-27.8979263305664,-17.547285079956,1850250405
sts,-75.0419921875,-79.9130096435546,-42.7213668823242,-24.1929016113281,1850267072
sts,-74.5672912597656,-79.5622406005859,-43.8819274902343,-31.721450805664,1850283739
sts,-74.0482788085937,-79.0627822875976,-40.9553260803222,-40.0440483093261,1850300406
sts,-73.2603454589843,-78.402099609375,-56.3012580871582,-50.2585678100585,1850317073
sts,-72.2249298095703,-77.5653381347656,-67.3392028808593,-61.2119522094726,1850333740
sts,-70.9911956787109,-76.4908599853515,-75.2442245483398,-74.1542053222656,1850350407
sts,-69.6217346191406,-75.0524215698242,-81.5311660766601,-92.129653930664,1850367074
sts,-68.1127548217773,-73.4311904907226,-93.114875793457,-96.8969573974609,1850383741
sts,-66.5211029052734,-71.6237030029296,-97.010757446289,-103.582977294921,1850400408
sts,-64.7855377197265,-69.5765838623046,-99.4939422607421,-117.658248901367,1850417075
sts,-62.5942726135253,-67.5240783691406,-119.362106323242,-118.527252197265,1850433742
sts,-60.2138977050781,-65.1909866333007,-132.629791259765,-140.255218505859,1850450409
sts,-58.0743865966796,-62.4684791564941,-122.223670959472,-161.818649291992,1850467076
sts,-56.518081665039,-59.4216079711914,-95.4964370727539,-174.627029418945,1850483743
sts,-54.8254890441894,-56.1352958679199,-109.599388122558,-183.1875,1850500410
sts,-52.5562019348144,-52.7706680297851,-136.595840454101,-191.242980957031,1850517077
sts,-49.2826538085937,-50.0319709777832,-180.597259521484,-163.913497924804,1850533744
sts,-46.4040946960449,-47.1395683288574,-146.042877197265,-180.001831054687,1850550411
sts,-43.601016998291,-44.1108665466308,-141.997039794921,-186.355819702148,1850567078
sts,-41.0300979614257,-41.1067276000976,-134.086990356445,-180.663208007812,1850583745
sts,-38.7491950988769,-38.499526977539,-121.00927734375,-155.858245849609,1850600412
sts,-36.4090461730957,-35.9398345947265,-132.489135742187,-152.452438354492,1850617079
sts,-33.9306945800781,-33.4534034729003,-143.236251831054,-146.794723510742,1850633746
sts,-31.5661563873291,-30.809398651123,-131.496017456054,-154.647201538085,1850650413
sts,-29.40966796875,-28.1378688812255,-116.505241394042,-156.314376831054,1850667080
sts,-27.3415088653564,-25.784252166748,-116.044914245605,-139.206451416015,1850683747
sts,-25.2427253723144,-23.7149772644042,-115.156036376953,-124.81916809082,1850700414
sts,-23.3263149261474,-21.6572799682617,-99.6675186157226,-126.599456787109,1850717081
sts,-21.4409275054931,-19.5021877288818,-101.745811462402,-130.820388793945,1850733748
sts,-19.5323333740234,-17.3433189392089,-106.793243408203,-127.218078613281,1850750415
sts,-17.6504898071289,-15.193959236145,-104.519203186035,-124.90754699707,1850767082
sts,-15.8540067672729,-13.0714769363403,-96.8681335449218,-124.161720275878,1850783749
sts,-14.2391700744628,-11.0029916763305,-82.8286056518554,-123.935981750488,1850800416
sts,-12.7454595565795,-9.05881214141845,-75.2052993774414,-116.864486694335,1850817083
sts,-11.3150434494018,-7.30206823348999,-72.0114822387695,-104.12612915039,1850833750
sts,-9.87910270690918,-5.61113834381103,-73.9568557739257,-100.170585632324,1850850417
sts,-8.50538921356201,-3.9803307056427,-71.7967681884765,-95.5704803466796,1850867084
sts,-7.24046516418457,-2.44388508796691,-63.5047302246093,-88.1948318481445,1850883751
sts,-6.09071826934814,-0.949036359786987,-54.6365928649902,-86.8204727172851,1850900418
sts,-4.95145988464355,0.403760701417923,-52.781452178955,-78.6486358642578,1850917085
sts,-3.84966921806335,1.74915492534637,-49.1930694580078,-75.9317855834961,1850933752
sts,-2.71254992485046,3.02493524551391,-52.4687347412109,-69.6021728515625,1850950419
sts,-1.62056410312652,4.16507673263549,-50.3131637573242,-61.7482185363769,1850967086
sts,-0.511036396026611,5.26325225830078,-53.2369766235351,-60.9512901306152,1850983753
sts,0.890105128288269,6.23896312713623,-64.0350723266601,-54.8765869140625,1851000420
sts,2.555419921875,7.14739847183227,-75.5860519409179,-50.7312126159668,1851017087
sts,3.96321272850036,7.94127750396728,-65.2176284790039,-43.0920639038085,1851033754
sts,5.47037553787231,8.56954669952392,-71.7869873046875,-33.8752632141113,1851050421
sts,6.92160511016845,9.09804439544677,-74.3465042114257,-29.103982925415,1851067088
sts,8.06433391571045,9.67643356323242,-60.4580078125,-31.3729743957519,1851083755
sts,9.07663631439209,10.1833000183105,-51.990867614746,-26.4617500305175,1851100422
sts,9.95332527160644,10.5883808135986,-44.2483291625976,-21.0144443511962,1851117089
sts,10.5792150497436,10.8692779541015,-32.3455238342285,-14.2757015228271,1851133756
sts,11.1004362106323,11.0594635009765,-28.7552871704101,-9.23189830780029,1851150423
sts,11.4668941497802,11.1913633346557,-20.8171653747558,-6.08903646469116,1851167090
sts,11.698239326477,11.2146444320678,-13.9578733444213,1.23147797584533,1851183757
sts,11.8084125518798,11.1482810974121,-8.11217021942138,5.23740720748901,1851200424
sts,11.7967624664306,11.0261049270629,-1.45254755020141,7.73923015594482,1851217091
sts,11.6534967422485,10.844892501831,5.27172946929931,11.0743398666381,1851233758
sts,11.4008684158325,10.5644607543945,10.2471370697021,16.5102043151855,1851250425
sts,11.0523090362548,10.2178230285644,14.5410003662109,20.9809837341308,1851267092
sts,10.5976982116699,9.83099555969238,20.2931480407714,23.6204471588134,1851283759
sts,10.0046644210815,9.35529613494873,27.9274082183837,29.0648078918457,1851300426
sts,9.29654121398925,8.79888820648193,33.6157417297363,33.468505859375,1851317093
sts,8.46555042266845,8.13561630249023,38.4890899658203,38.6675300598144,1851333760
sts,7.48244428634643,7.37269067764282,45.2223014831543,43.3282814025878,1851350427
sts,6.34226131439209,6.53135585784912,52.006103515625,47.6511917114257,1851367094
sts,4.64821338653564,5.60556411743164,79.1107864379882,52.5613021850585,1851383761
sts,3.019544839859,4.57669925689697,76.1319961547851,58.3840560913085,1851400428
sts,1.48980748653411,3.47161817550659,69.1512145996093,62.7331581115722,1851417095
sts,0.156447395682334,2.26237607002258,58.9713745117187,68.8704223632812,1851433762
sts,-0.856423258781433,0.896919131278991,47.020637512207,78.2442398071289,1851450429
sts,-1.98311364650726,-0.51539260149002,56.3729209899902,81.2098922729492,1851467096
sts,-3.15444946289062,-1.95227944850921,61.424259185791,83.1627349853515,1851483763
sts,-4.35202980041503,-3.40604567527771,64.0280532836914,84.5720825195312,1851500430
sts,-5.61639261245727,-4.89847040176391,68.8760833740234,86.636489868164,1851517097
sts,-6.91462659835815,-6.45359230041503,74.085578918457,91.6424484252929,1851533764
sts,-8.26171398162841,-8.09449481964111,79.9707946777343,98.0658950805664,1851550431
sts,-9.66621208190918,-9.69481086730957,83.72265625,95.8246078491211,1851567098
sts,-11.1336946487426,-11.3749647140502,86.7661514282226,99.7767105102539,1851583765
sts,-12.624566078186,-13.1477041244506,87.6769409179687,104.865119934082,1851600432
sts,-14.1583547592163,-14.9223327636718,90.1388931274414,106.14224243164,1851617099
sts,-15.737621307373,-16.736177444458,93.4653015136718,108.583908081054,1851633766
sts,-17.4036903381347,-18.6502857208251,97.2858581542968,112.634094238281,1851650433
sts,-19.0715618133544,-20.5022964477539,95.5273818969726,107.748611450195,1851667100
sts,-20.7677402496337,-22.3847770690917,93.9598846435546,109.587516784667,1851683767
sts,-22.5307807922363,-24.2537384033203,96.008056640625,109.858497619628,1851700434
sts,-24.3183727264404,-26.1184062957763,95.7998733520507,111.431816101074,1851717101
sts,-26.0643215179443,-28.0619831085205,92.1047439575195,116.936340332031,1851733768
sts,-28.0773334503173,-30.0643081665039,106.360176086425,119.870803833007,1851750435
sts,-30.1367721557617,-32.2246322631835,111.654479980468,126.608840942382,1851767102
sts,-32.3399124145507,-34.4465293884277,119.382377624511,128.649444580078,1851783769
sts,-34.3524742126464,-36.5594367980957,106.904609680175,125.826690673828,1851800436
sts,-36.4734458923339,-38.8618621826171,112.780006408691,138.805755615234,1851817103
sts,-38.6321411132812,-41.2194709777832,117.303062438964,141.642425537109,1851833770
sts,-40.876609802246,-43.636474609375,124.84674835205,145.563110351562,1851850437
sts,-42.9979133605957,-45.9844894409179,111.71435546875,141.902938842773,1851867104
sts,-45.3044624328613,-48.3258247375488,120.460372924804,141.280807495117,1851883771
sts,-47.6881561279296,-50.7822647094726,126.739021301269,147.346130371093,1851900438
sts,-49.9285354614257,-53.3803215026855,117.031669616699,156.302841186523,1851917105
sts,-52.1552276611328,-55.989086151123,114.725852966308,160.065551757812,1851933772
sts,-54.3782691955566,-58.6289634704589,111.103591918945,162.091476440429,1851950439
sts,-56.4970169067382,-61.2456092834472,100.036018371582,158.128784179687,1851967106
sts,-58.5952033996582,-63.6502532958984,99.0728225708007,144.678771972656,1851983773
sts,-60.671459197998,-65.764045715332,98.2287368774414,124.98583984375,1852000440
sts,-62.4707145690918,-67.5831069946289,87.9994430541992,106.007484436035,1852017107
sts,-64.1237106323242,-69.2951889038086,86.6397399902343,99.6709976196289,1852033774
sts,-65.5680084228515,-70.8150939941406,72.64697265625,86.2796630859375,1852050441
sts,-66.849365234375,-72.0771865844726,65.6190795898437,69.8174057006836,1852067108
sts,-67.9380416870117,-73.1482315063476,62.2398071289062,61.5798645019531,1852083775
sts,-68.9018936157226,-74.126106262207,58.7480087280273,59.1531600952148,1852100442
sts,-69.7257080078125,-75.0803451538086,54.987434387207,58.3143997192382,1852117109
sts,-70.4760971069336,-76.0373229980468,53.0679359436035,61.0188674926757,1852133776
sts,-71.1188812255859,-76.9485626220703,44.0064697265625,59.7785606384277,1852150443
sts,-71.7194290161132,-77.7380447387695,41.8318367004394,52.9953689575195,1852167110
sts,-72.3330459594726,-78.2973022460937,42.6306076049804,41.2632598876953,1852183777
sts,-72.9136047363281,-78.5818557739257,43.7334403991699,27.1662940979003,1852200444
sts,-73.4254760742187,-78.5844421386718,36.1110305786132,11.0279073715209,1852217111
sts,-73.792610168457,-78.6162719726562,25.9783611297607,8.61544704437255,1852233778
sts,-74.1399383544921,-78.7434158325195,22.4417743682861,6.59042453765869,1852250445
sts,-74.4301528930664,-78.8413696289062,13.076771736145,3.75207567214965,1852267112
sts,-74.7025985717773,-78.90234375,9.15177059173584,0.235131189227104,1852283779
sts,-74.9399185180664,-78.9536514282226,3.86373996734619,0.570382237434387,1852300446
sts,-75.0326156616211,-79.0881195068359,-1.19725465774536,6.74564981460571,1852317113
sts,-74.9967041015625,-79.2371826171875,-7.75269317626953,6.57445955276489,1852333780
sts,-74.9467849731445,-79.3424072265625,-5.24727439880371,5.95471286773681,1852350447
sts,-74.905288696289,-79.3885269165039,0.858838975429534,2.77342748641967,1852367114
sts,-74.8777236938476,-79.3637161254882,3.33218169212341,-3.08287262916564,1852383781
sts,-74.8015594482421,-79.4418106079101,1.94983756542205,3.7648434638977,1852400448
sts,-74.6773147583007,-79.5932693481445,-4.98133945465087,7.92183685302734,1852417115
sts,-74.5575790405273,-79.6413879394531,-11.0423707962036,2.74936461448669,1852433782
sts,-74.5429458618164,-79.5607070922851,-9.7504596710205,-5.86355543136596,1852450449
sts,-74.5273742675781,-79.3900833129882,-10.9710025787353,-13.2983541488647,1852467116
sts,-74.3574142456054,-79.2375183105468,-20.3876552581787,-12.9826784133911,1852483783
sts,-74.0690841674804,-79.075698852539,-25.3756103515625,-15.5173940658569,1852500450
sts,-73.7557907104492,-78.817626953125,-28.2543277740478,-21.16597366333,1852517117
sts,-73.490852355957,-78.4597549438476,-24.7990894317626,-26.6180171966552,1852533784
sts,-73.1561050415039,-78.0340805053711,-26.0275344848632,-31.7077465057373,1852550451
sts,-72.6229248046875,-77.5188598632812,-36.4622650146484,-38.518196105957,1852567118
sts,-71.9715042114257,-76.8134613037109,-41.3555793762207,-51.6100769042968,1852583785
sts,-71.2224502563476,-76.0040206909179,-42.3079376220703,-58.1671752929687,1852600452
sts,-70.2987365722656,-75.017105102539,-56.2646446228027,-67.3112411499023,1852617119
sts,-69.1935882568359,-73.8342361450195,-72.3486785888671,-75.3044509887695,1852633786
sts,-67.9495391845703,-72.3458404541015,-81.6745071411132,-87.5620422363281,1852650453
sts,-66.3796310424804,-71.1730880737304,-98.0664825439453,-65.0953979492187,1852667120
sts,-64.3499145507812,-69.5750198364257,-118.480682373046,-101.121940612792,1852683787
sts,-61.6395759582519,-67.7086105346679,-144.738082885742,-118.241188049316,1852700454
sts,-58.8060989379882,-65.5874786376953,-131.641220092773,-130.808212280273,1852717121
sts,-56.3984489440918,-63.3350257873535,-111.194381713867,-136.742782592773,1852733788
sts,-54.5291481018066,-60.5337753295898,-94.8276596069336,-166.439300537109,1852750455
sts,-52.4477272033691,-57.1897888183593,-112.257736206054,-188.991622924804,1852767122
sts,-50.633129119873,-53.9422416687011,-100.814834594726,-175.703567504882,1852783789
sts,-48.6212921142578,-50.5088005065918,-118.113670349121,-185.519882202148,1852800456
sts,-46.422248840332,-47.2589035034179,-133.815048217773,-180.231826782226,1852817123
sts,-43.8992500305175,-44.4015312194824,-149.517105102539,-166.149810791015,1852833790
sts,-40.9637641906738,-41.621109008789,-163.36653137207,-171.16648864746,1852850457
sts,-38.2742538452148,-39.2222137451171,-146.102249145507,-151.079025268554,1852867124
sts,-35.9503555297851,-36.4414443969726,-136.330657958984,-166.994552612304,1852883791
sts,-33.8084526062011,-33.8310470581054,-128.553314208984,-149.883529663085,1852900458
sts,-31.5664882659912,-31.455862045288,-133.56184387207,-136.844787597656,1852917125
sts,-29.3843040466308,-29.1034870147705,-124.413276672363,-138.378387451171,1852933792
sts,-27.3424434661865,-26.948917388916,-110.799278259277,-129.328811645507,1852950459
sts,-25.3825073242187,-24.9205894470214,-105.849563598632,-123.138870239257,1852967126
sts,-23.4178295135498,-22.744737625122,-110.7212600708,-133.696655273437,1852983793
sts,-21.7352638244628,-20.7858371734619,-92.3912658691406,-120.823616027832,1853000460
sts,-19.9744415283203,-18.7634849548339,-98.8317718505859,-122.755767822265,1853017127
sts,-18.2783107757568,-16.5511398315429,-94.1505126953125,-132.468978881835,1853033794
sts,-16.6751327514648,-14.3946065902709,-87.6548767089843,-128.480926513671,1853050461
sts,-15.0878534317016,-12.5050411224365,-84.8934249877929,-113.195930480957,1853067128
sts,-13.5880002975463,-10.6634979248046,-79.4436111450195,-110.358055114746,1853083795
sts,-12.1903934478759,-8.84599876403808,-73.4682235717773,-108.081138610839,1853100462
sts,-10.859354019165,-7.25138568878173,-67.5662231445312,-94.3753051757812,1853117129
sts,-9.52695274353027,-5.65489149093627,-65.6333618164062,-94.5519714355468,1853133796
sts,-8.20943164825439,-3.9587926864624,-63.8108253479003,-99.2478485107421,1853150463
sts,-6.92901897430419,-2.35871028900146,-62.3968467712402,-92.3565292358398,1853167130
sts,-5.68415737152099,-0.931366503238678,-60.2552871704101,-81.5391159057617,1853183797
sts,-4.5234990119934,0.383555650711059,-53.0764999389648,-74.3875961303711,1853200464
sts,-3.42836737632751,1.68820703029632,-47.7210540771484,-72.3443145751953,1853217131
sts,-2.30214548110961,2.96811723709106,-49.4345741271972,-70.4495468139648,1853233798
sts,-1.14863634109497,4.13997173309326,-50.5021591186523,-64.9847946166992,1853250465
sts,0.166503176093101,5.22065496444702,-59.6179428100585,-59.5436973571777,1853267132
sts,1.6844812631607,6.09673547744751,-69.4821624755859,-46.7377471923828,1853283799
sts,3.41126060485839,6.97614240646362,-83.2933502197265,-47.0326881408691,1853300466
sts,5.09282493591308,7.80559682846069,-83.3436279296875,-45.0936470031738,1853317133
sts,6.51960849761962,8.57744312286377,-71.4933624267578,-42.9582939147949,1853333800
sts,7.89607191085815,9.25001716613769,-72.7404098510742,-38.084228515625,1853350467
sts,9.114990234375,9.8024263381958,-64.3856048583984,-31.5050067901611,1853367134
sts,10.0489072799682,10.2622785568237,-50.5601806640625,-26.3496189117431,1853383801
sts,10.9159317016601,10.7026166915893,-47.3892402648925,-25.4648113250732,1853400468
sts,11.6678581237792,11.0467538833618,-41.2054901123046,-20.4326114654541,1853417135
sts,12.2825145721435,11.2829885482788,-32.4903259277343,-13.9094610214233,1853433802
sts,12.7008075714111,11.4417457580566,-23.8225555419921,-9.0316801071167,1853450469
sts,12.967411994934,11.5800333023071,-16.0876102447509,-7.62216234207153,1853467136
sts,13.0868949890136,11.6701250076293,-7.21443271636962,-4.75332117080688,1853483803
sts,13.0302610397338,11.6311464309692,3.15896153450012,2.11173510551452,1853500470
sts,12.8205518722534,11.4767723083496,11.4693975448608,7.99982833862304,1853517137
sts,12.3690671920776,11.1567726135253,24.8089237213134,16.9283332824707,1853533804
sts,11.6658115386962,10.7266845703125,38.7024154663085,22.8927459716796,1853550471
sts,10.7995119094848,10.1540756225585,47.6276245117187,31.5780277252197,1853567138
sts,9.7767219543457,9.43049907684326,56.1104545593261,41.4053077697753,1853583805
sts,8.66795635223388,8.59840488433837,59.9870643615722,46.9020347595214,1853600472
sts,7.46451473236084,7.69290256500244,64.5130233764648,50.878791809082,1853617139
sts,6.16338968276977,6.72839641571044,68.8667297363281,54.0845794677734,1853633806
sts,4.78429079055786,5.72901630401611,71.7749786376953,56.05908203125,1853650473
sts,3.03828406333923,4.66474628448486,91.1250076293945,60.5137214660644,1853667140
sts,1.31411123275756,3.52980828285217,87.6333694458007,64.3217544555664,1853683807
sts,-0.0948910042643547,2.363046169281,68.5103073120117,64.7354202270507,1853700474
sts,-1.27535045146942,1.15329349040985,55.4486465454101,67.025032043457,1853717141
sts,-2.22551584243774,-0.116406738758087,43.2307624816894,71.1369552612304,1853733808
sts,-3.27188730239868,-1.48450279235839,51.3538246154785,78.7504653930664,1853750475
sts,-4.34976482391357,-2.91343331336975,54.0497817993164,83.4745941162109,1853767142
sts,-5.43819999694824,-4.33827447891235,55.8271293640136,83.4394760131836,1853783809
sts,-6.59009504318237,-5.78459358215332,62.7085494995117,84.9341888427734,1853800476
sts,-7.82039785385131,-7.33399105072021,69.6913223266601,91.8341751098632,1853817143
sts,-9.12943935394287,-8.96180629730224,73.1323776245117,96.3296737670898,1853833810
sts,-10.5482282638549,-10.665898323059,77.0305023193359,101.446945190429,1853850477
sts,-12.1002416610717,-12.4271850585937,83.6310806274414,105.468612670898,1853867144
sts,-13.6844024658203,-14.1952714920043,85.4605255126953,106.810508728027,1853883811
sts,-15.314561843872,-15.9734172821044,88.8779144287109,109.077568054199,1853900478
sts,-17.0769481658935,-17.8270053863525,96.846076965332,112.029594421386,1853917145
sts,-18.9318733215332,-19.8234920501709,102.051216125488,117.661743164062,1853933812
sts,-20.9725837707519,-21.8847789764404,109.548309326171,121.052154541015,1853950479
sts,-22.9609031677246,-23.8508129119873,104.760971069335,117.33292388916,1853967146
sts,-24.9051551818847,-25.8307514190673,100.464462280273,119.383460998535,1853983813
sts,-26.9155464172363,-27.8725833892822,101.743469238281,123.280326843261,1854000480
sts,-28.8569583892822,-29.9992637634277,99.6369094848632,126.700485229492,1854017147
sts,-30.9026508331298,-32.3601951599121,103.400451660156,138.266937255859,1854033814
sts,-33.0735206604003,-34.7064743041992,109.895927429199,138.430923461914,1854050481
sts,-35.454792022705,-37.0703735351562,125.38996887207,142.9345703125,1854067148
sts,-37.8525657653808,-39.5105743408203,127.226280212402,153.240112304687,1854083815
sts,-40.3149147033691,-42.1488990783691,133.652374267578,168.285995483398,1854100482
sts,-42.7725143432617,-44.8185195922851,135.013061523437,170.717498779296,1854117149
sts,-45.3269538879394,-47.700885772705,140.883193969726,183.262908935546,1854133816
sts,-48.0896453857421,-50.6664085388183,155.354553222656,188.561096191406,1854150483
sts,-50.8662452697753,-53.7588500976562,156.774032592773,192.917022705078,1854167150
sts,-53.6298446655273,-56.8313789367675,150.77961730957,186.180282592773,1854183817
sts,-56.344627380371,-59.8719482421875,145.477249145507,180.520690917968,1854200484
sts,-58.999153137207,-62.8605804443359,148.601089477539,174.070419311523,1854217151
sts,-61.3877449035644,-65.5642395019531,127.166770935058,154.140151977539,1854233818
sts,-63.538101196289,-67.81494140625,107.779235839843,122.958450317382,1854250485
sts,-65.3056640625,-69.6641769409179,90.3244705200195,96.5979766845703,1854267152
sts,-66.7596740722656,-71.1424484252929,80.7078094482421,76.5905075073242,1854283819
sts,-67.926643371582,-72.3358306884765,64.3770370483398,62.2038993835449,1854300486
sts,-68.8394317626953,-73.3147811889648,46.2329902648925,52.1711463928222,1854317153
sts,-69.6410751342773,-74.3062591552734,43.8597564697265,56.3358726501464,1854333820
sts,-70.3960800170898,-75.5270690917968,44.7700004577636,75.4881439208984,1854350487
sts,-71.1313018798828,-76.8230209350586,59.5933036804199,88.1639862060546,1854367154
sts,-71.8071975708007,-77.8209533691406,67.5237197875976,80.8342208862304,1854383821
sts,-72.4592666625976,-78.2417526245117,64.0497055053711,55.3028373718261,1854400488
sts,-73.0751953125,-78.3929748535156,50.8285865783691,37.8275642395019,1854417155
sts,-73.6703796386718,-78.4847793579101,36.9382934570312,22.8846969604492,1854433822
sts,-74.1376190185546,-78.545166015625,14.6689653396606,8.20304107666015,1854450489
sts,-74.4478530883789,-78.6628723144531,-2.65828013420105,3.92942190170288,1854467156
sts,-74.9567413330078,-78.7318038940429,8.58461284637451,-2.68882989883422,1854483823
sts,-75.5395126342773,-78.8479690551757,16.4228858947753,1.25272762775421,1854500490
sts,-75.9344406127929,-79.1952819824218,13.6126794815063,13.9488115310668,1854517157
sts,-76.136360168457,-79.5093765258789,12.3411388397216,17.6609420776367,1854533824
sts,-76.2671127319336,-79.6714324951171,14.6378669738769,14.3155937194824,1854550491
sts,-76.4235534667968,-79.7993850708007,23.6507663726806,13.437476158142,1854567158
sts,-76.5541458129882,-79.9542160034179,18.3102111816406,16.9238967895507,1854583825
sts,-76.5345382690429,-80.1003189086914,8.71569633483886,16.201581954956,1854600492
sts,-76.4185409545898,-80.2682723999023,-6.71097660064697,14.9257192611694,1854617159
sts,-76.439826965332,-80.3470611572265,-3.09197807312011,4.9150710105896,1854633826
sts,-76.5895919799804,-80.3375930786132,4.43018579483032,-2.26918268203735,1854650493
sts,-76.7452392578125,-80.3502807617187,0.0800206065177917,-2.93475484848022,1854667160
sts,-76.8104248046875,-80.3354949951171,-8.32049560546875,-7.2409553527832,1854683827
sts,-76.8241271972656,-80.2961120605468,-14.5049743652343,-6.99457454681396,1854700494
sts,-76.8394012451171,-80.3220596313476,-15.1655778884887,-2.32523608207702,1854717161
sts,-76.8156509399414,-80.2861938476562,-16.5995941162109,-8.73235893249511,1854733828
sts,-76.7106628417968,-80.1215362548828,-20.2083988189697,-18.2632007598876,1854750495
sts,-76.5023422241211,-79.8171310424804,-21.4896926879882,-26.2518711090087,1854767162
sts,-76.1764450073242,-79.5006256103515,-23.912971496582,-25.2450695037841,1854783829
sts,-75.7399673461914,-79.2623825073242,-29.5526714324951,-21.6815719604492,1854800496
sts,-75.2624740600586,-79.0050277709961,-30.4234790802001,-24.082612991333,1854817163
sts,-74.7721633911132,-78.5875473022461,-30.8445072174072,-35.6396598815918,1854833830
sts,-74.1400756835937,-78.0220565795898,-41.2889060974121,-44.4915084838867,1854850497
sts,-73.432876586914,-77.3384170532226,-46.8942642211914,-54.192699432373,1854867164
sts,-72.4784927368164,-76.4977035522461,-66.5522155761718,-65.1634368896484,1854883831
sts,-71.4128952026367,-75.4163818359375,-72.9744644165039,-77.6338882446289,1854900498
sts,-70.2022857666015,-74.0098571777343,-91.0166015625,-94.9905395507812,1854917165
sts,-68.5879821777343,-72.2821731567382,-124.018424987792,-109.309013366699,1854933832
sts,-66.4427185058593,-70.3467178344726,-146.95979309082,-116.794395446777,1854950499
sts,-63.953800201416,-68.0411758422851,-139.718658447265,-135.393234252929,1854967166
sts,-61.5159645080566,-65.3818054199218,-114.223777770996,-152.614074707031,1854983833
sts,-58.9907722473144,-62.6411399841308,-119.050811767578,-154.540634155273,1855000500
sts,-56.7167701721191,-59.9148902893066,-105.318153381347,-153.74282836914,1855017167
sts,-54.8664436340332,-57.3725852966308,-89.2579269409179,-148.099395751953,1855033834
sts,-53.0394134521484,-54.4776763916015,-87.6893920898437,-173.623489379882,1855050501
sts,-50.9485664367675,-51.3066482543945,-119.21361541748,-188.538192749023,1855067168
sts,-48.608600616455,-48.2448501586914,-140.180740356445,-179.662841796875,1855083835
sts,-46.1828727722168,-45.7295570373535,-132.078491210937,-153.145294189453,1855100502
sts,-43.6565132141113,-43.2310562133789,-129.381088256835,-158.72785949707,1855117169
sts,-41.2919921875,-40.7901649475097,-125.344802856445,-154.836059570312,1855133836
sts,-39.3426895141601,-38.1414108276367,-111.645141601562,-159.097961425781,1855150503
sts,-37.121410369873,-35.3939933776855,-136.594680786132,-161.159194946289,1855167170
sts,-34.9850540161132,-32.9402046203613,-131.98876953125,-149.275756835937,1855183837
sts,-32.7221527099609,-30.8381271362304,-127.228546142578,-131.30093383789,1855200504
sts,-30.5184669494628,-28.636619567871,-116.903732299804,-136.481964111328,1855217171
sts,-28.6247425079345,-26.4236431121826,-100.898536682128,-134.012176513671,1855233838
sts,-26.813081741333,-24.3203563690185,-102.872856140136,-125.251029968261,1855250505
sts,-25.0258064270019,-22.2614421844482,-98.6702194213867,-122.047821044921,1855267172
sts,-23.3119411468505,-20.0639266967773,-90.8479232788086,-131.284301757812,1855283839
sts,-21.5828247070312,-17.9762630462646,-91.4800109863281,-125.802276611328,1855300506
sts,-19.7946224212646,-16.1288013458251,-97.6994857788086,-112.267921447753,1855317173
sts,-18.1739082336425,-14.3115844726562,-90.5756149291992,-109.470252990722,1855333840
sts,-16.7036418914794,-12.5345878601074,-82.3808822631836,-105.306266784667,1855350507
sts,-15.2899236679077,-10.8666296005249,-77.4913787841796,-97.2148132324218,1855367174
sts,-13.9431419372558,-9.15552616119384,-73.1859817504882,-98.9932250976562,1855383841
sts,-12.6961116790771,-7.35193824768066,-66.5302276611328,-103.463943481445,1855400508
sts,-11.5137739181518,-5.59207963943481,-59.6821403503418,-99.8292922973632,1855417175
sts,-10.339503288269,-4.00290441513061,-58.7283287048339,-90.1078720092773,1855433842
sts,-9.11286926269531,-2.57975697517395,-61.0947380065918,-79.5876922607421,1855450509
sts,-7.93673467636108,-1.27913343906402,-58.4836235046386,-70.6921997070312,1855467176
sts,-6.85030555725097,0.00715256901457905,-56.1374588012695,-68.5564498901367,1855483843
sts,-5.77899837493896,1.20336723327636,-56.7927207946777,-62.6002349853515,1855500510
sts,-4.5807237625122,2.39436697959899,-62.3263854980468,-60.768814086914,1855517177
sts,-3.23890471458435,3.4254457950592,-68.7907028198242,-51.3532371520996,1855533844
sts,-1.64187443256378,4.37381553649902,-78.6328887939453,-46.9794387817382,1855550511
sts,0.0588190481066703,5.19466161727905,-85.0162811279296,-39.1065559387207,1855567178
sts,1.71454966068267,5.86690187454223,-87.6038284301757,-30.9573383331298,1855583845
sts,3.21372747421264,6.48117876052856,-79.5712966918945,-30.3200988769531,1855600512
sts,4.44112157821655,7.1488299369812,-64.3928146362304,-34.2203788757324,1855617179
sts,5.63136720657348,7.73056030273437,-62.1076126098632,-29.1969718933105,1855633846
sts,6.78259754180908,8.25381088256836,-58.8087501525878,-28.3738079071044,1855650513
sts,7.69918394088745,8.66178798675537,-46.6223487854003,-23.5016365051269,1855667180
sts,8.49703025817871,8.95340347290039,-42.308982849121,-16.8088264465332,1855683847
sts,9.12940979003906,9.22632217407226,-34.5809593200683,-15.6855897903442,1855700514
sts,9.56637859344482,9.46464729309082,-25.1232776641845,-12.84739112854,1855717181
sts,9.88916969299316,9.63693046569824,-19.4010505676269,-7.12722396850585,1855733848
sts,10.1077966690063,9.71247482299804,-13.0146989822387,-1.11667585372924,1855750515
sts,10.214973449707,9.73150730133056,-6.38658046722412,1.92376375198364,1855767182
sts,10.2317781448364,9.67289924621582,-1.36172485351562,6.12619400024414,1855783849
sts,10.1268911361694,9.56618976593017,5.37207841873168,8.01148033142089,1855800516
sts,9.90827465057373,9.32694721221923,11.0515766143798,14.0946540832519,1855817183
sts,9.57163715362548,8.97690200805664,17.0435047149658,18.9653987884521,1855833850
sts,9.10130882263183,8.51805782318115,24.0988407135009,23.6957530975341,1855850517
sts,8.4750862121582,7.97364807128906,31.990119934082,27.6115932464599,1855867184
sts,7.74675607681274,7.39390850067138,36.8498649597168,29.2799549102783,1855883851
sts,6.88092327117919,6.72241973876953,43.9178314208984,34.5023460388183,1855900518
sts,5.93208360671997,5.96577644348144,47.0321083068847,39.4706802368164,1855917185
sts,4.81378173828125,5.14379262924194,54.1199760437011,42.9896507263183,1855933852
sts,3.17788219451904,4.19580507278442,80.8095397949218,49.6745986938476,1855950519
sts,1.62394046783447,3.10218977928161,76.7349777221679,57.4447517395019,1855967186
sts,0.266149520874023,1.8594799041748,59.2294197082519,65.9482498168945,1855983853
sts,-0.790092706680297,0.625894844532012,57.6953926086425,64.9511947631836,1856000520
sts,-1.9110357761383,-0.640084326267242,58.6514205932617,67.0719757080078,1856017187
sts,-3.1267294883728,-2.0453622341156,63.7373046875,76.076789855957,1856033854
sts,-4.40488195419311,-3.56023335456848,68.6677474975586,84.5502243041992,1856050521
sts,-5.72195482254028,-5.06729412078857,73.3254928588867,86.2533416748046,1856067188
sts,-7.09358596801757,-6.60892820358276,78.9313354492187,89.9240341186523,1856083855
sts,-8.52379417419433,-8.20808982849121,83.9659576416015,94.4037170410156,1856100522
sts,-9.99796199798584,-9.78722190856933,87.9149475097656,95.5017547607421,1856117189
sts,-11.5102100372314,-11.4814271926879,92.2035446166992,104.323837280273,1856133856
sts,-13.0252323150634,-13.2533836364746,93.3737716674804,109.7036819458,1856150523
sts,-14.6344232559204,-15.1638126373291,98.2053985595703,118.615974426269,1856167190
sts,-16.285358428955,-16.9518451690673,100.032814025878,110.992195129394,1856183857
sts,-17.9752578735351,-18.8318462371826,100.99705505371,116.512390136718,1856200524
sts,-19.7993965148925,-20.7642192840576,104.198677062988,117.224380493164,1856217191
sts,-21.5539970397949,-22.6945438385009,97.1668701171875,114.653755187988,1856233858
sts,-23.4145641326904,-24.6604557037353,100.463233947753,115.778907775878,1856250525
sts,-25.5004425048828,-26.6369724273681,108.658073425292,115.871170043945,1856267192
sts,-27.4249324798584,-28.6280689239501,99.0017776489257,116.626899719238,1856283859
sts,-29.3766174316406,-30.6400032043457,99.6739959716796,119.524948120117,1856300526
sts,-31.5810012817382,-32.8371238708496,115.450294494628,130.363677978515,1856317193
sts,-33.8203659057617,-35.0181465148925,118.651359558105,128.782455444335,1856333860
sts,-36.0307655334472,-37.2613525390625,114.286872863769,134.665878295898,1856350527
sts,-38.2830276489257,-39.7326469421386,120.060981750488,147.979904174804,1856367194
sts,-40.6579895019531,-42.3181800842285,136.537826538085,154.420471191406,1856383861
sts,-43.0352783203125,-45.0538597106933,134.653594970703,161.771728515625,1856400528
sts,-45.3839263916015,-47.9145927429199,126.201080322265,169.040603637695,1856417195
sts,-47.6825218200683,-51.009521484375,121.87116241455,184.215606689453,1856433862
sts,-50.0532875061035,-54.1698913574218,127.39981842041,188.791763305664,1856450529
sts,-52.3929138183593,-57.2294387817382,120.451019287109,181.484771728515,1856467196
sts,-54.6527938842773,-60.2302627563476,111.381607055664,176.606735229492,1856483863
sts,-56.8985786437988,-62.987808227539,109.427001953125,160.459503173828,1856500530
sts,-59.0127334594726,-65.5505828857421,98.1237487792968,145.842636108398,1856517197
sts,-61.0071334838867,-67.7385864257812,96.6484146118164,125.160858154296,1856533864
sts,-62.755012512207,-69.6997909545898,81.8759078979492,111.293907165527,1856550531
sts,-64.2060394287109,-71.476448059082,65.6569213867187,99.1182479858398,1856567198
sts,-65.6844787597656,-73.1921844482421,79.9121704101562,95.9937744140625,1856583865
sts,-66.896743774414,-74.8246994018554,65.4980850219726,92.2212295532226,1856600532
sts,-67.9113845825195,-76.3044815063476,61.7394866943359,87.4183731079101,1856617199
sts,-68.7370223999023,-77.5147171020507,49.2873802185058,76.9109725952148,1856633866
sts,-69.3554077148437,-78.560546875,35.5570945739746,70.0812606811523,1856650533
sts,-70.0318298339843,-79.4151535034179,43.438362121582,61.8679695129394,1856667200
sts,-70.6876449584961,-80.2170486450195,43.6296577453613,64.8078384399414,1856683867
sts,-71.3358383178711,-80.8417434692382,46.9253349304199,58.335205078125,1856700534
sts,-71.8677825927734,-81.2364196777343,39.4416694641113,44.8864135742187,1856717201
sts,-72.3390731811523,-81.4529571533203,32.6680831909179,32.0499725341796,1856733868
sts,-72.8175277709961,-81.4288635253906,30.7909812927246,14.4564304351806,1856750535
sts,-73.2140808105468,-81.4984588623046,20.6297130584716,16.7495288848876,1856767202
sts,-73.5511856079101,-81.7020645141601,15.2503080368042,13.0976419448852,1856783869
sts,-73.9111633300781,-81.8603744506836,20.2355232238769,5.62528705596923,1856800536
sts,-74.3056182861328,-81.9132003784179,20.2368297576904,-3.66961812973022,1856817203
sts,-74.7079467773437,-81.9259643554687,16.654104232788,-4.1556692123413,1856833870
sts,-75.0834655761718,-81.9555740356445,18.8153667449951,1.89644277095794,1856850537
sts,-75.4363479614257,-82.0315170288086,20.5826988220214,5.54244947433471,1856867204
sts,-75.6382980346679,-82.1260757446289,17.6043529510498,5.54701423645019,1856883871
sts,-75.7604904174804,-82.1804428100586,12.4001693725585,5.70883464813232,1856900538
sts,-75.8769378662109,-82.1589813232421,10.337586402893,4.24625921249389,1856917205
sts,-75.9741821289062,-82.1237106323242,8.52738666534423,4.96403121948242,1856933872
sts,-76.023696899414,-82.1188354492187,3.68995285034179,2.79535126686096,1856950539
sts,-76.0510864257812,-82.145751953125,-0.333707809448242,1.06288230419158,1856967206
sts,-76.0454788208007,-82.1747894287109,-2.97309708595275,-0.381783038377761,1856983873
sts,-76.0343627929687,-82.1607284545898,-3.24149274826049,-5.2030930519104,1857000540
sts,-76.0172042846679,-82.1089248657226,-1.91804540157318,-9.9674425125122,1857017207
sts,-75.9888534545898,-82.0033798217773,-4.20467042922973,-14.6924438476562,1857033874
sts,-75.8267288208007,-81.8278350830078,-16.1625232696533,-21.2878150939941,1857050541
sts,-75.5308227539062,-81.5527801513671,-27.1987552642822,-28.2185916900634,1857067208
sts,-75.0235061645507,-81.1882019042968,-45.7287673950195,-32.5675582885742,1857083875
sts,-74.2620315551757,-80.7359619140625,-63.7868385314941,-37.2598419189453,1857100542
sts,-73.338638305664,-80.1921005249023,-65.2846984863281,-43.9275360107421,1857117209
sts,-72.3437347412109,-79.4995880126953,-62.6433525085449,-55.9106063842773,1857133876
sts,-71.3157577514648,-78.613655090332,-56.671588897705,-70.3527374267578,1857150543
sts,-70.3186798095703,-77.4754104614257,-58.4785423278808,-86.3303680419921,1857167210
sts,-69.2870483398437,-76.1150207519531,-64.5537185668945,-100.308471679687,1857183877
sts,-67.9555053710937,-74.4549102783203,-78.406867980957,-117.074661254882,1857200544
sts,-66.3115310668945,-72.5298156738281,-102.409210205078,-123.844322204589,1857217211
sts,-64.3357772827148,-70.218635559082,-119.073928833007,-132.095748901367,1857233878
sts,-62.1001358032226,-67.9135055541992,-133.76121520996,-122.747093200683,1857250545
sts,-59.9482765197753,-65.4990234375,-108.620162963867,-131.123016357421,1857267212
sts,-57.6849517822265,-63.1476821899414,-114.59080505371,-130.858245849609,1857283879
sts,-55.6754684448242,-60.861473083496,-105.760559082031,-130.334396362304,1857300546
sts,-53.8460693359375,-58.363224029541,-98.8509445190429,-144.212829589843,1857317213
sts,-51.749038696289,-55.6148986816406,-111.153945922851,-159.898941040039,1857333880
sts,-49.4089431762695,-52.9878120422363,-127.903434753417,-159.278594970703,1857350547
sts,-46.8669509887695,-50.0620880126953,-137.738220214843,-181.502502441406,1857367214
sts,-44.5615615844726,-46.7526168823242,-117.659111022949,-201.976913452148,1857383881
sts,-42.2182540893554,-43.3712577819824,-129.046752929687,-197.991333007812,1857400548
sts,-40.0290336608886,-40.0225372314453,-126.437133789062,-189.373672485351,1857417215
sts,-37.6004066467285,-36.7386093139648,-145.762145996093,-186.15234375,1857433882
sts,-35.2459564208984,-33.92919921875,-139.311172485351,-166.420623779296,1857450549
sts,-33.0364227294921,-31.7104988098144,-130.569122314453,-134.491638183593,1857467216
sts,-30.9451217651367,-29.4922447204589,-120.525817871093,-131.782531738281,1857483883
sts,-28.9152679443359,-27.4851093292236,-116.530647277832,-118.986183166503,1857500550
sts,-26.9394817352294,-25.2276344299316,-111.029930114746,-136.810928344726,1857517217
sts,-24.9733905792236,-23.2018451690673,-108.076362609863,-124.779075622558,1857533884
sts,-23.1575908660888,-21.1651573181152,-97.781982421875,-124.084495544433,1857550551
sts,-21.438793182373,-19.0655784606933,-87.9133987426757,-126.851806640625,1857567218
sts,-19.609483718872,-17.1739997863769,-93.1984329223632,-114.082885742187,1857583885
sts,-17.8740119934082,-15.6149091720581,-90.2575531005859,-93.5705413818359,1857600552
sts,-16.2138977050781,-13.8970375061035,-84.1542053222656,-103.023284912109,1857617219
sts,-14.5276193618774,-12.1123523712158,-82.6429901123046,-104.114723205566,1857633886
sts,-12.8810024261474,-10.4112672805786,-77.021255493164,-96.3974304199218,1857650553
sts,-11.4017829895019,-8.69674682617187,-67.5335845947265,-95.4772644042968,1857667220
sts,-10.0696334838867,-7.10065364837646,-60.747745513916,-87.6297225952148,1857683887
sts,-8.79788017272949,-5.5452184677124,-59.2562294006347,-85.4732284545898,1857700554
sts,-7.61699867248535,-4.00793027877807,-57.8397102355957,-86.3259887695312,1857717221
sts,-6.50176382064819,-2.62175011634826,-58.6232757568359,-80.2707443237304,1857733888
sts,-5.44406843185424,-1.439577460289,-58.5004539489746,-68.6448364257812,1857750555
sts,-4.41747331619262,-0.245796576142311,-57.4019203186035,-68.0395050048828,1857767222
sts,-3.4614884853363,0.955532789230346,-52.0843276977539,-67.3404235839843,1857783889
sts,-2.37143850326538,2.05802392959594,-59.8307037353515,-61.0245170593261,1857800556
sts,-1.05640494823455,3.0744354724884,-70.2610473632812,-55.7334060668945,1857817223
sts,0.423775285482406,4.02201604843139,-78.9396286010742,-51.216194152832,1857833890
sts,2.04935789108276,4.83295106887817,-88.8756637573242,-42.9407806396484,1857850557
sts,3.67545962333679,5.61395740509033,-89.1632080078125,-39.5342864990234,1857867224
sts,5.18425178527832,6.35710287094116,-81.3963546752929,-36.455280303955,1857883891
sts,6.46158790588378,7.08240127563476,-69.261962890625,-35.6123352050781,1857900558
sts,7.55200290679931,7.74464416503906,-59.9222526550293,-32.7949867248535,1857917225
sts,8.48807716369628,8.22718524932861,-52.7631034851074,-23.281810760498,1857933892
sts,9.15285396575927,8.56160926818847,-38.9883460998535,-16.1659412384033,1857950559
sts,9.59510517120361,8.83836269378662,-26.1529235839843,-13.9828424453735,1857967226
sts,9.98408889770507,9.05417346954345,-23.269868850708,-10.7089214324951,1857983893
sts,10.1540737152099,9.17059803009033,-12.999605178833,-5.5710711479187,1858000560
sts,10.1524629592895,9.16437721252441,-3.70732474327087,0.980972826480865,1858017227
sts,10.0312509536743,9.07394695281982,3.37078070640563,5.03068733215332,1858033894
sts,9.79772281646728,8.90039634704589,10.614574432373,9.23624324798584,1858050561
sts,9.44788837432861,8.56318664550781,17.2331466674804,18.7629108428955,1858067228
sts,8.97161483764648,8.13318061828613,24.0338096618652,23.9606761932373,1858083895
sts,8.3424596786499,7.63845062255859,32.2339324951171,26.6700439453125,1858100562
sts,7.56560850143432,7.05658626556396,40.2738456726074,31.769187927246,1858117229
sts,6.62382555007934,6.39645671844482,48.8929328918457,35.901382446289,1858133896
sts,5.5546383857727,5.60689449310302,54.3053436279296,43.25288772583,1858150563
sts,4.30864667892456,4.73939037322998,63.1641082763671,47.1174240112304,1858167230
sts,2.59549617767334,3.76360034942626,87.2248916625976,53.2691345214843,1858183897
sts,1.02420389652252,2.67773222923278,79.2498016357421,59.7328071594238,1858200564
sts,-0.510125398635864,1.51255118846893,72.1385040283203,64.2936401367187,1858217231
sts,-1.52338528633117,0.322659194469451,49.621654510498,66.5467147827148,1858233898
sts,-2.5982277393341,-0.913500547409057,54.2943229675293,70.6877822875976,1858250565
sts,-3.6843683719635,-2.26584601402282,56.4016609191894,78.6255950927734,1858267232
sts,-4.80481338500976,-3.64784526824951,61.0119552612304,81.7706069946289,1858283899
sts,-5.94674348831176,-5.04582786560058,63.7158432006835,83.2214965820312,1858300566
sts,-7.13055610656738,-6.50537204742431,66.0344848632812,86.9582138061523,1858317233
sts,-8.35534572601318,-8.01579856872558,70.0338668823242,91.5580825805664,1858333900
sts,-9.66731452941894,-9.60678195953369,75.9086837768554,97.3092041015625,1858350567
sts,-11.0784482955932,-11.295672416687,81.5805892944336,102.657966613769,1858367234
sts,-12.5804538726806,-13.0001134872436,85.9545745849609,102.40852355957,1858383901
sts,-14.1399641036987,-14.7071647644042,88.6907348632812,103.777610778808,1858400568
sts,-15.7298336029052,-16.5056381225585,90.0235977172851,109.955558776855,1858417235
sts,-17.4417114257812,-18.3177032470703,95.4141387939453,110.400962829589,1858433902
sts,-19.1828250885009,-20.174877166748,94.4349060058593,112.271347045898,1858450569
sts,-20.8806953430175,-22.0182342529296,91.9203109741211,111.244819641113,1858467236
sts,-22.6513385772705,-23.8948822021484,96.3538055419921,114.240379333496,1858483903
sts,-24.442756652832,-25.8208026885986,93.523811340332,118.078620910644,1858500570
sts,-26.2718315124511,-27.8424987792968,92.2879791259765,124.065727233886,1858517237
sts,-28.2276554107666,-29.8882217407226,97.6061401367187,125.640045166015,1858533904
sts,-30.2275867462158,-31.9274463653564,101.244979858398,123.725357055664,1858550571
sts,-32.1808929443359,-34.0854225158691,97.2039642333984,128.866394042968,1858567238
sts,-34.1995620727539,-36.286808013916,101.33031463623,130.66502380371,1858583905
sts,-36.3701553344726,-38.6004180908203,111.624488830566,137.01220703125,1858600572
sts,-38.89697265625,-41.062759399414,138.50032043457,144.072616577148,1858617239
sts,-41.231876373291,-43.702091217041,126.002937316894,154.193222045898,1858633906
sts,-43.6321868896484,-46.3125762939453,124.754074096679,152.059326171875,1858650573
sts,-46.063549041748,-48.9082336425781,129.809204101562,152.35107421875,1858667240
sts,-48.4225692749023,-51.5198173522949,122.270988464355,155.28953552246,1858683907
sts,-50.8889198303222,-54.1248626708984,125.670318603515,155.426559448242,1858700574
sts,-53.3058128356933,-56.654125213623,130.767578125,149.851211547851,1858717241
sts,-55.6328544616699,-59.1741981506347,129.86277770996,147.479339599609,1858733908
sts,-57.7652244567871,-61.6507911682128,107.582077026367,143.85105895996,1858750575
sts,-59.7215690612793,-64.0303192138671,94.9603805541992,136.722900390625,1858767242
sts,-61.4767799377441,-66.0419235229492,93.1147994995117,116.105918884277,1858783909
sts,-63.075828552246,-67.7531433105468,89.3400115966796,99.5361404418945,1858800576
sts,-64.4914932250976,-69.2949295043945,78.4509124755859,88.9512863159179,1858817243
sts,-65.7352447509765,-70.7123031616211,65.1451034545898,81.0347137451171,1858833910
sts,-66.8824844360351,-72.047492980957,60.6684951782226,75.7743759155273,1858850577
sts,-68.0268783569336,-73.1996383666992,66.225227355957,65.5973739624023,1858867244
sts,-69.1111297607421,-74.1247406005859,66.5253829956054,54.0161247253418,1858883911
sts,-70.1067352294921,-74.9007873535156,61.9329681396484,46.9109878540039,1858900578
sts,-70.9076461791992,-75.7060852050781,48.3910331726074,50.2239761352539,1858917245
sts,-71.5181732177734,-76.6356506347656,38.5960731506347,59.9188537597656,1858933912
sts,-72.1422424316406,-77.519775390625,39.2205123901367,62.2432060241699,1858950579
sts,-72.716812133789,-78.1821212768554,38.9585990905761,50.8644828796386,1858967246
sts,-73.2700500488281,-78.536506652832,44.9593086242675,29.2469043731689,1858983913
sts,-73.6096725463867,-78.6862258911132,32.7903137207031,16.8509101867675,1859000580
sts,-73.7392578125,-79.0479965209961,13.0307064056396,29.1457386016845,1859017247
sts,-73.8557662963867,-79.4368896484375,6.07888793945312,25.2368850708007,1859033914
sts,-74.0167770385742,-79.695327758789,5.29820013046264,13.7789545059204,1859050581
sts,-74.1645202636718,-79.9012756347656,2.30903124809265,7.71114110946655,1859067248
sts,-74.2802810668945,-80.1397323608398,3.51715803146362,11.6929035186767,1859083915
sts,-74.3717193603515,-80.4863662719726,3.47718071937561,24.4650897979736,1859100582
sts,-74.4444580078125,-80.7890396118164,1.55756914615631,24.7884578704834,1859117249
sts,-74.5114135742187,-80.8760528564453,2.4366717338562,12.3748550415039,1859133916
sts,-74.6153793334961,-80.8786315917968,6.93295574188232,5.0165114402771,1859150583
sts,-74.7291030883789,-80.9363327026367,8.23674488067627,6.06090211868286,1859167250
sts,-74.847183227539,-81.064712524414,8.50393772125244,9.71013259887695,1859183917
sts,-75.0218429565429,-81.2452545166015,12.725583076477,10.8841161727905,1859200584
sts,-75.1820755004882,-81.3507766723632,9.96479892730712,5.05023050308227,1859217251
sts,-75.2995300292968,-81.3152236938476,4.74336719512939,-6.34298992156982,1859233918
sts,-75.373176574707,-81.2512283325195,-3.46547651290893,-12.0275411605834,1859250585
sts,-75.443862915039,-81.1376113891601,-10.3115530014038,-18.211124420166,1859267252
sts,-75.4472274780273,-81.006362915039,-15.9158487319946,-21.017442703247,1859283919
sts,-75.3188858032226,-80.7735443115234,-25.224531173706,-29.4038734436035,1859300586
sts,-75.1005630493164,-80.3691024780273,-29.0059452056884,-36.2490272521972,1859317253
sts,-74.7561874389648,-79.9278793334961,-34.8862533569335,-33.8344612121582,1859333920
sts,-74.2641830444336,-79.3873901367187,-42.1013832092285,-38.6762657165527,1859350587
sts,-73.7391281127929,-78.6234664916992,-40.0813827514648,-52.6422271728515,1859367254
sts,-73.080581665039,-77.6145706176757,-46.6949348449707,-68.469482421875,1859383921
sts,-72.382942199707,-76.4955978393554,-45.8322296142578,-76.1618423461914,1859400588
sts,-71.5589752197265,-75.33837890625,-55.9776344299316,-80.0007858276367,1859417255
sts,-70.5542526245117,-73.9475784301757,-69.9777679443359,-95.840950012207,1859433922
sts,-69.2923126220703,-72.1035385131836,-92.4484176635742,-116.771125793457,1859450589
sts,-67.6912078857421,-70.1567840576171,-113.11742401123,-113.680618286132,1859467256
sts,-65.6901092529296,-68.2857971191406,-130.865203857421,-108.682235717773,1859483923
sts,-63.2631721496582,-66.3759307861328,-153.14208984375,-116.481491088867,1859500590
sts,-60.8199195861816,-64.3871994018554,-131.634811401367,-123.679847717285,1859517257
sts,-58.0784912109375,-62.1921157836914,-138.480895996093,-137.342956542968,1859533924
sts,-55.7214736938476,-59.774299621582,-112.807067871093,-149.322860717773,1859550591
sts,-53.8052940368652,-57.1956481933593,-92.6728134155273,-154.951263427734,1859567258
sts,-51.775707244873,-54.3574447631835,-106.009765625,-164.187835693359,1859583925
sts,-49.9186706542968,-51.2382431030273,-105.210533142089,-178.618179321289,1859600592
sts,-47.8550376892089,-47.9868698120117,-123.882049560546,-182.187805175781,1859617259
sts,-45.4008331298828,-44.9255867004394,-143.321395874023,-171.96287536621,1859633926
sts,-42.5830421447753,-42.195514678955,-153.379272460937,-162.60774230957,1859650593
sts,-39.7577514648437,-39.6025276184082,-146.64859008789,-159.075149536132,1859667260
sts,-37.3534660339355,-37.239631652832,-126.641693115234,-143.542175292968,1859683927
sts,-35.1528129577636,-35.0008087158203,-121.396247863769,-130.815307617187,1859700594
sts,-32.9277420043945,-32.6115798950195,-124.096969604492,-137.096893310546,1859717261
sts,-30.7867679595947,-30.3644084930419,-112.556526184082,-130.404708862304,1859733928
sts,-28.7566566467285,-28.1551628112792,-100.148384094238,-131.851638793945,1859750595
sts,-26.7871379852294,-26.1133098602294,-95.8662490844726,-123.636749267578,1859767262
sts,-24.6999073028564,-24.1390991210937,-101.645690917968,-120.523086547851,1859783929
sts,-22.6962890625,-22.065050125122,-103.241889953613,-124.719955444335,1859800596
sts,-20.8318691253662,-19.8472328186035,-98.1742477416992,-129.357589721679,1859817263
sts,-19.0564365386962,-17.5404148101806,-89.5370101928711,-133.611007690429,1859833930
sts,-17.1239376068115,-15.2885828018188,-98.7783660888671,-132.145736694335,1859850597
sts,-15.2760219573974,-13.1317148208618,-94.3315353393554,-128.033264160156,1859867264
sts,-13.4831590652465,-11.2151002883911,-94.4212112426757,-114.002662658691,1859883931
sts,-11.7968120574951,-9.36868095397949,-89.9792404174804,-109.764091491699,1859900598
sts,-10.2487897872924,-7.52895021438598,-82.2851486206054,-108.988151550292,1859917265
sts,-8.81030368804931,-5.80931138992309,-75.7439651489257,-101.48673248291,1859933932
sts,-7.46794033050537,-4.13875293731689,-69.4939346313476,-98.1150436401367,1859950599
sts,-6.13935184478759,-2.53928446769714,-68.5491867065429,-92.7196044921875,1859967266
sts,-4.82379388809204,-1.02014112472534,-67.771743774414,-88.4695281982421,1859983933
sts,-3.63565683364868,0.362767964601516,-62.6692123413085,-80.1661605834961,1860000600
sts,-2.56688714027404,1.6896686553955,-55.1050605773925,-76.4948577880859,1860017267
sts,-1.52339124679565,2.88692331314086,-50.5199966430664,-67.31005859375,1860033934
sts,-0.483535289764404,4.02205228805542,-45.6014938354492,-61.1976776123046,1860050601
sts,0.533433496952056,5.06432342529296,-42.2935104370117,-53.7976608276367,1860067268
sts,1.50558960437774,6.04360151290893,-40.5059013366699,-49.2312202453613,1860083935
sts,2.41800880432128,7.01696586608886,-38.7234420776367,-49.8201141357421,1860100602
sts,3.44875860214233,7.96784782409668,-47.1855697631835,-49.7313232421875,1860117269
sts,4.54171752929687,8.775146484375,-50.5341758728027,-42.0604400634765,1860133936
sts,5.77790641784668,9.48767185211181,-57.7094039916992,-37.2083740234375,1860150603
sts,6.93395948410034,10.1011066436767,-55.0268516540527,-32.7362937927246,1860167270
sts,8.02493953704834,10.6774978637695,-55.5279388427734,-31.5592231750488,1860183937
sts,9.01217555999755,11.18368434906,-52.4226760864257,-27.9519271850585,1860200604
sts,10.0330514907836,11.5885734558105,-55.099925994873,-22.6894702911376,1860217271
sts,10.7096376419067,11.9612407684326,-35.5327835083007,-21.2323818206787,1860233938
sts,11.3299942016601,12.2269992828369,-31.8512458801269,-15.6368913650512,1860250605
sts,11.6694059371948,12.3789024353027,-18.6287231445312,-9.64982318878173,1860267272
sts,11.8794155120849,12.3964414596557,-11.969669342041,-2.35635566711425,1860283939
sts,11.9629783630371,12.3958387374877,-5.71444988250732,-0.906202912330627,1860300606
sts,11.8558702468872,12.3042392730712,5.14531660079956,4.71826362609863,1860317273
sts,11.6119470596313,12.050232887268,12.7269172668457,13.7199697494506,1860333940
sts,11.217695236206,11.7080574035644,20.6298160552978,18.5798187255859,1860350607
sts,10.7002258300781,11.2917051315307,26.3715801239013,23.1146984100341,1860367274
sts,10.0242748260498,10.7253074645996,34.1598243713378,31.4299907684326,1860383941
sts,9.18892192840576,10.0554695129394,41.4407386779785,36.0842819213867,1860400608
sts,8.2350959777832,9.30498886108398,46.1940879821777,40.993724822998,1860417275
sts,7.16316032409668,8.50168704986572,51.2665710449218,43.7670822143554,1860433942
sts,5.81219244003295,7.59145975112915,65.8439483642578,49.3814163208007,1860450609
sts,4.4576621055603,6.56525230407714,61.4600105285644,56.1032981872558,1860467276
sts,3.42234945297241,5.40696001052856,48.2217407226562,63.5927772521972,1860483943
sts,2.35377383232116,4.19949769973754,50.2020225524902,67.0532608032226,1860500610
sts,1.21129548549652,2.94159126281738,55.1421737670898,69.647834777832,1860517277
sts,0.0391216240823268,1.60007071495056,56.2743682861328,73.4252471923828,1860533944
sts,-1.23680686950683,0.157655611634254,61.948444366455,78.5593109130859,1860550611
sts,-2.55925607681274,-1.37485241889953,63.7489166259765,83.2260284423828,1860567278
sts,-3.88930749893188,-3.00878453254699,63.0377502441406,90.7272338867187,1860583945
sts,-5.21682071685791,-4.65662574768066,62.5159225463867,92.7508468627929,1860600612
sts,-6.65506601333618,-6.26051235198974,71.4508895874023,91.4319763183593,1860617279
sts,-8.09899044036865,-7.87516403198242,75.8274917602539,94.2570648193359,1860633946
sts,-9.52312755584716,-9.5519380569458,80.3264389038086,100.854133605957,1860650613
sts,-11.0076456069946,-11.2278442382812,86.7562408447265,102.801177978515,1860667280
sts,-12.5626392364501,-12.931505203247,91.8103408813476,104.322326660156,1860683947
sts,-14.1342029571533,-14.6386985778808,93.0905380249023,104.432250976562,1860700614
sts,-15.6935138702392,-16.4373512268066,93.7080383300781,110.291915893554,1860717281
sts,-17.257173538208,-18.3212776184082,92.1500167846679,114.524116516113,1860733948
sts,-18.8532352447509,-20.1956806182861,91.9561691284179,115.007133483886,1860750615
sts,-20.5081939697265,-22.0801620483398,93.3499679565429,114.10717010498,1860767282
sts,-22.2676830291748,-24.0508041381835,99.2225265502929,116.202804565429,1860783949
sts,-24.0395145416259,-26.0053615570068,97.1491241455078,116.68618774414,1860800616
sts,-25.8798370361328,-27.8770751953125,99.9417266845703,114.847679138183,1860817283
sts,-27.7287845611572,-29.7896213531494,101.659561157226,118.44287109375,1860833950
sts,-29.7313861846923,-31.7528839111328,110.899627685546,122.325851440429,1860850617
sts,-31.7763805389404,-33.7150382995605,116.109252929687,122.330673217773,1860867284
sts,-33.8034439086914,-35.8043975830078,111.36782836914,128.744934082031,1860883951
sts,-35.8688888549804,-38.0647621154785,111.51284790039,136.854141235351,1860900618
sts,-38.0439338684082,-40.24068069458,116.853981018066,131.138534545898,1860917285
sts,-40.192626953125,-42.5476379394531,113.521881103515,138.325942993164,1860933952
sts,-42.435447692871,-45.0788192749023,123.716896057128,150.592178344726,1860950619
sts,-44.7519187927246,-47.6002502441406,127.516967773437,149.44334411621,1860967286
sts,-47.044677734375,-50.2014999389648,122.033638000488,154.820556640625,1860983953
sts,-49.5317573547363,-52.7685852050781,135.046646118164,153.154647827148,1861000620
sts,-51.9109802246093,-55.3818778991699,133.521102905273,156.123611450195,1861017287
sts,-54.1640357971191,-58.0300598144531,123.964012145996,157.21662902832,1861033954
sts,-56.2827606201171,-60.6213455200195,113.823776245117,151.785552978515,1861050621
sts,-58.180980682373,-62.8839073181152,102.772804260253,132.402023315429,1861067288
sts,-60.0076255798339,-65.0809631347656,99.8738174438476,127.929161071777,1861083955
sts,-61.7526016235351,-67.0518035888671,93.5824584960937,113.312522888183,1861100622
sts,-63.439167022705,-68.9107360839843,89.5111694335937,106.305381774902,1861117289
sts,-65.0241775512695,-70.676155090332,87.4847640991211,100.739532470703,1861133956
sts,-66.4756622314453,-72.2524948120117,82.242561340332,90.9086685180664,1861150623
sts,-67.7360916137695,-73.6337280273437,72.6816711425781,79.3498153686523,1861167290
sts,-68.8511886596679,-74.9759292602539,66.1756515502929,77.4639358520507,1861183957
sts,-69.8427505493164,-76.2798919677734,60.7259712219238,75.4842224121093,1861200624
sts,-70.77685546875,-77.4654769897461,55.2170715332031,70.5069122314453,1861217291
sts,-71.6344451904296,-78.5050506591796,49.0312004089355,67.0726547241211,1861233958
sts,-72.4357528686523,-79.303237915039,44.3724136352539,59.9178504943847,1861250625
sts,-73.1787033081054,-79.8933181762695,44.8339805603027,53.5777206420898,1861267292
sts,-73.8359375,-80.1786117553711,46.3343925476074,37.8545989990234,1861283959
sts,-74.2863845825195,-80.1983947753906,36.1812591552734,18.2094497680664,1861300626
sts,-74.5722961425781,-80.1751556396484,21.1157188415527,8.8162784576416,1861317293
sts,-74.8516693115234,-80.2986831665039,14.8836603164672,11.6627292633056,1861333960
sts,-75.1211624145507,-80.5095748901367,9.84594917297363,10.4984531402587,1861350627
sts,-75.3623657226562,-80.6557388305664,9.97430515289306,5.06955528259277,1861367294
sts,-75.4767684936523,-80.7280349731445,4.06301546096801,3.03119277954101,1861383961
sts,-75.5241088867187,-80.7341842651367,1.01701021194458,1.82722949981689,1861400628
sts,-75.5655670166015,-80.6565856933593,3.21939444541931,-2.43884181976318,1861417295
sts,-75.6613159179687,-80.6744308471679,5.01028680801391,3.95041918754577,1861433962
sts,-75.7977447509765,-80.8545608520507,8.01980590820312,12.1985502243042,1861450629
sts,-75.9209365844726,-81.0512619018554,6.19721794128418,13.7819137573242,1861467296
sts,-75.9907836914062,-81.1656036376953,0.535427153110504,9.04369926452636,1861483963
sts,-76.0372695922851,-81.2144317626953,-1.84201455116271,6.12263298034668,1861500630
sts,-76.070816040039,-81.2240982055664,-2.36697220802307,3.64416885375976,1861517297
sts,-76.1068420410156,-81.2065277099609,-3.81827807426452,0.459434241056442,1861533964
sts,-76.1560668945312,-81.2439346313476,-3.55116367340087,1.88845634460449,1861550631
sts,-76.2398986816406,-81.3041305541992,-1.26453804969787,0.445193588733673,1861567298
sts,-76.3168029785156,-81.3127822875976,-3.16867589950561,-2.08691000938415,1861583965
sts,-76.3538970947265,-81.2323150634765,-5.2059097290039,-7.7098593711853,1861600632
sts,-76.2934646606445,-81.0360870361328,-13.1971578598022,-16.0629940032959,1861617299
sts,-76.1805191040039,-80.8285751342773,-13.4945592880249,-18.0061168670654,1861633966
sts,-76.0113220214843,-80.6189651489257,-17.9390144348144,-20.2789077758789,1861650633
sts,-75.7737426757812,-80.3478775024414,-23.3373489379882,-25.611042022705,1861667300
sts,-75.4237442016601,-80.005859375,-32.0321197509765,-29.3872375488281,1861683967
sts,-74.9236297607421,-79.6056442260742,-40.3578872680664,-31.5599040985107,1861700634
sts,-74.3300552368164,-79.1537322998046,-42.6084213256835,-35.3459777832031,1861717301
sts,-73.6199035644531,-78.5452346801757,-48.4851379394531,-46.8167266845703,1861733968
sts,-72.7353439331054,-77.7462158203125,-59.0775451660156,-58.6705055236816,1861750635
sts,-71.5957260131836,-76.7648620605468,-80.8363494873046,-69.9002914428711,1861767302
sts,-70.3100891113281,-75.6305236816406,-95.5750045776367,-80.974365234375,1861783969
sts,-68.8298873901367,-74.3214950561523,-108.571113586425,-92.7588653564453,1861800636
sts,-67.0609359741211,-72.6925964355468,-113.235725402832,-109.094108581542,1861817303
sts,-64.965347290039,-70.6563644409179,-113.732185363769,-128.338104248046,1861833970
sts,-62.6660842895507,-68.3484802246093,-118.510696411132,-138.778564453125,1861850637
sts,-60.3218879699707,-65.9369964599609,-123.721855163574,-139.557327270507,1861867304
sts,-58.3314208984375,-63.2770118713378,-106.717315673828,-148.939544677734,1861883971
sts,-56.6300621032714,-60.3384056091308,-101.550407409667,-156.367355346679,1861900638
sts,-54.8573532104492,-57.6967124938964,-108.405670166015,-143.496475219726,1861917305
sts,-52.8029823303222,-54.930850982666,-123.686492919921,-162.517715454101,1861933972
sts,-50.9317436218261,-52.275577545166,-101.863960266113,-158.42788696289,1861950639
sts,-49.1156845092773,-49.6740188598632,-98.3925399780273,-154.928634643554,1861967306
sts,-47.0440788269043,-46.7235717773437,-112.5263671875,-171.111724853515,1861983973
sts,-44.5568542480468,-44.1154632568359,-132.14305114746,-150.394241333007,1862000640
sts,-41.9845237731933,-41.5675354003906,-137.862167358398,-148.480163574218,1862017307
sts,-39.8958015441894,-39.0646171569824,-118.510833740234,-147.347381591796,1862033974
sts,-37.9099998474121,-36.7962036132812,-122.379203796386,-133.805252075195,1862050641
sts,-35.7136802673339,-34.5177268981933,-128.206665039062,-134.642211914062,1862067308
sts,-33.4596214294433,-32.4490509033203,-125.4136428833,-120.340530395507,1862083975
sts,-31.413911819458,-30.6698246002197,-109.480186462402,-104.040977478027,1862100642
sts,-29.3936195373535,-28.5178604125976,-104.532882690429,-125.168556213378,1862117309
sts,-27.3702812194824,-26.2819919586181,-108.730438232421,-131.94236755371,1862133976
sts,-25.5206222534179,-24.2491855621337,-100.279632568359,-121.589775085449,1862150643
sts,-23.7170829772949,-22.3308792114257,-100.048843383789,-114.959655761718,1862167310
sts,-21.9043750762939,-20.4326000213623,-100.413650512695,-116.161575317382,1862183977
sts,-20.1995010375976,-18.5278129577636,-91.2461395263671,-116.520950317382,1862200644
sts,-18.6375617980957,-16.5600662231445,-80.8879089355468,-120.950714111328,1862217311
sts,-17.0416221618652,-14.6751909255981,-82.3601684570312,-115.671348571777,1862233978
sts,-15.3246803283691,-13.0346975326538,-87.4212493896484,-100.930610656738,1862250645
sts,-13.7536125183105,-11.3821039199829,-83.407958984375,-101.094818115234,1862267312
sts,-12.3321456909179,-9.58840465545654,-76.4791488647461,-107.95816040039,1862283979
sts,-11.0040264129638,-7.85401058197021,-68.9699935913086,-103.601615905761,1862300646
sts,-9.69138050079345,-6.18242645263671,-66.0200271606445,-99.9365234375,1862317313
sts,-8.46210575103759,-4.64968967437744,-60.5411872863769,-90.4157409667968,1862333980
sts,-7.27456712722778,-3.22919917106628,-58.4146347045898,-82.4835968017578,1862350647
sts,-6.13567113876342,-1.85168671607971,-55.0853462219238,-79.3776931762695,1862367314
sts,-5.0614948272705,-0.534829318523407,-51.5535011291503,-75.136734008789,1862383981
sts,-4.05081033706665,0.734978437423706,-47.0854873657226,-71.8803100585937,1862400648
sts,-3.1277368068695,1.98835003376007,-41.6870040893554,-69.9505462646484,1862417315
sts,-2.22029876708984,3.11680030822753,-40.0454635620117,-62.0864677429199,1862433982
sts,-1.3836064338684,4.08622550964355,-36.0221099853515,-53.0968284606933,1862450649
sts,-0.682123184204101,4.9290862083435,-29.6637306213378,-45.3189735412597,1862467316
sts,-0.159119710326194,5.65332460403442,-19.4739875793457,-37.5012474060058,1862483983
sts,0.191744267940521,6.32821655273437,-12.2869138717651,-34.8222465515136,1862500650
sts,0.554966688156127,6.90960264205932,-10.1289978027343,-30.2981491088867,1862517317
sts,1.02506983280181,7.42838764190673,-14.6220474243164,-26.9854946136474,1862533984
sts,1.65687263011932,7.91431856155395,-23.9065952301025,-24.2139987945556,1862550651
sts,2.36606526374816,8.31843185424804,-28.943655014038,-19.5569324493408,1862567318
sts,2.95163130760192,8.51504325866699,-23.8900279998779,-9.24837970733642,1862583985
sts,3.33873224258422,8.54321861267089,-15.4263448715209,-0.971092641353607,1862600652
sts,3.57565116882324,8.45823192596435,-9.5688247680664,4.51482152938842,1862617319
sts,3.6632809638977,8.34160804748535,-3.52304100990295,5.38625574111938,1862633986
sts,3.62354087829589,8.14361667633056,1.49079430103302,8.99305248260498,1862650653
sts,3.47780132293701,7.80096912384033,5.51857709884643,16.8954620361328,1862667320
sts,3.18772959709167,7.38786077499389,12.2260751724243,20.4274234771728,1862683987
sts,2.74557256698608,6.81253385543823,17.8439750671386,30.450475692749,1862700654
sts,2.09499788284301,6.15497779846191,27.7453918457031,36.2793655395507,1862717321
sts,1.28924131393432,5.42369842529296,33.359130859375,41.6331710815429,1862733988
sts,0.493895351886749,4.6671724319458,31.9670009613037,43.479248046875,1862750655
sts,-0.198288485407829,3.79755449295043,27.0710830688476,50.0872917175293,1862767322
sts,-0.812448322772979,2.83545851707458,21.3253898620605,55.6488571166992,1862783989
sts,-1.59791219234466,1.80846488475799,31.4178161621093,58.9647026062011,1862800656
sts,-2.48220300674438,0.663959741592407,36.678726196289,65.2359237670898,1862817323
sts,-3.44891309738159,-0.580022096633911,41.5554809570312,71.5231323242187,1862833990
sts,-4.50334739685058,-1.90768063068389,47.2093925476074,77.2408981323242,1862850657
sts,-5.63733577728271,-3.29172730445861,52.6707572937011,81.3257980346679,1862867324
sts,-6.77729988098144,-4.78143644332885,55.0380935668945,88.8234252929687,1862883991
sts,-7.91171741485595,-6.246835231781,56.4702949523925,89.0057296752929,1862900658
sts,-9.0810260772705,-7.75765466690063,61.1584968566894,92.6982650756836,1862917325
sts,-10.2928791046142,-9.25846290588378,66.0531311035156,92.5511169433593,1862933992
sts,-11.5518360137939,-10.757285118103,70.1130447387695,93.6002655029296,1862950659
sts,-12.8526039123535,-12.3148708343505,73.1207122802734,98.5102462768554,1862967326
sts,-14.2133569717407,-13.9811334609985,75.966323852539,105.392295837402,1862983993
sts,-15.6440296173095,-15.6640739440917,81.7593612670898,105.778404235839,1863000660
sts,-17.0836753845214,-17.4222240447998,84.2534790039062,108.349090576171,1863017327
sts,-18.5933685302734,-19.2378845214843,87.2165298461914,110.7593460083,1863033994
sts,-20.2173061370849,-21.116189956665,92.705207824707,113.429359436035,1863050661
sts,-21.8670997619628,-22.9753952026367,91.6524124145507,111.901176452636,1863067328
sts,-23.5285549163818,-24.8308773040771,89.1241302490234,111.007164001464,1863083995
sts,-25.2450542449951,-26.603416442871,92.0738983154296,107.245414733886,1863100662
sts,-27.0939559936523,-28.524486541748,98.843879699707,115.637344360351,1863117329
sts,-29.127269744873,-30.4494590759277,108.091003417968,116.053726196289,1863133996
sts,-30.9805126190185,-32.3091087341308,97.6849975585937,112.041381835937,1863150663
sts,-32.9312400817871,-34.2911148071289,99.6603469848632,117.504104614257,1863167330
sts,-34.9851531982421,-36.2501411437988,106.758499145507,116.360084533691,1863183997
sts,-37.0932159423828,-38.4130249023437,112.990493774414,129.072387695312,1863200664
sts,-39.2549972534179,-40.672492980957,115.236183166503,135.318664550781,1863217331
sts,-41.2810249328613,-42.955509185791,109.077995300292,137.749252319335,1863233998
sts,-43.417625427246,-45.4537353515625,120.143005371093,152.265914916992,1863250665
sts,-45.5664253234863,-48.0205535888671,123.875549316406,157.658981323242,1863267332
sts,-47.7385635375976,-50.4642715454101,123.554122924804,151.558517456054,1863283999
sts,-49.8831596374511,-52.9263000488281,122.956344604492,152.801300048828,1863300666
sts,-51.954360961914,-55.5755805969238,113.785820007324,160.843292236328,1863317333
sts,-54.1460533142089,-58.3254051208496,124.335166931152,162.013214111328,1863334000
sts,-56.3552780151367,-61.1109924316406,119.202125549316,160.74560546875,1863350667
sts,-58.5824661254882,-63.9473533630371,121.676628112792,161.068557739257,1863367334
sts,-60.6452980041503,-66.5645904541015,112.815475463867,145.815170288085,1863384001
sts,-62.5045509338378,-68.9416732788086,100.015029907226,132.490081787109,1863400668
sts,-64.0654907226562,-70.8857421875,82.3990020751953,108.184143066406,1863417335
sts,-65.342056274414,-72.3354034423828,70.4098510742187,80.2594833374023,1863434002
sts,-66.5380630493164,-73.6190414428711,63.61030960083,74.7549972534179,1863450669
sts,-67.5485382080078,-74.6819458007812,45.0878677368164,62.4278335571289,1863467336
sts,-68.4635238647461,-75.7528686523437,40.4346771240234,61.4244842529296,1863484003
sts,-69.3375930786132,-76.9176712036132,42.3653297424316,67.3922882080078,1863500670
sts,-70.0940017700195,-78.2849807739257,40.8391151428222,88.0230560302734,1863517337
sts,-70.7925186157226,-79.4411544799804,45.7129325866699,84.710464477539,1863534004
sts,-71.4687271118164,-79.9839782714843,51.170913696289,54.1263732910156,1863550671
sts,-72.033332824707,-79.9503631591796,45.0078392028808,22.1798076629638,1863567338
sts,-72.4769973754882,-79.7306518554687,37.295066833496,5.4126763343811,1863584005
sts,-72.882568359375,-79.7497482299804,25.795877456665,9.88102436065673,1863600672
sts,-73.3504943847656,-79.9068450927734,28.5554409027099,2.67754793167114,1863617339
sts,-73.857307434082,-80.1140747070312,28.6790428161621,2.51355457305908,1863634006
sts,-74.3260803222656,-80.2992553710937,24.5768432617187,4.68409824371337,1863650673
sts,-74.7218475341796,-80.4430923461914,20.9105339050292,3.69614624977111,1863667340
sts,-75.0775985717773,-80.6531524658203,20.0746803283691,11.1960525512695,1863684007
sts,-75.4168853759765,-80.9578018188476,22.6234683990478,19.6898345947265,1863700674
sts,-75.7144699096679,-81.2404327392578,16.5593090057373,17.9981899261474,1863717341
sts,-76.0091094970703,-81.4796600341796,19.3532161712646,14.7471094131469,1863734008
sts,-76.2301254272461,-81.6954879760742,19.8353099822998,18.3823699951171,1863750675
sts,-76.4075927734375,-81.8259353637695,22.6011791229248,17.6824989318847,1863767342
sts,-76.4967803955078,-81.864501953125,15.4579992294311,10.2583026885986,1863784009
sts,-76.4596252441406,-81.8530731201171,2.31948137283325,3.62548446655273,1863800676
sts,-76.380012512207,-81.9006881713867,-10.506796836853,6.27364635467529,1863817343
sts,-76.354248046875,-81.9482879638671,-11.8640518188476,1.27740144729614,1863834010
sts,-76.3721466064453,-81.9162902832031,-9.11341094970703,-7.398934841156,1863850677
sts,-76.3938598632812,-81.8404998779296,-10.1282129287719,-11.465274810791,1863867344
sts,-76.4079971313476,-81.737678527832,-8.54062271118164,-13.5043210983276,1863884011
sts,-76.410415649414,-81.6444549560546,-13.2588329315185,-11.5651779174804,1863900678
sts,-76.3742065429687,-81.5630416870117,-17.1118030548095,-10.0155172348022,1863917345
sts,-76.2581100463867,-81.4364776611328,-18.6013374328613,-13.3266792297363,1863934012
sts,-76.0371627807617,-81.2235870361328,-22.7574844360351,-19.51118850708,1863950679
sts,-75.7705993652343,-80.8809204101562,-24.9357357025146,-29.5455303192138,1863967346
sts,-75.4753036499023,-80.3880844116211,-26.0389442443847,-39.4716682434082,1863984013
sts,-75.1603393554687,-79.8190155029296,-24.653902053833,-43.4465904235839,1864000680
sts,-74.7670288085937,-79.1474914550781,-29.3491191864013,-50.0418510437011,1864017347
sts,-74.290786743164,-78.2827224731445,-32.3663253784179,-61.5312957763671,1864034014
sts,-73.573486328125,-77.2939071655273,-50.544620513916,-67.8528747558593,1864050681
sts,-72.7484741210937,-76.1489639282226,-59.4038009643554,-79.8563766479492,1864067348
sts,-71.8589630126953,-74.9457931518554,-66.9067001342773,-84.9408721923828,1864084015
sts,-70.8201141357421,-73.5781784057617,-73.2270278930664,-92.0500564575195,1864100682
sts,-69.6709518432617,-71.8920745849609,-78.6322021484375,-102.243667602539,1864117349
sts,-68.2538909912109,-70.0035629272461,-93.3179626464843,-100.114936828613,1864134016
sts,-66.1923675537109,-68.1284942626953,-134.78694152832,-95.4569931030273,1864150683
sts,-63.7331771850585,-66.0683135986328,-140.76773071289,-113.210639953613,1864167350
sts,-60.8611717224121,-64.0192031860351,-140.902740478515,-120.127143859863,1864184017
sts,-57.3924331665039,-62.1711158752441,-148.170608520507,-116.048126220703,1864200684
sts,-54.3681907653808,-59.8861846923828,-117.139862060546,-142.709030151367,1864217351
sts,-52.4141311645507,-57.1165351867675,-95.7397155761718,-168.297058105468,1864234018
sts,-50.5951995849609,-53.8865699768066,-121.85863494873,-188.555541992187,1864250685
sts,-49.553897857666,-50.51021194458,-91.1631698608398,-191.185485839843,1864267352
sts,-47.6292495727539,-47.0680465698242,-132.428894042968,-193.525161743164,1864284019
sts,-45.2962646484375,-44.209789276123,-146.517990112304,-166.195159912109,1864300686
sts,-42.7532653808593,-41.3040924072265,-152.093612670898,-178.808486938476,1864317353
sts,-40.0582084655761,-38.6358947753906,-156.497161865234,-167.578918457031,1864334020
sts,-37.4290542602539,-36.0848884582519,-150.104904174804,-158.24949645996,1864350687
sts,-35.1923179626464,-33.9245452880859,-129.955749511718,-134.437789916992,1864367354
sts,-33.1570510864257,-31.7616291046142,-117.67292022705,-128.891342163085,1864384021
sts,-30.9538440704345,-29.5542011260986,-125.429359436035,-130.275390625,1864400688
sts,-28.8446464538574,-27.306432723999,-116.665245056152,-133.718460083007,1864417355
sts,-26.7579135894775,-25.3501586914062,-110.84341430664,-118.39167022705,1864434022
sts,-24.9005317687988,-23.5642032623291,-99.2182998657226,-110.37540435791,1864450689
sts,-23.1557254791259,-21.6606750488281,-91.2484817504882,-117.275909423828,1864467356
sts,-21.3769302368164,-19.6161079406738,-94.9020538330078,-124.292861938476,1864484023
sts,-19.6232967376709,-17.4265556335449,-96.8677749633789,-131.373123168945,1864500690
sts,-17.958288192749,-15.3408784866333,-91.5874862670898,-124.360710144042,1864517357
sts,-16.3334197998046,-13.4260444641113,-88.199966430664,-114.290161132812,1864534024
sts,-14.8057498931884,-11.5286598205566,-78.6260681152343,-113.371452331542,1864550691
sts,-13.3711442947387,-9.83453178405761,-70.4589691162109,-103.086357116699,1864567358
sts,-12.0509996414184,-8.25162029266357,-64.7387466430664,-96.184455871582,1864584025
sts,-10.7844362258911,-6.70857000350952,-63.2801666259765,-91.9706192016601,1864600692
sts,-9.50425720214843,-5.19292736053466,-64.7347335815429,-89.718032836914,1864617359
sts,-8.33971977233886,-3.63421392440795,-57.487979888916,-92.3386764526367,1864634026
sts,-7.31396198272705,-2.17154598236084,-47.1663818359375,-85.7603225708007,1864650693
sts,-6.27560806274414,-0.75917512178421,-46.8850517272949,-80.8861923217773,1864667360
sts,-5.32377481460571,0.496775984764099,-41.3450202941894,-70.9871368408203,1864684027
sts,-4.4031286239624,1.62711930274963,-39.0864524841308,-63.8809928894043,1864700694
sts,-3.535085439682,2.63352799415588,-37.254035949707,-56.8808670043945,1864717361
sts,-2.64860963821411,3.53991985321044,-38.5627899169921,-49.5941543579101,1864734028
sts,-1.57525289058685,4.32272338867187,-50.5423469543457,-41.5667762756347,1864750695
sts,-0.456959933042526,5.04402828216552,-53.7099838256835,-37.7167854309082,1864767362
sts,0.837192356586456,5.68746471405029,-66.9039688110351,-34.2623825073242,1864784029
sts,2.06176853179931,6.23162317276001,-65.602424621582,-29.4942359924316,1864800696
sts,3.04373502731323,6.65896463394165,-53.2201118469238,-22.2877330780029,1864817363
sts,3.94168901443481,6.96848154067993,-49.2265892028808,-15.4486007690429,1864834030
sts,4.6069312095642,7.1665186882019,-36.8451499938964,-9.61142635345459,1864850697
sts,5.00989484786987,7.2416296005249,-24.3482303619384,-2.98747825622558,1864867364
sts,5.19185161590576,7.23886156082153,-12.9828824996948,0.720427572727203,1864884031
sts,5.1887674331665,7.15517950057983,-2.50210499763488,5.10566902160644,1864900698
sts,5.01359128952026,6.9079360961914,7.08212614059448,14.5005340576171,1864917365
sts,4.68990182876586,6.54751014709472,15.1175756454467,20.4996109008789,1864934032
sts,4.12773323059082,6.10600709915161,28.3031730651855,24.5893859863281,1864950699
sts,3.3646023273468,5.51095247268676,39.4450759887695,33.8192024230957,1864967366
sts,2.37372255325317,4.86369132995605,51.910774230957,36.410846710205,1864984033
sts,1.1827175617218,4.14494085311889,61.4201965332031,39.7222785949707,1865000700
sts,-0.277852356433868,3.33706521987915,72.6671600341796,45.2431945800781,1865017367
sts,-1.70124113559722,2.44836640357971,72.3693237304687,50.2099227905273,1865034034
sts,-2.92331981658935,1.50470280647277,60.5745239257812,52.0881271362304,1865050701
sts,-3.91078567504882,0.398295670747756,47.8948822021484,60.9756813049316,1865067368
sts,-4.96481657028198,-0.88950777053833,51.2504577636718,71.8659896850586,1865084035
sts,-6.00206851959228,-2.15646076202392,50.0076217651367,70.5930480957031,1865100702
sts,-7.0461106300354,-3.33369731903076,49.3976554870605,68.8214340209961,1865117369
sts,-8.13015365600586,-4.66088104248046,50.4775505065918,80.3752212524414,1865134036
sts,-9.23026180267334,-6.09040689468383,50.2528495788574,87.5997619628906,1865150703
sts,-10.299030303955,-7.53530025482177,49.4919204711914,90.1641159057617,1865167370
sts,-11.3895034790039,-9.02294254302978,52.5036468505859,94.4856796264648,1865184037
sts,-12.6185054779052,-10.5955638885498,62.1643676757812,100.715034484863,1865200704
sts,-13.9376163482666,-12.1912584304809,68.4592132568359,102.9033203125,1865217371
sts,-15.2701702117919,-13.8008680343627,71.9415054321289,104.04532623291,1865234038
sts,-16.65230178833,-15.46027469635,76.4434738159179,108.01252746582,1865250705
sts,-18.1084575653076,-17.2330455780029,81.7355117797851,114.737915039062,1865267372
sts,-19.6566162109375,-19.1347007751464,86.4492874145507,121.163101196289,1865284039
sts,-21.2935848236084,-21.0656108856201,89.8708419799804,122.042083740234,1865300706
sts,-22.9590969085693,-22.9780845642089,91.2317657470703,119.687431335449,1865317373
sts,-24.6579627990722,-24.8880863189697,93.7763366699218,120.11701965332,1865334040
sts,-26.3773403167724,-26.8663272857666,97.7595977783203,123.375686645507,1865350707
sts,-28.1771564483642,-28.7880458831787,100.973907470703,119.668655395507,1865367374
sts,-30.0757484436035,-30.631929397583,105.053909301757,114.147430419921,1865384041
sts,-31.9854717254638,-32.5649642944335,101.415557861328,118.811813354492,1865400708
sts,-34.2648773193359,-34.7390403747558,122.231376647949,131.59651184082,1865417375
sts,-36.3619575500488,-36.8591651916503,112.138847351074,126.440246582031,1865434042
sts,-38.4926376342773,-39.0972518920898,112.271453857421,132.492523193359,1865450709
sts,-40.6952629089355,-41.5176048278808,119.163375854492,143.050323486328,1865467376
sts,-42.9742546081543,-44.1567268371582,121.206192016601,154.980758666992,1865484043
sts,-45.241413116455,-46.8464088439941,116.025848388671,159.753021240234,1865500710
sts,-47.5263671875,-49.5548133850097,119.101699829101,162.320816040039,1865517377
sts,-49.8192825317382,-52.2154846191406,123.830810546875,161.290588378906,1865534044
sts,-52.1664123535156,-54.9128379821777,128.54263305664,161.81948852539,1865550711
sts,-54.4558410644531,-57.5073661804199,120.240142822265,154.688568115234,1865567378
sts,-56.6711959838867,-60.0630378723144,116.027786254882,150.341323852539,1865584045
sts,-58.7316207885742,-62.5689735412597,109.557022094726,144.763610839843,1865600712
sts,-60.7139358520507,-64.9568786621093,106.557357788085,134.634246826171,1865617379
sts,-62.6245727539062,-67.1365356445312,102.866737365722,122.886222839355,1865634046
sts,-64.3646850585937,-69.1039962768554,93.8707122802734,109.432624816894,1865650713
sts,-65.9591674804687,-70.9598159790039,88.9469833374023,101.512229919433,1865667380
sts,-67.4888305664062,-72.8213500976562,86.9762649536132,100.684127807617,1865684047
sts,-69.0114364624023,-74.8532180786132,90.7813873291015,113.119384765625,1865700714
sts,-70.5675201416015,-76.7966766357421,95.615982055664,113.226318359375,1865717381
sts,-72.0337982177734,-78.3490982055664,87.9564743041992,95.4258956909179,1865734048
sts,-73.3109588623046,-79.5107116699218,77.8481140136718,73.7331161499023,1865750715
sts,-74.3843460083007,-80.3713455200195,66.5571517944336,60.8914718627929,1865767382
sts,-75.3656845092773,-80.8912277221679,55.4375228881835,51.2582740783691,1865784049
sts,-76.1670761108398,-81.0752258300781,49.2350463867187,38.5229682922363,1865800716
sts,-76.8367004394531,-81.0970458984375,53.0118331909179,29.9063663482666,1865817383
sts,-77.2778167724609,-81.0636291503906,52.4402961730957,19.6039695739746,1865834050
sts,-77.4865493774414,-81.0147399902343,36.02779006958,5.20408153533935,1865850717
sts,-77.5325317382812,-81.024055480957,14.8486108779907,-1.42232453823089,1865867384
sts,-77.4653549194336,-81.0943527221679,-1.14073848724365,0.114175140857696,1865884051
sts,-77.3882904052734,-81.1847915649414,-5.51445341110229,-2.26059484481811,1865900718
sts,-77.3600463867187,-81.2913055419921,-5.61702108383178,-5.80392599105835,1865917385
sts,-77.3750305175781,-81.4068298339843,-2.89258337020874,-6.4665093421936,1865934052
sts,-77.3735961914062,-81.5234909057617,-1.36806428432464,-0.745190203189849,1865950719
sts,-77.3527145385742,-81.6645202636718,-4.67595767974853,10.4367885589599,1865967386
sts,-77.3136825561523,-81.7272338867187,-2.70705842971801,10.1254043579101,1865984053
sts,-77.3465118408203,-81.6991577148437,3.50967669486999,5.69214963912963,1866000720
sts,-77.4608917236328,-81.630859375,9.50172042846679,4.3425269126892,1866017387
sts,-77.5759658813476,-81.5847091674804,10.7408781051635,4.40517663955688,1866034054
sts,-77.6493377685546,-81.6025619506836,6.49427461624145,6.45918893814086,1866050721
sts,-77.6868515014648,-81.6574783325195,0.240804240107536,3.78356671333313,1866067388
sts,-77.6893539428711,-81.7023010253906,-5.49424505233764,-0.717744708061218,1866084055
sts,-77.6676025390625,-81.7049331665039,-7.68663024902343,-6.46469974517822,1866100722
sts,-77.6514205932617,-81.7222518920898,-7.81288766860961,-5.1929931640625,1866117389
sts,-77.6391906738281,-81.7793045043945,-8.1348648071289,-2.33196139335632,1866134056
sts,-77.6031112670898,-81.8299713134765,-8.76904869079589,-2.63704586029052,1866150723
sts,-77.5574417114257,-81.839111328125,-6.39501953125,-3.63572287559509,1866167390
sts,-77.4744567871093,-81.7932357788086,-7.29104280471801,-5.19867372512817,1866184057
sts,-77.3842010498046,-81.7119140625,-8.47809028625488,-7.28720903396606,1866200724
sts,-77.2955627441406,-81.5899200439453,-8.90394020080566,-12.2613439559936,1866217391
sts,-77.2630157470703,-81.4010467529296,-6.40283393859863,-20.2103843688964,1866234058
sts,-77.2079544067382,-81.1650238037109,-12.9930219650268,-25.8852386474609,1866250725
sts,-77.0884017944336,-80.896987915039,-20.5417766571044,-28.821117401123,1866267392
sts,-76.8448867797851,-80.5412979125976,-26.2932605743408,-32.5416870117187,1866284059
sts,-76.3827362060546,-80.0852508544921,-47.2211265563964,-37.882396697998,1866300726
sts,-75.8884506225586,-79.5464706420898,-44.2698287963867,-43.2522277832031,1866317393
sts,-75.3075180053711,-78.8500900268554,-46.4503784179687,-56.3367004394531,1866334060
sts,-74.6982727050781,-77.9189224243164,-46.1996040344238,-74.0440673828125,1866350727
sts,-73.9683990478515,-76.7094345092773,-59.9682006835937,-93.0020904541015,1866367394
sts,-73.0651397705078,-75.2318267822265,-68.5491104125976,-105.497917175292,1866384061
sts,-72.0105438232421,-73.6318435668945,-76.913330078125,-104.836700439453,1866400728
sts,-70.6642303466796,-71.8340682983398,-90.8174438476562,-104.211509704589,1866417395
sts,-68.7363891601562,-69.8525238037109,-127.310943603515,-108.188331604003,1866434062
sts,-66.3953323364257,-67.9154891967773,-148.35888671875,-108.964637756347,1866450729
sts,-63.9464111328125,-66.0311965942382,-134.931228637695,-115.254020690917,1866467396
sts,-61.2388343811035,-64.1509323120117,-137.929214477539,-123.626945495605,1866484063
sts,-58.4687843322753,-62.1473999023437,-128.090423583984,-131.125717163085,1866500730
sts,-55.9802627563476,-59.9751739501953,-114.522918701171,-137.580474853515,1866517397
sts,-53.8706436157226,-57.6174125671386,-105.464431762695,-142.26431274414,1866534064
sts,-51.9483909606933,-54.7333068847656,-106.952461242675,-167.502944946289,1866550731
sts,-50.1418380737304,-51.3123397827148,-105.006233215332,-192.9384765625,1866567398
sts,-48.0769271850585,-48.0331764221191,-127.841621398925,-183.24754333496,1866584065
sts,-45.7368545532226,-45.1152687072753,-142.581283569335,-168.75244140625,1866600732
sts,-43.1295585632324,-42.3602104187011,-155.877532958984,-166.93406677246,1866617399
sts,-40.3930206298828,-39.47021484375,-156.020355224609,-173.014328002929,1866634066
sts,-37.8593864440918,-36.6769905090332,-140.951385498046,-164.398361206054,1866650733
sts,-35.5301818847656,-34.020336151123,-123.611358642578,-155.351150512695,1866667400
