Label,Left_Hip_q,Right_Hip_q,Left_Hip_qd,Right_Hip_qd,SampleTimeFine
sts,-69.5501937866211,-75.3142623901367,-3.59776544570922,4.37104368209838,1910984953
sts,-69.3684310913086,-75.2759704589843,-6.42953538894653,-5.09854459762573,1911001620
sts,-69.1736221313476,-75.2297973632812,-9.39249610900878,-3.90887427330017,1911018287
sts,-69.0043411254882,-75.3462905883789,-10.7509355545043,5.73077487945556,1911034954
sts,-68.8525161743164,-75.5545272827148,-10.8280572891235,11.3020143508911,1911051621
sts,-68.7533264160156,-75.7842864990234,-8.32607650756836,12.6629858016967,1911068288
sts,-68.6316299438476,-75.8928985595703,-11.4894676208496,7.44513273239135,1911084955
sts,-68.4588851928711,-75.8797378540039,-15.7104358673095,2.85624527931213,1911101622
sts,-68.422134399414,-75.8378143310546,-8.23739051818847,2.06654167175292,1911118289
sts,-68.4820938110351,-75.8749389648437,-3.21011710166931,7.96513891220092,1911134956
sts,-68.6021499633789,-75.9700088500976,-0.302678227424621,11.9766254425048,1911151623
sts,-68.7288970947265,-76.0905990600586,-2.82237029075622,14.2456245422363,1911168290
sts,-68.8817749023437,-76.1931076049804,-2.43643903732299,14.4845209121704,1911184957
sts,-69.0539855957031,-76.2358169555664,-2.06732058525085,12.5274477005004,1911201624
sts,-69.2038497924804,-76.1990280151367,-5.94446659088134,8.75533008575439,1911218291
sts,-69.329833984375,-76.1160430908203,-10.3643798828125,6.14985179901123,1911234958
sts,-69.4861297607421,-75.9442825317382,-8.37909984588623,-0.0587299764156341,1911251625
sts,-69.6930236816406,-75.6835708618164,-4.20823860168457,-6.6737060546875,1911268292
sts,-69.9273452758789,-75.394058227539,-0.0449887700378894,-8.97454929351806,1911284959
sts,-70.1929473876953,-75.051773071289,2.72180128097534,-11.2198162078857,1911301626
sts,-70.4802322387695,-74.7215499877929,1.3748995065689,-8.88607311248779,1911318293
sts,-70.8605651855468,-74.4454116821289,6.74169874191284,-4.52563190460205,1911334960
sts,-71.3247604370117,-74.1559371948242,9.59332466125488,-6.09952449798584,1911351627
sts,-71.9211883544921,-73.8076782226562,14.4351768493652,-12.5427265167236,1911368294
sts,-72.5512313842773,-73.4632110595703,15.3738527297973,-16.5244312286376,1911384961
sts,-73.166763305664,-72.9703369140625,15.0499238967895,-28.579776763916,1911401628
sts,-73.6336441040039,-72.3443069458007,6.41596937179565,-34.691177368164,1911418295
sts,-74.0115127563476,-71.7436294555664,3.38478183746337,-29.181676864624,1911434962
sts,-74.3956298828125,-71.2136688232421,5.0539002418518,-24.1583595275878,1911451629
sts,-74.8310317993164,-70.7222061157226,10.3126811981201,-26.8125057220459,1911468296
sts,-75.292854309082,-70.3406906127929,15.779969215393,-24.3656024932861,1911484963
sts,-75.7213058471679,-70.2079086303711,18.4384422302246,-6.72045850753784,1911501630
sts,-76.0490264892578,-70.330093383789,17.8634281158447,8.28744411468505,1911518297
sts,-76.2342834472656,-70.7770538330078,14.6148138046264,30.4182071685791,1911534964
sts,-76.3373947143554,-71.5208663940429,12.2458744049072,52.1662788391113,1911551631
sts,-76.3557968139648,-72.3789443969726,8.872239112854,60.579303741455,1911568298
sts,-76.2933120727539,-73.2162704467773,3.86513066291809,52.0081672668457,1911584965
sts,-76.1095886230468,-73.7866973876953,-3.37146687507629,19.2551765441894,1911601632
sts,-75.8957901000976,-74.3375244140625,-9.32520484924316,18.9522399902343,1911618299
sts,-75.6579284667968,-75.2713470458984,-12.043038368225,51.4989166259765,1911634966
sts,-75.354133605957,-76.2386322021484,-18.1021862030029,44.9241180419921,1911651633
sts,-75.1530838012695,-77.1277313232421,-11.0800151824951,37.6155776977539,1911668300
sts,-75.0789260864257,-78.0086593627929,1.77475047111511,42.5740127563476,1911684967
sts,-75.0325012207031,-78.769775390625,9.96520233154296,42.4346504211425,1911701634
sts,-74.9685974121093,-79.0826187133789,7.93920373916626,24.4325714111328,1911718301
sts,-74.9154434204101,-79.0753173828125,4.41014528274536,10.5593566894531,1911734968
sts,-74.8448257446289,-79.0841522216796,-0.769930601119995,9.83267784118652,1911751635
sts,-74.7409057617187,-79.2024612426757,-3.85467362403869,6.78360843658447,1911768302
sts,-74.5963134765625,-79.3545989990234,-6.49310207366943,-0.0408266633749008,1911784969
sts,-74.4517669677734,-79.4262542724609,-4.6284589767456,-11.4634361267089,1911801636
sts,-74.3134155273437,-79.3526840209961,-0.764270544052124,-21.0828189849853,1911818303
sts,-74.2372055053711,-79.1711654663086,6.12498950958251,-23.4846897125244,1911834970
sts,-74.1598968505859,-78.9967956542968,3.86947894096374,-18.6405906677246,1911851637
sts,-73.9942398071289,-78.8096542358398,-4.37915515899658,-17.1875743865966,1911868304
sts,-73.7240142822265,-78.531265258789,-13.0213727951049,-22.4990978240966,1911884971
sts,-73.3255386352539,-78.1070556640625,-25.4027690887451,-31.4634418487548,1911901638
sts,-72.9088134765625,-77.5024490356445,-34.2131767272949,-41.5327949523925,1911918305
sts,-72.4419555664062,-76.7751770019531,-38.3350067138671,-47.096450805664,1911934972
sts,-71.8243789672851,-75.9922409057617,-48.5205001831054,-51.3800010681152,1911951639
sts,-71.1745910644531,-75.1552963256836,-48.0831871032714,-57.2459297180175,1911968306
sts,-70.4546966552734,-74.1509857177734,-49.4606704711914,-69.0017395019531,1911984973
sts,-69.5410385131836,-73.0215759277343,-60.9102478027343,-72.954849243164,1912001640
sts,-68.3412399291992,-71.8253173828125,-78.9510650634765,-74.990119934082,1912018307
sts,-66.759780883789,-70.4544143676757,-99.7965011596679,-87.1388931274414,1912034974
sts,-64.8986282348632,-68.9173736572265,-109.004272460937,-97.962776184082,1912051641
sts,-62.8665504455566,-67.2096481323242,-109.549942016601,-106.924186706542,1912068308
sts,-60.5953559875488,-65.0566329956054,-129.144165039062,-131.765518188476,1912084975
sts,-58.3331413269043,-62.5311393737793,-118.612960815429,-149.633361816406,1912101642
sts,-56.534080505371,-60.2887268066406,-92.3663482666015,-130.442077636718,1912118309
sts,-54.5746536254882,-58.0658836364746,-107.563621520996,-131.991165161132,1912134976
sts,-52.485122680664,-55.3584976196289,-123.650070190429,-160.213119506835,1912151643
sts,-50.2767753601074,-52.1994552612304,-132.668685913085,-188.138839721679,1912168310
sts,-47.8964309692382,-48.9751548767089,-139.657928466796,-192.285354614257,1912184977
sts,-45.4484748840332,-46.0443496704101,-128.11131286621,-178.943252563476,1912201644
sts,-43.1297492980957,-43.0513877868652,-118.477272033691,-182.789688110351,1912218311
sts,-41.0050964355468,-40.2044677734375,-109.672203063964,-171.675735473632,1912234978
sts,-38.8562850952148,-37.6221160888671,-121.361946105957,-152.748382568359,1912251645
sts,-36.7127838134765,-34.8334503173828,-127.042259216308,-163.628707885742,1912268312
sts,-34.5309143066406,-32.2431259155273,-129.160186767578,-150.45262145996,1912284979
sts,-32.3865737915039,-29.9195137023925,-127.074211120605,-136.30142211914,1912301646
sts,-30.2570896148681,-27.6095733642578,-123.093917846679,-137.164611816406,1912318313
sts,-28.1507205963134,-25.4034805297851,-118.580406188964,-131.728713989257,1912334980
sts,-26.068410873413,-23.3172435760498,-115.19107055664,-124.421607971191,1912351647
sts,-24.0600204467773,-21.1317081451416,-113.070686340332,-129.660354614257,1912368314
sts,-22.1845092773437,-19.0630130767822,-106.304969787597,-122.866622924804,1912384981
sts,-20.4145374298095,-16.9890556335449,-99.7720031738281,-122.561241149902,1912401648
sts,-18.6732139587402,-14.9833984375,-94.3723449707031,-119.587203979492,1912418315
sts,-16.9873485565185,-13.0381307601928,-89.3139190673828,-114.976333618164,1912434982
sts,-15.4414119720458,-11.1444387435913,-82.2110595703125,-109.857398986816,1912451649
sts,-13.9977979660034,-9.27222919464111,-76.8439025878906,-107.521072387695,1912468316
sts,-12.6317434310913,-7.43636178970336,-72.5267944335937,-105.793350219726,1912484983
sts,-11.3006067276,-5.75296401977539,-69.2680740356445,-96.9233856201171,1912501650
sts,-10.0242719650268,-4.22984504699707,-65.0263137817382,-87.3778533935546,1912518317
sts,-8.79855060577392,-2.78165650367736,-60.389533996582,-82.5182800292968,1912534984
sts,-7.61134958267211,-1.47803485393524,-58.3835487365722,-73.1430587768554,1912551651
sts,-6.5300269126892,-0.299910336732864,-54.2468605041503,-64.7783737182617,1912568318
sts,-5.56693887710571,0.86209088563919,-46.0833091735839,-63.2359085083007,1912584985
sts,-4.54088830947876,1.98931849002838,-47.3026695251464,-60.6176986694335,1912601652
sts,-3.44396710395813,3.01670575141906,-51.1572608947753,-54.2162437438964,1912618319
sts,-2.2126235961914,3.86991214752197,-59.9795188903808,-44.3367271423339,1912634986
sts,-1.0503933429718,4.63936185836792,-55.009967803955,-40.0351905822753,1912651653
sts,0.26223748922348,5.27991151809692,-65.2784805297851,-32.7197799682617,1912668320
sts,1.40819120407104,5.78871202468872,-58.0653991699218,-25.5972251892089,1912684987
sts,2.33472061157226,6.21534538269043,-48.1821594238281,-22.3767032623291,1912701654
sts,3.1843717098236,6.53164148330688,-45.1765708923339,-16.4269351959228,1912718321
sts,3.71396493911743,6.71557092666626,-26.4949989318847,-8.93800640106201,1912734988
sts,4.04062700271606,6.74495601654052,-16.3916416168212,-1.89148521423339,1912751655
sts,4.1494116783142,6.6549072265625,-5.96667051315307,3.60802960395813,1912768322
sts,4.06270408630371,6.47204637527465,3.58832049369812,7.7630648612976,1912784989
sts,3.78599691390991,6.14945268630981,14.2743206024169,14.9334726333618,1912801656
sts,3.33575677871704,5.69712543487548,23.9213390350341,21.7375373840332,1912818323
sts,2.72370314598083,5.15512657165527,32.3704185485839,26.4419784545898,1912834990
sts,1.96320724487304,4.48852396011352,39.8086509704589,33.6874694824218,1912851657
sts,1.11809945106506,3.66647338867187,43.1536407470703,42.6514205932617,1912868324
sts,0.178379222750663,2.78913569450378,47.3953514099121,45.7556381225585,1912884991
sts,-0.944916665554046,1.83724880218505,54.4329185485839,50.0040092468261,1912901658
sts,-1.83937931060791,0.808012604713439,46.9052505493164,54.0194854736328,1912918325
sts,-2.77977728843688,-0.364635318517684,49.870319366455,63.7105369567871,1912934992
sts,-3.79250025749206,-1.60760867595672,54.3334503173828,68.7342147827148,1912951659
sts,-4.8135666847229,-2.95240640640258,54.3953208923339,74.0443725585937,1912968326
sts,-5.85725307464599,-4.31186580657959,56.8901252746582,75.827766418457,1912984993
sts,-6.98742008209228,-5.71223640441894,62.7053909301757,80.0345153808593,1913001660
sts,-8.16775512695312,-7.24746942520141,65.9634246826171,89.0790176391601,1913018327
sts,-9.42997550964355,-8.86007118225097,71.6084518432617,95.0158157348632,1913034994
sts,-10.737585067749,-10.5072698593139,75.5269317626953,99.0304794311523,1913051661
sts,-12.095664024353,-12.128885269165,80.4926376342773,99.9053497314453,1913068328
sts,-13.4988040924072,-13.7719039916992,84.3760070800781,101.351501464843,1913084995
sts,-14.8889226913452,-15.4382219314575,83.4966354370117,102.027755737304,1913101662
sts,-16.3109283447265,-17.1254043579101,86.4051284790039,103.55224609375,1913118329
sts,-17.8920822143554,-18.8364391326904,94.0285263061523,104.733009338378,1913134996
sts,-19.5037975311279,-20.6754474639892,91.7025833129882,111.972442626953,1913151663
sts,-21.1504783630371,-22.5822467803955,92.5291748046875,116.467407226562,1913168330
sts,-22.9238567352294,-24.453664779663,98.9352874755859,114.219009399414,1913184997
sts,-24.7683162689209,-26.3202819824218,104.003776550292,112.893424987792,1913201664
sts,-26.6546401977539,-28.1123180389404,104.595176696777,108.813987731933,1913218331
sts,-28.4707107543945,-29.9792652130126,98.9476165771484,112.794532775878,1913234998
sts,-30.3114376068115,-31.9751682281494,100.599853515625,118.342643737792,1913251665
sts,-32.3240737915039,-34.0847587585449,110.049583435058,125.090896606445,1913268332
sts,-34.3175010681152,-36.180549621582,107.313621520996,127.299263000488,1913284999
sts,-36.4238471984863,-38.2651939392089,114.572402954101,127.428985595703,1913301666
sts,-38.4301033020019,-40.4451141357421,106.722747802734,130.190597534179,1913318333
sts,-40.705810546875,-42.7332191467285,122.647384643554,134.316360473632,1913335000
sts,-42.9876480102539,-45.2034225463867,122.590873718261,144.62612915039,1913351667
sts,-45.1562767028808,-47.7331886291503,112.900009155273,147.60057067871,1913368334
sts,-47.3333053588867,-50.4910888671875,112.869659423828,162.625045776367,1913385001
sts,-49.606819152832,-53.6865844726562,119.13508605957,185.990570068359,1913401668
sts,-51.8717613220214,-56.4295463562011,121.229850769042,154.225723266601,1913418335
sts,-54.0807571411132,-59.1187934875488,118.590530395507,151.471786499023,1913435002
sts,-56.2137260437011,-61.9968223571777,113.229919433593,162.754318237304,1913451669
sts,-58.2431831359863,-64.8131332397461,104.86334991455,159.968551635742,1913468336
sts,-60.1255340576171,-67.3270492553711,95.1068801879882,144.156967163085,1913485003
sts,-61.8025856018066,-69.5997543334961,85.1029968261718,131.571701049804,1913501670
sts,-63.3393440246582,-71.3832168579101,80.9951400756836,104.425880432128,1913518337
sts,-64.6473617553711,-72.7308273315429,72.0346450805664,77.6231536865234,1913535004
sts,-65.644416809082,-73.8563613891601,54.2817344665527,66.0466918945312,1913551671
sts,-66.4525909423828,-74.7973098754882,47.1975975036621,58.4403839111328,1913568338
sts,-67.0778732299804,-75.6018524169921,36.5117225646972,51.9680099487304,1913585005
sts,-67.5824890136718,-76.3714141845703,30.7899951934814,50.6640281677246,1913601672
sts,-67.95263671875,-77.1077423095703,20.337059020996,50.613037109375,1913618339
sts,-68.1682662963867,-77.8727493286132,10.1316013336181,60.1046676635742,1913635006
sts,-68.4428405761718,-78.4240798950195,20.0470390319824,52.2428932189941,1913651673
sts,-68.7820892333984,-78.7388305664062,25.6811752319335,36.5434989929199,1913668340
sts,-69.22119140625,-78.8831100463867,31.1125431060791,19.8070640563964,1913685007
sts,-69.6623229980468,-79.0574188232421,26.6537342071533,14.4656524658203,1913701674
sts,-70.0082321166992,-79.3100891113281,17.2899761199951,15.1000881195068,1913718341
sts,-70.2365264892578,-79.4821090698242,6.74017524719238,5.5895824432373,1913735008
sts,-70.2051086425781,-79.4974746704101,-10.7692747116088,-5.7802677154541,1913751675
sts,-70.1255111694336,-79.4517974853515,-14.7936143875122,-7.6586537361145,1913768342
sts,-70.0595169067382,-79.4461517333984,-16.2762660980224,-2.71950531005859,1913785009
sts,-70.1170806884765,-79.4613952636718,-7.31727981567382,1.26172661781311,1913801676
sts,-70.2956008911132,-79.3755874633789,5.43641948699951,-6.39850187301635,1913818343
sts,-70.4688873291015,-79.2094039916992,4.51907777786254,-13.4561023712158,1913835010
sts,-70.5014419555664,-79.0748519897461,-3.06191325187683,-10.4335689544677,1913851677
sts,-70.4389343261718,-78.8967742919921,-8.07792854309082,-12.9115295410156,1913868344
sts,-70.334487915039,-78.5798187255859,-8.17680740356445,-23.0511646270751,1913885011
sts,-70.1825485229492,-78.1042327880859,-11.5939035415649,-36.0874977111816,1913901678
sts,-69.8533782958984,-77.4905700683593,-25.5805110931396,-48.232681274414,1913918345
sts,-69.3095092773437,-76.6733932495117,-41.6939582824707,-61.1252632141113,1913935012
sts,-68.4874877929687,-75.7446670532226,-60.2548789978027,-65.4999694824218,1913951679
sts,-67.6461791992187,-74.7375869750976,-63.7722473144531,-67.4239273071289,1913968346
sts,-66.6343688964843,-73.6828231811523,-70.2633438110351,-69.5222930908203,1913985013
sts,-65.336067199707,-72.2628936767578,-84.7169647216796,-93.7160339355468,1914001680
sts,-63.5209236145019,-70.4811630249023,-107.558715820312,-114.024864196777,1914018347
sts,-61.5358581542968,-68.6525497436523,-103.034713745117,-112.926712036132,1914035014
sts,-59.7036209106445,-66.6102218627929,-91.6811752319336,-122.107421875,1914051681
sts,-58.0376815795898,-64.2996673583984,-82.0828247070312,-134.90818786621,1914068348
sts,-56.3627891540527,-61.7522277832031,-83.2500915527343,-147.78466796875,1914085015
sts,-54.477180480957,-58.9457550048828,-101.013999938964,-160.068389892578,1914101682
sts,-52.3854179382324,-56.1824493408203,-118.648239135742,-157.085525512695,1914118349
sts,-50.2449874877929,-53.1373405456543,-119.46385192871,-173.575332641601,1914135016
sts,-47.885871887207,-50.0130348205566,-137.266571044921,-182.143203735351,1914151683
sts,-45.4532508850097,-47.0743865966796,-138.94123840332,-173.620483398437,1914168350
sts,-42.9839324951171,-44.3908958435058,-137.858093261718,-163.178894042968,1914185017
sts,-40.4288253784179,-41.517276763916,-138.391662597656,-173.997329711914,1914201684
sts,-38.056095123291,-38.4813957214355,-137.696884155273,-180.173049926757,1914218351
sts,-35.8906021118164,-35.8889846801757,-127.396049499511,-151.586944580078,1914235018
sts,-33.7654075622558,-33.3478660583496,-124.330047607421,-149.275588989257,1914251685
sts,-31.6891574859619,-31.08127784729,-120.773246765136,-133.794219970703,1914268352
sts,-29.7068634033203,-28.9224872589111,-112.973541259765,-128.098388671875,1914285019
sts,-27.7819442749023,-26.7736778259277,-107.326843261718,-127.557815551757,1914301686
sts,-26.0416870117187,-24.9253215789794,-97.3100280761718,-109.149475097656,1914318353
sts,-24.1563701629638,-23.0221099853515,-103.868446350097,-112.563079833984,1914335020
sts,-22.3277893066406,-21.0809383392334,-104.541610717773,-115.690933227539,1914351687
sts,-20.6842136383056,-19.0806560516357,-88.7500610351562,-119.018737792968,1914368354
sts,-19.0899581909179,-17.1198959350585,-81.8617935180664,-117.830749511718,1914385021
sts,-17.5524082183837,-15.3606672286987,-80.6060638427734,-105.616943359375,1914401688
sts,-16.1255645751953,-13.6451940536499,-75.2141418457031,-101.107933044433,1914418355
sts,-14.7539091110229,-12.0428133010864,-72.6939468383789,-93.4921951293945,1914435022
sts,-13.4417781829833,-10.4866170883178,-68.8951034545898,-92.2134170532226,1914451689
sts,-12.2574348449707,-8.92776489257812,-61.6113739013671,-93.6862411499023,1914468356
sts,-11.2112779617309,-7.42918729782104,-53.5308952331543,-89.5418624877929,1914485023
sts,-9.99649238586425,-5.99529266357421,-61.7353820800781,-85.1462249755859,1914501690
sts,-8.98894500732421,-4.7840871810913,-50.2657012939453,-70.9327621459961,1914518357
sts,-8.02218914031982,-3.68459510803222,-47.3267631530761,-62.4191169738769,1914535024
sts,-7.07436800003051,-2.66554403305053,-45.4068450927734,-55.9846115112304,1914551691
sts,-6.12165546417236,-1.65554058551788,-44.3172950744628,-53.8228073120117,1914568358
sts,-5.20373630523681,-0.660530090332031,-43.0920143127441,-51.0733795166015,1914585025
sts,-4.40329074859619,0.253447979688644,-36.1252326965332,-46.2581977844238,1914601692
sts,-3.64565825462341,1.08938348293304,-34.3915519714355,-42.6667213439941,1914618359
sts,-2.91228985786438,1.85219597816467,-33.8540840148925,-39.0940208435058,1914635026
sts,-2.20607876777648,2.52199864387512,-34.0664482116699,-33.5426330566406,1914651693
sts,-1.49620103836059,3.10386610031127,-36.3639183044433,-28.7196140289306,1914668360
sts,-0.868998229503631,3.64085149765014,-31.4034175872802,-26.4844207763671,1914685027
sts,-0.295205503702163,4.06407928466796,-28.8034572601318,-21.7394714355468,1914701694
sts,0.234214663505554,4.40996503829956,-27.1410369873046,-18.9172630310058,1914718361
sts,0.690288424491882,4.65223264694213,-23.3693408966064,-13.5785207748413,1914735028
sts,1.10780370235443,4.79432010650634,-22.3560924530029,-8.36630058288574,1914751695
sts,1.35052525997161,4.84629440307617,-12.9420700073242,-3.21947836875915,1914768362
sts,1.45547091960906,4.79659032821655,-5.61132049560546,2.51806783676147,1914785029
sts,1.42142879962921,4.65799617767334,2.05454230308532,6.03033971786499,1914801696
sts,1.22120988368988,4.40831089019775,10.5341205596923,11.9006376266479,1914818363
sts,0.880474150180816,4.05962610244751,16.8527069091796,17.0071716308593,1914835030
sts,0.424605965614318,3.52079606056213,21.803840637207,27.4830741882324,1914851697
sts,-0.156566053628921,2.83217883110046,27.4155235290527,35.8180084228515,1914868364
sts,-0.792249500751495,2.05494141578674,28.6643295288085,40.9364738464355,1914885031
sts,-1.48991417884826,1.2544367313385,32.2126846313476,41.9379005432128,1914901698
sts,-2.25778269767761,0.347292006015777,34.3113098144531,48.3379173278808,1914918365
sts,-3.11896562576293,-0.734289586544036,39.3906440734863,59.3032760620117,1914935032
sts,-4.05421686172485,-1.93172776699066,44.1379585266113,67.3953247070312,1914951699
sts,-5.07558250427246,-3.18082284927368,49.7212829589843,70.8956756591796,1914968366
sts,-6.12668180465698,-4.52114486694335,52.9844398498535,75.9619522094726,1914985033
sts,-7.24780225753784,-5.95901489257812,58.4865493774414,82.4848861694336,1915001700
sts,-8.43260383605957,-7.45781898498535,62.9780044555664,87.3343811035156,1915018367
sts,-9.71050071716308,-9.0261583328247,70.3666915893554,92.8572998046875,1915035034
sts,-11.0227575302124,-10.6542673110961,73.8200988769531,97.5093154907226,1915051701
sts,-12.4107246398925,-12.3007659912109,79.7479553222656,99.871337890625,1915068368
sts,-13.8342695236206,-14.0386877059936,83.7697525024414,105.42121887207,1915085035
sts,-15.2552499771118,-15.835913658142,84.62109375,107.869842529296,1915101702
sts,-16.724401473999,-17.6043853759765,89.2477569580078,106.600563049316,1915118369
sts,-18.2360363006591,-19.3721542358398,91.908462524414,106.913818359375,1915135036
sts,-19.7874507904052,-21.130027770996,92.7592697143554,106.589492797851,1915151703
sts,-21.3564434051513,-22.9651222229003,91.4489288330078,109.990531921386,1915168370
sts,-22.9741058349609,-24.848237991333,92.128303527832,112.576683044433,1915185037
sts,-24.6521072387695,-26.6808376312255,95.4504852294921,110.47346496582,1915201704
sts,-26.3859767913818,-28.5341682434082,97.3348922729492,113.431274414062,1915218371
sts,-28.1167030334472,-30.4085216522216,94.3594360351562,115.843612670898,1915235038
sts,-29.9841556549072,-32.1802597045898,101.597618103027,109.037773132324,1915251705
sts,-31.8109378814697,-34.0815391540527,97.8748474121093,115.789169311523,1915268372
sts,-33.7458229064941,-36.0251960754394,99.4621276855468,117.374588012695,1915285039
sts,-35.6512947082519,-37.9475288391113,98.2036895751953,116.112892150878,1915301706
sts,-37.6074676513671,-39.915599822998,100.278953552246,118.96826171875,1915318373
sts,-39.5747032165527,-41.949607849121,102.243362426757,123.010025024414,1915335040
sts,-41.7688865661621,-44.2690658569335,117.482055664062,140.391571044921,1915351707
sts,-43.9000968933105,-46.7079315185546,108.360939025878,146.465499877929,1915368374
sts,-45.9985313415527,-49.0760231018066,107.639175415039,140.194992065429,1915385041
sts,-48.1230010986328,-51.3044700622558,115.318061828613,130.909103393554,1915401708
sts,-50.1922187805175,-53.4672698974609,109.706550598144,128.853881835937,1915418375
sts,-52.3011283874511,-55.7988128662109,110.249847412109,139.235275268554,1915435042
sts,-54.419677734375,-58.1596984863281,111.723068237304,140.252166748046,1915451709
sts,-56.2027397155761,-60.5197868347168,91.6040802001953,137.724151611328,1915468376
sts,-58.0157508850097,-62.7336845397949,91.7894515991211,129.474060058593,1915485043
sts,-59.7059822082519,-64.8165130615234,82.8023529052734,124.041236877441,1915501710
sts,-61.1574478149414,-66.5884170532226,70.2842178344726,108.144630432128,1915518377
sts,-62.5557174682617,-68.1054458618164,74.6690216064453,94.3914566040039,1915535044
sts,-63.8222770690918,-69.3309555053711,68.8866424560546,76.6615829467773,1915551711
sts,-64.8212280273437,-70.3763198852539,55.8100814819335,64.9221572875976,1915568378
sts,-65.7465667724609,-71.3340377807617,52.3166885375976,57.6886444091796,1915585045
sts,-66.509521484375,-72.161636352539,42.4410133361816,49.1418342590332,1915601712
sts,-67.0201797485351,-72.7761001586914,30.0296745300292,37.0958251953125,1915618379
sts,-67.4475784301757,-73.2285385131836,28.7609233856201,29.0133914947509,1915635046
sts,-67.8521194458007,-73.5452270507812,33.1980361938476,22.0549240112304,1915651713
sts,-68.1905364990234,-73.8382797241211,35.3577537536621,21.8018188476562,1915668380
sts,-68.4317092895507,-74.1454315185546,29.4914798736572,23.4948101043701,1915685047
sts,-68.7049026489257,-74.2903823852539,29.446117401123,15.7848081588745,1915701714
sts,-69.1572265625,-74.5068740844726,38.8029403686523,19.8413829803466,1915718381
sts,-69.6410217285156,-74.8488845825195,37.5421333312988,25.1505126953125,1915735048
sts,-70.0802001953125,-75.2912216186523,29.4643573760986,30.1078014373779,1915751715
sts,-70.4211349487304,-75.7058410644531,15.8738622665405,24.7055282592773,1915768382
sts,-70.7383270263671,-75.9594116210937,7.93947839736938,12.8854722976684,1915785049
sts,-70.9243545532226,-76.2031326293945,-6.44350337982177,15.0433177947998,1915801716
sts,-70.9227066040039,-76.4203720092773,-20.7637939453125,10.8837375640869,1915818383
sts,-70.7299194335937,-76.4778671264648,-28.6376819610595,-2.33313202857971,1915835050
sts,-70.5364608764648,-76.4230117797851,-25.926248550415,-12.020486831665,1915851717
sts,-70.4141311645507,-76.2631912231445,-13.431580543518,-18.2922458648681,1915868384
sts,-70.307014465332,-76.0739669799804,-8.74294757843017,-17.4685516357421,1915885051
sts,-70.0977020263671,-75.8403167724609,-16.9702568054199,-18.3233165740966,1915901718
sts,-69.7905654907226,-75.4227447509765,-23.0310459136962,-30.089542388916,1915918385
sts,-69.3150939941406,-74.807502746582,-31.8279342651367,-42.8437347412109,1915935052
sts,-68.5855178833007,-73.9783706665039,-45.2994003295898,-56.039623260498,1915951719
sts,-67.6261825561523,-73.013313293457,-59.3930320739746,-61.2259788513183,1915968386
sts,-66.4058761596679,-72.0952529907226,-78.3058471679687,-57.3958511352539,1915985053
sts,-65.0087814331054,-70.9868774414062,-88.5072555541992,-71.7931747436523,1916001720
sts,-63.4257850646972,-69.6527404785156,-98.05029296875,-92.1570968627929,1916018387
sts,-61.5248641967773,-67.7689895629882,-112.274276733398,-129.755874633789,1916035054
sts,-59.1504707336425,-65.1502075195312,-118.064331054687,-165.337768554687,1916051721
sts,-56.8767623901367,-62.2467880249023,-101.080650329589,-167.527221679687,1916068388
sts,-54.8992767333984,-59.0567054748535,-99.1152420043945,-179.046844482421,1916085055
sts,-52.9515800476074,-55.8588676452636,-115.93839263916,-183.362930297851,1916101722
sts,-50.9418563842773,-53.1156921386718,-107.50072479248,-164.351943969726,1916118389
sts,-48.7445831298828,-50.6829986572265,-122.928367614746,-152.690170288085,1916135056
sts,-46.3295135498046,-47.9583129882812,-141.977706909179,-166.869522094726,1916151723
sts,-43.8711242675781,-45.1076622009277,-140.696594238281,-169.016250610351,1916168390
sts,-41.542423248291,-42.0645484924316,-135.262893676757,-179.822830200195,1916185057
sts,-39.1911697387695,-39.5660591125488,-139.592422485351,-151.591247558593,1916201724
sts,-36.7707061767578,-37.221435546875,-144.868179321289,-141.268524169921,1916218391
sts,-34.5217094421386,-34.3313751220703,-141.372131347656,-167.679794311523,1916235058
sts,-32.3871421813964,-31.6125240325927,-130.785980224609,-157.085220336914,1916251725
sts,-30.3095455169677,-29.3652725219726,-118.647354125976,-129.954238891601,1916268392
sts,-28.2994041442871,-27.2332553863525,-111.369155883789,-125.229606628417,1916285059
sts,-26.0476512908935,-25.1869792938232,-125.469978332519,-123.567466735839,1916301726
sts,-24.2611465454101,-23.2522735595703,-97.7415313720703,-117.670829772949,1916318393
sts,-22.4736289978027,-21.195779800415,-98.082405090332,-122.039718627929,1916335060
sts,-20.7609424591064,-19.133768081665,-94.0943603515625,-119.113647460937,1916351727
sts,-19.0545749664306,-17.0021381378173,-88.9016494750976,-121.951591491699,1916368394
sts,-17.3284740447998,-15.047417640686,-89.3028945922851,-112.852577209472,1916385061
sts,-15.7315616607666,-13.2120647430419,-84.7347030639648,-109.974166870117,1916401728
sts,-14.2931852340698,-11.4630107879638,-75.3695068359375,-106.402763366699,1916418395
sts,-12.9272775650024,-9.82099723815918,-71.9337692260742,-99.4206924438476,1916435062
sts,-11.6331014633178,-8.19329357147216,-68.9009857177734,-96.5407028198242,1916451729
sts,-10.4194860458374,-6.61576700210571,-62.50732421875,-91.5569992065429,1916468396
sts,-9.28355693817138,-5.03468084335327,-55.7148666381835,-92.0786056518554,1916485063
sts,-8.14449405670166,-3.57308769226074,-54.6890869140625,-85.1293487548828,1916501730
sts,-6.98743486404418,-2.26766347885131,-56.9626998901367,-74.8057250976562,1916518397
sts,-5.8896894454956,-1.11585843563079,-54.5669174194335,-64.5508499145507,1916535064
sts,-4.84209728240966,-0.0238025840371847,-52.2797698974609,-59.3435249328613,1916551731
sts,-3.88547134399414,1.01510941982269,-46.6892776489257,-54.224510192871,1916568398
sts,-2.94108724594116,1.93938148021698,-43.5743217468261,-47.1638145446777,1916585065
sts,-2.04242849349975,2.77191972732543,-39.8427658081054,-42.0422554016113,1916601732
sts,-1.19677293300628,3.53184628486633,-38.3174896240234,-38.2538986206054,1916618399
sts,-0.414097487926483,4.10952472686767,-37.8777465820312,-28.8748836517334,1916635066
sts,0.238353803753852,4.56492090225219,-32.8854179382324,-23.3454647064209,1916651733
sts,0.876918733119964,4.90119695663452,-32.8825721740722,-18.7993621826171,1916668400
sts,1.41112899780273,5.12193155288696,-27.5655250549316,-14.2047500610351,1916685067
sts,1.75377118587493,5.20699882507324,-17.0774154663085,-7.17019939422607,1916701734
sts,1.95356011390686,5.17776346206665,-10.5122394561767,-2.04117965698242,1916718401
sts,1.99755179882049,5.05266332626342,-3.09786868095397,1.44297766685485,1916735068
sts,1.88301932811737,4.82893848419189,4.7962155342102,5.89118242263793,1916751735
sts,1.60684704780578,4.47188091278076,13.3338146209716,14.025535583496,1916768402
sts,1.19544923305511,4.02102136611938,20.775426864624,19.5793342590332,1916785069
sts,0.636783957481384,3.42730903625488,29.2202796936035,28.8064880371093,1916801736
sts,0.0186617858707904,2.757581949234,31.9206409454345,33.0142517089843,1916818403
sts,-0.663301289081573,1.95783495903015,35.2780990600585,41.9214897155761,1916835070
sts,-1.39417588710784,1.07362580299377,36.51021194458,47.4569358825683,1916851737
sts,-2.23862433433532,-0.0364011228084564,40.8916549682617,60.4166374206543,1916868404
sts,-3.09901857376098,-1.2125027179718,41.9903602600097,65.9504852294921,1916885071
sts,-4.05415201187133,-2.41145467758178,48.3066291809082,68.4019470214843,1916901738
sts,-5.07433223724365,-3.69227004051208,51.8129158020019,73.7922668457031,1916918405
sts,-6.12292194366455,-4.97989845275878,53.8090057373046,74.5515060424804,1916935072
sts,-7.26781845092773,-6.38165187835693,59.5955047607421,81.8980865478515,1916951739
sts,-8.51162910461425,-7.83634805679321,65.9275741577148,86.1461563110351,1916968406
sts,-9.86311817169189,-9.40400409698486,73.8692779541015,92.7525405883789,1916985073
sts,-11.2629671096801,-11.0418710708618,78.8093032836914,97.795669555664,1917001740
sts,-12.6807889938354,-12.7324781417846,81.6920547485351,103.098823547363,1917018407
sts,-14.1308803558349,-14.4994421005249,86.404556274414,107.547637939453,1917035074
sts,-15.6255636215209,-16.2781753540039,88.5182571411132,107.913787841796,1917051741
sts,-17.1966190338134,-18.1266021728515,91.9231491088867,112.411239624023,1917068408
sts,-18.8653774261474,-20.0636768341064,96.7564468383789,115.150146484375,1917085075
sts,-20.5754776000976,-22.0534381866455,98.1318130493164,116.639892578125,1917101742
sts,-22.3164653778076,-24.0387477874755,98.615737915039,117.108978271484,1917118409
sts,-24.1435642242431,-26.0170459747314,103.544364929199,117.820411682128,1917135076
sts,-26.0294284820556,-28.0080909729003,105.746131896972,117.442901611328,1917151743
sts,-27.926155090332,-30.0898361206054,107.10269165039,121.3150100708,1917168410
sts,-29.8455390930175,-32.1184272766113,107.322402954101,119.09496307373,1917185077
sts,-31.9515132904052,-34.200511932373,114.647346496582,124.022956848144,1917201744
sts,-34.021255493164,-36.3908042907714,109.030517578125,132.085571289062,1917218411
sts,-36.2189254760742,-38.5532493591308,119.43408203125,130.795852661132,1917235078
sts,-38.6559944152832,-40.9003143310546,132.587524414062,143.62840270996,1917251745
sts,-40.9417610168457,-43.5269241333007,121.677528381347,160.170013427734,1917268412
sts,-43.3110046386718,-46.1131706237793,123.77350616455,155.865600585937,1917285079
sts,-45.6926612854003,-48.6746215820312,120.239768981933,154.110061645507,1917301746
sts,-48.1601486206054,-51.2230148315429,126.069244384765,155.324584960937,1917318413
sts,-50.6102561950683,-53.9670486450195,123.514671325683,168.470947265625,1917335080
sts,-52.9045753479003,-56.7628631591796,113.600028991699,169.383148193359,1917351747
sts,-55.0754470825195,-59.4735107421875,111.291221618652,162.842895507812,1917368414
sts,-57.1667594909668,-62.0294570922851,108.848937988281,153.004089355468,1917385081
sts,-59.0393142700195,-64.5586624145507,95.8450393676757,150.264465332031,1917401748
sts,-60.6282348632812,-66.792854309082,75.1479797363281,128.707778930664,1917418415
sts,-62.0613403320312,-68.3704833984375,63.8298873901367,87.6086349487304,1917435082
sts,-63.323314666748,-69.5997848510742,58.6490440368652,66.8336029052734,1917451749
sts,-64.2992935180664,-70.5023956298828,48.3842582702636,47.2308197021484,1917468416
sts,-64.9574661254882,-71.2583847045898,38.3918495178222,40.1103897094726,1917485083
sts,-65.4598693847656,-71.8810729980468,33.2078323364257,35.1860198974609,1917501750
sts,-65.946044921875,-72.343017578125,30.7830448150634,29.371187210083,1917518417
sts,-66.3916625976562,-72.8160324096679,24.5953044891357,31.8453102111816,1917535084
sts,-66.8600006103515,-73.2686996459961,30.3639850616455,31.2940559387207,1917551751
sts,-67.2872161865234,-73.7452850341796,24.4809970855712,32.5937385559082,1917568418
sts,-67.6977233886718,-74.3210220336914,27.7730979919433,38.1313781738281,1917585085
sts,-68.1457443237304,-74.9871063232421,29.1162128448486,44.5653457641601,1917601752
sts,-68.6302108764648,-75.5632934570312,26.9772129058837,40.5256843566894,1917618419
sts,-69.0525512695312,-76.0066146850586,20.8117446899414,29.3764381408691,1917635086
sts,-69.4929885864257,-76.3005142211914,17.3928890228271,15.5307178497314,1917651753
sts,-69.9870223999023,-76.5256881713867,20.534496307373,8.13328170776367,1917668420
sts,-70.4569015502929,-76.7826080322265,20.5822372436523,9.54824447631836,1917685087
sts,-70.8614959716796,-76.9973602294921,19.6595115661621,7.23758506774902,1917701754
sts,-71.1619720458984,-77.1813888549804,16.5968723297119,6.73106527328491,1917718421
sts,-71.4030303955078,-77.3401184082031,11.7818050384521,7.25526714324951,1917735088
sts,-71.5579147338867,-77.4121704101562,7.13822126388549,6.35792970657348,1917751755
sts,-71.6235656738281,-77.3282623291015,3.94362616539001,0.916673719882965,1917768422
sts,-71.6187515258789,-77.1665115356445,0.0507452115416526,-2.33904361724853,1917785089
sts,-71.5504760742187,-76.976448059082,-3.71328711509704,-6.71620750427246,1917801756
sts,-71.3836135864257,-76.8169784545898,-15.9641599655151,-7.87663125991821,1917818423
sts,-71.0606231689453,-76.7254562377929,-26.6251792907714,-5.66463327407836,1917835090
sts,-70.6040115356445,-76.5889434814453,-32.7786102294921,-10.5917453765869,1917851757
sts,-70.0905227661132,-76.2423248291015,-32.6820335388183,-26.3742923736572,1917868424
sts,-69.5140151977539,-75.6524200439453,-34.3459167480468,-42.7447509765625,1917885091
sts,-68.8997650146484,-74.9463119506836,-34.2249794006347,-49.4937133789062,1917901758
sts,-68.2181854248046,-74.1562423706054,-44.5822639465332,-53.0910530090332,1917918425
sts,-67.3846054077148,-73.2576828002929,-55.4064407348632,-56.9975280761718,1917935092
sts,-66.3220520019531,-72.1598129272461,-68.2700729370117,-66.1236343383789,1917951759
sts,-64.8773345947265,-70.8578491210937,-86.9764099121093,-80.1520080566406,1917968426
sts,-63.3319053649902,-69.2109069824218,-87.3480377197265,-102.53823852539,1917985093
sts,-61.6787338256835,-67.5750503540039,-93.2220306396484,-98.6503219604492,1918001760
sts,-59.9711570739746,-65.7705764770507,-106.055953979492,-105.081642150878,1918018427
sts,-58.1644706726074,-63.6572494506835,-105.174850463867,-120.264999389648,1918035094
sts,-56.4162330627441,-60.971134185791,-96.7637557983398,-152.15950012207,1918051761
sts,-54.4242935180664,-57.9566001892089,-112.134178161621,-172.506317138671,1918068428
sts,-52.1068420410156,-54.6484642028808,-133.475311279296,-190.944641113281,1918085095
sts,-49.6961326599121,-51.2262802124023,-145.396652221679,-199.694931030273,1918101762
sts,-47.2513732910156,-48.1111602783203,-143.645935058593,-182.242324829101,1918118429
sts,-44.7873306274414,-45.1731910705566,-128.731842041015,-175.472702026367,1918135096
sts,-42.2959671020507,-42.2879066467285,-125.233200073242,-170.307586669921,1918151763
sts,-39.9859619140625,-39.6016540527343,-123.264495849609,-160.931518554687,1918168430
sts,-37.7426033020019,-36.7782859802246,-130.227233886718,-169.850372314453,1918185097
sts,-35.6053428649902,-34.2251319885253,-131.040664672851,-151.511886596679,1918201764
sts,-33.2338523864746,-31.8799419403076,-140.642471313476,-137.08543395996,1918218431
sts,-30.686294555664,-29.5002880096435,-152.417190551757,-142.161148071289,1918235098
sts,-28.7399139404296,-27.3480167388916,-122.075523376464,-130.228546142578,1918251765
sts,-27.0264625549316,-25.2823314666748,-99.2601699829101,-124.367416381835,1918268432
sts,-25.0938110351562,-23.1705894470214,-106.099884033203,-127.416603088378,1918285099
sts,-22.9836063385009,-21.0338401794433,-116.751976013183,-131.505889892578,1918301766
sts,-21.1305541992187,-18.8905487060546,-99.4904479980468,-131.059585571289,1918318433
sts,-19.4363403320312,-16.849172592163,-93.2146987915039,-126.005943298339,1918335100
sts,-17.8209514617919,-15.080901145935,-84.8545150756836,-109.103393554687,1918351767
sts,-16.2763042449951,-13.4841518402099,-77.395767211914,-97.0143890380859,1918368434
sts,-14.7826347351074,-11.7120876312255,-74.4745407104492,-105.947441101074,1918385101
sts,-13.2806673049926,-9.75617504119873,-77.2525405883789,-117.093338012695,1918401768
sts,-11.8782091140747,-8.05418014526367,-73.1013717651367,-102.255722045898,1918418435
sts,-10.5917711257934,-6.48235321044921,-65.6935577392578,-93.8159561157226,1918435102
sts,-9.46497726440429,-4.99904441833496,-55.0773773193359,-88.4206161499023,1918451769
sts,-8.3254222869873,-3.61837935447692,-55.5215415954589,-81.3078918457031,1918468436
sts,-7.22147560119628,-2.38161563873291,-53.3132743835449,-72.1290283203125,1918485103
sts,-6.17133235931396,-1.27503669261932,-49.5490379333496,-65.1537628173828,1918501770
sts,-5.20548248291015,-0.293215870857238,-44.1427764892578,-57.3275871276855,1918518437
sts,-4.2686538696289,0.677904307842254,-41.8528022766113,-54.2475776672363,1918535104
sts,-3.34633922576904,1.59431564807891,-40.5271797180175,-48.2705612182617,1918551771
sts,-2.51899027824401,2.43183875083923,-35.9941482543945,-43.0702476501464,1918568438
sts,-1.77192759513854,3.0781066417694,-34.1303100585937,-33.3438720703125,1918585105
sts,-1.06122779846191,3.68077707290649,-35.003677368164,-31.5939254760742,1918601772
sts,-0.448835104703903,4.12479639053344,-28.7583961486816,-22.8166828155517,1918618439
sts,0.112938970327377,4.38583469390869,-25.311237335205,-12.9405078887939,1918635106
sts,0.561291754245758,4.55895709991455,-20.6387462615966,-8.34238052368164,1918651773
sts,0.78732019662857,4.60540771484375,-11.723798751831,-1.49716484546661,1918668440
sts,0.811393022537231,4.51659774780273,-3.53019905090332,4.42219257354736,1918685107
sts,0.653794765472412,4.2865080833435,4.32069206237793,10.6235084533691,1918701774
sts,0.329329669475555,3.88550639152526,12.7876987457275,19.5962715148925,1918718441
sts,-0.113442696630954,3.34840178489685,18.8322925567626,27.066987991333,1918735108
sts,-0.684691607952117,2.727548122406,24.7191772460937,32.1062660217285,1918751775
sts,-1.35236048698425,1.97696650028228,30.0737018585205,40.3642272949218,1918768442
sts,-2.02620339393615,1.07528388500213,31.6349124908447,50.1518020629882,1918785109
sts,-2.76957368850708,0.110969975590705,36.1255149841308,53.9453887939453,1918801776
sts,-3.58973741531372,-0.929214596748352,41.6258659362793,58.011734008789,1918818443
sts,-4.48805427551269,-2.03000092506408,46.040412902832,61.9949302673339,1918835110
sts,-5.39979553222656,-3.25672721862792,46.349739074707,70.5228042602539,1918851777
sts,-6.36193084716796,-4.59360933303833,50.0393600463867,76.727066040039,1918868444
sts,-7.39014196395874,-6.00976848602294,55.68452835083,82.9313278198242,1918885111
sts,-8.49025440216064,-7.46591663360595,61.0412292480468,87.1388854980468,1918901778
sts,-9.69890022277832,-8.96254539489746,68.5680999755859,90.5210189819336,1918918445
sts,-11.0152750015258,-10.510627746582,76.5937728881836,93.0584564208984,1918935112
sts,-12.4197282791137,-12.1786880493164,82.5068664550781,99.2091903686523,1918951779
sts,-13.8698291778564,-13.8282566070556,85.9688186645507,98.8828659057617,1918968446
sts,-15.3582887649536,-15.526005744934,87.4333038330078,103.162727355957,1918985113
sts,-16.8712558746337,-17.1984481811523,88.3172073364257,102.079841613769,1919001780
sts,-18.4229736328125,-19.0165958404541,89.5535583496093,110.550582885742,1919018447
sts,-20.033405303955,-20.8994255065917,92.6694259643554,111.766418457031,1919035114
sts,-21.7016277313232,-22.8282127380371,94.7712249755859,112.622146606445,1919051781
sts,-23.3991527557373,-24.6946830749511,96.523193359375,111.620483398437,1919068448
sts,-25.0927276611328,-26.5982360839843,97.6686248779296,115.58203125,1919085115
sts,-26.8098545074462,-28.4009933471679,100.281288146972,110.977867126464,1919101782
sts,-28.5505008697509,-30.1913623809814,98.5350646972656,111.114120483398,1919118449
sts,-30.3972415924072,-32.1226272583007,102.185943603515,118.267036437988,1919135116
sts,-32.3992538452148,-34.1951522827148,105.364059448242,124.796188354492,1919151783
sts,-34.4360122680664,-36.3321304321289,108.316192626953,128.503158569335,1919168450
sts,-36.5458259582519,-38.5815963745117,115.637084960937,136.150650024414,1919185117
sts,-38.708438873291,-40.8656158447265,113.128150939941,139.023513793945,1919201784
sts,-40.8525772094726,-43.2046813964843,107.453002929687,142.515853881835,1919218451
sts,-43.1242637634277,-45.6434211730957,115.344589233398,148.395629882812,1919235118
sts,-45.4882202148437,-48.1516761779785,124.13621520996,154.554794311523,1919251785
sts,-47.7376518249511,-50.8872909545898,114.903587341308,168.699584960937,1919268452
sts,-49.9517745971679,-53.7772521972656,118.205154418945,173.560623168945,1919285119
sts,-52.3244934082031,-56.5391845703125,129.257720947265,162.838302612304,1919301786
sts,-54.5425796508789,-59.2841300964355,120.776145935058,161.231155395507,1919318453
sts,-56.6510429382324,-61.7976417541503,107.785598754882,147.808197021484,1919335120
sts,-58.6381568908691,-64.1747741699218,99.8738250732421,139.15818786621,1919351787
sts,-60.4555435180664,-66.3479766845703,86.4512786865234,125.006767272949,1919368454
sts,-62.1882705688476,-68.2856903076171,90.6952972412109,111.067237854003,1919385121
sts,-63.7688179016113,-69.9061660766601,86.3243637084961,93.985107421875,1919401788
sts,-65.0410919189453,-71.1805191040039,68.8542098999023,75.744873046875,1919418455
sts,-66.0272598266601,-72.1441955566406,53.2314376831054,60.0789337158203,1919435122
sts,-66.6685791015625,-72.8605270385742,35.2222633361816,47.2513999938964,1919451789
sts,-67.1563186645507,-73.5804824829101,26.6847038269042,48.646427154541,1919468456
sts,-67.559326171875,-74.3150329589843,21.9326019287109,49.7540893554687,1919485123
sts,-68.0032119750976,-74.9874725341796,19.8066310882568,46.752685546875,1919501790
sts,-68.5080337524414,-75.5951538085937,30.7463016510009,45.1296958923339,1919518457
sts,-68.9761123657226,-76.1477661132812,34.3241004943847,43.9500579833984,1919535124
sts,-69.4452514648437,-76.6013031005859,37.3047370910644,37.8389358520507,1919551791
sts,-69.9136352539062,-76.9279861450195,34.5673027038574,28.4800148010253,1919568458
sts,-70.356330871582,-77.2202224731445,27.7273750305175,21.9177837371826,1919585125
sts,-70.7659072875976,-77.5227813720703,18.0857772827148,16.5584716796875,1919601792
sts,-71.0619049072265,-77.7537841796875,5.64601278305053,8.30983257293701,1919618459
sts,-71.2102127075195,-77.9323272705078,-6.4456148147583,4.56355428695678,1919635126
sts,-71.2504577636718,-78.0261917114257,-13.1522932052612,-1.09654819965362,1919651793
sts,-71.2086029052734,-78.0787582397461,-16.1013946533203,-2.16879940032959,1919668460
sts,-71.1191940307617,-78.1386260986328,-15.339822769165,-1.16061580181121,1919685127
sts,-71.0057983398437,-78.1599349975586,-8.33570766448974,-1.85852229595184,1919701794
sts,-70.8570938110351,-78.1038818359375,-2.15726900100708,-3.46014833450317,1919718461
sts,-70.6198959350586,-77.9567565917968,-0.637086749076843,-6.02843904495239,1919735128
sts,-70.2392425537109,-77.7642517089843,-7.93266296386718,-8.10605716705322,1919751795
sts,-69.7845230102539,-77.4794464111328,-15.0351438522338,-16.2899761199951,1919768462
sts,-69.355712890625,-77.1462020874023,-20.0951175689697,-22.3857231140136,1919785129
sts,-68.9833984375,-76.7908248901367,-25.002477645874,-28.2031364440917,1919801796
sts,-68.627456665039,-76.3164520263671,-27.078327178955,-39.8379135131835,1919818463
sts,-68.1182022094726,-75.5745391845703,-38.9511375427246,-59.5112419128418,1919835130
sts,-67.3697738647461,-74.5437316894531,-55.157958984375,-77.6519622802734,1919851797
sts,-66.3608016967773,-73.35302734375,-71.5294952392578,-84.0052261352539,1919868464
sts,-64.9202041625976,-71.9141693115234,-91.3031692504882,-94.7150955200195,1919885131
sts,-63.2227096557617,-70.312629699707,-103.349639892578,-99.6254196166992,1919901798
sts,-61.3415870666503,-68.3832092285156,-106.239097595214,-119.260162353515,1919918465
sts,-59.0687255859375,-66.0255355834961,-119.428756713867,-144.915832519531,1919935132
sts,-56.5638465881347,-63.5543708801269,-130.832427978515,-147.842300415039,1919951799
sts,-54.6366729736328,-60.8903999328613,-100.563255310058,-153.80776977539,1919968466
sts,-52.8739051818847,-57.5085830688476,-99.0311508178711,-193.52049255371,1919985133
sts,-50.7922134399414,-53.8404884338378,-118.082275390625,-206.760772705078,1920001800
sts,-48.2302093505859,-50.6108207702636,-143.603530883789,-190.10986328125,1920018467
sts,-45.5355682373046,-47.2597351074218,-142.820236206054,-198.712249755859,1920035134
sts,-43.0806350708007,-44.2558364868164,-136.773071289062,-177.807785034179,1920051801
sts,-40.8104019165039,-41.2745552062988,-130.046478271484,-174.185226440429,1920068468
sts,-38.2993469238281,-38.4242477416992,-145.925354003906,-167.064254760742,1920085135
sts,-35.6994667053222,-35.8201828002929,-156.21565246582,-149.945526123046,1920101802
sts,-33.4822311401367,-33.2529869079589,-141.324737548828,-143.173431396484,1920118469
sts,-31.3616638183593,-30.726354598999,-136.07127380371,-143.932434082031,1920135136
sts,-29.2525672912597,-28.174367904663,-123.093086242675,-151.63198852539,1920151803
sts,-27.0539264678955,-26.0356941223144,-117.334564208984,-133.232803344726,1920168470
sts,-24.8849487304687,-24.1883754730224,-123.566619873046,-117.411666870117,1920185137
sts,-22.8807010650634,-22.3314743041992,-118.211448669433,-115.671211242675,1920201804
sts,-21.176471710205,-20.2776870727539,-101.354019165039,-122.943580627441,1920218471
sts,-19.4437770843505,-18.1008148193359,-99.6683883666992,-128.217620849609,1920235138
sts,-17.7496147155761,-15.9109020233154,-91.5473251342773,-129.104019165039,1920251805
sts,-16.1600914001464,-13.8415613174438,-79.5559844970703,-122.881965637207,1920268472
sts,-14.6479454040527,-11.9628267288208,-71.769058227539,-112.940849304199,1920285139
sts,-13.1504802703857,-10.220362663269,-72.9532089233398,-105.328300476074,1920301806
sts,-11.7224655151367,-8.64292049407959,-71.6750259399414,-96.1186828613281,1920318473
sts,-10.3037891387939,-7.05507898330688,-72.0376510620117,-96.7663421630859,1920335140
sts,-8.96213436126709,-5.52812957763671,-60.5724258422851,-91.4342193603515,1920351807
sts,-7.71814727783203,-4.21349143981933,-52.4774932861328,-77.7410583496093,1920368474
sts,-6.55918741226196,-2.92848324775695,-49.182201385498,-74.7574996948242,1920385141
sts,-5.52209568023681,-1.72692739963531,-43.5550880432128,-68.934944152832,1920401808
sts,-4.60803699493408,-0.541829884052276,-36.7174949645996,-66.749755859375,1920418475
sts,-3.69410872459411,0.500263810157775,-35.9386901855468,-56.8342857360839,1920435142
sts,-2.81078958511352,1.34548091888427,-32.5892868041992,-44.4972877502441,1920451809
sts,-1.8741545677185,2.08319759368896,-35.0035209655761,-37.7736434936523,1920468476
sts,-0.999859869480133,2.67605423927307,-35.2969169616699,-30.1260223388671,1920485143
sts,-0.218391582369804,3.11728143692016,-35.4489288330078,-22.4165630340576,1920501810
sts,0.490335881710052,3.48981833457946,-35.4277229309082,-20.6663055419921,1920518477
sts,1.01916587352752,3.6752860546112,-27.9788436889648,-10.1752777099609,1920535144
sts,1.28496444225311,3.73255038261413,-15.7394142150878,-3.2250108718872,1920551811
sts,1.3364759683609,3.59650778770446,-5.76301145553588,7.50046920776367,1920568478
sts,1.14143002033233,3.31186532974243,6.34437942504882,15.7761936187744,1920585145
sts,0.766053318977356,2.92401337623596,15.0913887023925,22.6195983886718,1920601812
sts,0.207512721419334,2.42880845069885,24.2739505767822,28.8687229156494,1920618479
sts,-0.553467392921447,1.7779324054718,33.378791809082,37.5240249633789,1920635146
sts,-1.40930664539337,1.06245172023773,36.073314666748,41.4048728942871,1920651813
sts,-2.26965427398681,0.241814866662025,36.5499649047851,47.6259498596191,1920668480
sts,-3.07832670211792,-0.704549670219421,34.0070533752441,54.0217475891113,1920685147
sts,-3.96793699264526,-1.8798804283142,35.8435363769531,67.2154846191406,1920701814
sts,-4.93831634521484,-3.13075947761535,41.0479087829589,72.1955490112304,1920718481
sts,-5.93339824676513,-4.4538607597351,42.9733085632324,76.9501724243164,1920735148
sts,-6.96790266036987,-5.81083869934082,47.0627403259277,79.9600524902343,1920751815
sts,-8.1187629699707,-7.23540115356445,55.9380683898925,86.0003509521484,1920768482
sts,-9.35447025299072,-8.72273731231689,64.3381652832031,91.8030624389648,1920785149
sts,-10.6387710571289,-10.2976236343383,70.1505279541015,98.5891647338867,1920801816
sts,-11.9675960540771,-11.8994092941284,74.6905441284179,101.612533569335,1920818483
sts,-13.369758605957,-13.5747356414794,80.1942367553711,107.218978881835,1920835150
sts,-14.8510875701904,-15.3007221221923,84.6354598999023,109.30362701416,1920851817
sts,-16.3703823089599,-17.1278362274169,85.8362655639648,114.654518127441,1920868484
sts,-17.9876861572265,-19.0326671600341,91.1753692626953,119.013206481933,1920885151
sts,-19.6654644012451,-20.9704990386962,94.1773147583007,121.22053527832,1920901818
sts,-21.4633769989013,-22.9204559326171,102.836112976074,121.85001373291,1920918485
sts,-23.3681735992431,-24.8838138580322,107.517753601074,121.289642333984,1920935152
sts,-25.2808017730712,-26.8280124664306,103.147598266601,119.853057861328,1920951819
sts,-27.1473369598388,-28.8417167663574,97.5828857421875,122.436294555664,1920968486
sts,-29.1843471527099,-30.8953781127929,104.377380371093,124.536231994628,1920985153
sts,-31.3164749145507,-33.0612640380859,116.408134460449,132.806182861328,1921001820
sts,-33.5355339050293,-35.2755737304687,116.184852600097,136.723388671875,1921018487
sts,-35.6901550292968,-37.5879249572753,109.840774536132,141.389236450195,1921035154
sts,-37.9207649230957,-39.9442749023437,114.081993103027,142.347625732421,1921051821
sts,-40.3471603393554,-42.4594078063964,123.156059265136,150.904541015625,1921068488
sts,-42.7816619873046,-45.1002159118652,123.146385192871,157.482009887695,1921085155
sts,-45.3143272399902,-47.9157371520996,130.559661865234,165.001983642578,1921101822
sts,-48.0147895812988,-50.8536071777343,140.841583251953,170.373275756835,1921118489
sts,-50.710838317871,-53.8092079162597,141.032928466796,174.398849487304,1921135156
sts,-53.3079833984375,-56.8245773315429,131.900360107421,180.788116455078,1921151823
sts,-55.8026809692382,-59.7143516540527,135.678268432617,174.781845092773,1921168490
sts,-58.1196250915527,-62.5287437438964,120.532623291015,171.391281127929,1921185157
sts,-60.1331481933593,-65.1107482910156,98.4419250488281,156.449783325195,1921201824
sts,-61.9403648376464,-67.2164764404296,87.967170715332,123.416107177734,1921218491
sts,-63.6145324707031,-68.9776153564453,83.3784713745117,99.1253433227539,1921235158
sts,-65.1147537231445,-70.5496673583984,75.7979431152343,88.1183929443359,1921251825
sts,-66.3392257690429,-71.971939086914,66.5633392333984,83.3045272827148,1921268492
sts,-67.264289855957,-73.1430282592773,52.5382194519043,70.9151000976562,1921285159
sts,-67.8396759033203,-74.0521011352539,32.8148498535156,57.1965827941894,1921301826
sts,-68.07958984375,-74.7637557983398,16.8966598510742,46.9796752929687,1921318493
sts,-68.202033996582,-75.387954711914,13.560468673706,42.481590270996,1921335160
sts,-68.1741714477539,-75.990982055664,4.54254245758056,43.3158378601074,1921351827
sts,-68.1080780029296,-76.6165771484375,1.71799612045288,46.8368225097656,1921368494
sts,-68.1030349731445,-77.0971298217773,3.38703274726867,38.3784866333007,1921385161
sts,-68.1675262451171,-77.3648834228515,9.96466255187988,27.7333030700683,1921401828
sts,-68.3765106201171,-77.5798721313476,18.9816246032714,23.43505859375,1921418495
sts,-68.7498779296875,-77.8099060058593,27.2655582427978,19.4631633758544,1921435162
sts,-69.1855926513671,-78.0792236328125,26.8360157012939,21.6027965545654,1921451829
sts,-69.5165023803711,-78.3571853637695,9.06747436523437,15.1199369430542,1921468496
sts,-69.8428573608398,-78.5777359008789,3.46402192115783,2.79066181182861,1921485163
sts,-70.1804504394531,-78.7336959838867,3.41491627693176,-5.42911624908447,1921501830
sts,-70.5977783203125,-78.8215179443359,12.1515808105468,-6.62538814544677,1921518497
sts,-71.096809387207,-78.8736190795898,25.3285961151123,0.538154959678649,1921535164
sts,-71.5407028198242,-78.8758544921875,29.5641937255859,3.32988786697387,1921551831
sts,-71.8900527954101,-78.7386932373046,26.9726047515869,-5.37040853500366,1921568498
sts,-72.0298385620117,-78.5455093383789,14.1096878051757,-11.7549562454223,1921585165
sts,-71.9665832519531,-78.3238983154296,-2.16935896873474,-17.8865337371826,1921601832
sts,-71.7041091918945,-77.9863204956054,-17.2479877471923,-28.0565929412841,1921618499
sts,-71.3027954101562,-77.4655303955078,-28.7431411743164,-40.2644233703613,1921635166
sts,-70.7932891845703,-76.7891998291015,-39.9733390808105,-50.0797119140625,1921651833
sts,-70.1351470947265,-75.9638442993164,-46.4253387451171,-61.2533302307128,1921668500
sts,-69.3488845825195,-75.0560455322265,-52.4572448730468,-66.4515609741211,1921685167
sts,-68.4104614257812,-74.0145416259765,-59.2829704284668,-71.8219909667968,1921701834
sts,-67.3532409667968,-72.862075805664,-61.6547470092773,-74.497573852539,1921718501
sts,-66.1356964111328,-71.6227035522461,-73.4660339355468,-78.9025726318359,1921735168
sts,-64.8392562866211,-70.0122909545898,-81.4049377441406,-103.113845825195,1921751835
sts,-63.001953125,-68.2257003784179,-102.615798950195,-111.584602355957,1921768502
sts,-60.8812866210937,-66.2317810058593,-107.205383300781,-121.561607360839,1921785169
sts,-58.8133201599121,-63.7298469543457,-110.06632232666,-146.158294677734,1921801836
sts,-56.8947486877441,-60.8852348327636,-109.55662536621,-160.680480957031,1921818503
sts,-54.9785919189453,-58.0115509033203,-113.30110168457,-160.515960693359,1921835170
sts,-52.686954498291,-55.0989875793457,-140.725677490234,-170.876907348632,1921851837
sts,-50.291820526123,-51.7798843383789,-134.330200195312,-198.405456542968,1921868504
sts,-47.7394104003906,-48.300552368164,-145.119735717773,-207.148635864257,1921885171
sts,-45.1764945983886,-45.3132934570312,-139.168701171875,-175.259475708007,1921901838
sts,-42.6653366088867,-42.6078147888183,-134.595153808593,-161.843566894531,1921918505
sts,-40.1514434814453,-39.7782516479492,-135.207733154296,-170.907241821289,1921935172
sts,-37.795238494873,-37.0199317932128,-132.00601196289,-167.849304199218,1921951839
sts,-35.3957252502441,-34.357006072998,-143.372497558593,-160.573348999023,1921968506
sts,-33.1864738464355,-32.0232582092285,-134.379699707031,-140.931015014648,1921985173
sts,-31.0182495117187,-29.6425304412841,-125.63272857666,-142.03042602539,1922001840
sts,-28.8918476104736,-27.368215560913,-115.505493164062,-137.118041992187,1922018507
sts,-26.6331253051757,-25.2016639709472,-119.798927307128,-132.027359008789,1922035174
sts,-24.532428741455,-23.0313053131103,-113.091033935546,-134.098602294921,1922051841
sts,-22.6247596740722,-20.903371810913,-101.926132202148,-131.19285583496,1922068508
sts,-20.702293395996,-18.7875347137451,-101.920761108398,-128.561889648437,1922085175
sts,-18.8783569335937,-16.830322265625,-96.9311294555664,-116.608245849609,1922101842
sts,-17.1355400085449,-14.7916374206542,-92.9696044921875,-120.160926818847,1922118509
sts,-15.5028629302978,-12.7761650085449,-84.950942993164,-120.073936462402,1922135176
sts,-13.9301614761352,-10.8630514144897,-81.6048965454101,-115.933418273925,1922151843
sts,-12.5098085403442,-9.11912155151367,-74.5221252441406,-104.796737670898,1922168510
sts,-11.2220315933227,-7.46859169006347,-66.9668579101562,-96.6271133422851,1922185177
sts,-9.93193054199218,-5.89581537246704,-67.2743835449218,-90.0273742675781,1922201844
sts,-8.73689079284668,-4.39426755905151,-62.4944763183593,-84.8851623535156,1922218511
sts,-7.63707542419433,-2.94070601463317,-57.5330467224121,-82.5227966308593,1922235178
sts,-6.55188751220703,-1.57590818405151,-55.5247573852539,-76.8783798217773,1922251845
sts,-5.51239204406738,-0.372025817632675,-53.2876472473144,-65.5310592651367,1922268512
sts,-4.50367355346679,0.739966034889221,-51.4782943725585,-58.8324584960937,1922285179
sts,-3.58341574668884,1.67975068092346,-45.3975372314453,-47.9788284301757,1922301846
sts,-2.79095911979675,2.47585439682006,-38.0681495666503,-39.5431785583496,1922318513
sts,-1.95204353332519,3.15125775337219,-40.9349822998046,-33.4421005249023,1922335180
sts,-1.21991443634033,3.67408990859985,-34.4730682373046,-25.0649890899658,1922351847
sts,-0.538820266723632,4.02786970138549,-33.194709777832,-15.7741222381591,1922368514
sts,0.00942651461809873,4.28780508041381,-29.3007850646972,-11.8913602828979,1922385181
sts,0.282606244087219,4.34506368637085,-16.2921123504638,-1.48086237907409,1922401848
sts,0.298677861690521,4.24963188171386,-3.8555564880371,5.39326047897338,1922418515
sts,0.112299486994743,4.0024881362915,6.19018936157226,12.5191316604614,1922435182
sts,-0.221286728978157,3.62618207931518,13.3244132995605,19.5780963897705,1922451849
sts,-0.741347253322601,3.09104228019714,22.4942665100097,28.7748489379882,1922468516
sts,-1.45761966705322,2.37850785255432,31.5617923736572,38.5587768554687,1922485183
sts,-2.3231782913208,1.56142115592956,41.2639083862304,45.612735748291,1922501850
sts,-3.33507108688354,0.59127652645111,55.2199363708496,55.2666778564453,1922518517
sts,-4.37232494354248,-0.451591730117797,56.0625572204589,60.2912979125976,1922535184
sts,-5.31281423568725,-1.56950879096984,47.5194816589355,65.19677734375,1922551851
sts,-6.22416830062866,-2.7899465560913,44.2908897399902,71.3722381591796,1922568518
sts,-7.09928703308105,-4.16366004943847,41.9685516357421,80.0953826904296,1922585185
sts,-8.03603649139404,-5.65593862533569,46.3422622680664,87.4514083862304,1922601852
sts,-9.11745166778564,-7.26803588867187,54.9561309814453,94.8362274169921,1922618519
sts,-10.314995765686,-8.86751842498779,63.1065292358398,94.8220520019531,1922635186
sts,-11.5990982055664,-10.5146131515502,70.1905746459961,98.1719131469726,1922651853
sts,-12.9681253433227,-12.250051498413,77.1471557617187,104.006942749023,1922668520
sts,-14.3774633407592,-14.0196132659912,81.6573333740234,106.700897216796,1922685187
sts,-15.8387031555175,-15.8518381118774,87.0808486938476,110.508903503417,1922701854
sts,-17.3952770233154,-17.7170505523681,93.5471115112304,113.103271484375,1922718521
sts,-19.0048198699951,-19.6152477264404,96.6393127441406,115.37158203125,1922735188
sts,-20.629186630249,-21.601276397705,97.7869415283203,119.086906433105,1922751855
sts,-22.270938873291,-23.5783596038818,97.2280883789062,117.654815673828,1922768522
sts,-23.9749298095703,-25.5531482696533,99.6148681640625,118.319549560546,1922785189
sts,-25.771427154541,-27.6053676605224,101.770591735839,123.321556091308,1922801856
sts,-27.7093257904052,-29.6790981292724,109.213119506835,123.147666931152,1922818523
sts,-29.6892070770263,-31.7438411712646,111.174812316894,121.925804138183,1922835190
sts,-31.8602638244628,-33.8150177001953,122.277122497558,121.108078002929,1922851857
sts,-34.0891647338867,-36.0108604431152,122.981666564941,128.265625,1922868524
sts,-36.3246879577636,-38.3318481445312,117.844345092773,135.665054321289,1922885191
sts,-38.6061744689941,-40.6966400146484,116.627517700195,138.645202636718,1922901858
sts,-41.0425872802734,-43.3428840637207,130.151626586914,154.600311279296,1922918525
sts,-43.5839309692382,-46.1310920715332,136.440460205078,163.889785766601,1922935192
sts,-46.013427734375,-48.9021530151367,126.241844177246,164.685226440429,1922951859
sts,-48.5431060791015,-51.7639503479003,135.045867919921,170.731735229492,1922968526
sts,-51.138370513916,-54.4353332519531,142.509231567382,159.148330688476,1922985193
sts,-53.661808013916,-57.1487045288085,132.850921630859,162.069885253906,1923001860
sts,-56.1553115844726,-59.9319190979003,125.003349304199,167.039169311523,1923018527
sts,-58.4857139587402,-62.766357421875,121.453590393066,168.226501464843,1923035194
sts,-60.7183113098144,-65.3291931152343,119.297874450683,151.67366027832,1923051861
sts,-62.7784690856933,-67.7187194824218,106.456359863281,139.188064575195,1923068528
sts,-64.502944946289,-69.7925643920898,86.0852355957031,120.254020690917,1923085195
sts,-65.9681854248046,-71.463394165039,74.9977035522461,97.2702102661132,1923101862
sts,-67.3269500732421,-72.7560272216796,73.7190017700195,76.4140853881836,1923118529
sts,-68.4455795288086,-73.7037200927734,58.5946006774902,57.4189071655273,1923135196
sts,-69.3190155029296,-74.514533996582,49.2067222595214,51.0492630004882,1923151863
sts,-70.0871124267578,-75.2166213989257,43.2456893920898,43.1898765563964,1923168530
sts,-70.7895965576171,-75.9000167846679,40.073932647705,39.9345703125,1923185197
sts,-71.3043670654296,-76.4444351196289,29.1508541107177,35.6641273498535,1923201864
sts,-71.5749359130859,-76.9198532104492,12.5917339324951,34.4437866210937,1923218531
sts,-71.6722106933593,-77.147216796875,3.04041337966918,22.5823574066162,1923235198
sts,-71.67919921875,-77.2903823852539,3.46367740631103,19.6864128112792,1923251865
sts,-71.7422561645507,-77.3046798706054,13.1191091537475,11.1317443847656,1923268532
sts,-71.8513488769531,-77.3868560791015,15.0842132568359,14.3791007995605,1923285199
sts,-71.9736633300781,-77.6426239013671,12.018774986267,21.1062831878662,1923301866
sts,-72.0923080444336,-77.9063339233398,6.43095874786376,16.9846782684326,1923318533
sts,-72.268569946289,-78.2015838623046,4.45692777633667,16.38108253479,1923335200
sts,-72.3960494995117,-78.4281997680664,-1.41637217998504,9.28223323822021,1923351867
sts,-72.440689086914,-78.6720123291015,-7.2894639968872,10.8448991775512,1923368534
sts,-72.4572448730468,-78.8952865600586,-10.0234317779541,9.91311264038086,1923385201
sts,-72.4987640380859,-79.054702758789,-12.3896265029907,7.74166870117187,1923401868
sts,-72.5380096435546,-79.1042938232421,-11.1344861984252,0.407248347997665,1923418535
sts,-72.5185089111328,-78.9932708740234,-11.7330455780029,-10.3337297439575,1923435202
sts,-72.368782043457,-78.7302322387695,-17.6805210113525,-19.3053283691406,1923451869
sts,-72.1311645507812,-78.3393783569336,-18.7696876525878,-25.2194328308105,1923468536
sts,-71.7867813110351,-77.8817825317382,-22.5348033905029,-29.8279209136962,1923485203
sts,-71.3330383300781,-77.3655090332031,-23.4809188842773,-37.9210700988769,1923501870
sts,-70.8253097534179,-76.6211776733398,-25.0317993164062,-51.6657752990722,1923518537
sts,-70.1723403930664,-75.6278610229492,-36.3932189941406,-62.6902084350585,1923535204
sts,-69.4735946655273,-74.5009689331054,-37.609073638916,-71.0625991821289,1923551871
sts,-68.5925674438476,-73.2887268066406,-56.9179611206054,-79.5147857666015,1923568538
sts,-67.5947494506836,-71.5472183227539,-71.8321533203125,-108.968315124511,1923585205
sts,-66.389045715332,-69.5484542846679,-86.8023376464843,-113.718254089355,1923601872
sts,-64.9363098144531,-67.678596496582,-93.2255020141601,-102.709022521972,1923618539
sts,-63.168212890625,-65.4814147949218,-111.106521606445,-132.31101989746,1923635206
sts,-60.9085731506347,-62.9328117370605,-122.403495788574,-154.799514770507,1923651873
sts,-58.7757720947265,-60.1881599426269,-112.976913452148,-162.332901000976,1923668540
sts,-56.7597503662109,-57.1990699768066,-113.622230529785,-173.975677490234,1923685207
sts,-54.8733177185058,-54.3142471313476,-98.8979568481445,-166.117477416992,1923701874
sts,-53.0411262512207,-51.5061988830566,-99.4060668945312,-165.472824096679,1923718541
sts,-50.9399261474609,-48.4981269836425,-115.649475097656,-183.40054321289,1923735208
sts,-48.7454376220703,-45.5700645446777,-121.937171936035,-183.889328002929,1923751875
sts,-46.2677688598632,-42.6544303894043,-142.704544067382,-184.942138671875,1923768542
sts,-43.8121452331543,-39.7041664123535,-140.887588500976,-183.824966430664,1923785209
sts,-41.2766952514648,-36.8079795837402,-138.44676208496,-174.721481323242,1923801876
sts,-38.8788833618164,-34.6520690917968,-133.041213989257,-128.631622314453,1923818543
sts,-36.3540916442871,-32.5650901794433,-144.976577758789,-126.735954284667,1923835210
sts,-33.874656677246,-30.2913875579834,-146.232711791992,-135.9296875,1923851877
sts,-31.5630531311035,-27.9655303955078,-138.051666259765,-138.557846069335,1923868544
sts,-29.2579593658447,-25.8638515472412,-132.059585571289,-127.917533874511,1923885211
sts,-27.0190086364746,-23.697359085083,-116.418350219726,-133.255783081054,1923901878
sts,-24.9744205474853,-21.6301479339599,-103.530364990234,-125.966232299804,1923918545
sts,-23.1213016510009,-19.4584655761718,-92.5983200073242,-129.577438354492,1923935212
sts,-21.2659835815429,-17.4028415679931,-92.664306640625,-121.720680236816,1923951879
sts,-19.5360698699951,-15.4853210449218,-90.8029708862304,-114.77350616455,1923968546
sts,-18.1339645385742,-13.6566371917724,-77.0427627563476,-109.750305175781,1923985213
sts,-16.9469966888427,-12.0409269332885,-64.9843063354492,-94.7876586914062,1924001880
sts,-15.4968471527099,-10.4491748809814,-79.2538986206054,-90.5826110839843,1924018547
sts,-14.1358041763305,-8.68320751190185,-72.2418746948242,-96.6612243652343,1924035214
sts,-13.1014995574951,-6.84411239624023,-50.1221046447753,-98.5827865600586,1924051881
sts,-12.0234785079956,-5.11261177062988,-48.8865318298339,-90.4574584960937,1924068548
sts,-11.02450466156,-3.56676888465881,-44.8330116271972,-80.5301971435546,1924085215
sts,-10.1032657623291,-2.24257540702819,-41.3629608154296,-69.6807403564453,1924101882
sts,-9.08038330078125,-1.00291919708251,-49.3585624694824,-67.2542495727539,1924118549
sts,-8.06573104858398,0.114413596689701,-46.6958847045898,-61.6052894592285,1924135216
sts,-6.76331377029418,1.11742281913757,-61.184398651123,-54.7786521911621,1924151883
sts,-4.97061967849731,1.98551249504089,-87.3073120117187,-47.4423599243164,1924168550
sts,-3.16991806030273,2.87638998031616,-92.6783294677734,-50.2612991333007,1924185217
sts,-1.51945984363555,3.60408377647399,-85.7058486938476,-41.8742141723632,1924201884
sts,-0.133362129330635,4.16539478302001,-71.2163925170898,-33.8913917541503,1924218551
sts,1.20217335224151,4.54046392440795,-69.1645431518554,-23.4536514282226,1924235218
sts,2.05437612533569,4.77054834365844,-45.8683013916015,-14.5683393478393,1924251885
sts,2.63907814025878,4.93191766738891,-33.1420631408691,-10.3848905563354,1924268552
sts,3.00109219551086,4.9448013305664,-21.5768661499023,-1.95345485210418,1924285219
sts,3.10204982757568,4.81939458847045,-7.82926654815673,5.60765218734741,1924301886
sts,2.95350313186645,4.52946996688842,5.1717529296875,15.2716693878173,1924318553
sts,2.58163022994995,4.09838581085205,15.792405128479,23.2232284545898,1924335220
sts,2.04710173606872,3.54095125198364,24.0334510803222,30.5613613128662,1924351887
sts,1.30733394622802,2.93328118324279,34.0114822387695,33.6032066345214,1924368554
sts,0.3209710419178,2.2130069732666,46.7686119079589,40.5167999267578,1924385221
sts,-1.11574518680572,1.33837115764617,70.0648422241211,49.5616645812988,1924401888
sts,-2.35227847099304,0.363133668899536,56.1570205688476,54.5251312255859,1924418555
sts,-3.4350619316101,-0.729327797889709,49.5503196716308,61.1632995605468,1924435222
sts,-4.48311042785644,-1.90033733844757,57.3407173156738,65.5903091430664,1924451889
sts,-5.47365522384643,-3.1041555404663,48.6217765808105,68.1547012329101,1924468556
sts,-6.49214601516723,-4.35761499404907,52.097370147705,71.1954727172851,1924485223
sts,-7.50798416137695,-5.7364158630371,53.7682952880859,78.2167053222656,1924501890
sts,-8.61530303955078,-7.1843671798706,62.2347908020019,82.9776153564453,1924518557
sts,-9.78709030151367,-8.70734119415283,67.3517990112304,88.4434509277343,1924535224
sts,-11.0079345703125,-10.2588129043579,70.0069503784179,91.1916809082031,1924551891
sts,-12.3145532608032,-11.8951578140258,76.7634963989257,96.5026016235351,1924568558
sts,-13.7474508285522,-13.628210067749,85.3264007568359,102.649642944335,1924585225
sts,-15.265905380249,-15.4565477371215,92.0214233398437,108.91958618164,1924601892
sts,-16.7783832550048,-17.3467369079589,92.2952270507812,113.556434631347,1924618559
sts,-18.361457824707,-19.2961177825927,96.8912124633789,116.928726196289,1924635226
sts,-20.0490608215332,-21.2266426086425,104.008560180664,115.115097045898,1924651893
sts,-21.8567466735839,-23.2706775665283,108.912353515625,121.66194152832,1924668560
sts,-23.7361259460449,-25.3489589691162,109.596313476562,123.260871887207,1924685227
sts,-25.9310932159423,-27.4554500579834,122.124847412109,125.921508789062,1924701894
sts,-27.8899364471435,-29.5976009368896,107.311988830566,127.828231811523,1924718561
sts,-30.1015796661376,-31.8767261505126,118.530311584472,135.853622436523,1924735228
sts,-32.2433280944824,-34.140625,117.642662048339,134.043380737304,1924751895
sts,-34.5117073059082,-36.4483299255371,125.589637756347,136.497146606445,1924768562
sts,-36.9597969055175,-38.8311119079589,133.862472534179,140.049835205078,1924785229
sts,-39.3221092224121,-41.3542327880859,125.597015380859,148.380340576171,1924801896
sts,-41.8089218139648,-44.1340179443359,136.430236816406,164.628952026367,1924818563
sts,-44.3113288879394,-46.9667358398437,133.68260192871,168.445587158203,1924835230
sts,-46.8509521484375,-49.8925247192382,133.530639648437,174.176956176757,1924851897
sts,-49.4585456848144,-52.6854095458984,141.242645263671,167.075057983398,1924868564
sts,-52.0662651062011,-55.6571083068847,140.413375854492,177.578994750976,1924885231
sts,-54.5656700134277,-58.7702484130859,133.324157714843,184.754272460937,1924901898
sts,-56.9782791137695,-61.5799293518066,124.483299255371,166.857955932617,1924918565
sts,-59.195255279541,-64.0728759765625,119.133865356445,148.595336914062,1924935232
sts,-61.203685760498,-66.3621292114257,104.741706848144,133.599487304687,1924951899
sts,-62.9811820983886,-68.4563751220703,90.4436111450195,116.663856506347,1924968566
sts,-64.4187545776367,-70.479736328125,73.1986007690429,109.837745666503,1924985233
sts,-65.9469833374023,-72.3020858764648,86.0418090820312,99.342041015625,1925001900
sts,-67.4402694702148,-73.8572845458984,83.46630859375,87.8593368530273,1925018567
sts,-68.7701339721679,-75.0944366455078,77.3244857788086,74.457893371582,1925035234
sts,-69.8195037841796,-76.2370986938476,62.4648742675781,74.8139114379882,1925051901
sts,-70.6887512207031,-77.2437591552734,53.7966499328613,68.8774719238281,1925068568
sts,-71.3852844238281,-77.9978256225586,36.101764678955,54.6447029113769,1925085235
sts,-72.0018234252929,-78.6117553710937,35.6069374084472,49.3101692199707,1925101902
sts,-72.6399536132812,-79.0436248779296,43.9802017211914,36.7201118469238,1925118569
sts,-73.2518310546875,-79.4245834350586,45.2221755981445,35.0266876220703,1925135236
sts,-73.7593917846679,-79.7813262939453,37.7905464172363,33.932014465332,1925151903
sts,-74.0936737060546,-80.0114288330078,19.693130493164,27.4643039703369,1925168570
sts,-74.3907089233398,-80.1574783325195,12.4653367996215,16.5681285858154,1925185237
sts,-74.7269287109375,-80.2029113769531,17.9122676849365,2.93026542663574,1925201904
sts,-75.0051498413086,-80.2316284179687,16.1700706481933,1.53078770637512,1925218571
sts,-75.1790466308593,-80.4199829101562,13.4956588745117,12.445650100708,1925235238
sts,-75.2696456909179,-80.6485061645507,7.66615915298461,14.5407352447509,1925251905
sts,-75.3087005615234,-80.7788696289062,1.03372228145599,7.284761428833,1925268572
sts,-75.3588714599609,-80.8088226318359,2.29087042808532,-0.904269337654113,1925285239
sts,-75.4031753540039,-80.8555755615234,3.01930952072143,0.956986665725708,1925301906
sts,-75.3903350830078,-80.9169082641601,-1.62882852554321,-0.516582608222961,1925318573
sts,-75.3410491943359,-80.9292755126953,-5.97922420501709,-5.02806854248046,1925335240
sts,-75.2549591064453,-80.8460845947265,-12.4233331680297,-11.472146987915,1925351907
sts,-74.9917678833007,-80.6961898803711,-28.2266464233398,-15.7130403518676,1925368574
sts,-74.620376586914,-80.3882446289062,-32.5802497863769,-27.0598831176757,1925385241
sts,-74.1946258544921,-80.0424652099609,-33.3185653686523,-31.4316253662109,1925401908
sts,-73.615737915039,-79.5425186157226,-45.1391868591308,-45.0937004089355,1925418575
sts,-72.9454193115234,-78.7598876953125,-51.830581665039,-63.1380386352539,1925435242
sts,-71.9911956787109,-77.7046737670898,-63.4986419677734,-77.2401580810546,1925451909
sts,-70.7158737182617,-76.4895858764648,-88.3148345947265,-84.4115829467773,1925468576
sts,-69.2537460327148,-75.0655517578125,-102.500427246093,-95.4744033813476,1925485243
sts,-67.7199554443359,-73.4169998168945,-103.740531921386,-107.409469604492,1925501910
sts,-65.8652572631836,-71.5640869140625,-111.459930419921,-118.300910949707,1925518577
sts,-63.8929977416992,-69.4621505737304,-102.919738769531,-128.637771606445,1925535244
sts,-61.8958168029785,-67.0765838623046,-105.008506774902,-142.672470092773,1925551911
sts,-59.7321548461914,-64.4733200073242,-111.778480529785,-153.315063476562,1925568578
sts,-57.184700012207,-61.7903671264648,-135.175338745117,-154.268081665039,1925585245
sts,-55.2263641357421,-58.9000282287597,-93.8524398803711,-162.048019409179,1925601912
sts,-53.1288261413574,-55.7925720214843,-123.461502075195,-175.806381225585,1925618579
sts,-50.9405364990234,-52.9209022521972,-130.259948730468,-166.9326171875,1925635246
sts,-48.7257804870605,-50.0271453857421,-118.258377075195,-175.944015502929,1925651913
sts,-46.4533653259277,-47.1845245361328,-118.008934020996,-171.445175170898,1925668580
sts,-44.2147254943847,-44.4440002441406,-118.996353149414,-162.003509521484,1925685247
sts,-41.954360961914,-41.77632522583,-129.32713317871,-157.120666503906,1925701914
sts,-39.6762809753418,-38.821304321289,-138.351440429687,-171.262329101562,1925718581
sts,-37.3970260620117,-35.8836860656738,-133.30126953125,-173.038833618164,1925735248
sts,-35.212963104248,-33.7749252319335,-125.889869689941,-131.560348510742,1925751915
sts,-33.3241920471191,-31.9756507873535,-114.33275604248,-109.361679077148,1925768582
sts,-31.3260040283203,-29.9437828063964,-121.529174804687,-118.559478759765,1925785249
sts,-29.4659118652343,-27.6836509704589,-111.744590759277,-131.710266113281,1925801916
sts,-27.4126586914062,-25.5013217926025,-121.93228149414,-128.826705932617,1925818583
sts,-25.5479736328125,-23.4172210693359,-109.30362701416,-125.13793182373,1925835250
sts,-23.9213027954101,-21.4085102081298,-97.151870727539,-121.135192871093,1925851917
sts,-22.3256874084472,-19.4593887329101,-87.8915557861328,-116.42381286621,1925868584
sts,-20.73628616333,-17.5937232971191,-84.944465637207,-112.012413024902,1925885251
sts,-19.1805725097656,-15.6346158981323,-85.7913436889648,-119.724021911621,1925901918
sts,-17.7127647399902,-13.8726339340209,-79.9472885131836,-109.760299682617,1925918585
sts,-16.3723392486572,-12.3738679885864,-68.469123840332,-95.0530776977539,1925935252
sts,-15.075138092041,-10.9075651168823,-65.3677749633789,-92.2000274658203,1925951919
sts,-13.8608980178833,-9.45408153533935,-59.5642776489257,-89.8623962402343,1925968586
sts,-12.6894807815551,-8.08527374267578,-55.6795806884765,-83.8013000488281,1925985253
sts,-11.541838645935,-6.79404878616333,-54.7992401123046,-78.3391647338867,1926001920
sts,-10.4486474990844,-5.61456537246704,-53.6236419677734,-70.6655960083007,1926018587
sts,-9.41968345642089,-4.49351024627685,-49.7772140502929,-65.5326843261718,1926035254
sts,-8.43463897705078,-3.50748562812805,-45.5543899536132,-56.0857391357421,1926051921
sts,-7.48437547683715,-2.63525629043579,-43.1051750183105,-46.9384803771972,1926068588
sts,-6.56413507461547,-1.72541642189025,-42.1410942077636,-48.494213104248,1926085255
sts,-5.64730024337768,-0.838419914245605,-43.6128807067871,-46.9518966674804,1926101922
sts,-4.82876062393188,-0.0368127264082431,-41.0312767028808,-39.7074546813964,1926118589
sts,-4.16246175765991,0.566891133785247,-36.2774124145507,-28.012409210205,1926135256
sts,-3.65518593788146,1.07951831817626,-28.5787010192871,-24.0682258605957,1926151923
sts,-3.2837598323822,1.44248533248901,-22.2015724182128,-16.4069652557373,1926168590
sts,-3.07582378387451,1.68383157253265,-14.5429773330688,-10.8958826065063,1926185257
sts,-3.0207142829895,1.75916683673858,-7.33592796325683,-3.11510705947875,1926201924
sts,-3.09505128860473,1.66948246955871,-1.37615823745727,5.32946014404296,1926218591
sts,-3.32487988471984,1.37845993041992,6.54900312423706,16.8086814880371,1926235258
sts,-3.69250321388244,0.871317088603973,13.3821783065795,28.6837921142578,1926251925
sts,-4.15600204467773,0.279181241989135,17.5038204193115,33.6538963317871,1926268592
sts,-4.71554279327392,-0.393569082021713,22.1651611328125,39.270637512207,1926285259
sts,-5.37853622436523,-1.1925686597824,27.5810832977294,46.6940040588378,1926301926
sts,-6.07537174224853,-2.1280722618103,29.648338317871,54.5529098510742,1926318593
sts,-6.88294887542724,-3.20064353942871,36.2553443908691,63.3858757019043,1926335260
sts,-7.76327943801879,-4.3430848121643,40.1631660461425,68.163101196289,1926351927
sts,-8.68183326721191,-5.59155368804931,42.7768478393554,74.4446334838867,1926368594
sts,-9.65846157073974,-6.96246004104614,47.3328857421875,82.0501174926757,1926385261
sts,-10.7160205841064,-8.40006256103515,53.5464859008789,88.0585250854492,1926401928
sts,-11.8804130554199,-9.9240608215332,61.692039489746,95.4128189086914,1926418595
sts,-13.0841407775878,-11.4433116912841,65.4364852905273,96.3171157836914,1926435262
sts,-14.3485307693481,-13.0095596313476,71.1798019409179,99.8193130493164,1926451929
sts,-15.6481142044067,-14.5946617126464,76.0355758666992,101.340919494628,1926468596
sts,-16.9922504425048,-16.265396118164,80.0933837890625,107.761886596679,1926485263
sts,-18.3786258697509,-17.9226837158203,83.0929412841796,107.383110046386,1926501930
sts,-19.8117008209228,-19.6737556457519,85.6247787475586,111.459083557128,1926518597
sts,-21.3326206207275,-21.5366554260253,90.1149063110351,116.746742248535,1926535264
sts,-22.9800052642822,-23.522289276123,98.9015045166015,123.176177978515,1926551931
sts,-24.7567310333251,-25.4305763244628,105.058860778808,118.280723571777,1926568598
sts,-26.7432537078857,-27.4300880432128,114.057067871093,123.858963012695,1926585265
sts,-28.5616245269775,-29.4965858459472,103.382904052734,127.183860778808,1926601932
sts,-30.542236328125,-31.5971050262451,108.817840576171,127.548454284667,1926618599
sts,-32.6272239685058,-33.7541923522949,110.228958129882,128.72085571289,1926635266
sts,-34.7605209350585,-36.0469932556152,107.903709411621,135.53645324707,1926651933
sts,-37.0894355773925,-38.5399703979492,120.197547912597,146.611572265625,1926668600
sts,-39.390266418457,-41.0373497009277,113.764221191406,144.921554565429,1926685267
sts,-41.7928428649902,-43.7252235412597,115.507034301757,154.811614990234,1926701934
sts,-44.3089714050293,-46.6847267150878,116.64549255371,170.387512207031,1926718601
sts,-46.919807434082,-49.7591094970703,120.249839782714,175.905838012695,1926735268
sts,-49.5582771301269,-52.796760559082,123.265068054199,174.453491210937,1926751935
sts,-52.2556724548339,-55.7823371887207,133.186279296875,172.15396118164,1926768602
sts,-54.8080406188964,-58.7892837524414,130.52456665039,173.9248046875,1926785269
sts,-57.3991889953613,-61.7599029541015,135.998321533203,172.579681396484,1926801936
sts,-59.908203125,-64.5342941284179,132.798797607421,163.213287353515,1926818603
sts,-62.1231651306152,-66.9159393310546,117.997146606445,142.312149047851,1926835270
sts,-63.9989624023437,-69.1064376831054,93.4385604858398,130.852722167968,1926851937
sts,-65.7309875488281,-70.9994430541992,94.6481323242187,109.307723999023,1926868604
sts,-67.3524627685546,-72.7037963867187,93.6240615844726,95.4706802368164,1926885271
sts,-68.7671890258789,-74.1755218505859,81.6082000732421,81.6257629394531,1926901938
sts,-69.8717193603515,-75.5325088500976,71.4226989746093,81.599494934082,1926918605
sts,-70.9074630737304,-76.5960693359375,70.7904510498046,68.7524490356445,1926935272
sts,-71.7959671020507,-77.3614654541015,62.4008598327636,49.2631721496582,1926951939
sts,-72.3128662109375,-77.9560394287109,35.5480804443359,39.6215782165527,1926968606
sts,-72.6770935058593,-78.3546447753906,15.0271263122558,32.083080291748,1926985273
sts,-73.0663146972656,-78.7328186035156,21.2880630493164,33.1378517150878,1927001940
sts,-73.3396377563476,-79.1226654052734,22.3779067993164,33.4824485778808,1927018607
sts,-73.5884704589843,-79.4558715820312,26.0153656005859,31.5059852600097,1927035274
sts,-73.8007202148437,-79.6748046875,26.572265625,23.5480842590332,1927051941
sts,-74.037124633789,-79.8999557495117,24.5001945495605,21.7312545776367,1927068608
sts,-74.2646408081054,-80.1150512695312,19.0160388946533,15.5348863601684,1927085275
sts,-74.4652938842773,-80.4370040893554,13.1049728393554,18.3693180084228,1927101942
sts,-74.6383056640625,-80.8045501708984,9.32150840759277,19.0532970428466,1927118609
sts,-74.7526092529296,-81.107421875,1.26209867000579,15.9569206237792,1927135276
sts,-74.8303070068359,-81.3061828613281,2.17030048370361,10.4090280532836,1927151943
sts,-74.8212966918945,-81.3944015502929,-2.36957263946533,6.38553619384765,1927168610
sts,-74.7974548339843,-81.3971176147461,1.38678073883056,3.30473613739013,1927185277
sts,-74.7920913696289,-81.3230056762695,3.1268310546875,-3.94388198852539,1927201944
sts,-74.8304748535156,-81.2198486328125,8.82311916351318,-5.78953552246093,1927218611
sts,-74.8673324584961,-81.1045303344726,4.96722555160522,-6.05433654785156,1927235278
sts,-74.7620010375976,-80.9674911499023,-12.1352701187133,-9.46957492828369,1927251945
sts,-74.623291015625,-80.7957229614257,-18.1581859588623,-16.5065841674804,1927268612
sts,-74.4147720336914,-80.3857650756836,-24.0452671051025,-37.1882095336914,1927285279
sts,-74.0773391723632,-79.7387924194336,-31.4189224243164,-52.0628662109375,1927301946
sts,-73.5242156982421,-78.9311294555664,-47.3569297790527,-63.5511054992675,1927318613
sts,-72.7700805664062,-77.9751205444336,-62.9578704833984,-71.0156097412109,1927335280
sts,-71.7445526123046,-76.9649963378906,-79.6202774047851,-73.3920974731445,1927351947
sts,-70.5686721801757,-75.8224487304687,-86.974853515625,-82.4734649658203,1927368614
sts,-69.1959533691406,-74.4623794555664,-95.3530654907226,-94.7877578735351,1927385281
sts,-67.5872039794921,-72.8301773071289,-109.058868408203,-104.883262634277,1927401948
sts,-65.6060485839843,-70.868896484375,-114.923751831054,-118.087577819824,1927418615
sts,-63.5388679504394,-68.7686157226562,-111.29490661621,-122.959007263183,1927435282
sts,-61.2668800354003,-66.5125656127929,-115.774169921875,-134.387237548828,1927451949
sts,-58.8866462707519,-63.8574600219726,-125.168670654296,-152.451889038085,1927468616
sts,-56.8266220092773,-61.3682327270507,-127.001770019531,-141.896545410156,1927485283
sts,-55.1365509033203,-58.8034706115722,-94.9063262939453,-150.077392578125,1927501950
sts,-53.4167747497558,-56.0484733581543,-105.211631774902,-161.151336669921,1927518617
sts,-51.4432029724121,-53.0730514526367,-118.505966186523,-173.15623474121,1927535284
sts,-49.1772689819335,-50.1040382385253,-133.371383666992,-175.117462158203,1927551951
sts,-46.9174499511718,-47.1858520507812,-130.112930297851,-174.38703918457,1927568618
sts,-44.6384849548339,-43.9583587646484,-128.816925048828,-192.629318237304,1927585285
sts,-42.3053665161132,-40.751953125,-133.910385131835,-185.943542480468,1927601952
sts,-40.0035362243652,-38.2538223266601,-132.239532470703,-143.726104736328,1927618619
sts,-37.5177383422851,-35.6856994628906,-134.390258789062,-152.444763183593,1927635286
sts,-34.9747123718261,-33.3865623474121,-132.302490234375,-138.524948120117,1927651953
sts,-32.7126121520996,-31.1783447265625,-113.563789367675,-131.491348266601,1927668620
sts,-30.4202461242675,-28.6757164001464,-117.973831176757,-148.748168945312,1927685287
sts,-27.9966430664062,-26.244327545166,-127.90502166748,-146.617904663085,1927701954
sts,-25.7590999603271,-23.8762168884277,-119.067588806152,-142.803649902343,1927718621
sts,-23.6836547851562,-21.4111728668212,-106.533287048339,-148.115478515625,1927735288
sts,-21.7077674865722,-18.9790287017822,-94.4978408813476,-146.126312255859,1927751955
sts,-19.5985050201416,-16.7147750854492,-102.025672912597,-136.650726318359,1927768622
sts,-17.5618515014648,-14.6131830215454,-103.677658081054,-128.759857177734,1927785289
sts,-15.7555112838745,-12.5724449157714,-92.4851913452148,-126.199317932128,1927801956
sts,-14.0948867797851,-10.6693792343139,-82.2457885742187,-117.166473388671,1927818623
sts,-12.4867620468139,-8.79782390594482,-75.8968658447265,-112.364204406738,1927835290
sts,-11.0098209381103,-7.0593843460083,-69.4788818359375,-100.692955017089,1927851957
sts,-9.69083881378173,-5.48534440994262,-62.1715774536132,-88.9960327148437,1927868624
sts,-8.47741985321045,-4.07166910171508,-58.4183959960937,-79.4331512451171,1927885291
sts,-7.28340482711792,-2.77976036071777,-58.4412498474121,-71.233413696289,1927901958
sts,-6.1222801208496,-1.52409493923187,-54.4700698852539,-67.6596221923828,1927918625
sts,-5.06946897506713,-0.388298124074935,-46.774658203125,-58.0226974487304,1927935292
sts,-4.11675119400024,0.686976253986358,-41.0391845703125,-53.0347557067871,1927951959
sts,-3.25081801414489,1.61591482162475,-37.9421043395996,-44.9951515197753,1927968626
sts,-2.46890044212341,2.45178747177124,-34.6970558166503,-41.5613250732421,1927985293
sts,-1.61055386066436,3.11957120895385,-42.6063690185546,-33.6402282714843,1928001960
sts,-0.981256604194641,3.55466961860656,-30.3481903076171,-22.5048770904541,1928018627
sts,-0.48948124051094,3.81653475761413,-25.3915195465087,-15.4644880294799,1928035294
sts,-0.188448682427406,3.90229082107543,-17.2802562713623,-6.74180126190185,1928051961
sts,-0.0681038275361061,3.87928533554077,-9.55547428131103,-1.79652655124664,1928068628
sts,-0.188900336623191,3.70139145851135,2.45241022109985,6.71884965896606,1928085295
sts,-0.51148122549057,3.33039021492004,12.9926462173461,18.3197269439697,1928101962
sts,-1.01268637180328,2.77788853645324,22.4142932891845,28.5078430175781,1928118629
sts,-1.6615765094757,2.04753804206848,29.3877811431884,39.0773849487304,1928135296
sts,-2.35602569580078,1.20567440986633,32.2161903381347,45.9526252746582,1928151963
sts,-3.0799503326416,0.23773418366909,37.0629844665527,53.6765556335449,1928168630
sts,-3.85301685333251,-0.791844069957733,37.8150177001953,56.7350883483886,1928185297
sts,-4.70785427093505,-1.95239233970642,42.9063186645507,64.0632095336914,1928201964
sts,-5.62112855911254,-3.23108220100402,47.1770401000976,70.8255462646484,1928218631
sts,-6.59398221969604,-4.59752321243286,51.9617309570312,75.9707717895507,1928235298
sts,-7.66919755935668,-6.01500511169433,59.6282424926757,79.7169113159179,1928251965
sts,-8.80843925476074,-7.51837873458862,65.2226333618164,86.1129379272461,1928268632
sts,-9.99755573272705,-9.11339664459228,69.1909408569336,92.2479629516601,1928285299
sts,-11.2811794281005,-10.7375440597534,75.6277542114257,94.9251098632812,1928301966
sts,-12.6537637710571,-12.4153985977172,82.3062057495117,99.421516418457,1928318633
sts,-14.1283826828002,-14.1330919265747,88.6091232299804,104.340759277343,1928335300
sts,-15.6828756332397,-15.9674921035766,92.9493255615234,112.80142211914,1928351967
sts,-17.2825336456298,-17.8680992126464,95.0953598022461,116.099136352539,1928368634
sts,-18.9507331848144,-19.8243579864501,98.4491271972656,117.880912780761,1928385301
sts,-20.7362537384033,-21.827486038208,102.471199035644,119.569267272949,1928401968
sts,-22.5401191711425,-23.9142208099365,100.470008850097,124.160148620605,1928418635
sts,-24.4667415618896,-26.0501194000244,108.407646179199,127.879066467285,1928435302
sts,-26.4770336151123,-28.18408203125,113.269058227539,127.545494079589,1928451969
sts,-28.4063129425048,-30.4234790802001,106.290557861328,135.85903930664,1928468636
sts,-30.3314571380615,-32.6877670288085,104.745704650878,136.815444946289,1928485303
sts,-32.3639297485351,-34.9143829345703,111.255210876464,133.756027221679,1928501970
sts,-34.54833984375,-37.2667617797851,123.651039123535,141.098388671875,1928518637
sts,-36.9845886230468,-39.744644165039,142.396850585937,148.468566894531,1928535304
sts,-39.5673561096191,-42.2924308776855,150.11831665039,154.035873413085,1928551971
sts,-42.1558990478515,-45.0482177734375,149.18684387207,166.009552001953,1928568638
sts,-44.77294921875,-47.9090347290039,155.398681640625,170.384445190429,1928585305
sts,-47.3652915954589,-50.832233428955,146.742431640625,174.24348449707,1928601972
sts,-49.8853187561035,-53.8233070373535,134.139923095703,178.057647705078,1928618639
sts,-52.5025634765625,-56.7369995117187,136.515106201171,174.183761596679,1928635306
sts,-55.047622680664,-59.6354064941406,126.306114196777,172.781616210937,1928651973
sts,-57.4053077697753,-62.3493957519531,112.418548583984,158.714263916015,1928668640
sts,-59.3437728881835,-64.776496887207,83.3335189819336,140.44480895996,1928685307
sts,-61.1427459716796,-66.7269973754882,83.8599472045898,112.08218383789,1928701974
sts,-62.7253646850585,-68.2338485717773,73.1381301879882,86.5439071655273,1928718641
sts,-64.0644836425781,-69.5604400634765,61.6158409118652,78.9245376586914,1928735308
sts,-65.2768478393554,-70.734748840332,56.003002166748,71.9508819580078,1928751975
sts,-66.4044570922851,-71.8129196166992,50.5298271179199,67.0957489013671,1928768642
sts,-67.3376846313476,-72.7987289428711,45.856201171875,61.5021514892578,1928785309
sts,-68.2017974853515,-73.7933807373046,47.1997718811035,66.4226379394531,1928801976
sts,-69.0059051513671,-74.8037414550781,45.8102416992187,70.5710296630859,1928818643
sts,-69.7245559692382,-75.7773818969726,46.9472122192382,68.4239425659179,1928835310
sts,-70.3597717285156,-76.7040100097656,45.0970726013183,65.0708236694336,1928851977
sts,-70.9597396850586,-77.4726409912109,41.2702331542968,55.5275154113769,1928868644
sts,-71.5674591064453,-78.1118774414062,43.557331085205,44.9246253967285,1928885311
sts,-72.0685501098632,-78.6738891601562,33.7011985778808,35.9464149475097,1928901978
sts,-72.5135116577148,-79.0565948486328,31.705280303955,21.1320705413818,1928918645
sts,-72.8254623413086,-79.404426574707,20.8029117584228,19.278751373291,1928935312
sts,-73.1363296508789,-79.8862380981445,14.6844596862792,25.9658699035644,1928951979
sts,-73.4555130004882,-80.3490524291992,10.0323467254638,23.0368061065673,1928968646
sts,-73.7215881347656,-80.7550964355468,8.02123546600341,22.2195968627929,1928985313
sts,-73.9248809814453,-81.0169677734375,5.54248428344726,18.5277709960937,1929001980
sts,-74.0445022583007,-81.1260833740234,3.73528623580932,14.4288139343261,1929018647
sts,-74.067756652832,-81.1925277709961,-0.263797998428344,16.5260982513427,1929035314
sts,-74.0329437255859,-81.2373657226562,-0.0725735798478126,12.7359180450439,1929051981
sts,-73.9688339233398,-81.240005493164,-2.85517621040344,6.22115516662597,1929068648
sts,-73.9011688232421,-81.1976165771484,-3.01646304130554,-1.56557667255401,1929085315
sts,-73.8012161254882,-81.1433486938476,-4.66930484771728,-6.01989364624023,1929101982
sts,-73.676284790039,-81.113296508789,-4.93363714218139,-7.03039360046386,1929118649
sts,-73.4458618164062,-81.0550155639648,-15.5038738250732,-13.2777004241943,1929135316
sts,-73.0626220703125,-80.8850784301757,-32.0926856994628,-23.4446487426757,1929151983
sts,-72.5761489868164,-80.5410919189453,-39.0742721557617,-34.5109481811523,1929168650
sts,-71.9448623657226,-80.0337600708007,-51.8247184753418,-44.1152763366699,1929185317
sts,-71.2498626708984,-79.4102630615234,-51.4029693603515,-51.4152641296386,1929201984
sts,-70.2894821166992,-78.5506515502929,-68.2504577636718,-66.2443695068359,1929218651
sts,-69.1145935058593,-77.2733001708984,-79.5342941284179,-89.054443359375,1929235318
sts,-67.7796173095703,-75.7150955200195,-95.4436264038086,-104.888397216796,1929251985
sts,-66.1230773925781,-74.0396499633789,-109.75804901123,-114.869415283203,1929268652
sts,-64.1989822387695,-72.0333023071289,-116.863708496093,-137.784194946289,1929285319
sts,-61.862808227539,-69.0115509033203,-130.576217651367,-188.082870483398,1929301986
sts,-59.4062957763671,-65.8804779052734,-118.828285217285,-174.519760131835,1929318653
sts,-57.1453399658203,-62.1778411865234,-121.089477539062,-185.639068603515,1929335320
sts,-55.2580375671386,-58.1588020324707,-103.565696716308,-197.934692382812,1929351987
sts,-53.0503387451171,-54.834171295166,-117.819305419921,-180.20442199707,1929368654
sts,-50.5142097473144,-52.0530395507812,-129.609786987304,-168.360107421875,1929385321
sts,-47.9376678466796,-49.4621963500976,-131.935180664062,-170.432571411132,1929401988
sts,-45.5934410095214,-46.5033988952636,-134.251419067382,-190.190231323242,1929418655
sts,-43.252643585205,-43.4159126281738,-144.178161621093,-183.239532470703,1929435322
sts,-40.7136077880859,-40.4081649780273,-152.056106567382,-169.26609802246,1929451989
sts,-38.0941581726074,-37.4132080078125,-151.379043579101,-178.799880981445,1929468656
sts,-35.8878555297851,-34.726448059082,-127.768363952636,-169.242401123046,1929485323
sts,-33.4906463623046,-32.3792572021484,-141.034881591796,-147.550888061523,1929501990
sts,-31.011245727539,-29.9299430847167,-143.547576904296,-146.537216186523,1929518657
sts,-28.6098957061767,-27.211311340332,-140.674240112304,-160.87629699707,1929535324
sts,-26.385663986206,-24.9787120819091,-128.601150512695,-132.992248535156,1929551991
sts,-24.4435520172119,-22.8203392028808,-107.55532836914,-128.944793701171,1929568658
sts,-22.4778957366943,-20.4897918701171,-105.806358337402,-135.471588134765,1929585325
sts,-20.5324058532714,-18.2960510253906,-102.725715637207,-126.986495971679,1929601992
sts,-18.7192478179931,-16.137071609497,-91.8694229125976,-126.444534301757,1929618659
sts,-17.0032024383544,-14.0082397460937,-88.5541458129882,-126.71427154541,1929635326
sts,-15.3020877838134,-12.0592794418334,-90.3603134155273,-118.515548706054,1929651993
sts,-13.6555662155151,-10.3553485870361,-87.3420181274414,-102.204772949218,1929668660
sts,-12.0737180709838,-8.77715969085693,-82.3403015136718,-92.3882369995117,1929685327
sts,-10.6009454727172,-7.22837924957275,-75.3880081176757,-88.4213714599609,1929701994
sts,-9.23520946502685,-5.68382930755615,-68.435562133789,-87.3472137451171,1929718661
sts,-8.02217483520507,-4.18345785140991,-59.7850341796875,-85.4690704345703,1929735328
sts,-6.93139171600341,-2.73677611351013,-55.1901321411132,-84.1931228637695,1929751995
sts,-5.87224721908569,-1.44215810298919,-52.9483299255371,-74.7405166625976,1929768662
sts,-4.83587455749511,-0.274930030107498,-51.7398872375488,-66.9342803955078,1929785329
sts,-3.91062068939209,0.734425485134124,-40.9283638000488,-55.7946243286132,1929801996
sts,-3.0336742401123,1.65738880634307,-36.7156753540039,-49.8902511596679,1929818663
sts,-1.95361959934234,2.57787680625915,-48.7455291748046,-51.1775970458984,1929835330
sts,-0.888988316059112,3.3533775806427,-47.1067428588867,-42.2101821899414,1929851997
sts,0.107341609895229,3.96917915344238,-45.0541496276855,-32.8872909545898,1929868664
sts,0.997487664222717,4.43344593048095,-40.5140190124511,-25.4260311126709,1929885331
sts,1.77337563037872,4.71733999252319,-35.1268501281738,-16.0527515411376,1929901998
sts,2.18013024330139,4.8182668685913,-18.5929489135742,-7.61387586593627,1929918665
sts,2.28945779800415,4.75984001159668,-5.88299560546875,0.4893499314785,1929935332
sts,2.12878847122192,4.52539825439453,6.18669271469116,10.1788721084594,1929951999
sts,1.74332213401794,4.11034536361694,16.9143924713134,20.481834411621,1929968666
sts,1.19268321990966,3.55549240112304,25.6289196014404,29.5131359100341,1929985333
sts,0.471244007349014,2.90801763534545,33.7828712463378,35.3819389343261,1930002000
sts,-0.38076713681221,2.10155940055847,38.5283050537109,45.4736976623535,1930018667
sts,-1.28387403488159,1.17681515216827,39.2762298583984,53.0664405822753,1930035334
sts,-2.15067863464355,0.112894967198371,40.5378608703613,60.8159561157226,1930052001
sts,-3.05602216720581,-1.03820526599884,42.848159790039,66.4205856323242,1930068668
sts,-4.06371641159057,-2.31785774230957,49.3715896606445,74.212043762207,1930085335
sts,-5.10413980484008,-3.70206665992736,51.1412162780761,81.313247680664,1930102002
sts,-6.18961191177368,-5.14285230636596,54.1074333190918,85.9280395507812,1930118669
sts,-7.36681604385376,-6.65145587921142,60.5341796875,89.4613494873046,1930135336
sts,-8.63866424560546,-8.23246479034423,68.0962982177734,94.4252853393554,1930152003
sts,-10.0037851333618,-9.84807109832763,75.8477249145507,98.0455703735351,1930168670
sts,-11.4213542938232,-11.5597229003906,81.5420532226562,103.661560058593,1930185337
sts,-12.9350891113281,-13.2974472045898,91.2345275878906,104.784217834472,1930202004
sts,-14.5886402130126,-15.1035757064819,102.667106628417,110.019424438476,1930218671
sts,-16.2525272369384,-16.8903846740722,100.08494567871,109.83341217041,1930235338
sts,-17.9618549346923,-18.8443546295166,100.973533630371,119.005737304687,1930252005
sts,-19.7158851623535,-20.9161396026611,103.350799560546,122.312705993652,1930268672
sts,-21.584882736206,-22.9857387542724,108.855964660644,121.77783203125,1930285339
sts,-23.4806785583496,-24.9989070892334,108.700508117675,120.343276977539,1930302006
sts,-25.5991497039794,-27.1028976440429,118.918106079101,125.48582458496,1930318673
sts,-27.6456317901611,-29.1554851531982,112.042945861816,124.555137634277,1930335340
sts,-29.917179107666,-31.1637802124023,125.453132629394,123.843109130859,1930352007
sts,-32.3068504333496,-33.5226287841796,130.921356201171,144.97509765625,1930368674
sts,-34.6783866882324,-35.8572540283203,126.213005065917,143.334350585937,1930385341
sts,-37.1322402954101,-38.2353248596191,126.390724182128,147.99656677246,1930402008
sts,-39.6764373779296,-40.5861892700195,131.73648071289,147.973068237304,1930418675
sts,-42.2525482177734,-43.0932121276855,131.573501586914,157.630233764648,1930435342
sts,-44.6697921752929,-45.7561416625976,123.642173767089,167.329895019531,1930452009
sts,-47.1593284606933,-48.68306350708,130.84471130371,180.335891723632,1930468676
sts,-49.6160316467285,-51.6240921020507,127.737869262695,177.390579223632,1930485343
sts,-51.9387054443359,-54.4946403503418,119.253189086914,170.090515136718,1930502010
sts,-54.1807556152343,-57.3772850036621,115.356925964355,168.790161132812,1930518677
sts,-56.2896995544433,-60.1299858093261,107.365531921386,159.153228759765,1930535344
sts,-58.2709121704101,-62.5981979370117,97.2263870239257,139.07029724121,1930552011
sts,-60.2009201049804,-64.814582824707,94.2060852050781,121.043983459472,1930568678
sts,-61.9640312194824,-66.7755584716796,89.4068222045898,107.214050292968,1930585345
sts,-63.4849700927734,-68.4550018310546,80.1344985961914,92.0525741577148,1930602012
sts,-64.6885070800781,-69.7887573242187,64.8910446166992,72.2294921875,1930618679
sts,-65.6272583007812,-70.8468475341796,54.250675201416,59.4850692749023,1930635346
sts,-66.30517578125,-71.7574615478515,42.5409927368164,54.4208106994628,1930652013
sts,-66.8262939453125,-72.6040954589843,30.0041408538818,50.3767318725585,1930668680
sts,-67.2452316284179,-73.3719940185546,23.8925476074218,44.9786911010742,1930685347
sts,-67.60546875,-74.0697860717773,24.2859134674072,42.0036163330078,1930702014
sts,-67.8710021972656,-74.7902374267578,21.7915744781494,48.3668022155761,1930718681
sts,-68.1315994262695,-75.5501403808593,24.3643836975097,55.2027969360351,1930735348
sts,-68.4230499267578,-76.2652206420898,31.1026878356933,56.184471130371,1930752015
sts,-68.751594543457,-76.7836608886718,31.9943180084228,44.248062133789,1930768682
sts,-69.201675415039,-77.2362747192382,29.0183601379394,36.6442337036132,1930785349
sts,-69.7138366699218,-77.6195678710937,23.904836654663,27.1446743011474,1930802016
sts,-70.320083618164,-77.8729248046875,28.593692779541,16.6737632751464,1930818683
sts,-70.9489822387695,-78.0341873168945,23.9477081298828,8.88992118835449,1930835350
sts,-71.4982681274414,-78.284797668457,17.2864322662353,12.224811553955,1930852017
sts,-71.9860382080078,-78.6445083618164,9.85685539245605,18.6332969665527,1930868684
sts,-72.3958740234375,-79.0020980834961,2.6723461151123,20.7212982177734,1930885351
sts,-72.6412734985351,-79.1565246582031,-2.67683029174804,8.33920097351074,1930902018
sts,-72.6858825683593,-79.1320266723632,-7.18147087097168,-1.91426742076873,1930918685
sts,-72.5847015380859,-79.2277908325195,-6.81659317016601,6.35807800292968,1930935352
sts,-72.4987869262695,-79.3980636596679,1.23198080062866,13.9929914474487,1930952019
sts,-72.4171142578125,-79.4896774291992,2.54260993003845,12.3193759918212,1930968686
sts,-72.3214721679687,-79.4364242553711,-3.16384601593017,0.470102250576019,1930985353
sts,-72.2736434936523,-79.3195037841796,-2.78155946731567,-7.30250787734985,1931002020
sts,-72.1371154785156,-79.1564331054687,-12.981141090393,-14.1496696472167,1931018687
sts,-71.9026870727539,-78.9273910522461,-22.8158798217773,-20.7707252502441,1931035354
sts,-71.5214462280273,-78.5192794799804,-34.0902137756347,-33.9620513916015,1931052021
sts,-70.9769439697265,-77.9085159301757,-46.8948402404785,-46.037612915039,1931068688
sts,-70.2263870239257,-77.120132446289,-62.5603599548339,-56.0400314331054,1931085355
sts,-69.4102249145507,-76.171142578125,-69.7745132446289,-68.2032852172851,1931102022
sts,-68.4222640991211,-75.0223999023437,-74.2402648925781,-82.5680084228515,1931118689
sts,-67.2591018676757,-73.8402557373046,-76.0830307006836,-84.7236099243164,1931135356
sts,-66.0200653076171,-72.5114974975586,-72.2747268676757,-88.3857192993164,1931152023
sts,-64.5654602050781,-70.6157302856445,-82.2220001220703,-112.127372741699,1931168690
sts,-62.8343124389648,-67.9485549926757,-95.1184387207031,-149.841522216796,1931185357
sts,-60.8833427429199,-64.564826965332,-112.375534057617,-192.216125488281,1931202024
sts,-58.7595710754394,-61.0162124633789,-126.827697753906,-202.39451599121,1931218691
sts,-56.4517822265625,-58.4368667602539,-134.623916625976,-149.759857177734,1931235358
sts,-54.1255569458007,-56.1684455871582,-115.283638000488,-141.16943359375,1931252025
sts,-51.5475692749023,-53.6223716735839,-121.212257385253,-161.843933105468,1931268692
sts,-49.2074699401855,-51.054401397705,-116.23087310791,-160.17138671875,1931285359
sts,-47.1768989562988,-47.7645530700683,-117.532516479492,-197.396377563476,1931302026
sts,-45.0016937255859,-44.6961364746093,-135.053741455078,-179.76023864746,1931318693
sts,-42.4846534729003,-41.8463325500488,-150.915451049804,-162.024322509765,1931335360
sts,-39.7091827392578,-38.6260948181152,-159.529434204101,-187.400604248046,1931352027
sts,-37.09423828125,-35.6696090698242,-150.198684692382,-175.269058227539,1931368694
sts,-34.7521209716796,-33.3287200927734,-134.418640136718,-142.5625,1931385361
sts,-32.3568458557128,-31.2477397918701,-132.551925659179,-126.406829833984,1931402028
sts,-29.6239318847656,-28.7199420928955,-149.942886352539,-148.977249145507,1931418695
sts,-27.3027915954589,-26.1269569396972,-130.898620605468,-151.510971069335,1931435362
sts,-25.1074790954589,-23.6544513702392,-126.440994262695,-147.448013305664,1931452029
sts,-23.0017223358154,-21.3162212371826,-116.898536682128,-142.653717041015,1931468696
sts,-20.9224395751953,-19.1172008514404,-110.821388244628,-133.211730957031,1931485363
sts,-18.9430828094482,-17.1700000762939,-98.232925415039,-116.474342346191,1931502030
sts,-17.0129947662353,-15.1660814285278,-92.8185958862304,-119.616096496582,1931518697
sts,-15.2202243804931,-12.9195842742919,-86.4248657226562,-133.20750427246,1931535364
sts,-13.5360679626464,-10.8139295578002,-85.2875137329101,-126.243003845214,1931552031
sts,-11.8861770629882,-8.82526874542236,-87.8964462280273,-120.018173217773,1931568698
sts,-10.3708305358886,-7.02521800994873,-77.4293670654296,-107.052169799804,1931585365
sts,-8.90302085876464,-5.24495315551757,-71.3925018310546,-103.818000793457,1931602032
sts,-7.46696758270263,-3.56260752677917,-71.5285186767578,-97.807014465332,1931618699
sts,-6.16272115707397,-1.96295988559722,-66.7773056030273,-93.4099502563476,1931635366
sts,-4.99420404434204,-0.502338707447052,-56.3051376342773,-83.7518463134765,1931652033
sts,-3.94649744033813,0.839508771896362,-45.05904006958,-75.9316711425781,1931668700
sts,-2.95106625556945,2.07809543609619,-41.2828140258789,-69.6513748168945,1931685367
sts,-1.95808315277099,3.11347484588623,-40.8982505798339,-56.891128540039,1931702034
sts,-0.80722951889038,3.96050477027893,-51.6218719482421,-45.4508438110351,1931718701
sts,0.183992817997932,4.65739059448242,-40.4708366394043,-37.3474197387695,1931735368
sts,1.12063741683959,5.21043014526367,-38.9905586242675,-30.1553707122802,1931752035
sts,1.99918270111083,5.58494472503662,-39.1190605163574,-21.4866008758544,1931768702
sts,2.56761455535888,5.83606386184692,-27.1857242584228,-16.1248302459716,1931785369
sts,2.87701725959777,5.92919540405273,-16.0151290893554,-8.06664752960205,1931802036
sts,2.8595175743103,5.79697895050048,0.994279265403747,3.55902051925659,1931818703
sts,2.62123489379882,5.46444654464721,11.8778972625732,13.7685108184814,1931835370
sts,2.19696235656738,4.95658445358276,20.4540271759033,23.9846458435058,1931852037
sts,1.57720184326171,4.29447031021118,29.7805404663085,33.6735649108886,1931868704
sts,0.75554746389389,3.52659368515014,39.5904197692871,41.2106437683105,1931885371
sts,-0.197194799780845,2.66396164894104,44.6718406677246,47.1523933410644,1931902038
sts,-1.18574225902557,1.597785115242,45.7007369995117,59.7693061828613,1931918705
sts,-2.09673905372619,0.408981889486312,42.6179313659668,67.9280014038086,1931935372
sts,-3.12925624847412,-0.916599988937377,48.8555030822753,76.4504776000976,1931952039
sts,-4.23191118240356,-2.30798053741455,53.3024940490722,80.7833251953125,1931968706
sts,-5.36375379562377,-3.76984786987304,55.0614891052246,85.080696105957,1931985373
sts,-6.55477714538574,-5.29173755645751,60.0079727172851,89.5503311157226,1932002040
sts,-7.81787395477294,-6.83769655227661,65.3871994018554,92.6933975219726,1932018707
sts,-9.1506175994873,-8.47274589538574,70.3388290405273,98.5623779296875,1932035374
sts,-10.5764598846435,-10.1842803955078,78.7589340209961,105.035896301269,1932052041
sts,-12.0709047317504,-11.9131784439086,84.789077758789,108.128562927246,1932068708
sts,-13.6401767730712,-13.7650384902954,89.4371185302734,115.73363494873,1932085375
sts,-15.2284889221191,-15.6659641265869,91.3842697143554,119.421325683593,1932102042
sts,-16.8520202636718,-17.624397277832,93.3528213500976,122.170707702636,1932118709
sts,-18.5583419799804,-19.6415481567382,97.7923202514648,124.372184753417,1932135376
sts,-20.3725872039794,-21.732400894165,103.222999572753,127.627075195312,1932152043
sts,-22.2262649536132,-23.8473720550537,103.229087829589,127.831008911132,1932168710
sts,-24.1260395050048,-25.9769229888916,106.835708618164,126.815361022949,1932185377
sts,-26.4228553771972,-28.1453914642334,130.316665649414,126.83031463623,1932202044
sts,-28.5534267425537,-30.3174781799316,122.623329162597,126.159889221191,1932218711
sts,-30.698371887207,-32.6297531127929,120.08869934082,133.507934570312,1932235378
sts,-32.9735832214355,-35.0017662048339,119.727264404296,138.266006469726,1932252045
sts,-35.2553749084472,-37.3538589477539,122.141654968261,138.728927612304,1932268712
sts,-37.5792922973632,-39.7393951416015,123.646003723144,142.001098632812,1932285379
sts,-39.8667068481445,-42.3004684448242,123.156372070312,151.461135864257,1932302046
sts,-42.2883911132812,-45.0514907836914,131.572494506835,162.093200683593,1932318713
sts,-44.8348999023437,-47.855712890625,138.809478759765,164.589233398437,1932335380
sts,-47.2235717773437,-50.7095642089843,129.671127319335,168.026641845703,1932352047
sts,-49.6028289794921,-53.4546165466308,130.068572998046,163.578796386718,1932368714
sts,-51.9297065734863,-56.1444702148437,122.626632690429,162.104873657226,1932385381
sts,-54.2392082214355,-58.8596801757812,119.186325073242,164.496856689453,1932402048
sts,-56.384407043457,-61.2270202636718,110.699081420898,144.003646850585,1932418715
sts,-58.4095916748046,-63.3252067565918,104.787673950195,125.68391418457,1932435382
sts,-60.3016929626464,-65.2647018432617,95.2949676513671,115.265411376953,1932452049
sts,-61.8439140319824,-67.0255050659179,73.7164077758789,103.804145812988,1932468716
sts,-63.2824478149414,-68.5145492553711,76.0312194824218,86.0605010986328,1932485383
sts,-64.5359344482421,-69.7309112548828,68.9966812133789,70.7804412841796,1932502050
sts,-65.6090469360351,-70.7110137939453,63.2525100708007,60.3196563720703,1932518717
sts,-66.5783157348632,-71.6161575317382,62.2194595336914,60.21826171875,1932535384
sts,-67.5286483764648,-72.5436172485351,59.5614967346191,62.7267036437988,1932552051
sts,-68.4193954467773,-73.5528030395507,58.9758377075195,64.0147628784179,1932568718
sts,-69.17626953125,-74.6024932861328,54.1221160888671,62.3511161804199,1932585385
sts,-69.8523864746093,-75.6558990478515,55.2801513671875,61.592903137207,1932602052
sts,-70.4296951293945,-76.5968399047851,52.0233688354492,58.5583000183105,1932618719
sts,-70.8760299682617,-77.4988250732421,45.2938690185546,64.7256393432617,1932635386
sts,-71.3362197875976,-78.2360916137695,44.4091911315918,60.1304664611816,1932652053
sts,-71.9375457763671,-78.8694992065429,49.4871788024902,52.1244277954101,1932668720
sts,-72.6766357421875,-79.3612976074218,50.6688079833984,37.0404319763183,1932685387
sts,-73.4238204956054,-79.7442779541015,41.6077613830566,26.8920211791992,1932702054
sts,-73.9082641601562,-80.0103073120117,12.3487949371337,17.012638092041,1932718721
sts,-74.0275802612304,-80.1758499145507,-14.7552461624145,7.88407468795776,1932735388
sts,-73.9370727539062,-80.2613830566406,-26.6821098327636,0.808894515037536,1932752055
sts,-73.8154983520507,-80.284553527832,-27.7147102355957,-3.82772946357727,1932768722
sts,-73.6726150512695,-80.2555465698242,-24.828176498413,-7.2361159324646,1932785389
sts,-73.485237121582,-80.171630859375,-21.3054103851318,-10.0754766464233,1932802056
sts,-73.1756057739257,-80.0339813232421,-25.2752532958984,-11.8936710357666,1932818723
sts,-72.7712860107421,-79.8558044433593,-26.0864963531494,-13.791386604309,1932835390
sts,-72.217903137207,-79.6199035644531,-29.263744354248,-18.611005783081,1932852057
sts,-71.5465545654296,-79.3158340454101,-34.0850296020507,-24.0715293884277,1932868724
sts,-70.7382583618164,-78.9547348022461,-44.353099822998,-28.4618682861328,1932885391
sts,-69.7630081176757,-78.4655838012695,-57.3539237976074,-38.3964004516601,1932902058
sts,-68.682746887207,-77.7453155517578,-63.4129104614257,-53.1899871826171,1932918725
sts,-67.6787490844726,-76.789680480957,-59.5557861328125,-66.2985229492187,1932935392
sts,-66.5540313720703,-75.7331771850586,-65.5008316040039,-73.2850265502929,1932952059
sts,-65.2404098510742,-74.5278701782226,-75.4275283813476,-89.8390274047851,1932968726
sts,-63.6723098754882,-72.8702011108398,-83.6893768310546,-125.611114501953,1932985393
sts,-61.8002166748046,-70.2839279174804,-100.018814086914,-177.048736572265,1933002060
sts,-59.9097061157226,-67.4527816772461,-111.864776611328,-171.385711669921,1933018727
sts,-58.2347145080566,-64.2294158935546,-116.967811584472,-166.878234863281,1933035394
sts,-56.7151679992675,-60.9192504882812,-100.508407592773,-157.973510742187,1933052061
sts,-55.0850028991699,-58.1433181762695,-93.1389846801757,-146.312881469726,1933068728
sts,-52.7449531555175,-55.6906471252441,-125.181251525878,-153.802429199218,1933085395
sts,-49.8158912658691,-52.8999443054199,-147.01123046875,-181.617645263671,1933102062
sts,-46.9773178100585,-49.9888763427734,-155.406143188476,-186.065109252929,1933118729
sts,-44.6864585876464,-46.9121360778808,-140.993392944335,-187.037445068359,1933135396
sts,-42.5453186035156,-43.3771286010742,-133.189788818359,-199.516403198242,1933152063
sts,-40.1525726318359,-39.640525817871,-151.208908081054,-206.059768676757,1933168730
sts,-37.4927101135253,-36.7255706787109,-166.093109130859,-163.587295532226,1933185397
sts,-35.086627960205,-34.0548477172851,-157.695327758789,-156.802856445312,1933202064
sts,-32.7785758972168,-31.5249919891357,-153.669204711914,-151.226867675781,1933218731
sts,-30.4763660430908,-29.0538825988769,-152.503921508789,-143.92854309082,1933235398
sts,-28.386697769165,-26.7433547973632,-132.305908203125,-131.462677001953,1933252065
sts,-26.2070159912109,-24.5267105102539,-127.765899658203,-126.636177062988,1933268732
sts,-24.1975440979003,-22.1439247131347,-116.655120849609,-135.514831542968,1933285399
sts,-22.1613731384277,-19.6832389831542,-119.054611206054,-142.825500488281,1933302066
sts,-20.2323684692382,-17.2825279235839,-109.468132019042,-142.146942138671,1933318733
sts,-18.4623489379882,-15.1467027664184,-92.9940032958984,-128.421234130859,1933335400
sts,-16.8022422790527,-13.1471996307373,-81.1130218505859,-120.435363769531,1933352067
sts,-15.2278537750244,-11.2561445236206,-76.9746856689453,-111.008850097656,1933368734
sts,-13.7186870574951,-9.53228187561035,-77.8447265625,-100.750633239746,1933385401
sts,-12.2403774261474,-7.69334411621093,-78.5625381469726,-106.884117126464,1933402068
sts,-10.7829599380493,-5.92570686340332,-75.3047180175781,-101.669677734375,1933418735
sts,-9.49643993377685,-4.24876403808593,-60.098030090332,-94.8758697509765,1933435402
sts,-8.25316524505615,-2.58204269409179,-55.3179512023925,-93.134048461914,1933452069
sts,-6.98601007461547,-1.06879377365112,-58.7378463745117,-83.2789230346679,1933468736
sts,-5.77015972137451,0.300506889820098,-55.7672462463378,-74.9865798950195,1933485403
sts,-4.57714986801147,1.47622549533844,-55.4126548767089,-62.7065467834472,1933502070
sts,-3.34927701950073,2.52968978881835,-56.5633659362793,-55.212661743164,1933518737
sts,-2.03684449195861,3.5012502670288,-62.9300994873046,-50.8283233642578,1933535404
sts,-0.788334608078002,4.32856559753418,-59.625373840332,-43.6505737304687,1933552071
sts,0.512297511100769,4.90764045715332,-65.3027038574218,-30.5728111267089,1933568738
sts,1.46276032924652,5.39625740051269,-49.2948608398437,-26.0900211334228,1933585405
sts,2.14134693145751,5.73028945922851,-35.6918296813964,-18.0097141265869,1933602072
sts,2.54017090797424,5.86101818084716,-21.4596691131591,-7.16654968261718,1933618739
sts,2.61231207847595,5.76040983200073,-5.13564252853393,4.39719581604003,1933635406
sts,2.43308806419372,5.46904850006103,6.98554182052612,13.6527462005615,1933652073
sts,2.02304434776306,5.03967714309692,18.2864112854003,21.4632587432861,1933668740
sts,1.38224601745605,4.44123601913452,30.2339038848876,31.3102149963378,1933685407
sts,0.587574779987335,3.62637114524841,36.8185157775878,42.9580535888671,1933702074
sts,-0.28983262181282,2.7128779888153,40.2491035461425,49.0392189025878,1933718741
sts,-1.22030651569366,1.73310208320617,45.4605674743652,53.3645286560058,1933735408
sts,-2.10380125045776,0.548893511295318,42.2700996398925,65.4667358398437,1933752075
sts,-3.10162663459777,-0.735210418701171,49.6741256713867,71.957046508789,1933768742
sts,-4.13769960403442,-2.10920906066894,53.7180480957031,78.0806503295898,1933785409
sts,-5.19705057144165,-3.50649785995483,56.9185409545898,78.6297531127929,1933802076
sts,-6.32194900512695,-5.02764892578125,61.8467025756835,86.2441482543945,1933818743
sts,-7.55082130432128,-6.64388275146484,70.5966796875,93.1229629516601,1933835410
sts,-8.86167240142822,-8.29550266265869,76.3137283325195,96.8842315673828,1933852077
sts,-10.2473440170288,-9.99768352508545,81.5865936279296,100.031295776367,1933868744
sts,-11.6870002746582,-11.7114448547363,87.2373580932617,101.265892028808,1933885411
sts,-13.2082576751708,-13.5004415512084,93.4671554565429,106.659873962402,1933902078
sts,-14.7782564163208,-15.3258552551269,97.4339904785156,109.420997619628,1933918745
sts,-16.4503421783447,-17.2452239990234,105.312950134277,114.870559692382,1933935412
sts,-18.257225036621,-19.2212734222412,112.231567382812,118.056594848632,1933952079
sts,-20.1148891448974,-21.1777210235595,112.475318908691,116.499382019042,1933968746
sts,-21.9812393188476,-23.1378936767578,110.079437255859,117.367515563964,1933985413
sts,-23.8374595642089,-25.2191772460937,105.404052734375,123.969108581542,1934002080
sts,-25.6857299804687,-27.3455200195312,100.578498840332,126.565551757812,1934018747
sts,-27.6165409088134,-29.4374027252197,103.962036132812,126.600196838378,1934035414
sts,-29.7840843200683,-31.6315422058105,118.719055175781,134.402801513671,1934052081
sts,-31.9580497741699,-33.77583694458,118.664665222167,132.771057128906,1934068748
sts,-34.0998992919921,-35.9479598999023,115.016998291015,134.767181396484,1934085415
sts,-36.3223724365234,-38.2494735717773,118.054862976074,143.362258911132,1934102082
sts,-38.6575241088867,-40.6120262145996,122.593620300292,149.016967773437,1934118749
sts,-41.209861755371,-43.1591186523437,134.28758239746,161.698669433593,1934135416
sts,-43.753173828125,-45.8795852661132,138.208282470703,172.668670654296,1934152083
sts,-46.2947731018066,-48.6644897460937,138.833786010742,173.631042480468,1934168750
sts,-48.8197555541992,-51.3364753723144,137.857391357421,163.816589355468,1934185417
sts,-51.4273643493652,-54.0975112915039,140.656799316406,167.736541748046,1934202084
sts,-53.8265914916992,-56.9368247985839,125.336730957031,169.494049072265,1934218751
sts,-56.1849670410156,-59.6039199829101,121.495719909667,154.625518798828,1934235418
sts,-58.4282608032226,-62.2923774719238,109.907623291015,157.446243286132,1934252085
sts,-60.4375228881835,-64.6962051391601,94.9965667724609,143.130554199218,1934268752
sts,-62.2213172912597,-66.851577758789,83.4749298095703,127.302818298339,1934285419
sts,-64.011116027832,-68.7185897827148,92.7966766357421,107.336570739746,1934302086
sts,-65.5594635009765,-70.3062057495117,80.515884399414,92.5545883178711,1934318753
sts,-66.8301315307617,-71.5648651123046,68.0226135253906,72.6221771240234,1934335420
sts,-67.8344116210937,-72.6861801147461,56.7588539123535,64.2927017211914,1934352087
sts,-68.7174606323242,-73.7848587036132,49.1109466552734,62.4789428710937,1934368754
