Label,Left_Hip_q,Right_Hip_q,Left_Hip_qd,Right_Hip_qd,SampleTimeFine
sq,-8.38541564941406,-9.60050354003906,-5.20038604736328,12.0129585266113,468133810
sq,-8.46862182617187,-9.40829620361328,-5.84697723388672,10.2071762084961,468150477
sq,-8.56217346191406,-9.24498138427734,-7.63225555419922,7.36570358276367,468167144
sq,-8.68428955078125,-9.12713012695312,-9.20248031616211,4.24289703369141,468183811
sq,-8.83152923583984,-9.05924377441406,-8.90016555786133,2.5486946105957,468200478
sq,-8.97393188476562,-9.01846466064453,-8.5453987121582,2.33316421508789,468217145
sq,-9.11065826416016,-8.98113403320312,-6.31284713745117,1.40857696533203,468233812
sq,-9.21166381835937,-8.95859680175781,-7.3699951171875,0.652313232421875,468250479
sq,-9.32958374023437,-8.94815979003906,-5.83648681640625,0.845432281494141,468267146
sq,-9.42296752929687,-8.93463287353516,-4.59814071655273,0.395774841308594,468283813
sq,-9.49653778076172,-8.92830047607422,-4.70972061157227,0.393390655517578,468300480
sq,-9.57189331054687,-8.92200622558594,-4.09698486328125,0.06103515625,468317147
sq,-9.63744506835937,-8.92102966308594,-4.01067733764648,-0.0987052917480469,468333814
sq,-9.70161590576172,-8.92260894775391,-3.86333465576172,-0.147819519042969,468350481
sq,-9.76342926025391,-8.92497406005859,-2.95352935791016,-0.101566314697266,468367148
sq,-9.81068572998047,-8.92659912109375,-2.18868255615234,-0.683784484863281,468383815
sq,-9.84570465087891,-8.93753967285156,-1.57880783081055,-0.190258026123047,468400482
sq,-9.87096557617187,-8.94058380126953,-2.59160995483398,0.371932983398437,468417149
sq,-9.91243133544922,-8.93463287353516,-2.3503303527832,0.565528869628906,468433816
sq,-9.95003662109375,-8.92558441162109,-2.0756721496582,0.852108001708984,468450483
sq,-9.98324737548828,-8.91195068359375,-1.90448760986328,0.787258148193359,468467150
sq,-10.0137191772461,-8.89935455322266,-1.75237655639648,0.66375732421875,468483817
sq,-10.0417572021484,-8.88873443603516,-1.79243087768555,0.631332397460937,468500484
sq,-10.0704360961914,-8.87863311767578,-1.52921676635742,1.0528564453125,468517151
sq,-10.0949035644531,-8.86178741455078,-1.03044509887695,1.37472152709961,468533818
sq,-10.1113906860352,-8.83979187011719,-0.674724578857422,1.5254020690918,468550485
sq,-10.1221862792969,-8.81538543701172,-0.596046447753906,2.15625762939453,468567152
sq,-10.1317230224609,-8.78088531494141,-0.907421112060547,2.61735916137695,468583819
sq,-10.1462417602539,-8.73900756835937,-1.25980377197266,4.52709197998047,468600486
sq,-10.1663986206055,-8.66657409667969,-0.904083251953125,6.49309158325195,468617153
sq,-10.1808639526367,-8.56268463134766,0.095367431640625,7.26604461669922,468633820
sq,-10.1793380737305,-8.44642791748047,0.31280517578125,9.10758972167969,468650487
sq,-10.174333190918,-8.30070648193359,-0.230312347412109,11.6124153137207,468667154
sq,-10.1780181884766,-8.11490783691406,-0.217914581298828,14.6980285644531,468683821
sq,-10.1815048217773,-7.87973937988281,-2.16150283813477,17.2419548034668,468700488
sq,-10.2160888671875,-7.60386810302734,-3.31211090087891,18.8379287719727,468717155
sq,-10.2690826416016,-7.30246124267578,-3.43227386474609,20.3733444213867,468733822
sq,-10.3239990234375,-6.97648773193359,-0.718116760253906,25.4812240600586,468750489
sq,-10.3354888916016,-6.56878814697266,6.33430480957031,31.9972038269043,468767156
sq,-10.2341400146484,-6.05683288574219,16.3698196411133,36.2191200256348,468783823
sq,-9.97222290039062,-5.47732696533203,29.2024612426758,44.1970825195313,468800490
sq,-9.50498352050781,-4.77017364501953,39.8926734924316,53.1373023986816,468817157
sq,-8.86670074462891,-3.91997680664062,43.5457229614258,58.2075119018555,468833824
sq,-8.16996917724609,-2.98865661621094,55.1915168762207,69.0789222717285,468850491
sq,-7.28690490722656,-1.88339385986328,65.7720565795898,73.8101005554199,468867158
sq,-6.23455200195312,-0.702432250976562,80.9364318847656,74.6941566467285,468883825
sq,-4.93956909179687,0.492674255371094,90.111255645752,69.15283203125,468900492
sq,-3.49778900146484,1.59911956787109,99.4772911071777,66.6365623474121,468917159
sq,-1.90615234375,2.66530456542969,93.543529510498,62.431812286377,468933826
sq,-0.409455871582031,3.66421356201172,95.911979675293,60.7483386993404,468950493
sq,1.12513580322266,4.63618698120117,110.645532608033,69.3287849426278,468967160
sq,2.89546432495118,5.74544754028321,114.835500717162,92.530250549316,468983827
sq,4.73283233642577,7.22593154907227,100.896596908569,84.4094753265381,469000494
sq,6.34717788696288,8.57648315429688,98.7329483032231,87.4769687652588,469017161
sq,7.92690505981445,9.97611465454102,109.008073806763,97.8231430053707,469033828
sq,9.67103424072266,11.5412849426269,123.329162597656,91.6199684143071,469050495
sq,11.6443008422852,13.0072044372559,117.800235748291,89.804887771606,469067162
sq,13.5291046142578,14.4440826416016,94.8781967163077,83.8327407836918,469083829
sq,15.0471557617187,15.7854064941406,88.5443687438968,86.3571166992186,469100496
sq,16.4638656616211,17.1671203613281,94.4740772247314,73.9426612853999,469117163
sq,17.9754508972168,18.3502029418945,111.950635910034,85.3905677795415,469133830
sq,19.7666610717773,19.7164520263672,117.712259292602,92.2873020172119,469150497
sq,21.650057220459,21.1930488586426,90.7444953918457,88.282585144043,469167164
sq,23.1019691467285,22.6055702209473,67.8448677062988,99.4043350219727,469183831
sq,24.1874870300293,24.1960395812988,68.0658817291264,87.7318382263179,469200498
sq,25.2765411376953,25.5997489929199,85.8194828033443,87.8417491912846,469217165
sq,26.6496528625488,27.0052169799805,97.0351696014404,86.0154628753662,469233832
sq,28.2022155761719,28.3814643859863,75.5395889282227,87.5182151794429,469250499
sq,29.4108489990234,29.7817558288574,66.2176609039307,93.4574604034428,469267166
sq,30.4703315734863,31.2770751953125,62.4146461486816,90.7261371612549,469283833
sq,31.4689659118652,32.7286933898926,67.6348209381099,88.1986618041992,469300500
sq,32.551123046875,34.1398719787598,72.8018283843994,86.5170955657959,469317167
sq,33.7159523010254,35.5241455078125,71.1774826049813,86.6812467575073,469333834
sq,34.8547920227051,36.9110454559326,66.9640302658077,85.3897333145137,469350501
sq,35.926216506958,38.2772811889648,67.7998065948486,81.1614990234375,469367168
sq,37.0110134124756,39.5758651733398,68.3670043945312,82.4496746063232,469383835
sq,38.1048854827881,40.895059967041,75.7551193237305,81.628799438477,469400502
sq,39.3169673919678,42.2011207580566,67.9342746734619,84.7398042678833,469417169
sq,40.4039157867432,43.5569576263428,69.2392587661743,71.184396743774,469433836
sq,41.511743927002,44.6959079742432,69.2675113677979,68.4419870376591,469450503
sq,42.6200241088867,45.7909797668457,78.7379741668701,81.5036296844482,469467170
sq,43.8798316955566,47.0950378417969,83.6565494537354,72.4973678588867,469483837
sq,45.2183364868164,48.2549957275391,77.1403312683105,81.3006162643433,469500504
sq,46.4525817871094,49.5558055877686,78.5148143768311,82.5520753860474,469517171
sq,47.7088188171387,50.8766387939453,73.0342864990234,84.2100381851196,469533838
sq,48.8773674011231,52.2239994049072,71.9579458236694,74.1147994995117,469550505
sq,50.0286945343018,53.4098361968994,71.9601511955261,68.1180953979492,469567172
sq,51.1800569534302,54.4997257232666,79.7390341758728,78.9453387260437,469583839
sq,52.4558815002441,55.7628511428833,76.7897963523865,77.9390335083008,469600506
sq,53.6845182418823,57.0098756790161,70.3117251396179,73.3243227005005,469617173
sq,54.8095058441162,58.1830648422241,69.2262053489685,65.6007528305054,469633840
sq,55.9171251296997,59.2326768875122,67.4181580543518,61.3951086997986,469650507
sq,56.9958156585693,60.214998626709,63.3788704872131,61.2969994544983,469667174
sq,58.0098775863647,61.195750617981,60.1071119308472,59.2416226863861,469683841
sq,58.9715913772583,62.1436165809631,56.3258528709412,51.2378215789795,469700508
sq,59.8728050231934,62.9634217262268,51.0146915912628,47.8074848651886,469717175
sq,60.6890400886536,63.7283414840698,47.8337705135346,44.3298220634465,469733842
sq,61.4543804168701,64.437618637085,39.5609736442566,32.738521695137,469750509
sq,62.0873559951782,64.9614349842072,28.1373560428619,21.2218314409256,469767176
sq,62.537553691864,65.300984287262,20.695686340332,15.63461124897,469783843
sq,62.8686846733093,65.5511380672455,13.7040466070175,2.32048332691193,469800510
sq,63.0879494190216,65.5882658004761,3.03833186626434,-6.05481863021851,469817177
sq,63.1365627288818,65.4913887023926,-11.5376710891724,-21.9004601240158,469833844
sq,62.9519599914551,65.1409813404083,-21.2536752223969,-24.8745381832123,469850511
sq,62.6119011878967,64.7429887294769,-26.4486968517304,-39.1591936349869,469867178
sq,62.188722038269,64.1164416313171,-34.7594618797302,-46.7244684696202,469883845
sq,61.6325706481934,63.3688501358032,-46.3975667953491,-61.9699656963348,469900512
sq,60.8902095794678,62.3773306846619,-53.0968606472015,-65.849781036377,469917179
sq,60.0406598091125,61.3237341880798,-58.7198138237,-70.3690052032471,469933846
sq,59.1011427879333,60.1978301048279,-62.5847280025482,-73.9188492298126,469950513
sq,58.0997871398926,59.0151285171509,-67.7154660224915,-79.2050957679749,469967180
sq,57.0163396835327,57.7478469848633,-71.5686082839966,-86.8507027626038,469983847
sq,55.8712419509888,56.3582357406616,-72.8181004524231,-87.6064300537109,470000514
sq,54.70615234375,54.9565328598022,-75.6804347038269,-88.5486602783203,470017181
sq,53.4952653884888,53.5397542953491,-79.5215964317322,-93.2257771492004,470033848
sq,52.2229198455811,52.0481418609619,-82.0267200469975,-96.2346792221069,470050515
sq,50.9104923248291,50.5083869934082,-81.6689729690547,-96.1941480636597,470067182
sq,49.6037887573242,48.9692806243896,-82.0770263671875,-100.777745246887,470083849
sq,48.2905563354492,47.3568367004395,-86.611270904541,-103.59513759613,470100516
sq,46.9047760009766,45.6993144989014,-90.0633335113525,-106.807351112366,470117183
sq,45.4637626647949,43.9903968811035,-89.9066925048828,-109.482526779175,470133850
sq,44.0252555847168,42.2386764526367,-94.2236185073853,-110.979437828064,470150517
sq,42.5176776885986,40.4630054473877,-95.1570272445679,-111.157536506652,470167184
sq,40.9951652526856,38.6844848632812,-95.0602293014526,-111.639857292175,470183851
sq,39.4742015838623,36.8982471466064,-96.7469215393062,-110.854268074036,470200518
sq,37.9262508392334,35.1245788574219,-101.731777191162,-114.021301269531,470217185
sq,36.2985424041748,33.3002380371094,-104.987621307373,-115.622520446777,470233852
sq,34.6187404632568,31.4502777099609,-101.778626441956,-120.559692382812,470250519
sq,32.9902824401856,29.5213226318359,-105.194568634033,-116.103172302246,470267186
sq,31.307169342041,27.663671875,-110.674381256104,-118.345737457276,470283853
sq,29.5363792419434,25.7701400756836,-123.193502426148,-120.544672012329,470300520
sq,27.565283203125,23.8414253234863,-128.608703613281,-118.696689605713,470317187
sq,25.5075439453125,21.9422782897949,-127.537012100219,-128.705739974975,470333854
sq,23.466951751709,19.8829864501953,-132.807493209838,-131.068229675293,470350521
sq,21.3420318603516,17.7858947753906,-142.970085144043,-126.721382141113,470367188
sq,19.0545104980469,15.7583526611328,-156.54706954956,-127.561569213868,470383855
sq,16.5497573852539,13.7173675537109,-160.873413085937,-126.31344795227,470400522
sq,13.9757827758789,11.6963523864746,-154.841423034668,-127.224445343018,470417189
sq,11.4983200073242,9.66076126098633,-148.128747940064,-116.707324981689,470433856
sq,9.1282600402832,7.7934440612793,-148.019552230835,-109.520435333252,470450523
sq,6.75994720458984,6.04111709594727,-146.190166473389,-109.239816665649,470467190
sq,4.42090454101563,4.29328002929688,-141.906261444092,-96.4412689208984,470483857
sq,2.15040435791016,2.7502197265625,-134.786128997803,-81.9683074951172,470500524
sq,-0.00617370605468714,1.43872680664062,-130.417823791504,-83.2996368408203,470517191
sq,-2.09285888671875,0.1059326171875,-115.028858184814,-76.8113136291504,470533858
sq,-3.93332061767578,-1.12304840087891,-99.8883247375488,-65.6428337097168,470550525
sq,-5.53153381347656,-2.17333374023437,-75.5519866943359,-51.7997741699219,470567192
sq,-6.74036560058594,-3.00213012695312,-49.9930381774902,-27.2326469421387,470583859
sq,-7.54025421142578,-3.43785247802734,-4.04453277587891,-12.3195648193359,470600526
sq,-7.60496673583984,-3.63496551513672,-37.632942199707,1.10721588134766,470617193
sq,-8.20709381103516,-3.61725006103516,-10.5538368225098,2.97212600708008,470633860
sq,-8.37595520019531,-3.56969604492187,-2.78902053833008,8.46719741821289,470650527
sq,-8.42057952880859,-3.43422088623047,-0.147342681884766,12.1960639953613,470667194
sq,-8.42293701171875,-3.23908386230469,3.06034088134766,17.4202919006348,470683861
sq,-8.37397155761719,-2.96035919189453,9.76228713989258,23.2653617858887,470700528
sq,-8.21777496337891,-2.58811340332031,16.8724060058594,26.3185501098633,470717195
sq,-7.94781646728516,-2.1670166015625,23.1251716613769,28.2135009765625,470733862
sq,-7.57781372070312,-1.7156005859375,30.6310653686523,30.3115844726563,470750529
sq,-7.08771667480469,-1.230615234375,41.8920516967773,26.6680717468262,470767196
sq,-6.41744384765625,-0.803926086425781,47.6927757263184,26.6289710998535,470783863
sq,-5.65435943603516,-0.377862548828125,47.7356910705566,21.1057662963867,470800530
sq,-4.89058837890625,-0.0401702880859371,56.8547248840332,29.84619140625,470817197
sq,-3.98091278076172,0.437368774414063,63.4641647338867,45.59326171875,470833864
sq,-2.96548614501953,1.16686096191406,79.3190002441406,49.3826866149902,470850531
sq,-1.69638214111328,1.95698394775391,94.1433906555176,54.2964935302734,470867198
sq,-0.190087890625,2.82572784423828,97.938060760498,61.6211891174316,470883865
sq,1.37692108154297,3.81166687011719,128.852844238281,67.4264430999756,470900532
sq,3.43856658935547,4.8904899597168,124.561309814453,79.1082382202148,470917199
sq,5.43154754638672,6.15622177124023,137.077808380126,94.1174030303951,470933866
sq,7.62479248046874,7.66210021972656,134.582996368408,109.339714050293,470950533
sq,9.77812042236327,9.41153564453125,120.168924331666,130.098104476929,470967200
sq,11.7008232116699,11.4931053161621,114.467620849609,136.385202407837,470983867
sq,13.5323051452637,13.6752685546875,118.506908416747,92.620849609375,471000534
sq,15.4284156799316,15.1572021484375,137.831687927246,107.268810272217,471017201
sq,17.6337226867676,16.873503112793,128.05962562561,114.023685455322,471033868
sq,19.6826766967773,18.6978820800781,108.102798461914,114.398479461669,471050535
sq,21.412321472168,20.5282577514648,121.80233001709,127.713441848755,471067202
sq,23.3611587524414,22.5716728210449,134.353637695312,128.960847854615,471083869
sq,25.5108169555664,24.6350463867187,132.051229476929,127.758741378784,471100536
sq,27.6236366271973,26.6791862487793,111.233711242676,120.686769485474,471117203
sq,29.4033760070801,28.6101745605469,106.709718704224,117.255449295044,471133870
sq,31.1107315063477,30.4862617492676,96.0636138916011,122.457981109619,471150537
sq,32.6477493286133,32.4455894470215,101.470470428467,116.419315338135,471167204
sq,34.2712768554687,34.3082984924316,98.0446338653569,107.452034950256,471183871
sq,35.8399909973145,36.0275310516357,88.4796380996704,105.60405254364,471200538
sq,37.2556652069092,37.717195892334,71.1718797683716,101.958751678467,471217205
sq,38.3944152832031,39.3485359191895,82.4236869812012,103.531360626221,471233872
sq,39.7131942749023,41.005037689209,84.2491388320923,103.718280792236,471250539
sq,41.0611804962158,42.6645301818848,79.3566703796387,94.2978858947754,471267206
sq,42.33088722229,44.1732963562012,85.0813388824463,76.9882202148437,471283873
sq,43.6921886444092,45.4051078796387,90.4837846755986,81.1165571212769,471300540
sq,45.1399291992188,46.7029727935791,83.9797258377075,93.9257144927979,471317207
sq,46.4836048126221,48.2057842254639,80.6248188018794,92.2590494155884,471333874
sq,47.7736019134521,49.6819290161133,72.9819536209106,88.4159803390503,471350541
sq,48.9413131713867,51.0965847015381,72.452187538147,82.4877619743347,471367208
sq,50.1005481719971,52.4163888931274,79.8604488372803,82.7809572219849,471383875
sq,51.3783153533936,53.7408842086792,86.1322283744812,85.7197046279907,471400542
sq,52.7564310073853,55.112399482727,77.3653388023376,79.909086227417,471417209
sq,53.9942764282226,56.3909448623657,72.3887085914612,80.2028775215149,471433876
sq,55.152495765686,57.67419090271,70.45578956604,75.137734413147,471450543
sq,56.2797883987427,58.8763946533203,69.9929594993591,70.8946287631989,471467210
sq,57.3996757507324,60.0107087135315,72.7125704288483,67.5519704818726,471483877
sq,58.563076877594,61.0915402412414,69.6262419223785,63.9089047908783,471500544
sq,59.677096748352,62.1140827178955,62.1592402458191,60.0662231445313,471517211
sq,60.6716445922851,63.075142288208,53.8684725761414,47.1683442592621,471533878
sq,61.5335401535034,63.8298357963562,49.3055284023285,47.5776344537739,471550545
sq,62.3224286079407,64.5910779476166,44.1513806581497,38.9808863401413,471567212
sq,63.0288506984711,65.2147721290588,35.7994735240936,28.449222445488,471583879
sq,63.6016422748566,65.6699596881867,30.7654291391377,26.1937603354454,471600546
sq,64.0938891410828,66.0890598535538,22.7815210819244,13.9085575938225,471617213
sq,64.4583934783936,66.3115967750549,8.40277969837189,3.1757578253746,471633880
sq,64.5928379535675,66.3624089002609,-0.982947647571564,-9.26901400089264,471650547
sq,64.5771107912064,66.2141046762466,-9.7397044301033,-19.5803493261337,471667214
sq,64.4212755203247,65.9008190870285,-15.7673954963684,-27.9044583439827,471683881
sq,64.1689971923828,65.4543477535248,-28.0475467443471,-42.5920039415359,471700548
sq,63.7202364444733,64.7728756904602,-38.1902903318405,-46.4264452457428,471717215
sq,63.1091917991638,64.0300525665283,-45.6602573394775,-56.7611157894139,471733882
sq,62.3786276817322,63.1218747138977,-54.3188452720642,-57.4907064437866,471750549
sq,61.5095261573791,62.2020234107971,-61.6455376148224,-69.3872272968292,471767216
sq,60.523197555542,61.0918277740479,-63.0515515804291,-73.9219784736633,471783883
sq,59.5143727302551,59.9090761184692,-70.1837241649628,-82.8853249549866,471800550
sq,58.3914331436157,58.5829109191895,-77.2134065628052,-88.8996720314026,471817217
sq,57.1560186386108,57.160516166687,-81.0711979866028,-89.8752808570862,471833884
sq,55.8588794708252,55.7225116729736,-81.8625688552856,-91.1298990249634,471850551
sq,54.5490783691406,54.2644332885742,-83.3501815795898,-95.830500125885,471867218
sq,53.2154754638672,52.7311452865601,-85.6602787971497,-102.538764476776,471883885
sq,51.8449110031128,51.0905250549316,-88.8749957084656,-105.363368988037,471900552
sq,50.4229110717773,49.4047111511231,-87.8570079803467,-111.230969429016,471917219
sq,49.0171989440918,47.6250156402588,-92.5148725509644,-112.260341644287,471933886
sq,47.5369609832764,45.8288501739502,-93.7589406967163,-112.758040428162,471950553
sq,46.0368179321289,44.0247215270996,-95.5121517181396,-110.573887825012,471967220
sq,44.5086235046387,42.2555393218994,-98.9561080932617,-117.215991020203,471983887
sq,42.9253257751465,40.3800834655762,-100.164890289307,-119.450092315674,472000554
sq,41.3226875305176,38.4688819885254,-98.5090732574463,-117.683529853821,472017221
sq,39.7465423583984,36.5859455108643,-99.7835397720337,-120.634198188782,472033888
sq,38.1500057220459,34.6557983398437,-102.765083312988,-120.633840560913,472050555
sq,36.5057643890381,32.7256568908691,-107.069134712219,-118.752956390381,472067222
sq,34.7926582336426,30.825609588623,-104.803562164306,-118.42679977417,472083889
sq,33.1158012390137,28.9307807922363,-110.209226608277,-121.566772460937,472100556
sq,31.3524536132812,26.9857124328613,-110.720157623291,-124.945878982544,472117223
sq,29.5809310913086,24.9865783691406,-114.006519317626,-120.750665664673,472133890
sq,27.7568267822266,23.0545677185059,-123.24070930481,-117.712020874023,472150557
sq,25.7849754333496,21.1711753845215,-133.967161178589,-123.122215270996,472167224
sq,23.6415008544922,19.2012199401855,-141.460418701172,-122.304677963257,472183891
sq,21.3781341552734,17.2443450927734,-144.908428192139,-133.107423782348,472200558
sq,19.0595993041992,15.1146263122559,-142.106771469116,-136.751174926758,472217225
sq,16.7858909606934,12.9266075134277,-150.386333465577,-136.113166809082,472233892
sq,14.3797096252441,10.7487968444824,-160.233497619629,-122.665405273437,472250559
sq,11.8159736633301,8.78615036010742,-161.242961883545,-109.435796737671,472267226
sq,9.23608627319336,7.03517761230469,-148.442268371582,-105.799198150635,472283893
sq,6.86100997924805,5.34239044189452,-132.17306137085,-101.375102996826,472300560
sq,4.74624099731445,3.72038879394531,-128.130912780762,-96.2491035461426,472317227
sq,2.69614639282227,2.18040313720703,-121.850728988648,-73.9278793334961,472333894
sq,0.746534729003907,0.997557067871094,-114.03226852417,-62.1213912963867,472350561
sq,-1.07798156738281,0.0036148071289066,-103.349685668945,-54.7409057617188,472367228
sq,-2.73157653808594,-0.872239685058593,-88.0041122436523,-49.7794151306152,472383895
sq,-4.13964233398437,-1.66871032714844,-68.3841705322266,-48.0952262878418,472400562
sq,-5.2337890625,-2.43823394775391,-46.2193489074707,-37.4159812927246,472417229
sq,-5.97329864501953,-3.0368896484375,-17.8542137145996,-22.1800804138184,472433896
sq,-6.25896606445312,-3.39177093505859,-22.9806900024414,-13.2961273193359,472450563
sq,-6.62665710449219,-3.60450897216797,-20.7538604736328,-7.98559188842773,472467230
sq,-6.95871887207031,-3.73227844238281,-6.67905807495117,2.13813781738281,472483897
sq,-7.06558380126953,-3.69806823730469,-1.89685821533203,9.03940200805664,472500564
sq,-7.09593353271484,-3.55343780517578,5.24044036865234,19.0968513488769,472517231
sq,-7.01208648681641,-3.24788818359375,10.0445747375488,26.0581970214844,472533898
sq,-6.85137329101562,-2.83095703125,17.0798301696777,24.6219635009766,472550565
sq,-6.57809600830078,-2.43700561523437,22.8066444396973,26.092529296875,472567232
sq,-6.21318969726562,-2.01952514648437,29.1762351989746,27.3442268371582,472583899
sq,-5.74636993408203,-1.58201751708984,35.7365608215332,38.1112098693848,472600566
sq,-5.1745849609375,-0.972238159179687,45.7463264465332,45.5341339111328,472617233
sq,-4.44264373779297,-0.243692016601562,56.9362640380859,44.4321632385254,472633900
sq,-3.53166351318359,0.467222595214844,62.9138946533203,46.607494354248,472650567
sq,-2.52504119873047,1.21294250488281,73.1363296508789,46.6442108154297,472667234
sq,-1.35485992431641,1.95924987792969,87.7900123596191,58.5722923278809,472683901
sq,0.0497802734375004,2.89640655517578,97.468376159668,48.0871200561523,472700568
sq,1.60927429199219,3.66580047607422,96.1594581604004,55.1455020904541,472717235
sq,3.14782562255859,4.54812850952148,96.4372158050537,65.8729076385494,472733902
sq,4.69082107543945,5.60209503173827,107.056379318237,73.1909275054932,472750569
sq,6.40372314453124,6.77314987182617,120.903730392456,89.3430709838872,472767236
sq,8.33818283081055,8.20263900756836,130.072832107543,98.9894866943359,472783903
sq,10.4193481445312,9.78647079467773,127.460718154908,97.6386070251465,472800570
sq,12.4587196350098,11.3486885070801,119.637966156006,114.93968963623,472817237
sq,14.3729270935059,13.1877235412598,112.400770187378,121.813535690308,472833904
sq,16.1713394165039,15.1367401123047,109.241247177124,112.360239028931,472850571
sq,17.9191993713379,16.9345039367676,112.238168716431,97.0442295074463,472867238
sq,19.7150100708008,18.4872116088867,127.563238143921,98.9816188812256,472883905
sq,21.7560218811035,20.0709175109863,132.688045501709,108.464479446411,472900572
sq,23.8790306091309,21.8063491821289,104.791402816773,108.782291412353,472917239
sq,25.5556930541992,23.5468658447266,94.9087142944336,99.8759269714355,472933906
sq,27.0742324829102,25.1448806762695,110.836267471314,96.7147350311284,472950573
sq,28.8476127624512,26.6923164367676,105.998754501342,84.4428539276123,472967240
sq,30.5435928344727,28.0434020996094,77.3298740386963,93.864917755127,472983907
sq,31.7808708190918,29.5452407836914,61.7520809173588,97.4581241607662,473000574
sq,32.7689041137695,31.1045707702637,65.2234554290767,90.2526378631596,473017241
sq,33.8124794006348,32.5486129760742,72.3620653152466,82.6809406280518,473033908
sq,34.9702724456787,33.8715080261231,79.0905952453613,84.9714279174805,473050575
sq,36.2357219696045,35.2310508728027,67.1019554138184,88.5933637619014,473067242
sq,37.3093532562256,36.6485446929932,56.3746690750122,80.1860094070443,473083909
sq,38.2113479614258,37.9315208435059,63.5147094726563,80.6891918182369,473100576
sq,39.2275833129883,39.2225479125976,68.4223175048828,88.8668298721313,473117243
sq,40.3223403930664,40.6444171905518,73.5576152801514,84.2458009719849,473133910
sq,41.4992622375488,41.9923500061035,67.6933526992798,80.432653427124,473150577
sq,42.5823558807373,43.2792724609375,64.6249055862427,73.50754737854,473167244
sq,43.6163543701172,44.4553932189941,67.1035051345825,70.0280666351318,473183911
sq,44.6900104522705,45.5758422851562,70.5819129943848,85.2460861206055,473200578
sq,45.8193210601807,46.9397796630859,74.3745565414433,81.4356803894043,473217245
sq,47.0093139648438,48.2427505493164,77.0815610885611,90.4051065444946,473233912
sq,48.2426189422607,49.6892322540283,72.3013877868657,91.1790132522583,473250579
sq,49.3994411468506,51.1480964660645,70.9854960441589,87.7132415771484,473267246
sq,50.5352090835571,52.5515083312988,76.0201811790466,82.641065120697,473283913
sq,51.7515319824219,53.87376537323,81.5777778625488,82.9471349716187,473300580
sq,53.0567764282226,55.2009195327759,82.7471017837524,90.6540751457214,473317247
sq,54.3807300567627,56.6513847351074,80.913245677948,89.9382829666138,473333914
sq,55.6753419876099,58.0903972625732,80.7810425758362,87.8092050552368,473350581
sq,56.9678386688232,59.495344543457,79.3137550354004,84.3969285488129,473367248
sq,58.2368587493896,60.845695400238,74.6839046478271,75.5602419376373,473383915
sq,59.4318012237549,62.0546592712402,75.5636394023895,67.4765110015869,473400582
sq,60.6408194541931,63.1342834472656,75.6809115409851,67.5642043352131,473417249
sq,61.8517140388489,64.215310716629,72.8530138731003,70.3179687261581,473433916
sq,63.0173622608185,65.3403982162476,60.3453516960144,51.0641187429428,473450583
sq,63.9828878879547,66.1574241161346,48.3614504337315,40.1441901922226,473467250
sq,64.7566710948944,66.7997311592102,38.4466797113419,30.4504595696926,473483917
sq,65.3718179702759,67.2869385123253,35.7228666543961,21.8513747677207,473500584
sq,65.9433838367462,67.6365605086088,25.6482008844614,11.9236876489595,473517251
sq,66.3537550508976,67.8273395109922,9.254454751499,-0.517173320986331,473533918
sq,66.5018263269216,67.8190647378564,-4.49961668346077,-19.2198217846453,473550585
sq,66.4298324599862,67.5115475893021,-14.0992631204426,-27.2408984601498,473567252
sq,66.2042442500591,67.0756932139397,-24.9883141368628,-37.1284671127796,473583919
sq,65.8044312238693,66.4816377401352,-34.4515442848206,-48.5228672623634,473600586
sq,65.2532065153122,65.7052718639374,-43.1863516569138,-59.0691864490509,473617253
sq,64.5622248888016,64.7601648807526,-46.507485210896,-64.0401989221577,473633920
sq,63.8181051254272,63.7355216979981,-55.769070982933,-70.1318085193634,473650587
sq,62.9257999897003,62.6134127616882,-67.8603500127792,-78.9834260940552,473667254
sq,61.8400343894958,61.3496779441833,-71.2738931179047,-81.6785395145416,473683921
sq,60.6996520996094,60.0428213119507,-73.6612677574158,-82.1301341056824,473700588
sq,59.5210718154907,58.7287391662598,-80.2305936813354,-86.064338684082,473717255
sq,58.2373823165893,57.3517097473145,-82.1185111999512,-92.1496748924255,473733922
sq,56.9234861373901,55.8773149490356,-81.4552903175354,-100.504636764526,473750589
sq,55.6202014923096,54.2692407608032,-90.0121331214905,-106.500446796417,473767256
sq,54.1800073623657,52.5652336120606,-88.3244872093205,-107.210397720337,473783923
sq,52.7668155670166,50.8498672485351,-91.944575309753,-108.111023902893,473800590
sq,51.2957023620606,49.1200908660889,-92.8946733474731,-110.98325252533,473817257
sq,49.809387588501,47.3443588256836,-95.5196619033813,-116.193175315857,473833924
sq,48.2810729980469,45.4852680206299,-99.0467071533199,-119.052052497864,473850591
sq,46.6963256835938,43.5804351806641,-96.6783761978154,-120.67711353302,473867258
sq,45.1494716644287,41.6496013641357,-96.7490673065186,-120.700001716614,473883925
sq,43.6014865875244,39.7184013366699,-98.0508327484131,-118.761897087097,473900592
sq,42.0326732635498,37.8182109832764,-100.797176361084,-119.749665260315,473917259
sq,40.4199184417725,35.9022163391113,-104.954123497009,-124.647140502929,473933926
sq,38.7406524658203,33.9078620910645,-107.744455337524,-128.174304962159,473950593
sq,37.0167411804199,31.8570732116699,-114.514112472534,-126.585721969604,473967260
sq,35.1845153808594,29.8317016601562,-116.007804870605,-126.3267993927,473983927
sq,33.3283905029297,27.810472869873,-112.240791320801,-124.316930770875,474000594
sq,31.5325378417969,25.8214019775391,-119.266033172607,-127.091884613037,474017261
sq,29.6242813110352,23.7879318237305,-120.692491531372,-123.673915863037,474033928
sq,27.6932014465332,21.8091491699219,-118.982553482055,-122.44701385498,474050595
sq,25.7894805908203,19.8499969482422,-126.978397369385,-117.027997970581,474067262
sq,23.7578262329102,17.9775489807129,-130.914688110351,-113.860607147217,474083929
sq,21.6631912231445,16.1557792663574,-129.316329956055,-111.127376556396,474100596
sq,19.5941299438477,14.3777412414551,-127.399682998658,-113.796949386597,474117263
sq,17.5557350158691,12.5569900512695,-130.264520645141,-115.975618362426,474133930
sq,15.4715026855469,10.7013801574707,-125.952959060669,-103.891372680665,474150597
sq,13.4562553405762,9.03911819458008,-122.610807418823,-88.64426612854,474167264
sq,11.494482421875,7.62080993652344,-118.204355239868,-94.2432880401611,474183931
sq,9.60321273803711,6.11291732788086,-112.840890884399,-89.2760753631587,474200598
sq,7.79775848388672,4.68450012207032,-113.428592681884,-89.2539024353032,474217265
sq,5.98290100097657,3.25643768310547,-111.269712448121,-89.0898704528809,474233932
sq,4.20258560180663,1.83099975585937,-111.190557479858,-90.7535552978516,474250599
sq,2.42353668212891,0.37894287109375,-91.4216041564941,-82.9286575317383,474267266
sq,0.960791015625,-0.947915649414062,-85.6013298034668,-68.8672065734863,474283933
sq,-0.408830261230468,-2.04979095458984,-82.2982788085937,-68.842887878418,474300600
sq,-1.72560272216797,-3.15127716064453,-79.282283782959,-63.3411407470703,474317267
sq,-2.99411926269531,-4.16473541259766,-72.9532241821289,-60.9025955200195,474333934
sq,-4.16137084960937,-5.13917694091797,-54.908275604248,-53.5006523132324,474350601
sq,-5.03990325927734,-5.99518737792969,-63.2076263427734,-45.1412200927734,474367268
sq,-6.05122528076172,-6.71744689941406,-55.180549621582,-32.036304473877,474383935
sq,-6.93411407470703,-7.23002777099609,-50.938606262207,-17.9100036621094,474400602
sq,-7.74913177490234,-7.51658782958984,-49.229621887207,-4.45556640625,474417269
sq,-8.53680572509766,-7.58787689208984,-36.3092422485352,-10.3144645690918,474433936
sq,-9.11775360107422,-7.75290832519531,-22.0422744750977,-5.17082214355469,474450603
sq,-9.47042999267578,-7.83564147949219,-11.8608474731445,7.293701171875,474467270
sq,-9.66020355224609,-7.71894226074219,-5.20706176757812,3.26251983642578,474483937
sq,-9.74351654052734,-7.66674194335937,-1.10483169555664,-0.433921813964844,474500604
sq,-9.76119384765625,-7.67368469238281,1.84297561645508,7.77006149291992,474517271
sq,-9.73170623779297,-7.54936370849609,6.42108917236328,17.7927017211914,474533938
sq,-9.62896881103516,-7.26468048095703,5.21421432495117,23.8752365112305,474550605
sq,-9.54554138183594,-6.88267669677734,7.43436813354492,28.5868644714356,474567272
sq,-9.42659149169922,-6.42528686523437,13.3333206176758,33.5440635681152,474583939
sq,-9.21325836181641,-5.88858184814453,20.7538604736328,45.3948974609375,474600606
sq,-8.88119659423828,-5.16226348876953,24.6634483337402,49.9181747436523,474617273
sq,-8.48658142089844,-4.36357269287109,27.3408889770508,51.1236190795898,474633940
sq,-8.04912719726562,-3.54559478759766,35.6578826904297,59.4491958618164,474650607
sq,-7.47860107421875,-2.59440765380859,44.215202331543,58.3233833312988,474667274
sq,-6.77115783691406,-1.66123352050781,49.3535995483398,54.8439025878906,474683941
sq,-5.98150024414062,-0.783731079101562,57.6643943786621,56.6964149475098,474700608
sq,-5.05886993408203,0.123411560058594,67.0084953308105,63.1470680236816,474717275
sq,-3.98673400878906,1.1337646484375,76.5390396118164,70.2705383300781,474733942
sq,-2.762109375,2.25809326171875,91.313362121582,78.1092643737793,474750609
sq,-1.30109558105469,3.50784149169922,110.177040100098,84.0771198272705,474767276
sq,0.461737060546875,4.85307540893555,131.556510925293,75.7646560668945,474783943
sq,2.56664123535157,6.06530990600586,150.908231735229,75.33860206604,474800610
sq,4.98117294311523,7.2707275390625,167.56796836853,84.708452224731,474817277
sq,7.66226043701172,8.6260627746582,161.312580108642,90.2872085571293,474833944
sq,10.24326171875,10.0706581115723,150.609016418458,99.7579097747803,474850611
sq,12.6530059814453,11.6667846679688,125.694990158081,96.2653160095219,474867278
sq,14.6641258239746,13.2070297241211,97.5437164306639,106.036901473999,474883945
sq,16.2248252868652,14.9036201477051,101.857900619507,97.4979400634769,474900612
sq,17.8545516967773,16.4635871887207,105.359315872193,105.405807495117,474917279
sq,19.5403007507324,18.1500801086426,117.03610420227,125.961780548096,474933946
sq,21.4128784179687,20.1654685974121,121.45471572876,105.824470520019,474950613
sq,23.3561538696289,21.8586601257324,108.099937438965,103.754997253418,474967280
sq,25.0857528686523,23.5187400817871,118.43729019165,117.13433265686,474983947
sq,26.9807495117187,25.3928894042969,127.901792526246,124.106645584106,475000614
sq,29.0271781921387,27.3785957336426,108.120679855346,130.096197128296,475017281
sq,30.7571090698242,29.4601348876953,94.0203666687012,114.222526550292,475033948
sq,32.2614349365234,31.2876953125,103.126764297485,112.593173980713,475050615
sq,33.9114631652832,33.0891860961914,108.416438102722,117.177963256835,475067282
sq,35.6461261749268,34.9640335083008,96.893310546875,109.922409057618,475083949
sq,37.1964191436768,36.7227920532226,94.9733257293701,103.56593132019,475100616
sq,38.7159923553467,38.3798469543457,87.6049995422363,111.659169197083,475117283
sq,40.1176723480225,40.166393661499,81.9841623306274,105.777859687805,475133950
sq,41.4294189453125,41.8588394165039,97.4435806274414,99.3795394897457,475150617
sq,42.9885162353516,43.4489120483398,97.3397493362427,95.7518815994267,475167284
sq,44.5459522247314,44.9809421539307,97.1759557723999,111.951947212219,475183951
sq,46.1007675170898,46.7721733093262,93.171238899231,110.342264175415,475200618
sq,47.5915073394775,48.5376495361328,84.4403505325317,95.401406288147,475217285
sq,48.9425529479981,50.0640720367432,91.7389392852783,97.6513624191284,475233952
sq,50.4103759765625,51.6264938354492,102.600038051605,106.473684310913,475250619
sq,52.0519765853882,53.3300727844238,101.195812225342,101.491570472717,475267286
sq,53.6711095809937,54.9539379119873,87.3801112174988,92.5695300102234,475283953
sq,55.0691913604736,56.4350503921509,72.4515318870544,83.4819078445435,475300620
sq,56.2284158706665,57.7707609176636,75.4159092903137,66.1282539367676,475317287
sq,57.4350704193115,58.8288129806518,80.5023610591888,66.7909681797028,475333954
sq,58.7231081962585,59.8974684715271,79.9995362758636,65.5562877655029,475350621
sq,60.0031007766724,60.9463690757752,65.2329623699188,49.0351021289825,475367288
sq,61.0468281745911,61.7309307098389,50.8683323860169,30.8225154876709,475383955
sq,61.8607214927673,62.2240909576416,41.4071828126907,23.2601463794708,475400622
sq,62.5232364177704,62.5962532997131,32.4451178312302,16.2295699119568,475417289
sq,63.0423583030701,62.8559264183044,23.2496112585068,5.17439842224121,475433956
sq,63.4143520832062,62.9387167930603,3.99135053157806,-11.4720165729523,475450623
sq,63.4782136917114,62.7551645278931,-11.7595940828323,-24.3003964424133,475467290
sq,63.2900601863861,62.3663581848145,-22.6856768131256,-34.2173278331757,475483957
sq,62.9270893573761,61.8188809394836,-35.2794975042343,-42.3295795917511,475500624
sq,62.3626173973083,61.1416076660156,-43.5493886470795,-55.2990734577179,475517291
sq,61.6658271789551,60.2568224906921,-51.1839389801025,-68.0036842823029,475533958
sq,60.8468841552734,59.1687635421753,-57.5852394104004,-75.6416320800781,475550625
sq,59.925520324707,57.958497428894,-66.5439069271088,-75.5311250686646,475567292
sq,58.8608178138733,56.7499994277954,-73.5450685024261,-87.3200297355652,475583959
sq,57.6840967178345,55.3528789520264,-75.143039226532,-92.0958518981934,475600626
sq,56.48180809021,53.8793453216553,-76.9603252410889,-92.0774936676021,475617293
sq,55.2504428863525,52.4061054229736,-80.0525546073914,-94.9479341506962,475633960
sq,53.9696020126343,50.8869384765625,-85.8176946640015,-102.657079696656,475650627
sq,52.5965188980103,49.244425201416,-91.4357304573059,-103.618264198303,475667294
sq,51.1335472106934,47.5865329742432,-91.5478467941284,-106.766462326049,475683961
sq,49.6687816619873,45.8782695770264,-93.5943126678467,-105.368137359619,475700628
sq,48.1712726593018,44.1923793792725,-98.7260341644287,-105.764150619507,475717295
sq,46.5916561126709,42.5001529693604,-102.096438407898,-108.493804931641,475733962
sq,44.9581130981445,40.7642520904541,-108.101487159729,-116.024971008301,475750629
sq,43.2284893035889,38.9078525543213,-111.358642578125,-117.650032043457,475767296
sq,41.4467510223389,37.025452041626,-110.478043556213,-119.955182075501,475783963
sq,39.6791023254395,35.106169128418,-110.311388969421,-121.780633926391,475800630
sq,37.9141201019287,33.1576789855957,-108.850240707398,-112.497329711915,475817297
sq,36.1725162506104,31.3577217102051,-116.700530052185,-112.283706665039,475833964
sq,34.3053077697754,29.5611824035645,-115.956306457519,-122.123956680298,475850631
sq,32.4500068664551,27.6071990966797,-117.213249206543,-125.724554061889,475867298
sq,30.5745948791504,25.5956062316895,-115.397214889526,-124.65500831604,475883965
sq,28.728239440918,23.6011260986328,-118.886709213257,-121.655702590943,475900632
sq,26.8260520935059,21.6546348571777,-119.396448135376,-118.651151657105,475917299
sq,24.9157089233398,19.7562164306641,-128.258466720581,-117.994546890259,475933966
sq,22.8635734558105,17.8683036804199,-137.838125228882,-122.128009796142,475950633
sq,20.6581634521484,15.9142555236816,-140.875101089478,-130.22518157959,475967300
sq,18.4041618347168,13.8306526184082,-138.039112091065,-130.386352539062,475983967
sq,16.1955360412598,11.7444709777832,-126.752376556397,-118.949890136719,476000634
sq,14.1674980163574,9.84127273559571,-126.32918357849,-114.226818084717,476017301
sq,12.1462310791016,8.01364364624023,-131.187677383423,-115.338087081909,476033968
sq,10.0472282409668,6.16823425292969,-129.40263748169,-109.620332717895,476050635
sq,7.97678604125977,4.41430892944336,-127.407789230347,-110.749959945679,476067302
sq,5.93826141357422,2.6423095703125,-112.154245376587,-98.6471176147461,476083969
sq,4.14379348754883,1.06395568847656,-99.7092723846431,-96.7836380004883,476100636
sq,2.54844512939454,-0.48458251953125,-95.3454971313481,-98.3643531799316,476117303
sq,1.02291717529297,-2.05841217041016,-101.556301116943,-91.5307998657227,476133970
sq,-0.601983642578125,-3.52290496826172,-97.5656509399414,-78.859806060791,476150637
sq,-2.16303405761719,-4.78466186523437,-84.6390724182129,-55.1600456237793,476167304
sq,-3.51725921630859,-5.66722259521484,-64.6429061889648,-36.9453430175781,476183971
sq,-4.55154571533203,-6.25834808349609,-25.7754325866699,-20.7209587097168,476200638
sq,-4.96395263671875,-6.58988342285156,-31.8098068237305,-6.74200057983398,476217305
sq,-5.47290954589844,-6.69775543212891,-26.3891220092773,3.30638885498047,476233972
sq,-5.89513549804687,-6.64485321044922,-21.9941139221191,-1.7085075378418,476250639
sq,-6.24704132080078,-6.67218933105469,-12.4964714050293,0.439167022705078,476267306
sq,-6.44698486328125,-6.66516265869141,-5.46026229858398,4.3487548828125,476283973
sq,-6.53434906005859,-6.59558258056641,-4.43840026855469,14.3141746520996,476300640
sq,-6.60536346435547,-6.36655578613281,-1.78813934326172,31.2557220458984,476317307
sq,-6.63397369384766,-5.86646423339844,5.07259368896484,38.0001068115234,476333974
sq,-6.55281219482422,-5.25846252441406,18.2032585144043,40.7233238220215,476350641
sq,-6.26156005859375,-4.60688934326172,25.0277519226074,40.7614707946777,476367308
sq,-5.86111602783203,-3.95470581054687,33.1287384033203,47.6861000061035,476383975
sq,-5.33105621337891,-3.19172821044922,39.9088859558105,68.1800842285156,476400642
sq,-4.69251403808594,-2.10084686279297,52.6261329650879,87.3599052429199,476417309
sq,-3.85049591064453,-0.70308837890625,69.9114799499512,81.7508697509766,476433976
sq,-2.73191223144531,0.604925537109375,92.7362442016602,78.7420272827148,476450643
sq,-1.24813232421875,1.86479797363281,95.4861640930176,92.1173095703125,476467310
sq,0.279646301269532,3.33867492675781,103.620529174805,97.3789691925049,476483977
sq,1.93757476806641,4.89673843383789,117.183685302734,106.868982315064,476500644
sq,3.81251373291016,6.60664215087891,140.289068222045,107.082843780518,476517311
sq,6.05713882446288,8.31996765136719,181.585311889649,113.72947692871,476533978
sq,8.96250381469727,10.1396392822266,210.718393325806,115.523338317872,476550645
sq,12.3339981079102,11.9880126953125,182.430267333984,115.056037902832,476567312
sq,15.2528823852539,13.8289093017578,148.107051849365,130.623817443848,476583979
sq,17.6225952148437,15.9188903808594,130.115270614625,138.427257537841,476600646
sq,19.7044395446777,18.1337265014648,115.697860717773,122.44987487793,476617313
sq,21.5556053161621,20.0929244995117,112.493991851807,119.666337966919,476633980
sq,23.355509185791,22.0075859069824,98.6320972442627,106.480836868287,476650647
sq,24.9336227416992,23.711279296875,90.5365943908691,117.301225662232,476667314
sq,26.3822082519531,25.5880989074707,105.87215423584,129.184246063232,476683981
sq,28.0761627197266,27.6550468444824,108.169317245483,125.099897384644,476700648
sq,29.8068717956543,29.6566452026367,110.00657081604,103.792905807495,476717315
sq,31.5669769287109,31.3173316955566,120.722055435181,103.425025939942,476733982
sq,33.4985298156738,32.9721321105957,118.546962738037,120.546817779541,476750649
sq,35.3952812194824,34.9008811950684,96.5863466262817,116.891860961914,476767316
sq,36.9406627655029,36.771150970459,94.3883657455444,108.914732933044,476783983
sq,38.4508766174316,38.5137866973877,94.0843820571899,110.008955001831,476800650
sq,39.9562267303467,40.273929977417,91.9938087463379,104.192495346069,476817317
sq,41.4281276702881,41.9410099029541,88.3389711380005,92.856764793396,476833984
sq,42.8415512084961,43.4267181396484,86.5058898925781,108.680725097656,476850651
sq,44.2256454467773,45.1656097412109,99.3740558624268,104.386448860168,476867318
sq,45.8156303405762,46.8357929229736,98.894476890564,109.393954277039,476883985
sq,47.3979419708252,48.5860961914062,94.2699909210205,111.826658248901,476900652
sq,48.9062618255615,50.3753227233887,88.7748003005981,104.621112346649,476917319
sq,50.3266586303711,52.0492605209351,93.5593247413635,100.769996643066,476933986
sq,51.8236078262329,53.6615804672241,94.9165821075439,99.1557240486145,476950653
sq,53.3422731399536,55.248072052002,89.7339582443237,99.422812461853,476967320
sq,54.7780164718628,56.8388370513916,96.1170792579651,93.4467911720276,476983987
sq,56.3158897399902,58.333985710144,92.2268033027649,91.6759967803955,477000654
sq,57.7915185928345,59.8008016586304,83.4181904792786,82.3366940021515,477017321
sq,59.1262096405029,61.1181887626648,78.4107148647308,67.6795244216919,477033988
sq,60.3807810783386,62.2010611534119,79.8503160476685,72.3170042037964,477050655
sq,61.6583861351013,63.3581332206726,75.1558840274811,74.1070806980137,477067322
sq,62.860880279541,64.5438465118408,66.7285323143005,64.4042640924454,477083989
sq,63.9285367965698,65.57431473732,59.9615722894673,61.7091283202171,477100656
sq,64.8879219532013,66.5616607904434,50.5482703447342,51.2825977057219,477117323
sq,65.696694278717,67.382182353735,40.3421754017472,45.3686956316233,477133990
sq,66.342169085145,68.1080814838409,37.568380124867,41.4826311171055,477150657
sq,66.9432631671429,68.7718035817146,41.0573352128267,35.7645191252232,477167324
sq,67.6001805305481,69.3440358877182,28.8655832409859,23.7784013152122,477183991
sq,68.0620298624039,69.7244903087616,17.0602351427078,12.1511220932007,477200658
sq,68.3349936246872,69.9189082622528,10.4373395442963,3.34034860134125,477217325
sq,68.5019910573959,69.9723538398743,8.94507020711899,-0.346437096595764,477233992
sq,68.6451121807098,69.9668108463287,0.7333904504776,-11.2404301762581,477250659
sq,68.6568464279175,69.7869639635086,-11.6051062941551,-24.4389027357101,477267326
sq,68.471164727211,69.3959415197372,-19.9873223900795,-33.6642786860466,477283993
sq,68.1513675689697,68.8573130607605,-31.1149209737778,-43.6502043157816,477300660
sq,67.6535288333893,68.158909791708,-34.7601249814034,-51.5832658857107,477317327
sq,67.0973668336868,67.3335775375366,-42.8281771019101,-55.9718310832977,477333994
sq,66.4121160000563,66.4380282402039,-51.5693193301558,-63.1812065839768,477350661
sq,65.5870068907738,65.4271289348602,-57.5037412345409,-73.7699121236801,477367328
sq,64.6669470310211,64.2468103408814,-66.9010579586033,-75.7132172584538,477383995
sq,63.5965301036835,63.0353988647461,-73.982909321785,-81.0377299785614,477400662
sq,62.4128035545349,61.7387951850891,-73.7411975860596,-88.9168083667755,477417329
sq,61.232944393158,60.3161262512207,-80.7819962501526,-92.7555561065674,477433996
sq,59.9404324531555,58.8320373535156,-85.4296684265137,-98.4662175178528,477450663
sq,58.5735577583313,57.25657787323,-87.5684916973114,-102.513492107391,477467330
sq,57.1724618911743,55.6163619995117,-86.52663230896,-102.20730304718,477483997
sq,55.788035774231,53.9810451507568,-91.1818742752075,-105.307877063751,477500664
sq,54.3291257858276,52.2961191177368,-93.3696031570439,-112.013041973114,477517331
sq,52.8352121353149,50.503910446167,-93.5406088829036,-115.101456642151,477533998
sq,51.3385623931885,48.6622871398926,-92.4972295761108,-114.378333091736,477550665
sq,49.8586067199707,46.8322338104248,-92.6443338394165,-114.775538444519,477567332
sq,48.37629737854,44.9958251953125,-95.4389572143555,-115.869641304016,477583999
sq,46.8492740631104,43.1419109344482,-96.0909128189087,-115.931987762451,477600666
sq,45.3118194580078,41.286999130249,-98.4482765197754,-117.557883262634,477617333
sq,43.7366470336914,39.4060729980469,-99.1234779357906,-123.933553695679,477634000
sq,42.1506713867188,37.423136138916,-94.6906805038457,-121.202707290649,477650667
sq,40.6356204986572,35.4838928222656,-100.73709487915,-116.483926773071,477667334
sq,39.0238269805908,33.6201499938965,-104.043483734131,-118.14022064209,477684001
sq,37.3591312408447,31.729906463623,-104.986429214477,-116.542816162109,477700668
sq,35.6793483734131,29.8652214050293,-107.372641563415,-119.15111541748,477717335
sq,33.9613861083984,27.9588035583496,-105.013847351075,-122.417449951172,477734002
sq,32.2811645507812,26.0001243591309,-115.599393844604,-126.496076583863,477750669
sq,30.4315742492676,23.9761871337891,-122.813940048218,-115.235805511474,477767336
sq,28.4665512084961,22.1324142456055,-123.478651046753,-114.738464355469,477784003
sq,26.490892791748,20.296598815918,-118.60179901123,-111.616134643554,477800670
sq,24.5932640075684,18.5107406616211,-123.199701309204,-119.062185287476,477817337
sq,22.6220687866211,16.6057456970215,-126.412868499756,-119.576454162598,477834004
sq,20.599462890625,14.6925224304199,-133.120536804198,-111.178874969482,477850671
sq,18.4695343017578,12.9136604309082,-132.111549377442,-108.181238174438,477867338
sq,16.3557495117187,11.1827606201172,-129.30154800415,-111.110925674439,477884005
sq,14.2869247436523,9.40498580932617,-126.104116439819,-106.376886367797,477900672
sq,12.2692588806152,7.70295562744141,-132.85231590271,-107.715845108032,477917339
sq,10.1436218261719,5.97950210571289,-130.86986541748,-103.896141052247,477934006
sq,8.04970397949219,4.31716384887695,-118.250608444214,-97.3498821258541,477950673
sq,6.15769424438477,2.75956573486328,-107.915878295899,-93.0657386779785,477967340
sq,4.43104019165038,1.27051391601562,-108.639240264892,-88.6988639831543,477984007
sq,2.69281234741211,-0.148667907714843,-114.741086959839,-92.0281410217285,478000674
sq,0.856954956054688,-1.6211181640625,-112.527847290039,-91.8130874633789,478017341
sq,-0.943490600585937,-3.09012756347656,-110.308170318604,-81.9997787475586,478034008
sq,-2.70842132568359,-4.4021240234375,-101.049900054932,-70.6725120544434,478050675
sq,-4.3252197265625,-5.53288421630859,-93.1310653686523,-69.5691108703613,478067342
sq,-5.81531677246094,-6.64598999023437,-66.8983459472656,-59.0567588806152,478084009
sq,-6.88569030761719,-7.59089813232422,-66.1945343017578,-46.2245941162109,478100676
sq,-7.94480285644531,-8.33049163818359,-57.5127601623535,-40.3776168823242,478117343
sq,-8.86500701904297,-8.97653350830078,-37.0903015136719,-27.8587341308594,478134010
sq,-9.45845184326172,-9.42227325439453,-20.5454826354981,-21.113395690918,478150677
sq,-9.78717956542969,-9.76008758544922,-12.0635032653809,-6.5150260925293,478167344
sq,-9.98019561767578,-9.86432800292969,-11.4660263061523,-7.33089447021484,478184011
sq,-10.1636520385742,-9.98162231445312,-8.0561637878418,-4.03547286987305,478200678
sq,-10.2925506591797,-10.0461898803711,-8.61263275146484,-4.53376770019531,478217345
sq,-10.4303527832031,-10.1187301635742,-8.42618942260742,-3.53813171386719,478234012
sq,-10.5651718139648,-10.1753402709961,-6.35194778442383,-1.10673904418945,478250679
sq,-10.6668029785156,-10.1930480957031,-2.69746780395508,2.81524658203125,478267346
sq,-10.7099624633789,-10.1480041503906,1.42717361450195,0.799179077148437,478284013
sq,-10.6871276855469,-10.1352172851562,1.02853775024414,3.38125228881836,478300680
sq,-10.670671081543,-10.0811172485352,-2.43473052978516,1.37233734130859,478317347
sq,-10.7096267700195,-10.0591598510742,-2.80141830444336,-1.36661529541016,478334014
sq,-10.7544494628906,-10.0810256958008,-0.363826751708984,-10.3907585144043,478350681
sq,-10.760270690918,-10.2472778320312,0.660896301269531,-13.4525299072266,478367348
sq,-10.7496963500977,-10.4625183105469,0.457286834716797,-13.3218765258789,478384015
sq,-10.7423797607422,-10.6756683349609,-1.5873908996582,-3.91435623168945,478400682
sq,-10.7677780151367,-10.738298034668,-2.64167785644531,-0.0162124633789063,478417349
sq,-10.8100448608398,-10.738557434082,-1.93119049072266,1.60551071166992,478434016
sq,-10.8409439086914,-10.7128692626953,-0.566005706787109,-0.875949859619141,478450683
sq,-10.85,-10.7268844604492,1.05810165405273,-2.85434722900391,478467350
sq,-10.8330703735352,-10.7725540161133,1.38711929321289,-3.00312042236328,478484017
sq,-10.8108764648437,-10.8206039428711,1.86491012573242,-1.83725357055664,478500684
sq,-10.781037902832,-10.85,2.75659561157227,0.699996948242187,478517351
sq,-10.7369323730469,-10.8388000488281,3.63016128540039,1.67465209960937,478534018
sq,-10.6788497924805,-10.8120056152344,2.95305252075195,1.70135498046875,478550685
