Label,Left_Hip_q,Right_Hip_q,Left_Hip_qd,Right_Hip_qd,SampleTimeFine
sq,-10.1574798583984,-10.4414840698242,16.9339179992676,-2.04086303710937,496243450
sq,-9.88653717041016,-10.474137878418,14.803409576416,-1.66749954223633,496260117
sq,-9.6496826171875,-10.5008178710937,10.6902122497559,3.52287292480469,496276784
sq,-9.47863922119141,-10.4444519042969,8.79096984863281,4.08029556274414,496293451
sq,-9.33798370361328,-10.379167175293,7.22074508666992,4.59480285644531,496310118
sq,-9.22245178222656,-10.3056503295898,6.36768341064453,5.31196594238281,496326785
sq,-9.12056884765625,-10.2206588745117,5.92374801635742,5.05447387695312,496343452
sq,-9.02578887939453,-10.1397872924805,5.15317916870117,3.73172760009766,496360119
sq,-8.94333801269531,-10.0800796508789,4.47797775268555,3.12519073486328,496376786
sq,-8.87169036865234,-10.0300765991211,3.09371948242187,3.14426422119141,496393453
sq,-8.82219085693359,-9.97976837158203,1.91926956176758,2.07185745239258,496410120
sq,-8.79148254394531,-9.94661865234375,0.792980194091797,1.91402435302734,496426787
sq,-8.77879486083984,-9.91599426269531,-0.136852264404297,1.41143798828125,496443454
sq,-8.78098449707031,-9.89341125488281,-1.21355056762695,2.28214263916016,496460121
sq,-8.80040130615234,-9.85689697265625,-1.79958343505859,3.30877304077148,496476788
sq,-8.82919464111328,-9.80395660400391,-2.02751159667969,4.50372695922852,496493455
sq,-8.86163482666016,-9.73189697265625,-1.98507308959961,5.01871109008789,496510122
sq,-8.89339599609375,-9.65159759521484,-1.95646286010742,5.33533096313477,496526789
sq,-8.92469940185547,-9.56623229980469,-2.04992294311523,5.68532943725586,496543456
sq,-8.95749816894531,-9.47526702880859,-2.4561882019043,5.39016723632812,496560123
sq,-8.99679718017578,-9.38902435302734,-2.78568267822266,2.94017791748047,496576790
sq,-9.04136810302734,-9.34198150634766,-3.63254547119141,2.60496139526367,496593457
sq,-9.09948883056641,-9.30030212402344,-5.51891326904297,3.80563735961914,496610124
sq,-9.18779144287109,-9.23941192626953,-5.4316520690918,7.15875625610352,496626791
sq,-9.27469787597656,-9.12487182617187,-3.43465805053711,13.4539604187012,496643458
sq,-9.32965240478516,-8.90960845947266,-0.146865844726562,15.8448219299316,496660125
sq,-9.33200225830078,-8.65609130859375,2.13479995727539,18.2676315307617,496676792
sq,-9.29784545898437,-8.36380920410156,4.30202484130859,22.5114822387695,496693459
sq,-9.22901306152344,-8.00362548828125,6.72340393066406,26.1459350585938,496710126
sq,-9.12143859863281,-7.58529052734375,12.4273300170898,32.8888893127441,496726793
sq,-8.92260131835937,-7.05906829833984,21.9082832336426,32.987117767334,496743460
sq,-8.57206878662109,-6.5312744140625,32.127857208252,32.7639579772949,496760127
sq,-8.05802307128906,-6.00705108642578,38.7997627258301,39.2804145812988,496776794
sq,-7.43722686767578,-5.378564453125,55.4418563842773,51.2485504150391,496793461
sq,-6.55015716552734,-4.55858764648437,83.1036567687988,55.783748626709,496810128
sq,-5.22049865722656,-3.66604766845703,86.5111351013184,57.4536323547363,496826795
sq,-3.83632049560547,-2.74678955078125,122.12610244751,68.3445930480957,496843462
sq,-1.88230285644531,-1.65327606201172,134.090900421143,80.3928375244141,496860129
sq,0.263151550292969,-0.366990661621093,135.753631591797,76.0459899902344,496876796
sq,2.43520965576172,0.849745178222657,136.641263961792,70.0187683105469,496893463
sq,4.62146987915039,1.97004547119141,132.849693298339,77.869176864624,496910130
sq,6.74706497192382,3.21595230102539,155.845642089844,91.792106628418,496926797
sq,9.24059524536132,4.68462600708008,160.853385925293,93.6722755432129,496943464
sq,11.814249420166,6.18338241577148,151.084423065185,102.697372436523,496960131
sq,14.231600189209,7.82654037475586,143.312931060791,114.129066467285,496976798
sq,16.5246070861816,9.65260543823242,131.053447723389,97.1701145172119,496993465
sq,18.6214622497559,11.2073272705078,104.201555252075,98.2718467712407,497010132
sq,20.2886871337891,12.7796768188477,91.4201736450195,114.284753799438,497026799
sq,21.7514099121094,14.6082328796387,90.7821655273437,113.320827484131,497043466
sq,23.2039245605469,16.4213661193848,102.042198181152,110.523462295532,497060133
sq,24.8365997314453,18.1897415161133,107.478380203247,120.028257369996,497076800
sq,26.5562538146973,20.1101936340332,100.140571594238,120.554447174072,497093467
sq,28.1585029602051,22.0390647888184,89.083433151246,106.915235519409,497110134
sq,29.583837890625,23.7497085571289,94.34962272644,110.033273696899,497126801
sq,31.093431854248,25.5102409362793,88.8354778289799,107.211351394653,497143468
sq,32.5147994995117,27.2256225585937,78.980445861816,101.341009140015,497160135
sq,33.7784866333008,28.847078704834,73.3013153076172,100.405931472778,497176802
sq,34.9513076782226,30.4535736083984,75.7383108139038,104.833364486694,497193469
sq,36.1631206512451,32.1309074401856,77.803373336792,117.647409439087,497210136
sq,37.4079746246338,34.0132659912109,74.9623775482178,109.013795852661,497226803
sq,38.6073726654053,35.7574867248535,80.8833837509155,102.496027946472,497243470
sq,39.9015068054199,37.3974231719971,85.2303504943848,105.520606040955,497260137
sq,41.2651924133301,39.0857528686523,87.890625,109.316468238831,497276804
sq,42.6714424133301,40.8348163604736,90.5187129974365,109.444379806519,497293471
sq,44.1197418212891,42.5859264373779,99.8308658599854,107.363343238831,497310138
sq,45.7170356750488,44.3037399291992,95.8622694015503,108.13558101654,497326805
sq,47.2508319854736,46.0339092254639,96.4586734771729,110.560297966003,497343472
sq,48.7941707611084,47.8028739929199,93.5028791427612,107.68461227417,497360139
sq,50.2902168273926,49.5258277893066,88.9107584953308,99.1897583007812,497376806
sq,51.7127889633179,51.1128639221191,93.6142206192017,84.4742655754089,497393473
sq,53.2106164932251,52.4644521713257,96.1631536483765,107.601642608643,497410140
sq,54.7492269515991,54.186078453064,94.5228338241577,97.3599553108215,497426807
sq,56.2615922927856,55.7438377380371,93.3079719543457,97.8221893310547,497443474
sq,57.7545198440552,57.308992767334,81.7981362342834,98.8997220993042,497460141
sq,59.0632900238037,58.8913883209229,76.2307941913605,92.2544896602631,497476808
sq,60.2829827308655,60.3674601554871,71.0528790950775,79.302191734314,497493475
sq,61.4198287963867,61.6362952232361,65.3600096702576,71.3514536619186,497510142
sq,62.4655889511108,62.7779184818268,62.1583759784698,60.8317106962204,497526809
sq,63.4601229667664,63.7512258529663,50.492718815804,62.5834539532666,497543476
sq,64.2680064678192,64.7525611162186,38.6326014995575,46.678364276886,497560143
sq,64.8861280918121,65.4994149446487,28.0557870864868,34.6130207180977,497576810
sq,65.3350206851959,66.0532232761383,16.6520774364471,22.5804336369038,497593477
sq,65.6014539241791,66.4145102143288,2.48868018388748,9.93026187643409,497610144
sq,65.6412728071213,66.5733944043517,-6.65558874607086,-0.738435890525579,497626811
sq,65.5347833871841,66.5615794301033,-22.1111550927162,-13.8031896203756,497643478
sq,65.1810049057007,66.3407283961773,-35.4481786489487,-27.3886602371931,497660145
sq,64.6138340473175,65.9025098323822,-42.869091033936,-38.1922572851181,497676812
sq,63.9279285907745,65.2914337158203,-53.0932396650314,-49.2429435253143,497693479
sq,63.078436756134,64.5035466194153,-59.7355365753174,-56.2113076448445,497710146
sq,62.1226681709289,63.6041656970978,-63.3544921875,-67.7286833524704,497726813
sq,61.1089962959289,62.5205067634583,-70.8085894584656,-79.8812210559845,497743480
sq,59.9760588645935,61.2424072265625,-75.5738914012909,-87.0198905467987,497760147
sq,58.7668766021729,59.8500889778137,-78.4573554992676,-99.9013483524323,497776814
sq,57.5115589141846,58.2516674041748,-83.7211012840271,-105.164170265198,497793481
sq,56.1720212936401,56.5690406799316,-92.4976468086243,-106.336414813995,497810148
sq,54.6920589447021,54.8676580429077,-96.2225198745728,-102.961122989654,497826815
sq,53.152498626709,53.2202800750732,-99.4124412536621,-107.259094715118,497843482
sq,51.5618995666504,51.5041345596314,-97.5989103317261,-112.206876277924,497860149
sq,50.0003170013428,49.7088245391846,-101.549744606018,-119.071960449219,497876816
sq,48.3755210876465,47.8036731719971,-100.702166557312,-118.34180355072,497893483
sq,46.7642864227295,45.9102043151856,-101.29964351654,-120.211362838745,497910150
sq,45.1434921264648,43.9868225097656,-108.153223991394,-121.275663375855,497926817
sq,43.4130405426025,42.046411895752,-107.70845413208,-125.051736831665,497943484
sq,41.6897052764893,40.0455841064453,-111.045598983765,-124.936938285828,497960151
sq,39.912975692749,38.0465930938721,-107.843637466431,-124.554634094238,497976818
sq,38.1874774932861,36.0537189483643,-117.244124412537,-126.766085624695,497993485
sq,36.3115715026856,34.0254615783691,-121.262073516846,-129.612922668457,498010152
sq,34.371378326416,31.9516548156738,-120.517730712891,-134.477376937866,498026819
sq,32.4430946350098,29.800016784668,-122.828006744384,-133.20517539978,498043486
sq,30.4778465270996,27.6687339782715,-119.829654693604,-128.631591796875,498060153
sq,28.560572052002,25.6106285095215,-131.095647811889,-122.525453567505,498076820
sq,26.4630416870117,23.6502212524414,-141.074895858765,-129.379749298096,498093487
sq,24.2058433532715,21.5801452636719,-145.445585250854,-136.802434921265,498110154
sq,21.8787139892578,19.3913063049316,-146.752357482911,-133.567094802856,498126821
sq,19.5306762695312,17.2542327880859,-154.252767562866,-138.331413269043,498143488
sq,17.0626319885254,15.0409301757813,-161.726474761963,-143.156051635742,498160155
sq,14.475008392334,12.7504333496094,-162.48369216919,-142.114400863647,498176822
sq,11.8752693176269,10.476602935791,-158.066272735596,-137.923955917359,498193489
sq,9.34620895385742,8.26981964111327,-151.132822036743,-134.012460708618,498210156
sq,6.92808380126953,6.12562026977539,-161.278963088989,-107.015132904053,498226823
sq,4.3476203918457,4.41337814331055,-161.401987075806,-128.279447555542,498243490
sq,1.76518859863281,2.36090698242187,-173.65550994873,-109.419345855713,498260157
sq,-1.01329956054688,0.610197448730469,-188.859462738037,-110.095500946045,498276824
sq,-4.03505096435547,-1.15133056640625,-181.977272033691,-103.618144989014,498293491
sq,-6.94668731689453,-2.80922088623047,-123.161315917969,-93.818187713623,498310158
sq,-8.91726837158203,-4.31031188964844,-47.5907325744629,-77.0454406738281,498326825
sq,-9.67872009277344,-5.54303894042969,1.32894515991211,-50.4188537597656,498343492
sq,-9.65745697021484,-6.34974060058594,-0.341415405273437,-17.5662040710449,498360159
sq,-9.66291961669922,-6.63079986572266,-6.89458847045898,3.54099273681641,498376826
sq,-9.77323303222656,-6.57414398193359,-13.1430625915527,10.0889205932617,498393493
sq,-9.98352203369141,-6.41272125244141,-16.6177749633789,3.65304946899414,498410160
sq,-10.2494064331055,-6.3542724609375,-13.8034820556641,-3.02362442016602,498426827
sq,-10.4702621459961,-6.40265045166016,1.75285339355469,-8.29744338989258,498443494
sq,-10.4422164916992,-6.53540954589844,22.9530334472656,-2.75659561157227,498460161
sq,-10.074967956543,-6.57951507568359,34.5540046691895,5.97333908081055,498476828
sq,-9.52210388183594,-6.48394165039062,36.9195938110352,13.5197639465332,498493495
sq,-8.93139038085937,-6.26762542724609,42.6149368286133,9.80043411254883,498510162
sq,-8.24955139160156,-6.11081848144531,48.1548309326172,6.80351257324219,498526829
sq,-7.47907409667969,-6.00196228027344,47.6093292236328,9.98449325561523,498543496
sq,-6.71732482910156,-5.84221038818359,44.0235137939453,5.50174713134766,498560163
sq,-6.01294860839844,-5.75418243408203,42.9272651672363,10.1895332336426,498576830
sq,-5.32611236572266,-5.59114990234375,49.191951751709,13.3833885192871,498593497
sq,-4.53904113769531,-5.37701568603516,63.3792877197266,12.8703117370606,498610164
sq,-3.52497253417969,-5.17109069824219,84.4826698303223,18.7320709228516,498626831
sq,-2.17324981689453,-4.87137756347656,88.8738632202148,24.5881080627441,498643498
sq,-0.751268005371093,-4.47796783447266,90.0278091430664,41.022777557373,498660165
sq,0.689176940917969,-3.82160339355469,105.80587387085,63.0431175231934,498676832
sq,2.38207092285156,-2.81291351318359,106.903791427612,84.373950958252,498693499
sq,4.09253158569335,-1.46293029785156,100.173234939576,110.39400100708,498710166
sq,5.69530334472656,0.303373718261719,98.3121395111084,119.531631469727,498726833
sq,7.2682975769043,2.21587982177734,111.579656600952,122.582912445068,498743500
sq,9.05357208251953,4.17720642089844,139.565467834473,118.743181228638,498760167
sq,11.2866195678711,6.07709732055664,151.134252548217,123.624324798584,498776834
sq,13.7047676086426,8.05508651733398,131.255626678467,122.920751571655,498793501
sq,15.8048576354981,10.0218185424805,132.88927078247,98.6282825469966,498810168
sq,17.9310859680176,11.5998710632324,137.901782989503,83.2068920135502,498826835
sq,20.1375144958496,12.9311813354492,107.975721359253,103.886365890503,498843502
sq,21.8651260375977,14.5933631896973,82.697868347168,113.694190979004,498860169
sq,23.1882919311523,16.4124702453613,99.9062061309814,122.225046157837,498876836
sq,24.786791229248,18.3680709838867,113.386631011963,128.737449645996,498893503
sq,26.6009773254395,20.4278701782227,117.103338241577,135.146856307983,498910170
sq,28.4746307373047,22.5902198791504,98.5772609710698,121.422052383423,498926837
sq,30.0518669128418,24.5329727172852,97.4438190460205,122.740983963013,498943504
sq,31.6109680175781,26.4968284606934,100.799322128296,119.445085525513,498960171
sq,33.2237571716309,28.4079498291016,103.192090988159,118.558168411254,498976838
sq,34.8748306274414,30.3048805236816,97.5658893585205,113.848686218262,498993505
sq,36.4358848571777,32.1264595031738,85.8114957809448,115.795612335205,499010172
sq,37.8088687896729,33.9791893005371,92.6607847213745,123.865485191345,499026839
sq,39.2914413452148,35.9610370635986,95.7220792770386,112.08963394165,499043506
sq,40.8229946136475,37.754471206665,96.1184501647949,105.763792991638,499060173
sq,42.3608898162842,39.4466918945312,89.9523496627808,102.306962013245,499076840
sq,43.8001274108887,41.0836032867432,84.7128629684448,101.610779762268,499093507
sq,45.1555332183838,42.7093757629395,90.2361869812012,96.8098640441895,499110174
sq,46.599312210083,44.2583335876465,99.8029708862305,78.4851312637329,499126841
sq,48.1961597442627,45.5140956878662,92.395544052124,92.5997495651245,499143508
sq,49.6744884490967,46.9956916809082,85.8047008514404,97.3511934280396,499160175
sq,51.0473636627197,48.5533107757568,75.9756565093994,100.902676582336,499176842
sq,52.2629741668701,50.1677536010742,83.9537978172302,96.2863564491272,499193509
sq,53.6062349319458,51.7083353042603,83.2286477088928,88.4861946105957,499210176
sq,54.9378932952881,53.1241144180298,82.5213193893433,83.2201242446899,499226843
sq,56.2582344055176,54.4556364059448,79.6772837638855,80.759584903717,499243510
sq,57.5330709457397,55.7477897644043,74.7758746147156,78.2971382141113,499260177
sq,58.7294849395752,57.0005439758301,62.1979236602783,75.6164789199829,499276844
sq,59.7246517181396,58.2104076385498,55.75892329216,70.0949728488922,499293511
sq,60.6167944908142,59.3319272041321,53.5424649715424,59.540182352066,499310178
sq,61.4734739303589,60.2845701217651,50.6078004837036,43.5447990894318,499326845
sq,62.2831987380981,60.981286907196,35.6325507164001,37.9138588905334,499343512
sq,62.8533195495606,61.5879086494446,22.220104932785,33.1658124923706,499360179
sq,63.2088412284851,62.1185616493225,12.2675001621246,22.3317444324493,499376846
sq,63.4051212310791,62.4758695602417,0.36311149597168,12.0335668325424,499393513
sq,63.4109310150146,62.6684066295624,-9.72869992256165,-0.451907515525818,499410180
sq,63.2552718162537,62.661176109314,-21.2053656578064,-11.2055242061615,499426847
sq,62.9159859657288,62.4818877220154,-27.4355709552765,-24.9082744121552,499443514
sq,62.4770168304443,62.0833553314209,-41.6866838932037,-34.9969863891602,499460181
sq,61.8100298881531,61.5234035491943,-48.567146062851,-46.1327135562897,499476848
sq,61.0329555511475,60.7852801322937,-50.6229400634766,-53.2634258270264,499493515
sq,60.2229885101318,59.9330653190613,-57.4742555618286,-63.0418360233307,499510182
sq,59.3034004211426,58.924395942688,-64.6468997001648,-73.452889919281,499526849
sq,58.2690500259399,57.7491497039795,-73.661744594574,-80.1945924758911,499543516
sq,57.0904621124268,56.4660362243652,-79.3938636779785,-89.0599489212036,499560183
sq,55.8201602935791,55.041077041626,-84.7943425178528,-93.1762456893921,499576850
sq,54.4634508132935,53.5502571105957,-89.0474319458008,-96.4638590812683,499593517
sq,53.0386919021606,52.0068353652954,-93.1419730186462,-97.0746874809265,499610184
sq,51.5484203338623,50.4536403656006,-93.5548543930054,-101.997971534729,499626851
sq,50.0515426635742,48.8216728210449,-95.0794219970703,-107.278227806091,499643518
sq,48.5302719116211,47.1052211761475,-100.845575332642,-105.363130569458,499660185
sq,46.9167427062988,45.4194110870361,-100.595116615296,-111.650824546813,499676852
sq,45.3072208404541,43.6329978942871,-103.922724723816,-113.853573799134,499693519
sq,43.6444572448731,41.811340713501,-104.35938835144,-112.474679946899,499710186
sq,41.97470703125,40.0117458343506,-101.358532905579,-112.857818603516,499726853
sq,40.3529705047607,38.2060207366943,-96.193790435791,-115.521550178528,499743520
sq,38.8138698577881,36.3576759338379,-104.575276374817,-115.920066833496,499760187
sq,37.140665435791,34.502954864502,-105.468034744263,-117.46883392334,499776854
sq,35.4531768798828,32.6234535217285,-104.830026626587,-121.075630187988,499793521
sq,33.7758964538574,30.6862434387207,-105.216026306152,-122.277975082398,499810188
sq,32.092440032959,28.7297958374023,-102.234125137329,-122.397422790528,499826855
sq,30.4566940307617,26.7714370727539,-107.115745544434,-123.652458190918,499843522
sq,28.7428421020508,24.7929977416992,-112.638473510742,-122.588634490967,499860189
sq,26.9406265258789,22.8315795898437,-117.57755279541,-113.642454147339,499876856
sq,25.0593856811523,21.0133003234863,-127.580404281616,-116.003274917602,499893523
sq,23.0180992126465,19.1572479248047,-138.345241546631,-119.98176574707,499910190
sq,20.8045753479004,17.2375396728516,-144.633054733277,-122.498989105225,499926857
sq,18.490446472168,15.277555847168,-148.671388626098,-123.120784759521,499943524
sq,16.1117042541504,13.3076232910156,-156.757354736328,-127.501964569092,499960191
sq,13.6035865783691,11.2675918579102,-157.257080078125,-122.699737548828,499976858
sq,11.0874732971191,9.30439605712891,-165.15588760376,-119.564533233643,499993525
sq,8.44497909545898,7.39136352539063,-161.041259765625,-120.857715606689,500010192
sq,5.86831893920898,5.4576400756836,-161.86785697937,-120.74613571167,500026859
sq,3.27843322753906,3.52570190429687,-161.890983581543,-121.294975280762,500043526
sq,0.688177490234375,1.58498229980469,-147.639751434326,-115.283966064453,500060193
sq,-1.67405853271484,-0.259561157226562,-130.959033966065,-107.117176055908,500076860
sq,-3.76940307617187,-1.97343597412109,-111.999988555908,-96.5442657470703,500093527
sq,-5.56140289306641,-3.51814422607422,-104.39395904541,-94.8200225830078,500110194
sq,-7.23170623779297,-5.03526458740234,-79.2422294616699,-82.1599960327148,500126861
sq,-8.49958190917969,-6.34982452392578,-29.447078704834,-49.3817329406738,500143528
sq,-8.97073516845703,-7.13993225097656,-34.7042083740234,-5.33199310302734,500160195
sq,-9.52600250244141,-7.225244140625,-24.2223739624023,12.5141143798828,500176862
sq,-9.91356048583984,-7.02501831054687,-2.45285034179687,8.0866813659668,500193529
sq,-9.95280609130859,-6.89563140869141,0.194072723388672,-11.0273361206055,500210196
sq,-9.94970092773437,-7.07206878662109,2.93922424316406,-9.89770889282227,500226863
sq,-9.90267333984375,-7.23043212890625,3.93295288085937,-9.55963134765625,500243530
sq,-9.83974609375,-7.38338623046875,-2.2740364074707,-5.24473190307617,500260197
sq,-9.87613067626953,-7.46730194091797,0.566005706787109,-1.92832946777344,500276864
sq,-9.86707458496094,-7.49815521240234,3.89957427978516,2.75659561157227,500293531
sq,-9.80468139648437,-7.45404968261719,1.64031982421875,15.8848762512207,500310198
sq,-9.77843627929687,-7.19989166259766,3.10802459716797,2.04038619995117,500326865
sq,-9.72870788574219,-7.16724548339844,7.12871551513672,0.565052032470703,500343532
sq,-9.6146484375,-7.15820465087891,10.5624198913574,-0.550270080566406,500360199
sq,-9.44564971923828,-7.16700897216797,15.1276588439941,3.11136245727539,500376866
sq,-9.20360717773437,-7.11722717285156,23.6916542053223,11.2986564636231,500393533
sq,-8.82454071044922,-6.93644866943359,33.9536666870117,17.2309875488281,500410200
sq,-8.28128204345703,-6.66075286865234,38.5003089904785,15.2177810668945,500426867
sq,-7.66527709960937,-6.41726837158203,48.4538078308105,16.6292190551758,500443534
sq,-6.89001617431641,-6.15120086669922,62.4723434448242,30.0073623657227,500460201
sq,-5.89045867919922,-5.67108306884766,78.8979530334473,43.2348251342773,500476868
sq,-4.62809143066406,-4.97932586669922,102.107524871826,55.3073883056641,500493535
sq,-2.99437103271484,-4.09440765380859,109.657287597656,80.0399780273437,500510202
sq,-1.23985443115234,-2.81376800537109,102.516651153564,96.1928367614746,500526869
sq,0.400411987304688,-1.2746826171875,112.410545349121,97.9790687561035,500543536
sq,2.19898071289062,0.292982482910157,112.175464630127,103.446960449219,500560203
sq,3.99378814697266,1.94813385009766,130.740404129029,106.503009796143,500576870
sq,6.08563461303712,3.65218200683594,152.863025665283,104.823350906372,500593537
sq,8.53144302368164,5.32935562133789,152.806758880615,100.765705108642,500610204
sq,10.9763511657715,6.94160690307617,155.71928024292,100.038528442383,500626871
sq,13.4678596496582,8.5422233581543,144.778490066528,98.7651348114014,500643538
sq,15.7843154907227,10.1224655151367,134.987115859985,102.921485900878,500660205
sq,17.9441093444824,11.7692092895508,131.135702133179,91.1548137664804,500676872
sq,20.0422805786133,13.2276863098145,122.790575027466,98.8335609436031,500693539
sq,22.0069297790527,14.8090232849121,114.246606826782,117.161750793457,500710206
sq,23.8348754882812,16.6836112976074,103.095769882203,123.486757278443,500726873
sq,25.4844078063965,18.6593994140625,101.696491241455,108.273267745972,500743540
sq,27.1115516662598,20.391771697998,110.195875167847,99.5628833770752,500760207
sq,28.8746856689453,21.9847778320312,106.321334838867,90.4388427734375,500776874
sq,30.5758270263672,23.4317993164062,91.8915271759038,98.8409519195557,500793541
sq,32.0460914611816,25.0132545471191,84.8958492279053,122.240543365479,500810208
sq,33.4044250488281,26.9691032409668,107.435703277588,119.35567855835,500826875
sq,35.1233963012695,28.8787940979004,109.661817550659,115.910053253173,500843542
sq,36.8779853820801,30.7333549499512,103.286147117615,109.593629837037,500860209
sq,38.5305637359619,32.4868530273437,87.0356559753418,113.652467727661,500876876
sq,39.9231342315674,34.3052925109863,82.6905965805054,110.024571418762,500893543
sq,41.2461837768555,36.0656856536865,93.1252241134644,111.865043640137,500910210
sq,42.7361873626709,37.8555263519287,97.0592498779297,112.401127815247,500926877
sq,44.2891353607178,39.6539443969726,89.2214775085449,107.778787612915,500943544
sq,45.7166790008545,41.3784049987793,86.362361907959,111.776232719421,500960211
sq,47.0984767913818,43.16682472229,86.525559425354,108.17277431488,500976878
sq,48.4828857421875,44.8975891113281,84.2829942703247,103.259444236755,500993545
sq,49.8314136505127,46.5497402191162,88.3687734603882,98.7969636917114,501010212
sq,51.2453140258789,48.1304916381836,82.1296572685242,78.0148506164551,501026879
sq,52.5593885421753,49.3787292480469,82.3287963867187,80.2426338195801,501043546
sq,53.8766492843628,50.6626113891601,74.5565295219421,97.1747040748596,501060213
sq,55.0695537567139,52.2174066543579,70.8733797073364,92.7423238754272,501076880
sq,56.2035278320312,53.7012838363647,76.7367482185364,83.8838219642639,501093547
sq,57.4313158035278,55.043424987793,76.3185024261475,79.1437029838562,501110214
sq,58.6524118423462,56.3097242355347,63.9849007129669,76.7853856086731,501126881
sq,59.6761702537537,57.5382904052734,53.8036227226257,73.9220082759857,501143548
sq,60.5370282173157,58.7210425376892,43.9006984233856,66.3799047470093,501160215
sq,61.2394393920898,59.7831210136414,41.7139828205109,56.3773810863495,501176882
sq,61.906863117218,60.6851591110229,46.7082560062408,38.7865006923675,501193549
sq,62.6541952133179,61.3057431221008,34.8135828971863,35.0443720817566,501210216
sq,63.2112125396729,61.8664530754089,21.2851166725159,32.9357981681824,501226883
sq,63.5517744064331,62.3934258460999,5.56610524654388,24.0136086940765,501243550
sq,63.6408320903778,62.7776435852051,-6.02036714553833,7.46715068817139,501260217
sq,63.5445062160492,62.8971179962158,-7.60973989963531,-6.95294141769409,501276884
sq,63.422750377655,62.7858709335327,-14.8228704929352,-13.7223899364471,501293551
sq,63.1855844497681,62.5663126945496,-36.058247089386,-21.0894644260406,501310218
sq,62.6086524963379,62.2288812637329,-45.4003810882568,-31.3373804092407,501326885
sq,61.8822463989258,61.7274831771851,-49.1799712181091,-43.3477461338043,501343552
sq,61.095366859436,61.0339192390442,-54.5192360877991,-49.4369864463806,501360219
sq,60.2230590820312,60.2429274559021,-59.4973564147949,-58.1750273704529,501376886
sq,59.2711013793945,59.3121270179749,-65.5341744422913,-66.1351978778839,501393553
sq,58.2225545883179,58.2539638519287,-70.4579949378967,-71.0469484329224,501410220
sq,57.0952266693115,57.117212677002,-76.3319134712219,-79.2626738548279,501426887
sq,55.873916053772,55.8490098953247,-77.9580473899841,-86.7554545402527,501443554
sq,54.6265872955322,54.4609226226807,-78.5017013549805,-86.6883397102356,501460221
sq,53.3705600738525,53.0739091873169,-85.4923725128174,-87.7836346626282,501476888
sq,52.0026821136475,51.6693710327148,-88.4982347488403,-93.3045148849487,501493555
sq,50.586710357666,50.1764987945557,-88.1035327911377,-97.2133874893188,501510222
sq,49.1770538330078,48.6210845947266,-89.4109010696411,-101.139664649963,501526889
sq,47.7464794158936,47.0028499603271,-89.6055698394775,-105.767846107483,501543556
sq,46.3127902984619,45.3105644226074,-92.0841693878174,-106.067180633545,501560223
sq,44.8394435882568,43.6134895324707,-93.7714576721196,-107.663512229919,501576890
sq,43.3391002655029,41.890873336792,-95.9819555282588,-111.104130744934,501593557
sq,41.8033889770508,40.1132072448731,-94.7707891464233,-113.587975502014,501610224
sq,40.287056350708,38.2957996368408,-95.6113338470459,-118.70539188385,501626891
sq,38.7572750091553,36.3965133666992,-98.3160734176636,-121.678352355957,501643558
sq,37.1842178344726,34.4496597290039,-106.565952301026,-122.591733932495,501660225
sq,35.4791625976562,32.488191986084,-104.291915893554,-121.270656585693,501676892
sq,33.8104919433594,30.5478614807129,-104.209899902344,-127.343654632568,501693559
sq,32.1431335449219,28.5103630065918,-110.640525817872,-130.049228668213,501710226
sq,30.3728851318359,26.4295753479004,-114.938020706176,-126.355171203613,501726893
sq,28.5338768005371,24.4078926086426,-121.974706649781,-123.704671859741,501743560
sq,26.5822814941406,22.4286178588867,-123.46887588501,-119.777679443359,501760227
sq,24.6067794799805,20.512174987793,-127.983808517456,-130.695581436157,501776894
sq,22.5590385437012,18.4210456848145,-144.364356994629,-132.088661193848,501793561
sq,20.2492088317871,16.3076271057129,-141.573905944825,-124.913215637207,501810228
sq,17.9840263366699,14.3090156555176,-142.550468444824,-123.581886291504,501826895
sq,15.7032188415527,12.3317054748535,-144.044399261475,-112.632751464844,501843562
sq,13.3985084533691,10.529581451416,-142.43221282959,-114.327907562256,501860229
sq,11.1195930480957,8.70033493041992,-145.817756652832,-115.73839187622,501876896
sq,8.78650894165039,6.84852066040039,-145.976781845093,-118.902444839477,501893563
sq,6.45088043212891,4.94608154296875,-141.236305236816,-114.841222763061,501910230
sq,4.19109954833984,3.10862197875977,-129.532814025879,-101.366758346558,501926897
sq,2.11857452392578,1.48675384521484,-118.428230285645,-101.823806762695,501943564
sq,0.223722839355469,-0.142427062988281,-112.755298614502,-99.583625793457,501960231
sq,-1.58036193847656,-1.73576507568359,-110.514163970947,-99.3099212646484,501976898
sq,-3.34858856201172,-3.32472381591797,-100.639343261719,-88.7942314147949,501993565
sq,-4.95881805419922,-4.74543151855469,-85.1602554321289,-80.5268287658691,502010232
sq,-6.32138214111328,-6.03386077880859,-47.5225448608398,-70.4045295715332,502026899
sq,-7.08174285888672,-7.16033325195312,-44.830322265625,-55.7222366333008,502043566
sq,-7.79902801513672,-8.05188903808594,-35.9930992126465,-36.5405082702637,502060233
sq,-8.37491760253906,-8.63653717041016,-10.4913711547852,-10.8194351196289,502076900
sq,-8.54277954101562,-8.80964813232422,-3.83472442626953,2.8996467590332,502093567
sq,-8.60413513183594,-8.76325378417969,2.86054611206055,7.68184661865234,502110234
sq,-8.55836639404297,-8.64034423828125,-1.44815444946289,-1.29508972167969,502126901
sq,-8.58153686523437,-8.66106567382812,-5.93042373657227,-2.47335433959961,502143568
sq,-8.67642364501953,-8.70063934326172,-6.97135925292969,-13.3509635925293,502160235
sq,-8.78796539306641,-8.91425476074219,-5.23900985717773,1.03855133056641,502176902
sq,-8.87178955078125,-8.89763793945312,3.36503982543945,3.08513641357422,502193569
sq,-8.81794891357422,-8.84827575683594,9.80424880981445,8.76712799072266,502210236
sq,-8.66108093261719,-8.70800170898437,8.90159606933594,23.3120918273926,502226903
sq,-8.51865539550781,-8.33500823974609,10.5323791503906,14.6517753601074,502243570
sq,-8.35013732910156,-8.10057983398437,13.5684013366699,3.52668762207031,502260237
sq,-8.13304290771484,-8.04415283203125,17.0102119445801,12.1397972106934,502276904
sq,-7.86087951660156,-7.84991607666016,20.2860832214356,27.8167724609375,502293571
sq,-7.53630218505859,-7.40484771728516,29.9410820007324,24.1756439208984,502310238
sq,-7.05724487304687,-7.01803741455078,37.1499061584473,29.8638343811035,502326905
sq,-6.46284637451172,-6.54021606445312,43.3268547058105,49.1905212402344,502343572
sq,-5.76961669921875,-5.75316772460937,54.2387962341309,65.9480094909668,502360239
sq,-4.90179595947266,-4.69799957275391,69.633960723877,74.9392509460449,502376906
sq,-3.78765258789062,-3.49897155761719,86.2655639648437,76.5175819396973,502393573
sq,-2.40740356445312,-2.27469024658203,107.136726379395,71.2432861328125,502410240
sq,-0.693215942382812,-1.13479766845703,119.760990142822,68.8891410827637,502426907
sq,1.22295989990234,-0.0325714111328121,142.711877822876,75.223445892334,502443574
sq,3.50634994506837,1.17100372314453,162.349700927734,76.1890411376953,502460241
sq,6.10394515991212,2.39002838134766,166.445016860962,84.0239524841309,502476908
sq,8.76706542968751,3.73441162109375,171.453952789306,97.5379943847656,502493575
sq,11.5103286743164,5.29501953125,163.012266159057,114.91847038269,502510242
sq,14.1185249328613,7.13371505737305,132.100582122803,122.23482131958,502526909
sq,16.2321342468262,9.08947219848633,105.225563049316,118.555784225464,502543576
sq,17.9157432556152,10.9863647460938,109.169006347656,109.901905059814,502560243
sq,19.6624473571777,12.7447952270508,108.660221099854,106.021642684937,502576910
sq,21.4010108947754,14.4411415100098,112.694501876831,98.3543395996093,502593577
sq,23.2041229248047,16.0148109436035,132.655620574952,115.189552307129,502610244
sq,25.3266128540039,17.8578437805176,122.692823410034,124.498367309571,502626911
sq,27.2896980285645,19.8498176574707,123.877763748169,121.984243392943,502643578
sq,29.2717422485352,21.8015655517578,133.832454681397,126.980781555176,502660245
sq,31.4130615234375,23.8332580566406,134.081125259399,140.507936477662,502676912
sq,33.5583595275879,26.0813850402832,131.890654563904,128.546237945556,502693579
sq,35.6686100006104,28.1381248474121,108.618497848511,117.047309875488,502710246
sq,37.4065059661865,30.0108818054199,80.6347131729126,129.320621490479,502726913
sq,38.6966613769531,32.0800117492676,85.7503414154053,131.871223449707,502743580
sq,40.0686668395996,34.1899513244629,104.024648666382,128.184914588928,502760247
sq,41.7330612182617,36.2409099578857,102.462887763977,126.608490943909,502776914
sq,43.3724674224854,38.2666458129883,107.715129852295,129.98378276825,502793581
sq,45.0959095001221,40.3463863372803,104.673385620117,126.992464065552,502810248
sq,46.7706836700439,42.3782657623291,101.470708847046,123.255491256713,502826915
sq,48.3942150115967,44.3503536224365,105.159759521484,123.238801956177,502843582
sq,50.0767711639404,46.3221744537354,103.358745574951,114.315986633301,502860249
sq,51.7305110931396,48.1512302398682,97.3761081695561,110.6196641922,502876916
sq,53.2885288238525,49.9211448669434,89.6095037460327,111.7844581604,502893583
sq,54.7222808837891,51.7096961975098,86.9983434677124,106.286406517029,502910250
sq,56.1142543792725,53.4102787017822,85.0571990013123,85.6142640113831,502926917
sq,57.4751695632935,54.7801069259643,90.9407138824463,86.1326456069946,502943584
sq,58.9302209854126,56.1582292556763,86.3781273365021,98.5478758811951,502960251
sq,60.3122710227966,57.7349952697754,80.985426902771,92.39661693573,502976918
sq,61.608037853241,59.2133411407471,74.0648508071899,86.950808763504,502993585
sq,62.793075466156,60.6045540809631,64.2313659191132,77.1764814853668,503010252
sq,63.8207773208618,61.839377784729,52.7908802032475,65.2027279138565,503026919
sq,64.6654314041138,62.8826214313507,48.6536622047424,53.5323619842529,503043586
sq,65.4438899993897,63.7391392230988,42.3385426402092,48.2036322355275,503060253
sq,66.121306681633,64.5103973388672,30.6492932140827,38.0166172981262,503076920
sq,66.6116953730583,65.1186632156372,14.7303566336632,27.8775840997696,503093587
sq,66.8473810791969,65.5647045612335,-0.342730432748795,9.90341603755951,503110254
sq,66.841897392273,65.7231592178345,-6.1308965086937,-3.60597297549248,503126921
sq,66.7438030481339,65.6654636502266,-19.5832028985023,-19.2315392196178,503143588
sq,66.4304718017578,65.3577590227127,-29.5711979269981,-26.6437157988548,503160255
sq,65.9573326349258,64.931459569931,-45.216403901577,-39.9994552135468,503176922
sq,65.2338701725006,64.2914682865143,-55.6655824184418,-52.8973489999776,503193589
sq,64.3432208538055,63.4451107025146,-62.2193962335591,-63.4608566761017,503210256
sq,63.3477105140686,62.429736995697,-64.2600059509277,-75.0763416290283,503226923
sq,62.3195504188538,61.2285155296326,-77.2227644920349,-78.673928976059,503243590
sq,61.0839861869812,59.9697326660156,-83.5366547107697,-85.4923129081726,503260257
sq,59.7473997116089,58.6018556594849,-88.8516902923584,-96.9363451004028,503276924
sq,58.3257726669312,57.0508741378784,-91.793954372406,-102.535724639893,503293591
sq,56.8570693969726,55.4103025436401,-93.6480760574341,-107.943058013916,503310258
sq,55.3587001800537,53.6832136154175,-101.505756378174,-106.687843799591,503326925
sq,53.7346080780029,51.976208114624,-108.753383159637,-109.305858612061,503343592
sq,51.9945539474487,50.2273143768311,-106.876194477081,-120.447993278503,503360259
sq,50.2845348358154,48.300146484375,-104.760885238648,-124.89378452301,503376926
sq,48.6083606719971,46.3018459320068,-109.063029289246,-126.952290534974,503393593
sq,46.8633522033691,44.2706092834473,-109.393954277039,-129.289746284484,503410260
sq,45.1130489349365,42.2019733428955,-113.188028335571,-128.067016601562,503426927
sq,43.3020404815674,40.1529010772705,-115.501165390015,-129.748225212097,503443594
sq,41.4540218353271,38.076929473877,-115.169525146484,-130.431771278381,503460261
sq,39.6113094329834,35.9900211334229,-120.428919792175,-134.411454200745,503476928
sq,37.6844467163086,33.8394378662109,-123.509168624878,-135.331630706787,503493595
sq,35.7083000183106,31.6741317749023,-123.046159744263,-130.680561065674,503510262
sq,33.7395614624023,29.5832427978516,-121.722936630249,-133.539199829102,503526929
sq,31.7919944763184,27.4466156005859,-129.898548126222,-132.03239440918,503543596
sq,29.7136177062988,25.3340972900391,-128.785371780395,-133.484840393066,503560263
sq,27.6530517578125,23.19833984375,-129.53281402588,-126.442909240723,503576930
sq,25.5805267333984,21.1752532958984,-125.471830368042,-122.902631759644,503593597
sq,23.5729774475098,19.2088111877441,-121.819734573365,-120.246648788452,503610264
sq,21.6238616943359,17.2848648071289,-126.141548156738,-111.571073532104,503626931
sq,19.6055969238281,15.4997276306152,-137.047290802002,-114.378690719604,503643598
sq,17.4128402709961,13.6696685791016,-133.020877838135,-102.883100509644,503660265
sq,15.2845062255859,12.0235389709473,-128.506898880004,-102.135181427002,503676932
sq,13.2283958435059,10.3893760681152,-124.084234237671,-98.5381603240967,503693599
sq,11.2430480957031,8.81276550292969,-123.167514801025,-105.690240859986,503710266
sq,9.27236785888673,7.12172164916992,-118.926286697388,-100.7342338562,503726933
sq,7.36954727172852,5.50997390747071,-128.036499023437,-97.5158214569096,503743600
sq,5.32096328735352,3.94972076416016,-131.382703781128,-90.911865234375,503760267
sq,3.21884002685547,2.49513092041016,-121.747016906738,-89.1146659851074,503776934
sq,1.27088775634766,1.06929626464844,-109.557151794434,-94.9101448059082,503793601
sq,-0.482026672363281,-0.449266052246093,-115.293979644775,-92.6151275634766,503810268
sq,-2.32673034667969,-1.93110809326172,-106.145858764648,-92.717170715332,503826935
sq,-4.02506408691406,-3.41458282470703,-78.0329704284668,-78.1798362731934,503843602
sq,-5.27359161376953,-4.66546020507812,-57.8460693359375,-67.6236152648926,503860269
sq,-6.19912872314453,-5.74743804931641,-38.5675430297852,-56.3068389892578,503876936
sq,-6.81620941162109,-6.64834747314453,-34.9917411804199,-50.595760345459,503893603
sq,-7.37607727050781,-7.45787963867187,-20.0734138488769,-48.1405258178711,503910270
sq,-7.69725189208984,-8.22812805175781,-7.7204704284668,-28.7418365478516,503926937
sq,-7.82077941894531,-8.68799743652344,2.53629684448242,-6.08015060424805,503943604
sq,-7.78019866943359,-8.78527984619141,8.52584838867187,13.1440162658691,503960271
sq,-7.64378509521484,-8.5749755859375,13.5874748229981,19.8054313659668,503976938
sq,-7.42638549804687,-8.25808868408203,18.5503959655762,18.4087753295898,503993605
sq,-7.12957916259766,-7.96354827880859,31.9933891296387,24.9333381652832,504010272
sq,-6.61768493652344,-7.56461486816406,53.3113479614258,38.0616188049316,504026939
sq,-5.76470336914062,-6.95562896728516,62.3135566711426,39.3610000610352,504043606
sq,-4.76768646240234,-6.32585296630859,65.7033920288086,39.3252372741699,504060273
sq,-3.71643218994141,-5.69664916992187,77.9962539672852,53.2035827636719,504076940
sq,-2.46849212646484,-4.84539184570312,82.6687812805176,64.7144317626953,504093607
sq,-1.14579162597656,-3.8099609375,90.5790328979492,65.4397010803223,504110274
sq,0.303472900390625,-2.76292572021484,101.817607879639,72.9203224182129,504126941
sq,1.93255462646484,-1.59620056152344,100.245237350464,77.8961181640625,504143608
sq,3.53647842407227,-0.349862670898437,124.495267868042,89.7612571716309,504160275
sq,5.52840270996093,1.08631744384766,138.339519500733,106.10294342041,504176942
sq,7.74183502197266,2.78396453857422,159.730911254883,113.085985183715,504193609
sq,10.2975296020508,4.59334030151367,141.73436164856,117.316722869874,504210276
sq,12.5652793884277,6.47040786743164,108.054637908936,111.419916152954,504226943
sq,14.2941535949707,8.25312652587891,105.439186096191,100.323915481567,504243610
sq,15.9811805725098,9.85830917358398,121.77562713623,120.139837265015,504260277
sq,17.9295906066895,11.7805465698242,130.681753158569,112.679481506347,504276944
sq,20.0204986572266,13.5834182739258,135.687589645386,107.866048812867,504293611
sq,22.1915000915527,15.3092750549316,136.869430541992,107.993125915527,504310278
sq,24.3814109802246,17.0371650695801,116.122245788575,122.204542160034,504326945
sq,26.2393669128418,18.9924377441406,117.008209228516,123.265743255615,504343612
sq,28.111498260498,20.9646896362305,109.63487625122,107.301235198975,504360279
sq,29.8656562805176,22.6815093994141,95.1192378997807,105.661869049072,504376946
sq,31.3875640869141,24.3720993041992,98.7908840179443,117.621421813965,504393613
sq,32.9682182312012,26.2540420532227,98.3669757843022,118.541479110718,504410280
sq,34.54208984375,28.1507057189941,91.0352468490596,113.699674606323,504426947
sq,35.998653793335,29.9699005126953,88.7137651443481,110.808610916138,504443614
sq,37.4180740356445,31.7428382873535,90.9280776977539,110.005855560303,504460281
sq,38.8729232788086,33.5029319763184,82.7394723892212,112.674593925476,504476948
sq,40.1967548370361,35.305725479126,90.8274650573726,106.218099594116,504493615
sq,41.6499942779541,37.0052150726318,96.304297447205,96.5362787246704,504510282
sq,43.1908630371094,38.5497955322266,88.7800455093384,98.132848739624,504526949
sq,44.6113437652588,40.1199211120606,87.3225927352905,107.543706893921,504543616
sq,46.0085052490234,41.8406204223633,86.5426063537598,106.159687042236,504560283
sq,47.3931869506836,43.5391754150391,90.4653072357178,98.6032485961914,504576950
sq,48.8406318664551,45.1168273925781,94.1505432128906,95.5370664596558,504593617
sq,50.3470405578613,46.6454204559326,93.5829281806946,88.6491537094116,504610284
sq,51.8443674087524,48.0638069152832,87.3916149139404,89.4887447357178,504626951
sq,53.2426332473755,49.4956268310547,79.2285203933716,107.748806476593,504643618
sq,54.5102895736694,51.2196077346802,89.5817875862122,94.9844717979431,504660285
sq,55.9435981750488,52.7393592834473,96.2662100791931,93.5209989547729,504676952
sq,57.4838575363159,54.2356952667236,92.4837589263916,96.9551801681519,504693619
sq,58.9635976791382,55.7869781494141,83.4044218063354,97.9765057563782,504710286
sq,60.2980684280395,57.3546022415161,78.1514048576355,97.2088873386383,504726953
sq,61.5484909057617,58.9099444389343,71.8084275722504,93.8056111335754,504743620
sq,62.6974257469177,60.4108342170715,73.4879374504089,84.7234725952148,504760287
sq,63.8732327461243,61.766409778595,79.3122947216038,69.6531683206558,504776954
sq,65.1422294616699,62.8808604717255,68.844348192215,76.4730572700505,504793621
sq,66.2437390327454,64.1044293880463,59.3237783759832,75.46466588974,504810288
sq,67.1929194867611,65.3118640422821,48.9923860877752,67.686915397644,504826955
sq,67.9767976641655,66.3948546886444,44.1426299512386,57.1778789162636,504843622
sq,68.6830797433853,67.3097007513046,43.8005849719047,47.1546724438667,504860289
sq,69.3838891029358,68.0641755104065,36.8887782096863,45.014888048172,504876956
sq,69.9741095542908,68.7844137191773,26.5239179134369,35.2035164833069,504893623
sq,70.3984922409058,69.3476699829102,14.1986012458801,25.7316380739212,504910290
sq,70.6256698608398,69.7593761920929,4.75804507732391,17.8640633821487,504926957
sq,70.701798582077,70.0452012062073,-6.71136379241943,5.76634705066681,504943624
sq,70.5944167613983,70.1374627590179,-7.36834108829498,-9.71326231956482,504960291
sq,70.4765233039856,69.9820505619049,-19.380122423172,-16.6787952184677,504976958
sq,70.1664413452148,69.7151898384094,-31.2571823596954,-21.3324874639511,504993625
sq,69.6663264274597,69.3738700389862,-39.5133942365646,-40.4116064310074,505010292
sq,69.0341121196747,68.7272843360901,-51.1894971132278,-51.495261490345,505026959
sq,68.215080165863,67.9033601522446,-50.6333764642477,-59.8271675407887,505043626
sq,67.4049461424351,66.946125471592,-55.8983478695154,-62.1778219938278,505060293
sq,66.5105725765228,65.9512803196907,-65.1942193508148,-68.6202459037304,505076960
sq,65.4674650669098,64.853356385231,-73.4492689371109,-73.1872692704205,505093627
sq,64.292276763916,63.6823600769043,-71.6174840927128,-78.9215564727783,505110294
sq,63.1463970184326,62.4196151733398,-77.7486860752106,-80.8783173561096,505126961
sq,61.9024180412292,61.1255620956421,-82.0478200912476,-86.9869291782379,505143628
sq,60.5896529197693,59.7337712287903,-80.9594690799713,-83.0723345279694,505160295
sq,59.2943014144897,58.4046138763428,-82.9647183418274,-86.1583948135376,505176962
sq,57.9668659210205,57.0260795593262,-84.128737449646,-89.2094969749451,505193629
sq,56.6208061218262,55.598727607727,-85.4839086532593,-93.2766199111938,505210296
sq,55.253063583374,54.1063016891479,-89.5989537239075,-91.9222235679626,505226963
sq,53.8194803237915,52.6355461120606,-90.6988382339478,-93.5359597206116,505243630
sq,52.3682989120483,51.1389707565308,-90.2933478355408,-97.8167653083801,505260297
sq,50.9236053466797,49.5739025115967,-88.8439416885376,-103.646159172058,505276964
sq,49.5021022796631,47.9155639648437,-88.5570049285889,-105.778813362122,505293631
sq,48.0851902008057,46.2231029510498,-93.6756134033203,-104.590892791748,505310298
sq,46.5863803863525,44.5496486663818,-92.1076536178589,-107.1857213974,505326965
sq,45.1126579284668,42.8346771240234,-92.2309160232544,-108.535885810852,505343632
sq,43.6369632720947,41.0981029510498,-94.1898822784424,-106.430411338806,505360299
sq,42.1299251556396,39.3952163696289,-91.4437770843506,-111.536860466003,505376966
sq,40.66682472229,37.6106266021729,-91.2506580352779,-106.954336166382,505393633
sq,39.2068141937256,35.8993572235107,-96.9679355621342,-107.213139533997,505410300
sq,37.6553272247314,34.1839469909668,-98.4423160552979,-113.465547561645,505426967
sq,36.0802501678467,32.3684982299805,-99.5591878890991,-112.637519836426,505443634
sq,34.4873031616211,30.5662979125977,-104.827404022217,-115.440607070923,505460301
sq,32.8100646972656,28.7192481994629,-111.3440990448,-116.714239120483,505476968
sq,31.0285591125488,26.8518203735352,-117.987871170044,-115.136623382568,505493635
sq,29.1407531738281,25.0096343994141,-118.44277381897,-115.664958953857,505510302
sq,27.2456687927246,23.1589950561523,-117.912769317627,-115.278720855713,505526969
sq,25.3590644836426,21.3145355224609,-115.247726440429,-108.054161071777,505543636
sq,23.5151008605957,19.5856689453125,-122.750282287598,-106.969356536865,505560303
sq,21.5510963439941,17.8741592407227,-126.031160354614,-111.742973327637,505576970
sq,19.5345977783203,16.0862716674805,-130.256652832031,-109.368085861206,505593637
sq,17.4504913330078,14.3363822937012,-140.01727104187,-117.626190185547,505610304
sq,15.2102149963379,12.4543632507324,-132.112503051758,-120.376586914062,505626971
sq,13.0964149475098,10.5283378601074,-121.069192886352,-115.810394287109,505643638
sq,11.1593078613281,8.67537155151367,-126.906871795654,-119.230031967163,505660305
sq,9.12879791259766,6.76769104003906,-139.202117919922,-120.089769363403,505676972
sq,6.90156402587891,4.84625473022461,-123.256921768189,-116.310834884644,505693639
sq,4.92945327758789,2.98528137207031,-122.20025062561,-111.152648925781,505710306
sq,2.97424926757812,1.20683898925781,-131.147384643555,-118.867874145508,505726973
sq,0.87589111328125,-0.695046997070312,-136.44552230835,-116.805553436279,505743640
sq,-1.30723724365234,-2.56393585205078,-131.200790405273,-104.442119598389,505760307
sq,-3.40644989013672,-4.235009765625,-116.510391235352,-85.5398178100586,505776974
sq,-5.27061614990234,-5.60364685058594,-82.8189849853516,-74.2306709289551,505793641
sq,-6.59571990966797,-6.79133758544922,-102.266788482666,-62.6568794250488,505810308
sq,-8.23198852539062,-7.79384765625,-66.6842460632324,-44.7602272033691,505826975
sq,-9.29893646240234,-8.51001129150391,-37.2862815856934,-29.4871330261231,505843642
sq,-9.89551696777344,-8.98180541992187,-16.2482261657715,-17.1346664428711,505860309
sq,-10.1554885864258,-9.25596008300781,-12.8803253173828,-4.19139862060547,505876976
sq,-10.3615737915039,-9.3230224609375,-6.12449645996094,9.98544692993164,505893643
sq,-10.4595657348633,-9.16325531005859,-1.8000602722168,-4.30440902709961,505910310
sq,-10.4883666992187,-9.23212585449219,-4.1661262512207,3.08513641357422,505926977
sq,-10.5550247192383,-9.182763671875,-3.42416763305664,-6.06489181518555,505943644
sq,-10.6098114013672,-9.27980194091797,-0.462532043457031,-0.174522399902344,505960311
sq,-10.6172119140625,-9.28259429931641,4.70876693725586,3.84140014648437,505976978
sq,-10.5418716430664,-9.22113189697266,8.3613395690918,3.31401824951172,505993645
sq,-10.4080902099609,-9.16810760498047,6.8202018737793,5.61332702636719,506010312
sq,-10.2989669799805,-9.07829437255859,1.00231170654297,4.49228286743164,506026979
sq,-10.2829299926758,-9.00641784667969,-1.57594680786133,0.360965728759766,506043646
sq,-10.3081451416016,-9.00064239501953,-3.48234176635742,-5.01251220703125,506060313
sq,-10.3638626098633,-9.08084259033203,-5.23233413696289,-7.25412368774414,506076980
sq,-10.4475799560547,-9.19690856933594,-6.2413215637207,-8.62836837768555,506093647
sq,-10.5474411010742,-9.33496246337891,-6.32667541503906,-11.2671852111816,506110314
sq,-10.6486679077148,-9.51523742675781,-6.05440139770508,-6.52503967285156,506126981
sq,-10.7455383300781,-9.61963806152344,-5.27524948120117,-1.46198272705078,506143648
sq,-10.8299423217773,-9.64302978515625,-1.25360488891602,1.2507438659668,506160315
sq,-10.85,-9.62301788330078,1.79672241210937,-1.20830535888672,506176982
sq,-10.8212524414062,-9.64235076904297,2.11858749389648,-4.93478775024414,506193649
sq,-10.7873550415039,-9.72130737304687,3.17287445068359,-7.53450393676758,506210316
sq,-10.736589050293,-9.84185943603516,2.410888671875,-6.67953491210937,506226983
sq,-10.698014831543,-9.94873199462891,1.76477432250977,-6.20460510253906,506243650
sq,-10.6697784423828,-10.0480056762695,0.688552856445312,-6.34574890136719,506260317
sq,-10.6587615966797,-10.1495376586914,2.02083587646484,-8.00275802612305,506276984
sq,-10.6264282226562,-10.2775817871094,3.17668914794922,-9.6745491027832,506293651
sq,-10.5756011962891,-10.4323745727539,3.92675399780273,-8.75282287597656,506310318
sq,-10.5127731323242,-10.5724197387695,5.18798828125,-8.47721099853516,506326985
sq,-10.4297653198242,-10.7080551147461,4.74309921264648,-8.87155532836914,506343652
