Label,Left_Hip_q,Right_Hip_q,Left_Hip_qd,Right_Hip_qd,SampleTimeFine
sts,-71.0263061523437,-74.2208480834961,-125.71858215332,-101.8042678833,155866490
sts,-69.0719680786132,-72.4163131713867,-119.82024892311402,-101.84134178185647,155883157
sts,-67.4258499145507,-70.988410949707,-117.56682955134931,-94.96892115249351,155899824
sts,-65.8722229003906,-69.7729339599609,-115.68112370693112,-88.69785390097624,155916491
sts,-63.9569778442382,-68.458740234375,-114.4118561285791,-83.50537812737835,155933158
sts,-61.7485389709472,-67.0187911987304,-113.73808034699105,-79.57554039069493,155949825
sts,-59.9362144470214,-65.4926681518554,-113.36776696339994,-76.80413666443594,155966492
sts,-58.2925796508789,-63.9938812255859,-112.82354240790416,-74.89782811855214,155983159
sts,-56.4964981079101,-62.5309295654296,-111.57717802949351,-73.50404953040317,155999826
sts,-54.7732200622558,-61.1793365478515,-109.19390090905847,-72.31087823129246,156016493
sts,-53.0009040832519,-59.9753265380859,-105.44893052875595,-71.08706463408707,156033160
sts,-51.2749290466308,-58.7817306518554,-100.38146364218902,-69.66818601655436,156049827
sts,-49.8421173095703,-57.6033096313476,-94.26745907871488,-67.91753169711995,156066494
sts,-48.6773147583007,-56.5008888244628,-87.52239934538517,-65.69407737055607,156083161
sts,-47.5469818115234,-55.4308319091796,-80.57369706025818,-62.848457009863324,156099828
sts,-46.3551788330078,-54.3553276062011,-73.75189233568055,-59.24917137048746,156116495
sts,-45.201789855957,-53.3133354187011,-67.23392382878674,-54.82361653658216,156133162
sts,-44.2265968322753,-52.4686431884765,-61.04219215346933,-49.589373182322376,156149829
sts,-43.4188575744628,-51.8176765441894,-55.08067542599956,-43.65613803274869,156166496
sts,-42.6542930603027,-51.2269134521484,-49.185224077838235,-37.19605282240358,156183163
sts,-41.9001541137695,-50.660041809082,-43.173034289999094,-30.398254673385992,156199830
sts,-41.3055915832519,-50.1902809143066,-36.88370255213866,-23.429106363871544,156216497
sts,-40.9142875671386,-49.8393936157226,-30.207304424136737,-16.410960397595566,156233164
sts,-40.6225624084472,-49.6604804992675,-23.098004588373062,-9.419394381055863,156249831
sts,-40.3426361083984,-49.6566352844238,-15.576152593800845,-2.491825112938478,156266498
sts,-40.0819129943847,-49.7616081237793,-7.722663817941803,4.3587998365890055,156283165
sts,-39.9978713989257,-49.9375495910644,0.3352759700628995,11.128064353747884,156299832
sts,-40.2010345458984,-50.2146301269531,8.451591511868608,17.804263133074116,156316499
sts,-40.5925025939941,-50.67036819458,16.50075725133445,24.357843972648645,156333166
sts,-41.035400390625,-51.2608070373535,24.41711361508008,30.742016643223955,156349833
sts,-41.5605659484863,-51.9811668395996,32.21670613957085,36.90514801626733,156366500
sts,-42.235969543457,-52.7915153503418,39.99139155214943,42.807279179840165,156383167
sts,-43.0513038635253,-53.6400566101074,47.87798261750877,48.42921649190306,156399834
sts,-43.9809532165527,-54.5460891723632,56.01368971889743,53.7672670211197,156416501
sts,-45.0245323181152,-55.569236755371,64.48987903839831,58.81662578760388,156433168
sts,-46.1879806518554,-56.7183685302734,73.31329858311598,63.554021031008524,156449835
sts,-47.5250244140625,-57.9496879577636,82.381126597188,67.92990764724533,156466502
sts,-49.0268783569335,-59.2688522338867,91.47327655041047,71.87320940162114,156483169
sts,-50.7217750549316,-60.6631660461425,100.26117058180469,75.30295411080394,156499836
sts,-52.562759399414,-62.121841430664,108.32783381235977,78.13602685059543,156516503
sts,-54.4437713623046,-63.600975036621,115.19285157730724,80.28046183364492,156533170
sts,-56.3426361083984,-65.0962219238281,120.33927880584,81.60928604686671,156549837
sts,-58.3444747924804,-66.5672836303711,123.24503757277975,81.92025916720861,156566504
sts,-60.4801025390625,-67.9730911254882,123.42217633694187,80.89923821489865,156583171
sts,-62.5701828002929,-69.3578643798828,120.46083812940597,78.11344494313622,156599838
sts,-64.5031585693359,-70.7128982543945,114.06734702365138,73.0581888180165,156616505
sts,-66.1747436523437,-72.015640258789,104.08713914616204,65.26280399043017,156633172
sts,-67.5647583007812,-73.1540145874023,90.51425228181628,54.43409703067198,156649839
sts,-68.70458984375,-74.0062103271484,73.49972499523226,40.59253115229467,156666506
sts,-69.6033401489257,-74.4730834960937,53.371028970365245,24.151561396329054,156683173
sts,-70.2174911499023,-74.5632553100586,30.66250276824127,5.907510058342328,156699840
sts,-70.4767074584961,-74.3341293334961,6.140887566767202,-13.062838353707527,156716507
sts,-70.2899932861328,-73.7883834838867,-19.19909395600953,-31.571296184317266,156733174
sts,-69.6361618041992,-72.8872299194336,-44.19046475778551,-48.5112451907224,156749841
sts,-68.5578002929687,-71.7135391235351,-67.60650457431663,-63.028565416759584,156766508
sts,-67.129524230957,-70.3494720458984,-88.31445595358466,-74.63353020055274,156783175
sts,-65.352310180664,-68.86865234375,-105.4381418757207,-83.23465456941469,156799842
sts,-63.3210182189941,-67.1784286499023,-118.49112807331072,-89.09686897437189,156816509
sts,-61.1169242858886,-65.351089477539,-127.44634903449558,-92.74334691497609,156833176
sts,-58.8397178649902,-63.6399612426757,-132.71969507710907,-94.8279395343516,156849843
sts,-56.7508468627929,-61.9092025756835,-135.06322551551662,-96.00525702239969,156866510
sts,-54.7513618469238,-60.0771217346191,-135.38835133210029,-96.8221151766605,156883177
sts,-52.7395248413085,-58.3211631774902,-134.56435305489225,-97.64800468302143,156899844
sts,-50.7946891784668,-56.5261917114257,-133.25048066183717,-98.65265523683962,156916511
sts,-48.739200592041,-54.5482330322265,-131.81109312847278,-99.8274128491849,156933178
sts,-46.5051383972168,-52.5460052490234,-130.33382262687815,-101.03682697211825,156949845
sts,-44.2036247253418,-50.6339111328125,-128.73127779608046,-102.08034819494857,156966512
sts,-41.9461441040039,-48.7821197509765,-126.87402053910074,-102.74541168663126,156983179
sts,-39.8450012207031,-47.0388679504394,-124.69361300446008,-102.84372795219724,156999846
sts,-37.950584411621,-45.2814102172851,-122.2163429438161,-102.23570982781773,157016513
sts,-36.2114181518554,-43.5152626037597,-119.52953144395288,-100.85333059203934,157033180
sts,-34.4260940551757,-41.6936569213867,-116.71896265479766,-98.72504018232583,157049847
sts,-32.5409126281738,-39.9498176574707,-113.82622047472694,-95.99373262483655,157066514
sts,-30.6082878112792,-38.4170570373535,-110.85360732452055,-92.9122599607433,157083181
sts,-28.7055530548095,-36.9378242492675,-107.80778130183087,-89.80831280078306,157099848
sts,-27.0075626373291,-35.428165435791,-104.74729850224453,-87.02634339152667,157116515
sts,-25.4324722290039,-33.9312362670898,-101.80053090513968,-84.86475688292508,157133182
sts,-23.8860263824462,-32.4919624328613,-99.14412562760256,-83.5246633755479,157149849
sts,-22.3408432006835,-31.1000576019287,-96.95789100961862,-83.07837539014349,157166516
sts,-20.7760353088378,-29.6549530029296,-95.3817901275808,-83.46079842691945,157183183
sts,-19.1798191070556,-28.178123474121,-94.49233830007078,-84.48540263721809,157199850
sts,-17.6291637420654,-26.6597309112548,-94.30016658972268,-85.88313991873098,157216517
sts,-16.0526275634765,-25.1248989105224,-94.7597690778049,-87.35603072691785,157233184
sts,-14.373740196228,-23.620994567871,-95.78039820153342,-88.63205683257642,157249851
sts,-12.6668272018432,-22.1401500701904,-97.23043875350831,-89.50922782182629,157266518
sts,-11.0286645889282,-20.6349239349365,-98.93282725936837,-89.88305711116475,157283185
sts,-9.36540794372558,-19.039888381958,-100.6561720843704,-89.75732240048514,157299852
sts,-7.68214702606201,-17.4388828277587,-102.1150309079527,-89.23895016166817,157316519
sts,-6.07298994064331,-15.864161491394,-102.9988957573139,-88.51637586176193,157333186
sts,-4.36861705780029,-14.2283716201782,-103.0463533061697,-87.82170302514382,157349853
sts,-2.50026607513427,-12.5951852798461,-102.16473291022349,-87.38130451999974,157366520
sts,-0.583940863609314,-10.9099502563476,-100.56804312467202,-87.36321163185114,157383187
sts,1.28127574920654,-9.16612434387207,-98.8774626945247,-87.8296901647439,157399854
sts,3.05750846862792,-7.51364707946777,-98.11642756586636,-88.7018323745951,157416521
sts,4.83447456359863,-5.73082780838012,-99.54944646778947,-89.74347490037376,157433188
sts,6.63498592376709,-3.78710222244262,-104.35799111416951,-90.5724504447276,157449855
sts,8.55104255676269,-1.6431827545166,-113.20322705719457,-90.70068624601886,157466522
sts,10.5648469924926,0.408445358276367,-125.77748634906003,-89.5895394210045,157483189
sts,12.5035076141357,2.16998815536499,-140.48227974697582,-86.6962314137862,157499856
sts,14.3856143951416,3.53053712844848,-154.3793974881935,-81.49773145878913,157516523
sts,16.4230232238769,4.82470846176147,-163.5269778787708,-73.50713232446783,157533190
sts,20.1940174102783,6.04823112487793,-163.7169162117332,-62.31814909803795,157549857
sts,23.4023876190185,7.20662212371826,-151.48131624013473,-47.70071633881002,157566524
sts,25.8920974731445,7.99623727798461,-125.09439387028202,-29.729007294282518,157583191
sts,27.5691623687744,8.18951225280761,-85.25060750578966,-8.885195658493569,157599858
sts,28.3115577697753,7.78550720214843,-35.18703563356766,13.920876324075053,157616525
sts,28.0556659698486,6.90956735610961,19.812494495019145,37.44166431515983,157633192
sts,26.7224826812744,5.6487135887146,73.4238208835145,60.270463198360645,157649859
sts,24.3028583526611,4.01407718658447,119.56550397958001,81.05729400127173,157666526
sts,20.6092052459716,2.05911779403686,153.65035369103742,98.70751989252605,157683193
sts,16.103567123413,-0.158859297633171,173.48333506129515,112.5231974068433,157699860
sts,13.5214700698852,-2.50781893730163,179.55545183848588,122.26660903749774,157716527
sts,11.2269849777221,-4.97849225997924,174.65613397206485,128.1429388615815,157733194
sts,8.96757125854492,-7.43070363998413,162.95585187647004,130.7135172301248,157749861
sts,6.70898818969726,-9.86350917816162,148.88461734223966,130.7621821613306,157766528
sts,4.42393684387207,-12.3471984863281,136.15598180702415,129.14403659557192,157783195
sts,2.16184258460998,-14.7534942626953,127.16836504326321,126.64704357607222,157799862
sts,-0.0885598435997963,-17.059211730957,122.84656799336892,123.89208659987383,157816529
sts,-2.35552239418029,-19.3243064880371,122.8505777560899,121.28721091939163,157833196
sts,-4.67140054702758,-21.5877437591552,126.00789010517049,119.03817054415727,157849863
sts,-7.04436779022216,-23.8321495056152,130.8124988996585,117.20206652323338,157866530
sts,-9.39280796051025,-26.0880737304687,135.85984754361164,115.75817416364572,157883197
sts,-11.7369022369384,-28.2400074005126,140.1351059502715,114.66637285307934,157899864
sts,-14.0768003463745,-30.2764453887939,143.12713983459608,113.89257136921472,157916531
sts,-16.3218059539794,-32.2097625732421,144.78893962352626,113.39940030961338,157933198
sts,-18.5369262695312,-34.164077758789,145.39715402142642,113.12019096435901,157949865
sts,-20.8341121673584,-36.2347602844238,145.37470095831534,112.94336958996087,157966532
sts,-23.1756591796875,-38.3652839660644,145.132598467862,112.72633782505126,157983199
sts,-25.5357799530029,-40.4593238830566,144.96614895162563,112.33774460015776,157999866
sts,-27.9106864929199,-42.5365905761718,145.0160647852358,111.70881898486483,158016533
sts,-30.2845878601074,-44.578872680664,145.2860943051729,110.86953176701728,158033200
sts,-32.6550750732421,-46.5636405944824,145.69859291703582,109.95396023759542,158049867
sts,-35.0481567382812,-48.5676536560058,146.1661499508434,109.17311195558324,158066534
sts,-37.4740028381347,-50.539134979248,146.6575146686147,108.76457030395285,158083201
sts,-39.9296226501464,-52.5032043457031,147.23838295716735,108.93360868234136,158099868
sts,-42.3944396972656,-54.4755096435546,148.0730527142998,109.80091971715419,158116535
sts,-44.8664321899414,-56.4626083374023,149.3828456089615,111.36975577834343,158133202
sts,-47.3348388671875,-58.4121284484863,151.3706004800271,113.5209135918958,158149869
sts,-49.8852157592773,-60.4802589416503,154.13305280958664,116.03751852740656,158166536
sts,-52.5004920959472,-62.6606674194335,157.58863341400422,118.65285512131331,158183203
sts,-55.1761589050293,-64.9330062866211,161.44401495841353,121.10487661928791,158199870
sts,-57.9494705200195,-67.2243881225586,165.21058616060398,123.17500560320634,158216537
sts,-60.775161743164,-69.5035781860351,168.26694144245798,124.69228034948229,158233204
sts,-63.7436141967773,-71.7438354492187,169.94997731985242,125.49820002274357,158249871
sts,-66.7551651000976,-73.9151763916015,169.64895707060197,125.38696118112752,158266538
sts,-69.5208587646484,-76.0104064941406,166.87820214430573,124.05145236978721,158283205
sts,-72.0665969848632,-78.0046920776367,161.3175827924555,121.07105488197942,158299872
sts,-74.4588165283203,-79.9798583984375,152.83044503603466,115.96954853809481,158316539
sts,-76.6300277709961,-81.8967819213867,141.48145352284695,108.34875701037153,158333206
sts,-78.6051483154296,-83.8207397460937,127.56939879226847,98.06930646595598,158349873
sts,-80.2244033813476,-85.5814666748046,111.66528251360779,85.41629724424814,158366540
sts,-81.519416809082,-86.8484344482421,94.62173609794944,71.17390354825082,158383207
sts,-82.4999618530273,-87.682014465332,77.5142351240369,56.55331031575709,158399874
sts,-83.0622329711914,-88.0710525512695,61.494447823146565,42.96926252109149,158416541
sts,-83.262336730957,-88.0774612426757,47.57562616847529,31.719265307871527,158433208
sts,-83.3218002319336,-87.9814224243164,36.413188109726235,23.660363627560802,158449875
sts,-83.4652938842773,-88.0323867797851,28.16604762026951,18.98739591692803,158466542
sts,-83.7350921630859,-88.3210067749023,22.503577611430778,17.190967245494743,158483209
sts,-84.0305099487304,-88.5899963378906,18.760521132736738,17.217257873874722,158499876
sts,-84.2433319091796,-88.3803329467773,16.171624437708388,17.78079158675094,158516543
sts,-84.3781051635742,-87.9443359375,14.08497040308627,17.72494694945054,158533210
sts,-84.4720306396484,-87.6038742065429,12.07910634497102,16.311757051213785,158549877
sts,-84.5359268188476,-87.4169235229492,9.972482970436337,13.358184668772326,158566544
sts,-84.5591812133789,-87.4242782592773,7.767366304176031,9.198921323473947,158583211
sts,-84.5502243041992,-87.4608688354492,5.580365650321857,4.513805801068884,158599878
sts,-84.5468444824218,-87.5171508789062,3.5837698026730473,0.08978212325546203,158616545
sts,-84.5673675537109,-87.612060546875,1.9512950667081757,-3.4099966131238806,158633212
sts,-84.5706481933593,-87.8056335449218,0.7975836621987961,-5.613755697705795,158649879
sts,-84.5384445190429,-88.006103515625,0.1204848324947509,-6.512621002133824,158666546
sts,-84.5119552612304,-88.1003952026367,-0.22668321506331923,-6.4278383733016895,158683213
sts,-84.4877624511718,-88.097412109375,-0.5101858693388226,-5.891177764224073,158699880
sts,-84.4366912841796,-88.0858306884765,-1.0412965123442044,-5.480457180752625,158716547
sts,-84.3482360839843,-88.1557006835937,-2.0825404441022872,-5.6654240451042615,158733214
sts,-84.3008193969726,-88.3179779052734,-3.774423484586175,-6.711554177248192,158749881
sts,-84.2833709716796,-88.4871597290039,-6.108284754602599,-8.662382315767738,158766548
sts,-84.2585067749023,-88.7449264526367,-8.944798234898258,-11.389007521634866,158783215
sts,-84.2472152709961,-89.0276336669921,-12.057306438852024,-14.674016623371847,158799882
sts,-84.2332000732421,-89.2010726928711,-15.177468496973198,-18.292807818119943,158816549
sts,-84.2222290039062,-89.1635055541992,-18.037121521980367,-22.065696766001622,158833216
sts,-84.128677368164,-88.9528350830078,-20.419075389296932,-25.872850882646755,158849883
sts,-83.9176940917968,-88.6385726928711,-22.23025065147238,-29.642914848417774,158866550
sts,-83.7097625732421,-88.2026748657226,-23.587281372675978,-33.336504785006,158883217
sts,-83.5111007690429,-87.6406707763671,-24.87548271335699,-36.94268587120176,158899884
sts,-83.3240051269531,-86.9579849243164,-26.73396291400309,-40.49303919635045,158916551
sts,-83.1504364013671,-86.1643676757812,-29.944164501768526,-44.08280405045606,158933218
sts,-82.9096145629882,-85.2800903320312,-35.24320544492104,-47.88011173103312,158949885
sts,-82.523681640625,-84.3612213134765,-43.12074964180845,-52.10575621727009,158966552
sts,-81.9365234375,-83.3750457763671,-53.667604786702015,-56.976228880849405,158983219
sts,-81.1767044067382,-82.3347702026367,-66.52269339698499,-62.618938498642216,158999886
sts,-80.1755752563476,-81.3195877075195,-80.92769665519236,-68.98608955780321,159016553
sts,-78.9073486328125,-80.1270980834961,-95.86631088854664,-75.80525095491339,159033220
sts,-77.3831024169921,-78.7517166137695,-110.24854275474232,-82.60103669644126,159049887
sts,-75.4690322875976,-77.1348648071289,-123.09701839469392,-88.79845826416324,159066554
sts,-73.2032318115234,-75.2763519287109,-133.69532632285626,-93.88111141331783,159083221
sts,-70.9942626953125,-73.3542938232421,-141.66755888660208,-97.54542326536257,159099888
sts,-68.7723999023437,-71.5374221801757,-146.97682165558922,-99.78617681106584,159116555
sts,-66.3964767456054,-69.6232604980468,-149.85511851623298,-100.87545083906822,159133222
sts,-63.8608627319335,-67.7618865966796,-150.69559342902772,-101.24372902000404,159149889
sts,-61.6115837097168,-66.1926879882812,-149.94186628164343,-101.31368469178696,159166556
sts,-59.2017707824707,-64.6433410644531,-148.00101869598336,-101.35500768301394,159183223
sts,-56.6300354003906,-62.9526596069335,-145.19360945621568,-101.41696724222386,159199890
sts,-54.3262557983398,-61.0920677185058,-141.73992626575435,-101.3596495558413,159216557
sts,-52.3269462585449,-59.1457862854003,-137.7724457085698,-100.96053934189754,159233224
sts,-50.3093490600585,-57.2521781921386,-133.36607113942043,-100.04282318483769,159249891
sts,-48.1444244384765,-55.4437217712402,-128.58334221922001,-98.57063677252826,159266558
sts,-46.0818405151367,-53.601089477539,-123.52737034102697,-96.67957896766966,159283225
sts,-44.140380859375,-51.9011154174804,-118.38216225312208,-94.63966122293272,159299892
sts,-42.4223556518554,-50.4088554382324,-113.41632680707704,-92.76899035607867,159316559
sts,-40.8062858581543,-48.9848480224609,-108.94191238509646,-91.32935831095187,159333226
sts,-39.1659049987793,-47.4162254333496,-105.24424769309292,-90.44146382139051,159349893
sts,-37.4651641845703,-45.748233795166,-102.51255740332358,-90.05248198932244,159366560
sts,-35.8228492736816,-44.0789184570312,-100.7971080954811,-89.9676287909997,159383227
sts,-34.2310523986816,-42.507469177246,-100.00398879085148,-89.92888768987095,159399894
sts,-32.6925201416015,-41.0464057922363,-99.9252346023358,-89.70566043499879,159416561
sts,-31.0372276306152,-39.5374412536621,-100.29432152050758,-89.16355117496526,159433228
sts,-29.2341175079345,-38.0425987243652,-100.85143288779058,-88.29323656752815,159449895
sts,-27.488166809082,-36.5205421447753,-101.39754483281587,-87.19887625722656,159466562
sts,-25.8548641204834,-34.9870300292968,-101.81757884908833,-86.05700348221195,159483229
sts,-24.3008613586425,-33.5048599243164,-102.06708251213892,-85.06188778389956,159499896
sts,-22.6915321350097,-32.0488204956054,-102.13814267657268,-84.374020689184,159516563
sts,-20.9366207122802,-30.5181159973144,-102.03154957759324,-84.08530745678351,159533230
sts,-19.138931274414,-28.9489231109619,-101.75287981422409,-84.20759884734548,159549897
sts,-17.3906326293945,-27.3910865783691,-101.32818546491849,-84.68210505642429,159566564
sts,-15.7362604141235,-25.8242530822753,-100.81940964684688,-85.40040953027095,159583231
sts,-14.1120853424072,-24.287540435791,-100.32165344887422,-86.22688563129361,159599898
sts,-12.4469709396362,-22.8020401000976,-99.93849611253853,-87.01659735841758,159616565
sts,-10.8161535263061,-21.2872829437255,-99.7445230092919,-87.62831810444308,159633232
sts,-9.2393798828125,-19.7249965667724,-99.74895456430818,-87.93560110686724,159649899
sts,-7.61559772491455,-18.1968593597412,-99.8728868085665,-87.83876477340803,159666566
sts,-5.97404193878173,-16.7026309967041,-99.94921570984762,-87.27859183680839,159683233
sts,-4.3615379333496,-15.174386024475,-99.74980000762666,-86.25025086949168,159699900
sts,-2.75494050979614,-13.5707712173461,-99.0387946436874,-84.81315401470069,159716567
sts,-1.20241665840148,-12.0053224563598,-97.64551144858419,-83.08895456990439,159733234
sts,0.355226755142211,-10.5350866317749,-95.54518888645978,-81.23962534169183,159749901
sts,1.93493175506591,-9.07305717468261,-92.9304076716597,-79.42534917844672,159766568
sts,3.58269381523132,-7.46822357177734,-90.24874713504079,-77.75462758126918,159783235
sts,5.29883003234863,-5.87555885314941,-88.17648453093764,-76.2456640359007,159799902
sts,6.95225381851196,-4.29379606246948,-87.50090929626525,-74.81197178081158,159816569
sts,8.58514022827148,-2.65278482437133,-88.90296680690489,-73.27104811994998,159833236
sts,10.038062095642,-1.09278810024261,-92.6690412064918,-71.36320782402093,159849903
sts,11.4206161499023,0.25578886270523,-98.4061613924039,-68.76608934906075,159866570
sts,12.7518997192382,1.44739592075347,-104.86900648237668,-65.10118647395846,159883237
sts,14.2165851593017,2.43442559242248,-110.00661328375531,-59.94611102892304,159899904
sts,16.5348186492919,3.42531013488769,-111.28612619291893,-52.87594980720435,159916571
sts,18.6629028320312,4.34083843231201,-106.25618813276701,-43.54620805885168,159933238
sts,20.5141277313232,5.16232585906982,-93.20887109953435,-31.800692807087394,159949905
sts,21.9291248321533,5.54216432571411,-71.73723326524828,-17.760350347371812,159966572
sts,22.7603454589843,5.45915651321411,-42.99932161107891,-1.8470947481260453,159983239
sts,22.8462123870849,5.00206756591796,-9.58445422676647,15.273979009089773,159999906
sts,22.3189315795898,4.2740306854248,24.99963034273978,32.80944651871735,160016573
sts,21.2497539520263,3.36224842071533,57.083232296525686,49.9612939868058,160033240
sts,19.4824924468994,2.22327733039855,83.62640372767818,66.0191516921515,160049907
sts,17.1068859100341,0.777731478214263,102.82904315039809,80.40851719780275,160066574
sts,14.7216997146606,-0.93187528848648,114.3974154881038,92.70730761024309,160083241
sts,13.178406715393,-2.89645028114318,119.40991010638025,102.65023649565944,160099908
sts,11.5048551559448,-4.9916877746582,119.8532617032497,110.13226181103926,160116575
sts,9.70999431610107,-7.20276737213134,118.00541974752676,115.21051138342365,160133242
sts,7.7343955039978,-9.55462741851806,115.87166234997491,118.09781724702073,160149909
sts,5.63312530517578,-11.8922662734985,114.82411142834901,119.14162886910051,160166576
sts,3.47353219985961,-14.2331085205078,115.49248908851729,118.78645879308593,160183243
sts,1.26036405563354,-16.5515518188476,117.86295880570992,117.52295656839513,160199910
sts,-0.965634644031524,-18.8070259094238,121.49428643110792,115.8301267454564,160216577
sts,-3.13540315628051,-20.9532318115234,125.75727764966446,114.11840769090226,160233244
sts,-5.26169252395629,-23.0253257751464,130.0297763183153,112.68160392118908,160249911
sts,-7.39608573913574,-25.0483360290527,133.81723882339088,111.66636687001815,160266578
sts,-9.56928443908691,-27.0292644500732,136.80182277553695,111.06775256893738,160283245
sts,-11.8021516799926,-29.0278568267822,138.84097260925304,110.75563201462266,160299912
sts,-14.0588493347167,-31.0474452972412,139.9386781161832,110.52873509706548,160316579
sts,-16.2970371246337,-33.0618667602539,140.20554691269783,110.18346188043941,160333246
sts,-18.5216178894042,-35.0994987487793,139.8159721579544,109.57778824073304,160349913
sts,-20.8051567077636,-37.0422630310058,138.96663820639395,108.6707793271859,160366580
sts,-23.0485744476318,-38.9552879333496,137.8403872390669,107.52666011952012,160383247
sts,-25.1549282073974,-40.8545532226562,136.5815656474157,106.28576441148047,160399914
sts,-27.2259769439697,-42.7876777648925,135.2918431878385,105.1162714386516,160416581
sts,-29.3929443359375,-44.7533111572265,134.0550086061436,104.16469814674106,160433248
sts,-31.7014122009277,-46.6687965393066,132.98908727011354,103.51928892428275,160449915
sts,-34.1127052307128,-48.5429306030273,132.30409322083432,103.19346208405625,160466582
sts,-36.4922637939453,-50.3775444030761,132.32614142313304,103.13099143593188,160483249
sts,-38.7072525024414,-52.1735038757324,133.4512751695603,103.23112069370376,160499916
sts,-40.8052368164062,-53.960033416748,136.02226678175498,103.38807733895837,160516583
sts,-42.9190788269043,-55.846565246582,140.16560193318293,103.53439506739245,160533250
sts,-45.1517066955566,-57.815631866455,145.65723519827904,103.67270378017346,160549917
sts,-47.6221809387207,-59.8252868652343,151.8831573080736,103.8799208396604,160566584
sts,-50.383674621582,-61.8077430725097,157.923495272846,104.27516945004766,160583251
sts,-53.2583541870117,-63.80855178833,162.736762700538,104.95841061947377,160599918
sts,-56.069164276123,-65.8252792358398,165.38223117511149,105.94324544719322,160616585
sts,-58.7129402160644,-67.851821899414,165.21276292392602,107.11364448029278,160633252
sts,-61.3494071960449,-69.8641052246093,161.99567769438687,108.22551638553117,160649919
sts,-64.0013656616211,-71.8725967407226,155.95239816372236,108.95505189224458,160666586
sts,-66.6242294311523,-73.8690795898437,147.7242430215926,108.97657798643307,160683253
sts,-69.0117645263671,-75.8211135864257,138.26818854379786,108.04134025897942,160699920
sts,-71.0717620849609,-77.6289367675781,128.68176313497784,106.0292021306156,160716587
sts,-72.7889175415039,-79.3270187377929,119.97051567296276,102.95768069248606,160733254
sts,-74.3038558959961,-80.9168395996093,112.80383547010342,98.95211772580555,160749921
sts,-75.7911300659179,-82.5129241943359,107.33295210340721,94.19750344525919,160766588
sts,-77.3289489746093,-83.9833450317382,103.14329364024042,88.89693012994739,160783255
sts,-78.9151611328125,-85.3288192749023,99.37350302993745,83.25121728869416,160799922
sts,-80.3221054077148,-86.4927902221679,94.97137010666701,77.45586033801015,160816589
sts,-81.3520736694336,-87.3106613159179,89.0046984377835,71.69706687876658,160833256
sts,-82.0333633422851,-87.6589050292968,80.9295408369973,66.12752929159083,160849923
sts,-82.5707778930664,-87.5055847167968,70.74190155340874,60.816603027308226,160866590
sts,-82.9514846801757,-87.2781143188476,58.98143039185446,55.69322380348441,160883257
sts,-83.1324768066406,-86.8031005859375,46.59507345955601,50.52104942347663,160899924
sts,-83.1523818969726,-86.0531005859375,34.69957297111758,44.94616570454434,160916591
sts,-83.2369384765625,-85.2103424072265,24.307978940996925,38.62616347672887,160933258
sts,-83.4467163085937,-84.4844512939453,16.10148641875309,31.398155809475508,160949925
sts,-83.6476669311523,-84.1965789794921,10.3172581568179,23.408600213075978,160966592
sts,-83.7447357177734,-83.9182052612304,6.77832799581352,15.1374885688141,160983259
sts,-83.7187805175781,-83.7091979980468,5.032381611884996,7.296103831137119,160999926
sts,-83.5973968505859,-83.8344268798828,4.526240723940965,0.6298783016883357,161016593
sts,-83.4816665649414,-84.2043838500976,4.74353079191083,-4.307253536255175,161033260
sts,-83.4299774169921,-84.587890625,5.268335794366336,-7.328316085593084,161049927
sts,-83.4335632324218,-84.8208999633789,5.782732310975314,-8.6719527087247,161066594
sts,-83.4560546875,-84.7659912109375,6.035667667831842,-8.917692045014148,161083261
sts,-83.440673828125,-84.6348724365234,5.822921755501226,-8.789706383712675,161099928
sts,-83.3481674194336,-84.6559524536132,4.99705194172899,-8.929224251855283,161116595
sts,-83.2825698852539,-84.860237121582,3.497031995064856,-9.724912824301878,161133262
sts,-83.2504119873046,-85.1182556152343,1.3681479902480258,-11.256307541437454,161149929
sts,-83.1898574829101,-85.3567962646484,-1.253468129348822,-13.351961587315103,161166596
sts,-83.099739074707,-85.6358337402343,-4.193065385180727,-15.722360090993403,161183263
sts,-83.028076171875,-86.116470336914,-7.301219287974048,-18.11120641474435,161199930
sts,-82.9650573730468,-86.6070251464843,-10.495510054565521,-20.41157149257953,161216597
sts,-82.9360046386718,-87.022705078125,-13.760420843688522,-22.70761583542262,161233264
sts,-82.9588470458984,-87.2150573730468,-17.113195079792483,-25.228146848439522,161249931
sts,-83.0230407714843,-87.3781127929687,-20.56517542372873,-28.233798027712226,161266598
sts,-83.0677795410156,-87.6910705566406,-24.110149281994108,-31.890676774740335,161283265
sts,-83.0410842895507,-88.064468383789,-27.751330117345503,-36.189304470501135,161299932
sts,-82.9604797363281,-88.3744277954101,-31.54943211030345,-40.94190598471891,161316599
sts,-82.8714065551757,-88.2819442749023,-35.65637668692472,-45.84964558198294,161333266
sts,-82.8230438232421,-87.6864166259765,-40.305738308589746,-50.599946966095416,161349933
sts,-82.7080841064453,-86.9123153686523,-45.75691000790226,-54.948763642748666,161366600
sts,-82.403694152832,-86.0199508666992,-52.21594914150594,-58.76205432562593,161383267
sts,-81.7546157836914,-85.1039962768554,-59.7648251449555,-62.018871631726526,161399934
sts,-80.8887023925781,-84.0230636596679,-68.32044295550054,-64.79557281586267,161416601
sts,-79.9434585571289,-82.8491439819336,-77.62865342442394,-67.24692494091059,161433268
sts,-78.8445663452148,-81.6627578735351,-87.29027009715932,-69.58333869571936,161449935
sts,-77.6174621582031,-80.4214782714843,-96.81625190355601,-72.03269924681983,161466602
sts,-76.2006378173828,-79.2414474487304,-105.7077609008158,-74.78229363944995,161483269
sts,-74.5238571166992,-78.01904296875,-113.54780913153338,-77.91570865671112,161499936
sts,-72.5135955810546,-76.6966705322265,-120.0792677162412,-81.37370544117285,161516603
sts,-70.3864288330078,-75.2467498779296,-125.2394903246032,-84.96322001657025,161533270
sts,-68.4216995239257,-73.6470642089843,-129.1332671645917,-88.41663769581046,161549937
sts,-66.4741287231445,-71.8411102294921,-131.95240166740393,-91.47901418761232,161566604
sts,-64.4075546264648,-69.9041900634765,-133.87720509983706,-93.98796765981658,161583271
sts,-62.2292823791503,-67.8860397338867,-135.0033537535843,-95.91365031494227,161599938
sts,-60.2440109252929,-66.0787887573242,-135.32186731336688,-97.3416460238583,161616605
sts,-58.167911529541,-64.4609375,-134.7542864924628,-98.40566048329137,161633272
sts,-56.0105438232421,-62.907054901123,-133.22479112678207,-99.2023095888847,161649939
sts,-53.8000946044921,-61.2813377380371,-130.73963076489628,-99.73373494088904,161666606
sts,-51.7660789489746,-59.4200363159179,-127.44115509869332,-99.91238064183494,161683273
sts,-49.7524719238281,-57.5295448303222,-123.6120721725806,-99.62776720445403,161699940
sts,-47.9285736083984,-55.7349739074707,-119.62547742492588,-98.83758941291734,161716607
sts,-46.1598014831543,-54.0368499755859,-115.85877663066451,-97.62944299632575,161733274
sts,-44.3716316223144,-52.4189720153808,-112.60360366448887,-96.21490846961156,161749941
sts,-42.6462783813476,-50.8484878540039,-110.0037954963206,-94.85426746958422,161766608
sts,-40.8862228393554,-49.314640045166,-108.04100799937535,-93.7470953339877,161783275
sts,-39.0693397521972,-47.7605171203613,-106.56883136078487,-92.94306102658534,161799942
sts,-37.2500686645507,-46.1404151916503,-105.37897414410509,-92.3193176607017,161816609
sts,-35.5066795349121,-44.4423942565918,-104.27360607248384,-91.6387973008183,161833276
sts,-33.8857765197753,-42.7889785766601,-103.11968185178169,-90.66313417095085,161849943
sts,-32.2838096618652,-41.2349624633789,-101.87248496586693,-89.26700973357609,161866610
sts,-30.6472949981689,-39.7557830810546,-100.56971023027167,-87.50271498237115,161883277
sts,-29.0215415954589,-38.3556976318359,-99.30622059997704,-85.59175038601013,161899944
sts,-27.4457931518554,-36.9219055175781,-98.20080441402003,-83.85541574222472,161916611
sts,-25.8787841796875,-35.5230255126953,-97.3635556854626,-82.61846017963826,161933278
sts,-24.3159828186035,-34.1331825256347,-96.87004726187924,-82.12153147943718,161949945
sts,-22.7637519836425,-32.7505416870117,-96.74692219595451,-82.46591085526448,161966612
sts,-21.2049884796142,-31.3289165496826,-96.97174325088682,-83.59879264381837,161983279
sts,-19.6476650238037,-29.8367805480957,-97.48733227028374,-85.33548266858661,161999946
sts,-18.0012130737304,-28.3023700714111,-98.22704198202895,-87.40708586615094,162016613
sts,-16.309419631958,-26.7426967620849,-99.14228795296772,-89.5180308057262,162033280
sts,-14.6247911453247,-25.1897315979003,-100.21929047907146,-91.39796851152,162049947
sts,-12.9458618164062,-23.642442703247,-101.47274375261293,-92.83789282107229,162066614
sts,-11.3083238601684,-22.1233863830566,-102.91271546926818,-93.70882070086857,162083281
sts,-9.66192722320556,-20.5652561187744,-104.49462739177007,-93.96828386350651,162099948
sts,-8.03876972198486,-18.8914966583251,-106.07393826182587,-93.66062390010289,162116615
sts,-6.41584157943725,-17.1776943206787,-107.39144827735156,-92.91151868592463,162133282
sts,-4.7056131362915,-15.5424947738647,-108.10973625726491,-91.91120721689198,162149949
sts,-2.96533703804016,-13.8919305801391,-107.90660498160052,-90.88166865028059,162166616
sts,-1.20440220832824,-12.1657438278198,-106.61043433987471,-90.03092887780016,162183283
sts,0.58548891544342,-10.3996791839599,-104.34092627293435,-89.50531823466653,162199950
sts,2.35958313941955,-8.63677406311035,-101.60443705012278,-89.35141598124099,162216617
sts,4.13844060897827,-6.77048444747924,-99.29208733168099,-89.49461449641089,162233284
sts,5.92050886154174,-4.87666177749633,-98.54393670239673,-89.73536265753678,162249951
sts,7.73373556137085,-2.88776016235351,-100.4728969459326,-89.75941835994938,162266618
sts,9.60912322998046,-0.956177830696106,-105.7835829143835,-89.15540057203474,162283285
sts,11.4044122695922,0.840574562549591,-114.36692585783304,-87.43379218541357,162299952
sts,13.1506175994873,2.42235398292541,-124.99076548159749,-84.04865917212855,162316619
sts,14.814938545227,3.92598462104797,-135.22408436308692,-78.43382082582845,162333286
sts,16.703722000122,5.34410190582275,-141.70675566863548,-70.06923766473146,162349953
sts,19.7989139556884,6.62831354141235,-140.79021632478205,-58.581915914788546,162366620
sts,22.6071872711181,7.62232398986816,-129.43650508925109,-43.86165916491971,162383287
sts,24.85152053833,8.14685535430908,-106.12808602721454,-26.151943615489877,162399954
sts,26.2579250335693,8.17733383178711,-71.48778877463984,-6.076659267168213,162416621
sts,26.7527923583984,7.80782747268676,-28.379497850763236,15.414031430479557,162433288
sts,26.3411960601806,7.05315256118774,18.576017728170704,37.165932379244225,162449955
sts,25.0443096160888,5.94387006759643,63.95525064067539,57.97949620134266,162466622
sts,22.7733192443847,4.46702051162719,102.70630323981437,76.77080984726267,162483289
sts,19.519058227539,2.64296340942382,131.23106919903103,92.70755132020143,162499956
sts,15.9413118362426,0.606569707393646,148.08011473066915,105.29996486155513,162516623
sts,14.0475511550903,-1.61760199069976,154.06885847884087,114.4333408050421,162533290
sts,12.0674600601196,-3.94425845146179,151.80564005905458,120.33759984796731,162549957
sts,9.99434089660644,-6.38471889495849,144.82320646221228,123.5025651432826,162566624
sts,7.84950542449951,-8.80524444580078,136.6242655815334,124.56033022311023,162583291
sts,5.69211292266845,-11.2105045318603,129.92825190919038,124.1633872143626,162599958
sts,3.48624181747436,-13.6912040710449,126.2770593441001,122.88603037840228,162616625
sts,1.21523690223693,-16.098461151123,126.01113401701194,121.16717958853262,162633292
sts,-1.06929922103881,-18.4287414550781,128.52565539864983,119.29829371797493,162649959
sts,-3.46219968795776,-20.7031707763671,132.6726533859324,117.44631012878642,162666626
sts,-5.82898235321044,-22.9061241149902,137.17720592767168,115.69381471823446,162683293
sts,-8.19331359863281,-25.0275039672851,140.9680049438877,114.07810166117787,162699960
sts,-10.5402584075927,-27.0952987670898,143.36922128599315,112.61570162592106,162716627
sts,-12.8415203094482,-29.0444107055664,144.14797488078034,111.30749618006907,162733294
sts,-15.083288192749,-30.9181766510009,143.4484652516677,110.12964399796859,162749961
sts,-17.3043117523193,-32.8185691833496,141.66291443876798,109.02364775356091,162766628
sts,-19.5864963531494,-34.740062713623,139.28940062441163,107.90043277632357,162783295
sts,-21.877737045288,-36.7200851440429,136.81148758424857,106.66582437024731,162799962
sts,-24.0995006561279,-38.6840171813964,134.61364704701685,105.26129392786561,162816629
sts,-26.2543697357177,-40.6208152770996,132.93126666874127,103.70223526647735,162833296
sts,-28.3581600189209,-42.5135650634765,131.83082991333723,102.09398348518815,162849963
sts,-30.4048404693603,-44.3350105285644,131.2209104049215,100.61515142399365,162866630
sts,-32.5244407653808,-46.115421295166,130.89771996116403,99.47332305468521,162883297
sts,-34.7818069458007,-47.9295272827148,130.62219248195754,98.85053208478851,162899964
sts,-37.0679168701171,-49.7640991210937,130.21020652947297,98.85813835496886,162916631
sts,-39.2473754882812,-51.5707969665527,129.60434947079818,99.5128215420268,162933298
sts,-41.3604393005371,-53.3412857055664,128.89727468192322,100.73462076299838,162949965
sts,-43.4248504638671,-55.1403770446777,128.29601844679684,102.36150152251099,162966632
sts,-45.4515380859375,-56.9583587646484,128.042671115763,104.17368165459501,162983299
sts,-47.5347099304199,-58.8017272949218,128.32404241619994,105.92135894487024,162999966
sts,-49.6813621520996,-60.7021331787109,129.2034085118276,107.35007009195097,163016633
sts,-51.8392906188964,-62.5526161193847,130.5940197374172,108.22040900436531,163033300
sts,-54.0343017578125,-64.4073944091796,132.27610105441957,108.32380253441295,163049967
sts,-56.2955093383789,-66.2596206665039,133.9453874657579,107.50038488814512,163066634
sts,-58.5703544616699,-68.0663757324218,135.27539082942374,105.66467629471705,163083301
sts,-60.8429832458496,-69.8841934204101,135.97638055032724,102.83887185295318,163099968
sts,-63.1033668518066,-71.7280502319336,135.8389376070614,99.18502631179695,163116635
sts,-65.2404251098632,-73.5120391845703,134.75668354973448,95.02071134218134,163133302
sts,-67.4063186645507,-75.1387557983398,132.72890263419512,90.80226086814957,163149969
sts,-69.5174484252929,-76.5929794311523,129.84663666016448,87.06827703380314,163166636
sts,-71.6866073608398,-78.0700988769531,126.26447249108071,84.35054982513209,163183303
sts,-73.7034683227539,-79.5234146118164,122.15742560239242,83.07053262333679,163199970
sts,-75.4788742065429,-80.9593429565429,117.6639181789291,83.43997989659097,163216637
sts,-77.133056640625,-82.4244918823242,112.82545670726856,85.3779098844383,163233304
sts,-78.6067581176757,-83.8334426879882,107.54637399291308,88.45287347364662,163249971
sts,-80.0574645996093,-85.1707077026367,101.60082725244052,91.86509436288226,163266638
sts,-81.3322982788086,-86.4113311767578,94.69997879559853,94.49305203888694,163283305
sts,-82.3856506347656,-87.546646118164,86.60371547306984,95.03230797392617,163299972
sts,-83.1454544067382,-88.2020187377929,77.23540520150807,92.23899628715003,163316639
sts,-83.6220092773437,-87.5868606567382,66.7537834737656,85.25155733228742,163333306
sts,-83.9190139770507,-86.1029815673828,55.55727414003823,73.91124886792976,163349973
sts,-83.8946533203125,-84.4552154541015,44.22665431820935,58.96031037540055,163366640
sts,-83.8206100463867,-83.5035781860351,33.43003446307144,42.00091334557364,163383307
sts,-83.7925643920898,-83.6575546264648,23.813543761760616,25.170523504790975,163399974
sts,-83.8146438598632,-84.0467529296875,15.894247147668365,10.61112375187118,163416641
sts,-83.8587341308593,-84.4552536010742,9.971032631447958,-0.08558319264235847,163433308
sts,-83.96044921875,-84.6724090576171,6.0727729808818385,-6.257246011947496,163449975
sts,-84.0538635253906,-84.6194152832031,3.9606330259773284,-8.255488232747357,163466642
sts,-84.0083465576171,-84.515884399414,3.1873447070271954,-7.241990889090836,163483309
sts,-83.8659515380859,-84.3083953857421,3.1960645337014233,-4.800642988537965,163499976
sts,-83.7517318725586,-84.3384323120117,3.4278324681786425,-2.507261448989609,163516643
sts,-83.6847229003906,-84.5353546142578,3.409149222832961,-1.5770019000202606,163533310
sts,-83.6562805175781,-84.5991287231445,2.806678807610538,-2.6561855257918,163549977
sts,-83.6598739624023,-84.5837326049804,1.4512269326346203,-5.771914209665768,163566644
sts,-83.6413421630859,-84.6146087646484,-0.662670048345165,-10.420564721869122,163583311
sts,-83.6213912963867,-84.879524230957,-3.4006000208282767,-15.763250562640149,163599978
sts,-83.6207504272461,-85.3658294677734,-6.539520895681644,-20.8860246951382,163616645
sts,-83.6512451171875,-85.9417037963867,-9.845915484393498,-25.066408797605426,163633312
sts,-83.6519927978515,-86.5604934692382,-13.166236216900788,-27.97606036876595,163649979
sts,-83.5691986083984,-87.0883178710937,-16.500056146497965,-29.75870416470715,163666646
sts,-83.4585723876953,-87.5358200073242,-20.02300728880891,-30.9578937807688,163683313
sts,-83.3428039550781,-87.8589935302734,-24.041273748907678,-32.319213125373395,163699980
sts,-83.2110061645507,-88.183609008789,-28.886205911241518,-34.53584743702029,163716647
sts,-83.0406646728515,-88.5850143432617,-34.78225750863107,-38.02628820965237,163733314
sts,-82.8301010131836,-89.058723449707,-41.73223113966319,-42.81890382371106,163749981
sts,-82.6017990112304,-89.0691680908203,-49.45880405514603,-48.57484929324667,163766648
sts,-82.3011169433593,-88.1939849853515,-57.426049669325394,-54.726519490263236,163783315
sts,-81.7741470336914,-87.0796661376953,-64.94517244678107,-60.667656783529544,163799982
sts,-81.0603790283203,-85.9394836425781,-71.34728689356501,-65.92114604322504,163816649
sts,-80.1729125976562,-84.7022094726562,-76.18362252653102,-70.23279118122429,163833316
sts,-78.9880294799804,-83.3995742797851,-79.39432127260467,-73.57837803859074,163849983
sts,-77.6490707397461,-82.2019577026367,-81.38082562430475,-76.10599489351097,163866650
sts,-76.4337158203125,-80.9266281127929,-82.93516485068795,-78.05275703080316,163883317
sts,-75.3705368041992,-79.4793930053711,-85.02569341752731,-79.67264461701167,163899984
sts,-74.2846450805664,-77.943733215332,-88.49875410433663,-81.19469389658849,163916651
sts,-73.0985717773437,-76.5014953613281,-93.79954964898376,-82.80835419386595,163933318
sts,-71.8004074096679,-74.9960632324218,-100.81661239575187,-84.65905170605888,163949985
sts,-70.2572402954101,-73.4166412353515,-108.90855699803464,-86.8392241920044,163966652
sts,-68.1865539550781,-71.917251586914,-117.09950050245374,-89.37264550634903,163983319
sts,-65.8709564208984,-70.2739639282226,-124.362770252671,-92.20103203359088,163999986
sts,-63.814281463623,-68.4475555419921,-129.882249299845,-95.18414193949545,164016653
sts,-61.9477996826171,-66.5988845825195,-133.2034510799312,-98.11742171894988,164033320
sts,-60.0953521728515,-64.7817001342773,-134.24952254875234,-100.76109345109208,164049987
sts,-58.0770034790039,-62.9407806396484,-133.24072635921723,-102.87088186674498,164066654
sts,-55.9867897033691,-61.1311988830566,-130.58174566512366,-104.22645018301124,164083321
sts,-53.9035491943359,-59.3184585571289,-126.764625212352,-104.66131263471068,164099988
sts,-52.0322532653808,-57.4468307495117,-122.30207688580853,-104.0974986340381,164116655
sts,-50.1604347229003,-55.5207557678222,-117.68351732588492,-102.57806451079502,164133322
sts,-48.3246383666992,-53.7798423767089,-113.34179415757539,-100.27941625894324,164149989
sts,-46.5247764587402,-52.1510353088378,-109.62293319884218,-97.4855413296175,164166656
sts,-44.8295516967773,-50.6508750915527,-106.7558109422146,-94.52274433485958,164183323
sts,-43.2220306396484,-49.1481552124023,-104.82358552724283,-91.67712356699751,164199990
sts,-41.69775390625,-47.5758895874023,-103.74630041524648,-89.12983618868837,164216657
sts,-40.0634460449218,-46.0111198425293,-103.29044735206125,-86.93642063628744,164233324
sts,-38.333755493164,-44.5431900024414,-103.11815182697043,-85.0528600063024,164249991
sts,-36.5547790527343,-43.1451339721679,-102.8726550724362,-83.39029517260542,164266658
sts,-34.7736320495605,-41.7456970214843,-102.27579437052408,-81.87398997615527,164283325
sts,-33.0952186584472,-40.3414268493652,-101.20186113910327,-80.48740089501831,164299992
sts,-31.5442962646484,-38.9596710205078,-99.69987206037813,-79.28956650018681,164316659
sts,-29.9964218139648,-37.6670532226562,-97.95892847857215,-78.40014440818383,164333326
sts,-28.4303340911865,-36.4615287780761,-96.23487245897758,-77.95505768359757,164349993
sts,-26.9008255004882,-35.2295188903808,-94.76790611224475,-78.04819946457727,164366660
sts,-25.3795318603515,-33.8891448974609,-93.71762951408954,-78.68387892883261,164383327
sts,-23.8397274017334,-32.4727020263671,-93.13079562319143,-79.76118051552237,164399994
sts,-22.3079814910888,-31.0447597503662,-92.94550666012911,-81.09467918116884,164416661
sts,-20.7572727203369,-29.6580410003662,-93.02659870486904,-82.45746388863202,164433328
sts,-19.1897144317626,-28.3165798187255,-93.2204491943215,-83.62541168530608,164449995
sts,-17.6086349487304,-26.9666862487792,-93.41293460157038,-84.408964796283,164466662
sts,-16.0119304656982,-25.6021251678466,-93.57213479516561,-84.67164550427235,164483329
sts,-14.4366092681884,-24.2554302215576,-93.75912153813373,-84.34265319905903,164499996
sts,-12.9061374664306,-22.9062576293945,-94.09767773778506,-83.4302491232319,164516663
sts,-11.3955888748168,-21.4703140258789,-94.70725682456953,-82.03595551582606,164533330
sts,-9.92622661590576,-20.0232143402099,-95.61957277371737,-80.36173619968206,164549997
sts,-8.44118690490722,-18.6408519744873,-96.71175617052221,-78.69844100257725,164566664
sts,-6.9354920387268,-17.2642021179199,-97.69192273649684,-77.38822261616326,164583331
sts,-5.35272789001464,-15.8121166229248,-98.16280874392113,-76.76548252261476,164599998
sts,-3.67925429344177,-14.2551946640014,-97.76616803480863,-77.09204825998916,164616665
sts,-1.92185151576995,-12.5564603805542,-96.37950662806453,-78.50423758094364,164633332
sts,-0.0266181007027626,-10.9121856689453,-94.3061207034308,-80.98206779169152,164649999
sts,1.86499488353729,-9.20876121520996,-92.3807386294073,-84.34163073525025,164666666
sts,3.61540222167968,-7.4564619064331,-91.91794211773892,-88.24715011999282,164683333
sts,5.31782054901123,-5.56943178176879,-94.46542195777101,-92.23924497725486,164700000
sts,7.11955213546752,-3.51474380493164,-101.38347677760652,-95.77586006642812,164716667
sts,9.02327632904052,-1.48862791061401,-113.33775265645704,-98.27966374952213,164733334
sts,10.9507036209106,0.433375418186187,-129.8428652886493,-99.1831339189025,164750001
sts,12.6910648345947,2.27363157272338,-149.01520430264486,-97.96471656469666,164766668
sts,14.6397867202758,4.0787239074707,-167.67073729175738,-94.17644636935499,164783335
sts,18.6695880889892,5.85937786102294,-181.82083656528604,-87.46900902260482,164800002
sts,22.6441326141357,7.35411262512207,-187.4763311959802,-77.61894373113354,164816669
sts,26.1038913726806,8.49125003814697,-181.52430844404847,-64.55722928988786,164833336
sts,28.7370643615722,9.24567317962646,-162.39375869600687,-48.39603905378311,164850003
sts,30.3020553588867,9.71419048309326,-130.32562336879928,-29.45233550553095,164866670
sts,31.0705413818359,9.82763385772705,-87.24695260078043,-8.267010292647969,164883337
sts,31.2609729766845,9.59678173065185,-36.39502454408938,14.387746560822128,164900004
sts,31.0193462371826,8.95329761505127,18.133270059594196,37.52771694672821,164916671
sts,30.434455871582,7.87255191802978,71.80974829264048,60.01795873957463,164933338
sts,29.2036552429199,6.42129516601562,120.09726711554333,80.68115681477123,164950005
sts,26.8134155273437,4.64145851135253,158.94280324922954,98.44067525369202,164966672
sts,23.0836105346679,2.56589818000793,185.37222272532594,112.47008972459295,164983339
sts,18.4317951202392,0.367553770542144,198.08505227054263,122.31415974208545,165000006
sts,13.8308591842651,-1.98815751075744,197.8222422872758,127.95135986418548,165016673
sts,11.5535421371459,-4.42610740661621,187.2768941789144,129.78267116846868,165033340
sts,9.31981945037841,-6.8555998802185,170.480800056893,128.549273654367,165050007
sts,7.21576023101806,-9.23877334594726,151.8416794435448,125.19747266938154,165066674
sts,5.11784029006958,-11.5618505477905,135.16451601373186,120.71994526256886,165083341
sts,2.95099568367004,-13.8345384597778,122.96749706170125,116.00674612276894,165100008
sts,0.634657979011535,-16.1015262603759,116.24186262499342,111.73544083519394,165116675
sts,-1.64694619178771,-18.3128395080566,114.6229367925706,108.31703394703685,165133342
sts,-3.83974146842956,-20.463035583496,116.82323144269174,105.8977481556662,165150009
sts,-6.0180115699768,-22.6112670898437,121.14915497806086,104.40366774830318,165166676
sts,-8.21031379699707,-24.6839427947998,125.95829268384703,103.61006000501075,165183343
sts,-10.3780546188354,-26.6730766296386,129.97679627905538,103.2185556820244,165200010
sts,-12.5166406631469,-28.6288604736328,132.45476647693891,102.92956604146268,165216677
sts,-14.6780271530151,-30.6205024719238,133.1771536274409,102.50107543110657,165233344
sts,-16.8013439178466,-32.5625343322753,132.36797538426248,101.78663919525502,165250011
sts,-18.8294734954834,-34.3970832824707,130.53196241108702,100.746762340979,165266678
sts,-20.8290863037109,-36.1534423828125,128.27632573050403,99.43294681338831,165283345
sts,-22.8373680114746,-37.8994712829589,126.14980973558983,97.95303824185999,165300012
sts,-24.8255348205566,-39.678424835205,124.52682864530314,96.43380398467,165316679
sts,-26.7687129974365,-41.4949378967285,123.55169972737005,94.99504539467897,165333346
sts,-28.7239303588867,-43.3082656860351,123.14489931882105,93.73952221522245,165350013
sts,-30.674690246582,-45.0055809020996,123.06293118070685,92.75245403370613,165366680
sts,-32.6960563659668,-46.6760826110839,122.99555138091102,92.10104376001244,165383347
sts,-34.7770385742187,-48.343162536621,122.67695467826566,91.82893833330212,165400014
sts,-36.8626594543457,-49.982608795166,121.98200682128677,91.94702760976054,165416681
sts,-38.8786315917968,-51.5924339294433,120.97926543771409,92.42526992916079,165433348
sts,-40.7960166931152,-53.2393569946289,119.92351943112727,93.19006310357415,165450015
sts,-42.6735229492187,-54.8555259704589,119.19001974871858,94.13016185429022,165466682
sts,-44.5907249450683,-56.5077400207519,119.17162531738433,95.11205515945268,165483349
sts,-46.5620536804199,-58.1613693237304,120.16922600769418,96.0026861244462,165500016
sts,-48.5497550964355,-59.884536743164,122.30264540228758,96.69360339606582,165516683
sts,-50.5362167358398,-61.5312690734863,125.45942260518348,97.11783175350651,165533350
sts,-52.594985961914,-63.0952033996582,129.28942255490264,97.25216053230926,165550017
sts,-54.7012329101562,-64.667724609375,133.24621106841914,97.10454635382374,165566684
sts,-56.9731559753418,-66.3960952758789,136.66930220133042,96.69422081137571,165583351
sts,-59.2980308532714,-68.1100311279296,138.89314568785494,96.03322269005237,165600018
sts,-61.5988883972168,-69.8637924194336,139.3612511255426,95.11153032335791,165616685
sts,-63.8329544067382,-71.6051559448242,137.7215829813163,93.88228059969258,165633352
sts,-65.9771118164062,-73.2015151977539,133.88460883931722,92.24709449122673,165650019
sts,-68.0050735473632,-74.6785812377929,128.03553223610976,90.05293429436362,165666686
sts,-69.9717025756836,-76.1057357788086,120.60189592884588,87.12042903762823,165683353
sts,-71.7514724731445,-77.5621643066406,112.18358536425728,83.31684664736592,165700020
sts,-73.3004455566406,-79.085464477539,103.45561902084332,78.66150728149222,165716687
sts,-74.713996887207,-80.495132446289,95.05852408468195,73.42010312320423,165733354
sts,-75.9752502441406,-81.706916809082,87.4969386737318,68.13018024207996,165750021
sts,-77.1905517578125,-82.7637252807617,81.0694279868019,63.518815803477544,165766688
sts,-78.3736114501953,-83.6156768798828,75.84564421237076,60.31940653628213,165783355
sts,-79.4955062866211,-84.4723892211914,71.69099284437529,59.042331650309364,165800022
sts,-80.4725112915039,-85.3900299072265,68.32185479894191,59.77749840053177,165816689
sts,-81.2731170654296,-86.2363128662109,65.36707449915812,62.09572082298245,165833356
sts,-81.9293594360351,-86.993782043457,62.41881651337131,65.08203581665009,165850023
sts,-82.4793243408203,-87.5301895141601,59.072271871496504,67.49751682231049,165866690
sts,-82.9318695068359,-87.6981124877929,54.967100527297234,68.03817346537197,165883357
sts,-83.2360153198242,-87.2819213867187,49.84422971590925,65.63825307094892,165900024
sts,-83.4110870361328,-86.4384994506836,43.61753781228005,59.747356623347784,165916691
sts,-83.4221649169921,-85.5232467651367,36.438065129177,50.503149430418,165933358
sts,-83.311294555664,-84.9102249145507,28.713525397093093,38.737978928953964,165950025
sts,-83.2241973876953,-84.5543975830078,21.053019319723557,25.803712918659837,165966692
sts,-83.2325057983398,-84.3734970092773,14.13811619153262,13.259850287483522,165983359
sts,-83.3166351318359,-84.4738388061523,8.559572664999788,2.5171047690306594,166000026
sts,-83.3872528076171,-84.8000946044921,4.677929568105771,-5.4596356663182775,166016693
sts,-83.4028396606445,-85.2282485961914,2.5527825018816523,-10.3103591028116,166033360
sts,-83.408935546875,-85.3942337036132,1.9505843908257479,-12.270625469786664,166050027
sts,-83.4277725219726,-85.2677001953125,2.4096656301647568,-12.017733873699237,166066694
sts,-83.3969345092773,-85.1516799926757,3.331872827621296,-10.440312938888026,166083361
sts,-83.3372955322265,-85.1969451904296,4.080959211382218,-8.416745894325182,166100028
sts,-83.2931365966796,-85.4437484741211,4.082309015709263,-6.668483606197334,166116695
sts,-83.2654495239257,-85.7605819702148,2.921812897487661,-5.707545863857769,166133362
sts,-83.2777481079101,-85.9261474609375,0.4316021251562472,-5.851783996316321,166150029
sts,-83.2775726318359,-85.9764938354492,-3.2625945364887876,-7.263588503818265,166166696
sts,-83.28466796875,-86.0389938354492,-7.759847441469063,-9.981630561445025,166183363
sts,-83.303970336914,-86.1913223266601,-12.480955827791817,-13.941405562855246,166200030
sts,-83.3260650634765,-86.4779663085937,-16.83062864992684,-18.99533107903008,166216697
sts,-83.3159866333007,-86.8606262207031,-20.385533848370706,-24.93920886252264,166233364
sts,-83.2739562988281,-87.301513671875,-23.0534902821935,-31.539162115200053,166250031
sts,-83.2219085693359,-87.7626190185546,-25.15078772897619,-38.54663074913901,166266698
sts,-83.1482009887695,-88.1336593627929,-27.363584499642233,-45.69528826076225,166283365
sts,-83.0693664550781,-88.259765625,-30.59038270072862,-52.68817136044117,166300032
sts,-82.9734497070312,-87.9097824096679,-35.69789650536957,-59.19522850786968,166316699
sts,-82.8223648071289,-87.1594543457031,-43.252980263616855,-64.88159342708033,166333366
sts,-82.581802368164,-86.0768432617187,-53.3082642666067,-69.47233355695705,166350033
sts,-82.2482528686523,-84.6734008789062,-65.31123924478113,-72.83565126814618,166366700
sts,-81.7633438110351,-83.3068695068359,-78.17668826242176,-75.04645012899805,166383367
sts,-81.0025863647461,-82.0284805297851,-90.51888419428774,-76.39123112951904,166400034
sts,-79.8110122680664,-80.698616027832,-100.99234687643185,-77.29971749486593,166416701
sts,-78.0814971923828,-79.3504257202148,-108.64829394221859,-78.22575637378263,166433368
sts,-76.0593185424804,-78.1022109985351,-113.19374046510494,-79.52580247803387,166450035
sts,-74.1064529418945,-76.8161392211914,-115.05903898135334,-81.3822631638844,166466702
sts,-72.2969894409179,-75.3763122558593,-115.24124397774641,-83.79442613463,166483369
sts,-70.6050415039062,-73.907485961914,-114.97331457127981,-86.62694556189248,166500036
sts,-69.0385131835937,-72.3518676757812,-115.3351578167706,-89.68238499407904,166516703
sts,-67.5395126342773,-70.6519699096679,-116.94207215341557,-92.76149071046866,166533370
sts,-65.7136688232421,-68.9194717407226,-119.81266600122792,-95.69125497044287,166550037
sts,-63.6118736267089,-67.1611404418945,-123.4467426364298,-98.32364757395254,166566704
sts,-61.3897056579589,-65.3173446655273,-127.06307385229995,-100.52326368868124,166583371
sts,-59.1484680175781,-63.418170928955,-129.89185364717434,-102.16324287850688,166600038
sts,-57.0298995971679,-61.5527648925781,-131.41048629413507,-103.13770153084414,166616705
sts,-54.9664192199707,-59.7785148620605,-131.45183837097235,-103.38477323454327,166633372
sts,-53.0038757324218,-57.9949607849121,-130.1757509063644,-102.90736963390742,166650039
sts,-51.0315589904785,-56.2790069580078,-127.94721141904677,-101.7817482166016,166666706
sts,-49.0588798522949,-54.5619888305664,-125.18877891658543,-100.15100973530845,166683373
sts,-46.9942054748535,-52.8479957580566,-122.26689228556403,-98.20512471970363,166700040
sts,-44.9699440002441,-51.2555999755859,-119.44109144142337,-96.15050216220908,166716707
sts,-43.1130561828613,-49.6250686645507,-116.8698028405779,-94.17408253892341,166733374
sts,-41.2716217041015,-48.0120658874511,-114.64417413777088,-92.41054953388702,166750041
sts,-39.3987579345703,-46.4383544921875,-112.8201325823827,-90.92302262834203,166766708
sts,-37.5669021606445,-44.9247283935546,-111.43206213736933,-89.70440356781735,166783375
sts,-35.8371925354003,-43.4387092590332,-110.48743633374167,-88.69967461235629,166800042
sts,-34.0668411254882,-41.8768920898437,-109.95294005408422,-87.84190044068734,166816709
sts,-32.2325706481933,-40.2501678466796,-109.74632306646967,-87.08808142075598,166833376
sts,-30.4230155944824,-38.7364883422851,-109.74373973369256,-86.43784808482272,166850043
sts,-28.6089668273925,-37.30611038208,-109.80260974267793,-85.92337000415554,166866710
sts,-26.7787475585937,-35.8926048278808,-109.79159755447286,-85.57437419149298,166883377
sts,-24.9369773864746,-34.4121742248535,-109.6167110833209,-85.37901805838378,166900044
sts,-23.1364574432373,-32.8609657287597,-109.23544230264098,-85.26564009443959,166916711
sts,-21.4132099151611,-31.3342208862304,-108.65694475613432,-85.1175982973536,166933378
sts,-19.6964626312255,-29.8524494171142,-107.93293650753135,-84.81380185592614,166950045
sts,-17.9348068237304,-28.361831665039,-107.14754872842622,-84.27536998320488,166966712
sts,-16.1365890502929,-26.8162498474121,-106.41110198318485,-83.49900517943377,166983379
sts,-14.3240461349487,-25.3647766113281,-105.85411686370394,-82.56540261798521,167000046
sts,-12.5866842269897,-23.9892063140869,-105.61125607632381,-81.6209746730371,167016713
sts,-10.974139213562,-22.5838603973388,-105.78787058350471,-80.84099201539975,167033380
sts,-9.28052520751953,-21.1085186004638,-106.41391901633519,-80.38869131869927,167050047
sts,-7.47668647766113,-19.5823345184326,-107.40195219724494,-80.38383800295023,167066714
sts,-5.66972970962524,-17.9679832458496,-108.52828549819594,-80.88631274533037,167083381
sts,-3.85755348205566,-16.3126316070556,-109.44950535848943,-81.89169344625941,167100048
sts,-2.04879403114318,-14.5410270690917,-109.75762931392542,-83.33188057421867,167116715
sts,-0.170139402151107,-12.6557445526123,-109.07084476833245,-85.07492490061233,167133382
sts,1.80177891254425,-10.8625507354736,-107.14953352644689,-86.92225914059469,167150049
sts,3.59523367881774,-9.32129287719726,-104.01583475473483,-88.6079296168363,167166716
sts,5.38999795913696,-7.64904117584228,-100.04292553542238,-89.81224978594187,167183383
sts,7.16402149200439,-5.74150896072387,-95.97513131312259,-90.20417415069056,167200050
sts,8.93494129180908,-3.69608688354492,-92.84621195645263,-89.5122456955397,167216717
sts,10.722276687622,-1.83153164386749,-91.781005719091,-87.59657614637203,167233384
sts,12.2148170471191,-0.347233593463897,-93.69552653171554,-84.47775253585297,167250051
sts,13.5904569625854,0.917174696922302,-98.95156643703662,-80.2954480925454,167266718
sts,14.9979209899902,2.18732190132141,-107.0630415039363,-75.21317610364719,167283385
sts,16.4909725189209,3.57722783088684,-116.56945664792124,-69.32136765009518,167300052
sts,18.9160175323486,4.93855047225952,-125.163388519548,-62.58891887210756,167316719
sts,21.4581508636474,6.14159822463989,-130.0807874886038,-54.87756408730541,167333386
sts,23.8972816467285,6.88430786132812,-128.664910521493,-45.99628355836941,167350053
sts,26.0215892791748,7.31769657135009,-118.94706982357069,-35.76314709915953,167366720
sts,27.5482215881347,7.63433647155761,-100.0865275188653,-24.059299342927165,167383387
sts,28.5478363037109,7.88793134689331,-72.57284151065133,-10.87928072326202,167400054
sts,29.0884170532226,7.94501113891601,-38.176490681955606,3.6185233414008664,167416721
sts,29.1790542602539,7.68709373474121,0.30701136197426016,19.07464625472789,167433388
sts,28.8228759765625,7.04535007476806,39.45795791287779,34.92967975255379,167450055
sts,27.8342056274414,6.06741714477539,75.72837393083127,50.48011880989534,167466722
sts,25.9553070068359,4.81248044967651,105.98778971926806,64.98151145873977,167483389
sts,23.3179607391357,3.3012044429779,128.0474843943304,77.77057526454523,167500056
sts,20.0706310272216,1.62455117702484,141.0478029508477,88.3719865464437,167516723
sts,17.1185989379882,-0.299721151590347,145.57771109515195,96.5639056483472,167533390
sts,15.327202796936,-2.32822322845459,143.45267153381275,102.3907472863567,167550057
sts,13.3622179031372,-4.48091888427734,137.20041880650314,106.1252054764271,167566724
sts,11.2433881759643,-6.67460966110229,129.42574979789552,108.19191114757939,167583391
sts,9.08493423461914,-8.81212329864502,122.26390875955231,109.07256296032766,167600058
sts,6.92357873916626,-10.9913740158081,117.06753771237042,109.21603594817269,167616725
sts,4.73521089553833,-13.1721544265747,114.3587774336253,108.97450613836162,167633392
sts,2.5082368850708,-15.3958683013916,113.98508175528166,108.5769239929966,167650059
sts,0.30683746933937,-17.5730762481689,115.37594692475986,108.13721134315809,167666726
sts,-1.76410245895385,-19.6524448394775,117.80292772128816,107.68320690908995,167683393
sts,-3.83996772766113,-21.6641998291015,120.57862666313848,107.1897787115909,167700060
sts,-5.9411392211914,-23.6127300262451,123.17163502295178,106.60581917253663,167716727
sts,-8.07222557067871,-25.5495891571044,125.24637329267946,105.87396209879633,167733394
sts,-10.1664524078369,-27.4623336791992,126.65154055555118,104.94681904732163,167750061
sts,-12.2396087646484,-29.3499927520751,127.38188344550863,103.80203358824951,167766728
sts,-14.333134651184,-31.187364578247,127.53282464820786,102.45379470049791,167783395
sts,-16.4683380126953,-32.9889869689941,127.26024832310266,100.95588095574536,167800062
sts,-18.5752220153808,-34.7518806457519,126.74941604569659,99.39355647435812,167816729
sts,-20.6375427246093,-36.5054054260253,126.1899160647699,97.86707215372668,167833396
sts,-22.6648426055908,-38.2470321655273,125.75149080516314,96.47389430265123,167850063
sts,-24.6841869354248,-39.9959754943847,125.55942410263977,95.29677199330796,167866730
sts,-26.6972541809082,-41.7534446716308,125.67422104597324,94.40038543064684,167883397
sts,-28.7047691345214,-43.5079841613769,126.08380246366436,93.83368782917452,167900064
sts,-30.716173171997,-45.2369804382324,126.71511637095256,93.63201915758812,167916731
sts,-32.8097648620605,-46.9803924560546,127.46625086411473,93.81454752914334,167933398
sts,-34.9500656127929,-48.7140350341796,128.2514932161104,94.37726645377268,167950065
sts,-37.0616989135742,-50.4182395935058,129.04377914585692,95.28624479001657,167966732
sts,-39.1494483947753,-52.2116050720214,129.8966481910396,96.4770074947145,167983399
sts,-41.2845382690429,-54.0142021179199,130.93406057853045,97.86268490232676,168000066
sts,-43.4216995239257,-55.7651252746582,132.30853394808344,99.34768230997871,168016733
sts,-45.5260391235351,-57.5159721374511,134.14001537076888,100.83955545432704,168033400
sts,-47.6658821105957,-59.2743339538574,136.4552360101069,102.25306135452458,168050067
sts,-49.944164276123,-61.0912017822265,139.14773881239594,103.50551334501458,168066734
sts,-52.3540306091308,-62.9621047973632,141.9711181707062,104.5069120995272,168083401
sts,-54.7987747192382,-64.8093948364257,144.5645946366852,105.14963301614542,168100068
sts,-57.2311630249023,-66.6321334838867,146.49868290775186,105.30247764534309,168116735
sts,-59.6056404113769,-68.4681015014648,147.32731330949287,104.81423394249123,168133402
sts,-61.920726776123,-70.3241195678711,146.6410945902495,103.53095763992538,168150069
sts,-64.2626647949218,-72.1129379272461,144.12515741422882,101.32704151112262,168166736
sts,-66.5961990356445,-73.8200149536132,139.62395107166026,98.14458015763358,168183403
sts,-68.8506622314453,-75.4431381225586,133.20290080681366,94.03242900253849,168200070
sts,-70.9014205932617,-77.0204010009765,125.18271351329517,89.17630049970073,168216737
sts,-72.7326202392578,-78.5667495727539,116.11993500171512,83.91104803212595,168233404
sts,-74.3653411865234,-80.0138931274414,106.72274523096098,78.70456310079246,168250071
sts,-75.7896347045898,-81.2575149536132,97.716560500488,74.10362377460254,168266738
sts,-77.0696563720703,-82.3947830200195,89.69545088777538,70.6407889675048,168283405
sts,-78.2433242797851,-83.6274871826171,83.00174665101693,68.71597907538667,168300072
sts,-79.2602310180664,-84.7406692504882,77.66614736648167,68.47773325465363,168316739
sts,-80.1371002197265,-85.7592391967773,73.42127548511372,69.73231053122595,168333406
sts,-80.9036178588867,-86.8199310302734,69.78201346477745,71.90780742499508,168350073
sts,-81.5175857543945,-87.8397064208984,66.17110238280645,74.09813597424223,168366740
sts,-81.9618301391601,-88.5733032226562,62.05924069587877,75.20175886405293,168383407
sts,-82.3058853149414,-88.2365341186523,57.08598450572624,74.14559728691042,168400074
sts,-82.509651184082,-87.0672225952148,51.13268458830928,70.14974427037943,168416741
sts,-82.6589126586914,-85.7872238159179,44.33192947862622,62.958925268652145,168433408
sts,-82.6861953735351,-84.8249435424804,37.01687910293776,52.96043563219082,168450075
sts,-82.5620956420898,-84.3172760009765,29.631790208749525,41.13664172520903,168466742
sts,-82.446174621582,-83.9272308349609,22.63375728030463,28.855945695810348,168483409
sts,-82.3907852172851,-83.5949554443359,16.41203335039428,17.562676239773175,168500076
sts,-82.3891830444336,-83.5583190917968,11.239199773456155,8.455805321967855,168516743
sts,-82.3817138671875,-83.8169937133789,7.254137449782272,2.2421515005423482,168533410
sts,-82.4706649780273,-84.0229568481445,4.4661202896799255,-0.9756230945856204,168550077
sts,-82.6225967407226,-83.9353485107421,2.768434249221766,-1.6525421193566485,168566744
sts,-82.6583786010742,-83.5399551391601,1.9595583387425761,-0.6192586677344047,168583411
sts,-82.59814453125,-83.2904586791992,1.7797529116953041,1.1666343471563483,168600078
sts,-82.4927978515625,-83.3726196289062,1.967003915504988,2.847387923653561,168616745
sts,-82.440673828125,-83.4289321899414,2.318254956597021,3.805725797270153,168633412
sts,-82.4844665527343,-83.4018936157226,2.7269458972677305,3.7074321483521895,168650079
sts,-82.5615692138671,-83.4323654174804,3.1740950310825586,2.477049147077368,168666746
sts,-82.6001281738281,-83.462776184082,3.676495482156548,0.24821400816955508,168683413
sts,-82.5696487426757,-83.3939361572265,4.221509977452644,-2.686091055352086,168700080
sts,-82.4625625610351,-83.3605346679687,4.723349789729038,-5.921607776307339,168716747
sts,-82.3265228271484,-83.4401321411132,5.01937884150329,-9.002782423003783,168733414
sts,-82.2323150634765,-83.6656265258789,4.902105503283049,-11.507229187166063,168750081
sts,-82.1652374267578,-83.9974365234375,4.168151959172245,-13.149793075487096,168766748
sts,-82.1111145019531,-84.3798446655273,2.6638916783659727,-13.878210897987453,168783415
sts,-82.0604171752929,-84.7021713256836,0.31431826525841716,-13.92025251475466,168800082
sts,-82.0035018920898,-84.8538742065429,-2.869176815203244,-13.752162499346333,168816749
sts,-81.9659118652343,-84.9595108032226,-6.79940961974589,-13.9876861101118,168833416
sts,-81.9833297729492,-85.1212692260742,-11.33630091916456,-15.220828630972946,168850083
sts,-82.0745697021484,-85.2929382324218,-16.31543979010998,-17.875406535961247,168866750
sts,-82.2540054321289,-85.5657958984375,-21.576181223213478,-22.11077394448743,168883417
sts,-82.4892959594726,-86.0647811889648,-26.983776768131193,-27.809525809785892,168900084
sts,-82.715087890625,-86.7266159057617,-32.44170935762049,-34.6410806513109,168916751
sts,-82.869644165039,-87.4600982666015,-37.894229899889126,-42.16776257047564,168933418
sts,-82.9217453002929,-88.2086715698242,-43.32407502869116,-49.948374351832925,168950085
sts,-82.9193649291992,-88.7601470947265,-48.75341175344105,-57.60316593379343,168966752
sts,-82.783218383789,-88.5691986083984,-54.25426397645113,-64.82837232489427,168983419
sts,-82.4047698974609,-87.7481460571289,-59.96699098965392,-71.37574583836442,169000086
sts,-81.8381958007812,-86.6878433227539,-66.11405850519591,-77.03016181205003,169016753
sts,-81.0791702270507,-85.3857803344726,-72.98784017430395,-81.61766601122049,169033420
sts,-80.1251831054687,-83.8514022827148,-80.89339973618875,-85.05484813679644,169050087
sts,-79.0892715454101,-82.1798858642578,-90.04347539341718,-87.41678310669575,169066754
sts,-78.0246047973632,-80.47265625,-100.42873787983709,-88.97518573886121,169083421
sts,-76.6986083984375,-78.8747940063476,-111.71071227484936,-90.16172168473473,169100088
sts,-75.0777053833007,-77.4531173706054,-123.19339852910728,-91.4483588569299,169116755
sts,-72.9939422607421,-76.0105285644531,-133.9117967065468,-93.18773911233322,169133422
sts,-70.4976654052734,-74.3762969970703,-142.8321972028483,-95.48776125202738,169150089
sts,-67.8674011230468,-72.6318206787109,-149.107363678446,-98.18181610984317,169166756
sts,-65.3108520507812,-70.7692184448242,-152.29684214775293,-100.90631493526428,169183423
sts,-62.9405822753906,-68.7001953125,-152.4695583489962,-103.24357997004611,169200090
sts,-60.7515144348144,-66.5929489135742,-150.1519712165208,-104.86281857763646,169216757
sts,-58.7495193481445,-64.6069412231445,-146.14776149182896,-105.60386430483348,169233424
sts,-56.7630348205566,-62.6874618530273,-141.3041146408703,-105.48468880479894,169250091
sts,-54.6045913696289,-60.8616638183593,-136.31280673564183,-104.65163499578334,169266758
sts,-52.4370994567871,-59.0355796813964,-131.60715602829507,-103.31080808407177,169283425
sts,-50.2427864074707,-57.339542388916,-127.36529274331595,-101.67365580078729,169300092
sts,-48.211856842041,-55.696605682373,-123.58551658373104,-99.92955632300882,169316759
sts,-46.3729362487793,-53.9696617126464,-120.18322512001993,-98.23918509784352,169333426
sts,-44.5250701904296,-52.2682380676269,-117.07153553585142,-96.73337032985815,169350093
sts,-42.6192436218261,-50.6090507507324,-114.21095304502646,-95.50353961062052,169366760
sts,-40.7395248413085,-49.1809387207031,-111.62821133841452,-94.5802630137597,169383427
sts,-39.0052413940429,-47.7204513549804,-109.40720327811938,-93.91221351166988,169400094
sts,-37.2928047180175,-46.0778350830078,-107.65577254840404,-93.36805139040484,169416761
sts,-35.5676803588867,-44.3826866149902,-106.4581905367517,-92.7754791530488,169433428
sts,-33.8153915405273,-42.7423553466796,-105.82990019116146,-91.98684980721394,169450095
sts,-32.1059989929199,-41.176944732666,-105.69116918380477,-90.93940101433874,169466762
sts,-30.4229335784912,-39.65625,-105.8696337705019,-89.67914952334789,169483429
sts,-28.6632366180419,-38.1752128601074,-106.13308688059425,-88.33868679428282,169500096
sts,-26.7833042144775,-36.680191040039,-106.24522589449502,-87.08273589023086,169516763
sts,-24.9202232360839,-35.224609375,-106.02840461790949,-86.04685601433697,169533430
sts,-23.2012100219726,-33.8051719665527,-105.41253534373013,-85.29257128299481,169550097
sts,-21.4917564392089,-32.3554878234863,-104.45376879357873,-84.79278073481679,169566764
sts,-19.7238426208496,-30.8925800323486,-103.31895794599316,-84.45014925687826,169583431
sts,-17.9414825439453,-29.430866241455,-102.24291661717777,-84.14061730160239,169600098
sts,-16.2340660095214,-27.9623851776123,-101.46903434172903,-83.76617685674218,169616765
sts,-14.5594053268432,-26.4723052978515,-101.18340187320531,-83.29845246057923,169633432
sts,-12.8228378295898,-25.0350475311279,-101.45381194320224,-82.7984980054786,169650099
sts,-11.043526649475,-23.6003913879394,-102.18715451331387,-82.40656638986499,169666766
sts,-9.3311653137207,-22.1661796569824,-103.11818905806561,-82.30514316247864,169683433
sts,-7.66148138046264,-20.7288551330566,-103.8397336562993,-82.66655582888042,169700100
sts,-5.9859938621521,-19.2486133575439,-103.88123732727354,-83.60104504481403,169716767
sts,-4.30085468292236,-17.7030506134033,-102.8373948170504,-85.12090325375759,169733434
sts,-2.6079077720642,-16.1041355133056,-100.53557908182266,-87.1308193588149,169750101
sts,-0.893297851085662,-14.4083337783813,-97.20945813270713,-89.44571187434616,169766768
sts,0.856245577335357,-12.6904420852661,-93.62329894737236,-91.82870732405604,169783435
sts,2.60239720344543,-10.8776798248291,-91.07899013448754,-94.03663302752575,169800102
sts,4.30680179595947,-9.05214405059814,-91.24740879175896,-95.85918525612547,169816769
sts,5.90488576889038,-7.1986436843872,-95.80445595357223,-97.1400566625153,169833436
sts,7.44395017623901,-5.32453632354736,-105.91721898389393,-97.77352570870396,169850103
sts,9.07191562652587,-3.44300556182861,-121.70110580814654,-97.67847054447442,169866770
sts,10.880087852478,-1.56573748588562,-141.82672076210682,-96.76158123611413,169883437
sts,12.8243074417114,0.35495439171791,-163.4651774328745,-94.88768169174408,169900104
sts,15.0161714553833,2.11842274665832,-182.69897120271645,-91.87252937634737,169916771
sts,19.4677639007568,3.84246134757995,-195.3841042937564,-87.50249682905009,169933438
sts,24.1819648742675,5.46751928329467,-198.25242947450775,-81.57282263817876,169950105
sts,28.443561553955,6.92266130447387,-189.87441532444336,-73.92947470413867,169966772
sts,31.1381015777587,8.25241088867187,-171.08385784902768,-64.50180956241446,169983439
sts,32.7656021118164,9.28272724151611,-144.6586962734135,-53.320356996967966,170000106
sts,33.9984970092773,10.0564527511596,-114.37000029771635,-40.5200945899628,170016773
sts,34.7838287353515,10.4728574752807,-83.77179822224932,-26.331822090572786,170033440
sts,35.2089729309082,10.6073274612426,-55.1760049341757,-11.064841265688138,170050107
sts,35.4155349731445,10.4630880355834,-29.1425405046377,4.914361738656287,170066774
sts,35.4091300964355,10.0004615783691,-4.608091929430913,21.201412654478737,170083441
sts,35.1405334472656,9.24788856506347,20.42918622958073,37.36710499288109,170100108
sts,34.7150421142578,8.22566223144531,47.90688423409008,52.96527441377361,170116775
sts,34.1181106567382,6.88855695724487,78.70083432743635,67.54189267285048,170133442
sts,33.0962982177734,5.31709194183349,111.96343639203677,80.65303116465358,170150109
sts,31.2999973297119,3.51011300086975,145.04799639503815,91.8953184021124,170166776
sts,28.1021137237548,1.58682680130004,174.0990734342237,100.94607937357006,170183443
sts,23.6206665039062,-0.463733077049255,195.1563334334875,107.60563145682333,170200110
sts,18.5936489105224,-2.6656436920166,205.40078279766962,111.83278795402623,170216777
sts,14.1444463729858,-4.87988805770874,204.076864701543,113.76526122643921,170233444
sts,12.0942678451538,-7.09542608261108,192.7327935581234,113.71848532317776,170250111
sts,10.0420494079589,-9.27718067169189,174.71112434046515,112.15989527919037,170266778
sts,7.95708417892456,-11.4797306060791,154.1429263480209,109.66017470068732,170283445
sts,5.79433107376098,-13.6199226379394,134.8677386106859,106.82599319805446,170300112
sts,3.68812537193298,-15.6029710769653,119.64391544427646,104.2202782820596,170316779
sts,1.64891111850738,-17.5213279724121,109.81498232789936,102.27970571212056,170333446
sts,-0.376479774713516,-19.4025382995605,105.39958482485142,101.2460194943789,170350113
sts,-2.41635036468505,-21.2742938995361,105.45782488073196,101.132223804391,170366780
sts,-4.40999317169189,-23.1761608123779,108.55946901681452,101.73929011810513,170383447
sts,-6.34742641448974,-25.095811843872,113.21040365285995,102.72346495163148,170400114
sts,-8.26542568206787,-27.0273914337158,118.15226841091673,103.69602160291305,170416781
sts,-10.2159557342529,-28.9858684539794,122.5116510993389,104.32544631815666,170433448
sts,-12.2449588775634,-30.9651794433593,125.82122362378715,104.411599450856,170450115
sts,-14.3546686172485,-32.8726348876953,127.9569638363617,103.91199978472348,170466782
sts,-16.4400234222412,-34.6787681579589,129.0359600808376,102.91810731717065,170483449
sts,-18.497989654541,-36.4413223266601,129.3086785652854,101.59816341091745,170500116
sts,-20.5697841644287,-38.2728805541992,129.0677370755284,100.1347041978376,170516783
sts,-22.6535873413085,-40.1671638488769,128.58545761114252,98.68237602192897,170533450
sts,-24.7377548217773,-42.0719871520996,128.08332344558497,97.3558424061254,170550117
sts,-26.8497905731201,-43.8932762145996,127.7274588061597,96.23897374614644,170566784
sts,-28.9634113311767,-45.6475677490234,127.63792383261482,95.3979912282658,170583451
sts,-31.0599365234375,-47.4199447631835,127.89884048311745,94.88661429860342,170600118
sts,-33.1529464721679,-49.20751953125,128.56147110937462,94.74270314443814,170616785
sts,-35.2787246704101,-51.0201301574707,129.64051536185636,94.98274025677739,170633452
sts,-37.455753326416,-52.7869987487793,131.11029861522564,95.5992761392011,170650119
sts,-39.6781387329101,-54.596939086914,132.90835776620426,96.56155954270524,170666786
sts,-41.9699478149414,-56.3471183776855,134.94897349304213,97.8164835254418,170683453
sts,-44.3350028991699,-58.1282081604003,137.14181893615057,99.28747790862853,170700120
sts,-46.717903137207,-59.8668670654296,139.40573772062336,100.87174863967867,170716787
sts,-49.0666160583496,-61.6586647033691,141.66834674544018,102.43905113332173,170733454
sts,-51.4325561523437,-63.5089035034179,143.84924562798253,103.83564902862834,170750121
sts,-53.8568840026855,-65.439338684082,145.8341459870474,104.89394636411829,170766788
sts,-56.3046607971191,-67.3034744262695,147.4527385961718,105.44342783156708,170783455
sts,-58.7530632019043,-69.1406707763671,148.4712929995588,105.31704338347423,170800122
sts,-61.2169151306152,-70.9286804199218,148.6047878344733,104.35209852448142,170816789
sts,-63.5793952941894,-72.6917037963867,147.54834272778908,102.39241987951681,170833456
sts,-65.8258285522461,-74.4841232299804,145.0260631854854,99.30177181965689,170850123
sts,-68.0723571777343,-76.1417617797851,140.85388226969707,94.99412924366659,170866790
sts,-70.3735809326171,-77.7501373291015,135.00632120235153,89.47805638992504,170883457
sts,-72.5209655761718,-79.2401123046875,127.66532348233844,82.90521673616655,170900124
sts,-74.4585723876953,-80.4652938842773,119.22204716323382,75.60883512277027,170916791
sts,-76.1307067871093,-81.6609649658203,110.21162974514232,68.11612577491442,170933458
sts,-77.4759674072265,-82.8237533569336,101.18738254826603,61.11871248785205,170950125
sts,-78.567024230957,-83.8091354370117,92.5717400483336,55.38815468454444,170966792
sts,-79.555923461914,-84.5982208251953,84.539904317639,51.634040471567964,170983459
sts,-80.4117355346679,-85.2760238647461,76.98764965554503,50.32286311467828,171000126
sts,-81.1719436645507,-85.9114151000976,69.60567023191557,51.50115606670513,171016793
sts,-81.8278121948242,-86.5308456420898,62.03826701430439,54.68172597220948,171033460
sts,-82.3124237060546,-87.1237030029296,54.06309910067928,58.84615664382581,171050127
sts,-82.6390991210937,-87.6804962158203,45.71358486696196,62.59044369740373,171066794
sts,-82.7359619140625,-88.0272216796875,37.28935349881066,64.40212857287537,171083461
sts,-82.6654052734375,-87.7980651855468,29.25453111728258,63.01609239434055,171100128
sts,-82.5789489746093,-86.8556518554687,22.079328820066916,57.76086272783263,171116795
sts,-82.5691680908203,-85.6753692626953,16.10412240980332,48.788906512296975,171133462
sts,-82.675178527832,-84.8014526367187,11.482380673935461,37.098158054628286,171150129
sts,-82.7672805786132,-84.7018737792968,8.205397436145034,24.309271724719547,171166796
sts,-82.7734680175781,-84.7614974975586,6.1645978766100535,12.252933061689331,171183463
sts,-82.8446502685546,-85.0882492065429,5.197053316554376,2.502745493397815,171200130
sts,-82.8876571655273,-85.5698165893554,5.089096234011367,-3.9864382115004875,171216797
sts,-82.976577758789,-85.5346298217773,5.555904261301819,-7.024101489034968,171233464
sts,-82.9896392822265,-85.0893325805664,6.2388906662119314,-7.098763230642055,171250131
sts,-82.8893356323242,-84.9242248535156,6.751437688792035,-5.1382659189989734,171266798
sts,-82.735855102539,-85.1250839233398,6.767420083305472,-2.231568649944909,171283465
sts,-82.611587524414,-85.335578918457,6.113960153736397,0.599430140843727,171300132
sts,-82.5680084228515,-85.3441925048828,4.822735154418372,2.5512302561328033,171316799
sts,-82.5768280029296,-85.2149658203125,3.114309620922292,3.1291732053246086,171333466
sts,-82.6129760742187,-85.1031951904296,1.3208230166124426,2.1932638995790783,171350133
sts,-82.6331329345703,-85.0047225952148,-0.22441490727815155,-0.04584410609422622,171366800
sts,-82.6176223754882,-84.9618453979492,-1.2942649232672354,-3.097277543324875,171383467
sts,-82.5541915893554,-85.0550231933593,-1.8413804452194016,-6.332112677031336,171400134
sts,-82.4507217407226,-85.3916397094726,-2.019744180110367,-9.175701175343818,171416801
sts,-82.362434387207,-85.7997970581054,-2.149473213841291,-11.29983741137454,171433468
sts,-82.305908203125,-86.1510162353515,-2.632371641369055,-12.749015512320304,171450135
sts,-82.2741241455078,-86.4071884155273,-3.836238202900056,-13.945726515489547,171466802
sts,-82.2367401123046,-86.5661239624023,-5.976279177853187,-15.558439456177172,171483469
sts,-82.1831436157226,-86.6544418334961,-9.02988937601816,-18.268248338646572,171500136
sts,-82.1406021118164,-86.7479705810546,-12.718835416957795,-22.512827193090473,171516803
sts,-82.1229171752929,-87.0159454345703,-16.574366002222405,-28.29996776440051,171533470
sts,-82.1123580932617,-87.5443344116211,-20.070665432643914,-35.160380216104485,171550137
sts,-82.1053466796875,-88.2472152709961,-22.78549511595296,-42.258199055868694,171566804
sts,-82.1286010742187,-88.7814788818359,-24.538072651487123,-48.61876054656601,171583471
sts,-82.1460266113281,-88.6003036499023,-25.465527989088326,-53.39271809625375,171600138
sts,-82.1059341430664,-87.8996047973632,-26.020738747947632,-56.070132522772845,171616805
sts,-81.9549713134765,-87.0630874633789,-26.89347496645962,-56.58577554451652,171633472
sts,-81.7548599243164,-86.2793197631836,-28.86891845978087,-55.300802449539624,171650139
sts,-81.5799789428711,-85.4771881103515,-32.647569274312985,-52.88670781746564,171666806
sts,-81.4001770019531,-84.5443954467773,-38.663259415527975,-50.161011677300706,171683473
sts,-81.1394424438476,-83.5725173950195,-46.94687140767692,-47.9245032744471,171700140
sts,-80.7360916137695,-82.6527633666992,-57.08100348326551,-46.83155311719817,171716807
sts,-80.1547775268554,-81.8522796630859,-68.26920589445548,-47.302170098314,171733474
sts,-79.3338241577148,-81.1734085083007,-79.50861469833883,-49.4721249360779,171750141
sts,-78.1664581298828,-80.4335098266601,-89.82053017140912,-53.179857898353596,171766808
sts,-76.7166137695312,-79.4979019165039,-98.47310685788398,-57.997002737023095,171783475
sts,-75.0574035644531,-78.4303970336914,-105.13181642764941,-63.310110523543116,171800142
sts,-73.3439025878906,-77.1800384521484,-109.89609213036184,-68.44937428066196,171816809
sts,-71.5264663696289,-75.7391204833984,-113.21491941762847,-72.84133958099119,171833476
sts,-69.7679748535156,-74.0976486206054,-115.70749055222791,-76.14599633977613,171850143
sts,-68.1875381469726,-72.3890609741211,-117.94039805948553,-78.33200242399381,171866810
sts,-66.7562103271484,-70.8556900024414,-120.22917244429017,-79.65426156264583,171883477
sts,-65.1363525390625,-69.7190780639648,-122.53466428563411,-80.53041096761794,171900144
sts,-63.0636367797851,-68.6732482910156,-124.50110950715607,-81.35943125675678,171916811
sts,-60.6587142944335,-67.3650894165039,-125.62668946999275,-82.36112952019865,171933478
sts,-58.2940139770507,-65.8051834106445,-125.49105927786565,-83.51066247216662,171950145
sts,-56.3741607666015,-64.05810546875,-123.93245281593303,-84.59274821644964,171966812
sts,-54.7488098144531,-62.4592590332031,-121.09835307278668,-85.33623369335396,171983479
sts,-53.1071853637695,-61.0042114257812,-117.36872155987314,-85.55385048214015,172000146
sts,-51.3585777282714,-59.5530090332031,-113.21517631114395,-85.22318923981724,172016813
sts,-49.5248413085937,-58.0848999023437,-109.07263392438867,-84.48621691463818,172033480
sts,-47.789379119873,-56.6714210510253,-105.26676404093516,-83.58418079515133,172050147
sts,-46.1556396484375,-55.2363014221191,-101.99769149677702,-82.76385170694499,172066814
sts,-44.5168991088867,-53.8364639282226,-99.35761109801453,-82.1914885522681,172083481
sts,-42.9515266418457,-52.418342590332,-97.36013775440463,-81.90190037053367,172100148
sts,-41.3686065673828,-50.9012947082519,-95.96833292852325,-81.79680091588659,172116815
sts,-39.788818359375,-49.4282913208007,-95.11542539865184,-81.6909018886717,172133482
sts,-38.2978935241699,-48.0044517517089,-94.71619817091785,-81.38889479108802,172150149
sts,-36.8126411437988,-46.5597076416015,-94.67081853216489,-80.76664422229912,172166816
sts,-35.2703475952148,-45.0958824157714,-94.86671000670934,-79.82844411859868,172183483
sts,-33.6969833374023,-43.6694412231445,-95.18469066898469,-78.71839287409432,172200150
sts,-32.121109008789,-42.3526458740234,-95.51140074297356,-77.6770331960315,172216817
sts,-30.5822277069091,-41.1372451782226,-95.75442121425976,-76.9540601678457,172233484
sts,-29.0497379302978,-39.924934387207,-95.85435527324736,-76.70909032220258,172250151
sts,-27.4820709228515,-38.6347465515136,-95.79016587343537,-76.94343454977107,172266818
sts,-25.8865756988525,-37.2466964721679,-95.57683541071313,-77.49580453587798,172283485
sts,-24.3329639434814,-35.8110733032226,-95.2557129831025,-78.10545097845063,172300152
sts,-22.8094635009765,-34.3879585266113,-94.87924635538492,-78.51342360715624,172316819
sts,-21.3351135253906,-32.9987869262695,-94.4949968643111,-78.55600491474497,172333486
sts,-19.8509674072265,-31.6501064300537,-94.13687850215942,-78.21243955436672,172350153
sts,-18.2820644378662,-30.3473510742187,-93.82971555752971,-77.59451396045894,172366820
sts,-16.675832748413,-29.0360469818115,-93.6046198973229,-76.89233220611554,172383487
sts,-15.0917625427246,-27.6781902313232,-93.51211531958269,-76.30524717716978,172400154
sts,-13.5301818847656,-26.3307762145996,-93.61615090082526,-75.9852597871497,172416821
sts,-12.0185108184814,-24.9834423065185,-93.96049138684369,-76.00785812140205,172433488
sts,-10.5599164962768,-23.6086025238037,-94.51614949295757,-76.37169560452418,172450155
sts,-9.08192062377929,-22.2501277923584,-95.13470218701333,-77.0198893861631,172466822
sts,-7.56442880630493,-20.8842105865478,-95.53790640518598,-77.87258517164355,172483489
sts,-6.02320623397827,-19.4758033752441,-95.36526055154329,-78.86042636915674,172500156
sts,-4.51422595977783,-18.0127048492431,-94.28176317849474,-79.94940240686039,172516823
sts,-3.02189874649047,-16.5262565612792,-92.126119091647,-81.14851634214548,172533490
sts,-1.51755690574646,-15.0688161849975,-89.06168572932712,-82.4944105020846,172550157
sts,0.0175979845225811,-13.5725116729736,-85.68125583811133,-84.01351419390694,172566824
sts,1.53421139717102,-11.9714746475219,-83.01409049935157,-85.67088006493884,172583491
sts,3.03781843185424,-10.3122396469116,-82.39351594439681,-87.32071004217703,172600158
sts,4.61086750030517,-8.61495590209961,-85.17016163665282,-88.6736156155136,172616825
sts,6.24346303939819,-6.87671756744384,-92.29895927229391,-89.29163638798212,172633492
sts,7.85403442382812,-5.23026847839355,-103.88009068479582,-88.61695622777151,172650159
sts,9.39673805236816,-3.50057387351989,-118.78247729237518,-86.03452368228578,172666826
sts,10.8938245773315,-1.84753370285034,-134.50396285849652,-80.96099303483969,172683493
sts,13.0770206451416,-0.348093301057815,-147.39859177522473,-72.943124772383,172700160
sts,16.3917446136474,0.794518172740936,-153.30747126938132,-61.74310991948418,172716827
sts,19.431167602539,1.62853980064392,-148.4809190654175,-47.392495546144126,172733494
sts,22.0464534759521,2.1411018371582,-130.54402052564194,-30.209857717637032,172750161
sts,23.931827545166,2.40973091125488,-99.2167565843461,-10.789908638962103,172766828
sts,24.8804340362548,2.32014346122741,-56.577110305958385,10.027272350255492,172783495
sts,24.9989643096923,1.88278949260711,-6.798299054849485,31.208111441607915,172800162
sts,24.404541015625,0.957487702369689,44.574065653535385,51.60845426208825,172816829
sts,22.9374141693115,-0.371920049190521,91.6492689418641,70.09317502660889,172833496
sts,20.3496742248535,-2.0099127292633,129.3162464697488,85.68087793424625,172850163
sts,16.856689453125,-3.85761618614196,154.22847356295782,97.68376129249,172866830
sts,13.0054817199707,-5.83737230300903,165.40944865894213,105.80657897671738,172883497
sts,10.2827615737915,-7.93948698043823,164.30171471473574,110.17854158852195,172900164
sts,8.41346073150634,-10.0755853652954,154.23334521380457,111.31116926974771,172916831
sts,6.4905982017517,-12.1825819015502,139.47286689144346,109.99380667548516,172933498
sts,4.60437679290771,-14.2220973968505,124.18374963708055,107.1511692898904,172950165
sts,2.72166085243225,-16.1824283599853,111.59060000830966,103.6928790082188,172966832
sts,0.781467080116272,-18.0968627929687,103.54273005237245,100.38388374133781,172983499
sts,-1.14486300945281,-19.984426498413,100.49363653232894,97.75764993632039,173000166
sts,-3.03479194641113,-21.8459815979003,101.79019446505875,96.08288514253923,173016833
sts,-4.97068881988525,-23.6947555541992,106.11478337176104,95.38226468012125,173033500
sts,-6.93072700500488,-25.529239654541,111.93543880469068,95.49112517343917,173050167
sts,-8.90147304534912,-27.3424129486084,117.86494728231969,96.13726946823509,173066834
sts,-10.9169836044311,-29.1731014251709,122.8832422972962,97.020948679246,173083501
sts,-12.9447956085205,-30.970905303955,126.42204927300749,97.87726192281464,173100168
sts,-14.9652843475341,-32.7618751525878,128.3395098143076,98.51114676432586,173116835
sts,-16.9993305206298,-34.5701026916503,128.82500322967107,98.80541035595289,173133502
sts,-19.0575332641601,-36.3958435058593,128.27385996364978,98.7107171875917,173150169
sts,-21.1210002899169,-38.2099075317382,127.16296997448254,98.22945293111925,173166836
sts,-23.1615962982177,-40.0148429870605,125.9466494596894,97.4025126789817,173183503
sts,-25.138536453247,-41.8183441162109,124.98235951891043,96.30218293349996,173200170
sts,-27.1111965179443,-43.6447715759277,124.49043355691552,95.02885655243331,173216837
sts,-29.1301021575927,-45.4482650756835,124.5492518783954,93.70645736615315,173233504
sts,-31.1611061096191,-47.2050094604492,125.12331963111437,92.47209530723701,173250171
sts,-33.2519454956054,-48.8994979858398,126.11457250344911,91.459420963666,173266838
sts,-35.4219131469726,-50.5883064270019,127.41948105782531,90.78020409215979,173283505
sts,-37.5945587158203,-52.2698554992675,128.97108516750816,90.51112670996643,173300172
sts,-39.7114448547363,-53.9665870666503,130.74989599483874,90.69026769761552,173316839
sts,-41.8582572937011,-55.6532478332519,132.7607096553663,91.32167381746721,173333506
sts,-44.0553283691406,-57.35640335083,134.98813185994877,92.3811941839078,173350173
sts,-46.3254890441894,-59.0989913940429,137.35314021902428,93.81620285171282,173366840
sts,-48.6089286804199,-60.9035339355468,139.6911910410161,95.53603963805233,173383507
sts,-50.9886207580566,-62.7316284179687,141.76158458947702,97.39592145342206,173400174
sts,-53.5538673400878,-64.5004653930664,143.28420028001867,99.18190649266712,173416841
sts,-56.0607299804687,-66.1835403442382,143.98899069688642,100.60741044955674,173433508
sts,-58.4436836242675,-67.9338150024414,143.66090738991022,101.33204681020452,173450175
sts,-60.7720718383789,-69.6943969726562,142.1706892981899,101.00909464219373,173466842
sts,-63.0448951721191,-71.3800582885742,139.49433601829878,99.35808943645732,173483509
sts,-65.3201904296875,-73.0603637695312,135.7290815676302,96.24772702232188,173500176
sts,-67.5281906127929,-74.6830673217773,131.10551179473032,91.76693626636076,173516843
sts,-69.6660690307617,-76.1653060913086,125.98172883634302,86.26118324740476,173533510
sts,-71.675537109375,-77.5288467407226,120.79972441399993,80.31668998892114,173550177
sts,-73.4986801147461,-78.857437133789,115.9940906363219,74.68615630537614,173566844
sts,-75.1752243041992,-80.1391677856445,111.86581369372882,70.16290447514714,173583511
sts,-76.7864685058593,-81.3154525756836,108.45791441477796,67.42222426244884,173600178
sts,-78.2993698120117,-82.4639129638671,105.48197700735383,66.85713968709283,173616845
sts,-79.8218841552734,-83.5753860473632,102.33680060019958,68.44098425009558,173633512
sts,-81.336799621582,-84.6110382080078,98.23283451960232,71.6507203603368,173650179
sts,-82.5731811523437,-85.5867843627929,92.39810170229764,75.48152207806658,173666846
sts,-83.4489288330078,-86.4510040283203,84.30885862410688,78.57305601374891,173683513
sts,-83.9325332641601,-87.2830734252929,73.87565480892356,79.448485223048,173700180
sts,-84.0315551757812,-87.6754379272461,61.525824065878865,76.83647262468116,173716847
sts,-83.8436508178711,-87.3486404418945,48.14950666685373,70.00919321881224,173733514
sts,-83.6182861328125,-86.4488525390625,34.91165826470739,59.04076464853665,173750181
sts,-83.5208892822265,-85.487548828125,22.974985830686222,44.88960363084075,173766848
sts,-83.5652313232421,-85.0304412841796,13.219365371512156,29.246633650573358,173783515
sts,-83.6280059814453,-85.0753097534179,6.058595866370787,14.165150656923581,173800182
sts,-83.7472457885742,-85.3065643310546,1.4224157990367565,1.572740617982208,173816849
sts,-83.8238449096679,-85.5777435302734,-1.103392369657585,-7.180668308540909,173833516
sts,-83.8072967529296,-85.9816589355468,-2.0608344052691763,-11.59490690237199,173850183
sts,-83.7669677734375,-86.3235321044921,-1.9359511548824146,-12.038837866664624,173866850
sts,-83.7681045532226,-86.1857681274414,-1.0799947118064428,-9.53783986022074,173883517
sts,-83.7903518676757,-85.7409896850586,0.2614209959353751,-5.427223416874202,173900184
sts,-83.7975845336914,-85.5407791137695,1.865145124777641,-1.002498587250557,173916851
sts,-83.7819290161132,-85.5688018798828,3.4618262022710633,2.7240796391630324,173933518
sts,-83.7818298339843,-85.6702575683593,4.72473848209068,5.117166596794474,173950185
sts,-83.7958526611328,-85.7536544799804,5.3192289875697645,5.891574687438382,173966852
sts,-83.7071762084961,-85.758316040039,4.986863573117886,5.032255869891342,173983519
sts,-83.5014572143554,-85.7315292358398,3.6274343433348704,2.718245845521653,174000186
sts,-83.3200988769531,-85.645767211914,1.3439793736581813,-0.7281908104025961,174016853
sts,-83.2249145507812,-85.5863800048828,-1.572867208308175,-4.87825101794677,174033520
sts,-83.1973876953125,-85.6372299194336,-4.724803884779059,-9.24243897541174,174050187
sts,-83.2459106445312,-85.8104400634765,-7.729444111625703,-13.34053717122676,174066854
sts,-83.3223876953125,-86.0835876464843,-10.348654681267647,-16.790493145004906,174083521
sts,-83.3543319702148,-86.426040649414,-12.578018041841498,-19.39180509222425,174100188
sts,-83.3193359375,-86.7674179077148,-14.663432581747244,-21.17187551961389,174116855
sts,-83.2321243286132,-87.0597610473632,-17.031836501247206,-22.372766486326643,174133522
sts,-83.1245956420898,-87.2200469970703,-20.15051330835262,-23.376592030485636,174150189
sts,-83.0780868530273,-87.3520355224609,-24.3560600177963,-24.591400932423202,174166856
sts,-83.1069030761718,-87.4879913330078,-29.710629322691908,-26.33588089038854,174183523
sts,-83.1743545532226,-87.6093521118164,-35.94121497153265,-28.762742030680048,174200190
sts,-83.1896896362304,-87.6579895019531,-42.493675347215984,-31.84549258764922,174216857
sts,-83.0284957885742,-87.5191955566406,-48.69164233276934,-35.42816525925954,174233524
sts,-82.6880493164062,-87.2020797729492,-53.947397308636106,-39.31383028193182,174250191
sts,-82.1785583496093,-86.7273864746093,-57.94874766860727,-43.35480244208658,174266858
sts,-81.5545883178711,-86.1107330322265,-60.755914592421156,-47.50874671454281,174283525
sts,-80.9422760009765,-85.3777999877929,-62.77968529322698,-51.83860067797834,174300192
sts,-80.2654495239257,-84.5300521850586,-64.65650870596158,-56.45583034918072,174316859
sts,-79.3826675415039,-83.6062240600586,-67.06751104682779,-61.429875485540926,174333526
sts,-78.3388900756836,-82.5148620605468,-70.55751543716228,-66.70331748719605,174350193
sts,-77.2569503784179,-81.2648162841796,-75.4015346698949,-72.05337275932045,174366860
sts,-76.1187973022461,-79.9105148315429,-81.54989121393135,-77.12234646785448,174383527
sts,-74.8003234863281,-78.4132614135742,-88.66334799657307,-81.50949597492901,174400194
sts,-73.2998962402343,-76.8337860107421,-96.22443173434998,-84.8885917962569,174416861
sts,-71.6526947021484,-75.2337188720703,-103.68418206840025,-87.10291636866869,174433528
sts,-70.0011596679687,-73.6715469360351,-110.58932561801448,-88.19900470420502,174450195
sts,-68.2502975463867,-72.1522216796875,-116.64598439401419,-88.38872578525813,174466862
sts,-66.4014129638671,-70.5988464355468,-121.70863648268745,-87.96307969965449,174483529
sts,-64.5849685668945,-68.9788208007812,-125.7185682683781,-87.20209520483674,174500196
sts,-62.6095504760742,-67.3243103027343,-128.63535663627394,-86.32070517156647,174516863
sts,-60.4229736328125,-65.674331665039,-130.39942008292863,-85.46323092120663,174533530
sts,-58.1460075378418,-64.0782928466796,-130.93860692814414,-84.72773979493576,174550197
sts,-56.0875740051269,-62.537109375,-130.20451399305722,-84.1879645629703,174566864
sts,-54.2455253601074,-61.077880859375,-128.2140234317079,-83.89293944750095,174583531
sts,-52.3516540527343,-59.5684509277343,-125.08176265063418,-83.85055631837919,174600198
sts,-50.2932739257812,-57.9741554260253,-121.0420656994233,-84.01780783226634,174616865
sts,-48.2248039245605,-56.380443572998,-116.45641975937295,-84.31382770151588,174633532
sts,-46.2826461791992,-54.9010543823242,-111.7895415535646,-84.64995680109274,174650199
sts,-44.6829490661621,-53.4619445800781,-107.53734953182838,-84.9557800736786,174666866
sts,-43.3311424255371,-52.0347480773925,-104.11546113158565,-85.18542383905029,174683533
sts,-41.9117927551269,-50.5306892395019,-101.75136194144625,-85.30745775579409,174700200
sts,-40.2549209594726,-48.9428634643554,-100.4357748536801,-85.29538425568437,174716867
sts,-38.4181900024414,-47.4029579162597,-99.96234848385267,-85.13232979663404,174733534
sts,-36.5925178527832,-45.944034576416,-100.03516012412594,-84.82867967783113,174750201
sts,-34.891845703125,-44.4706726074218,-100.38638038535441,-84.43927072465888,174766868
sts,-33.3069152832031,-43.0325775146484,-100.84709948281501,-84.0658332458371,174783535
sts,-31.79368019104,-41.6096038818359,-101.34863837058957,-83.83851440884726,174800202
sts,-30.3055191040039,-40.1877555847168,-101.87381313116359,-83.88099529147962,174816869
sts,-28.7174377441406,-38.7516021728515,-102.40168994399644,-84.27196590648796,174833536
sts,-26.9541358947753,-37.2945671081543,-102.88443348736429,-85.01862648228143,174850203
sts,-25.0837745666503,-35.8304862976074,-103.26733071446041,-86.05419985766176,174866870
sts,-23.2919330596923,-34.3214988708496,-103.53153600870867,-87.26236656619258,174883537
sts,-21.6036987304687,-32.7183113098144,-103.72398731812314,-88.52028281123052,174900204
sts,-19.9734783172607,-31.1027698516845,-103.94912391328779,-89.74258207299431,174916871
sts,-18.3379459381103,-29.5516567230224,-104.32282758046466,-90.9063889183204,174933538
sts,-16.6444911956787,-28.0113334655761,-104.91088070459574,-92.04550957869795,174950205
sts,-14.8995065689086,-26.43745803833,-105.67955441010268,-93.21815861296287,174966872
sts,-13.1359529495239,-24.8523178100585,-106.47704113544857,-94.46725414302249,174983539
sts,-11.4353485107421,-23.1996250152587,-107.05241448851386,-95.79590271603404,175000206
sts,-9.74024009704589,-21.4929237365722,-107.11200714561564,-97.17157366641808,175016873
sts,-8.02406024932861,-19.7572326660156,-106.41096358735943,-98.55687710312256,175033540
sts,-6.25845098495483,-18.0091457366943,-104.87326133441277,-99.95109536605652,175050207
sts,-4.46011781692504,-16.188039779663,-102.72131973544457,-101.42018494917939,175066874
sts,-2.62990236282348,-14.3245735168457,-100.57868227102945,-103.09532312417593,175083541
sts,-0.706238150596618,-12.4861822128295,-99.49504231613084,-105.13008313164099,175100208
sts,1.28241288661956,-10.6111230850219,-100.84218682556794,-107.62152950801286,175116875
sts,3.32670092582702,-8.61060142517089,-106.04955374248928,-110.51609704476395,175133542
sts,5.42227745056152,-6.57924556732177,-116.19152861076341,-113.53017266064604,175150209
sts,7.49347400665283,-4.53082132339477,-131.50009328836896,-116.11382481443725,175166876
sts,9.61572647094726,-2.34497785568237,-150.93953969832134,-117.47594445522182,175183543
sts,11.7615547180175,-0.11533123999834,-172.0169106368126,-116.67399120738665,175200210
sts,14.3517847061157,2.03296518325805,-190.97933443948446,-112.75454574002757,175216877
sts,19.0684547424316,3.88169860839843,-203.4438254027346,-104.91671581014364,175233544
sts,23.659532546997,5.54950380325317,-205.33198850081425,-92.6650012448045,175250211
sts,27.5983982086181,7.01091957092285,-193.8215377912521,-75.92214947335387,175266878
sts,30.1187858581542,8.08650016784668,-167.99103992077275,-55.080863138942966,175283545
sts,31.4248714447021,8.51639747619628,-128.9707120011529,-30.98341918295225,175300212
sts,32.0511360168457,8.40489673614502,-79.63891773430615,-4.8326260348322165,175316879
sts,32.2095108032226,7.86607217788696,-24.071084737340566,21.94547749121409,175333546
sts,31.9309272766113,6.97520875930786,33.039659094110725,47.85694073315291,175350213
sts,31.1650066375732,5.72276735305786,86.88726884988418,71.4879519132652,175366880
sts,29.5446281433105,4.08371400833129,133.01591187099766,91.63485727147409,175383547
sts,26.5151615142822,2.13961958885192,167.82222273692,107.41589042563606,175400214
sts,22.2952327728271,-0.0982181653380394,189.10261355675965,118.36247107234917,175416881
sts,17.7009296417236,-2.47852659225463,196.51230356730755,124.47723725261453,175433548
sts,13.7061977386474,-4.95452642440795,191.71513518401616,126.23754341723212,175450215
sts,11.7944059371948,-7.34718513488769,178.06096629858337,124.52669281558569,175466882
sts,9.71275615692138,-9.57484340667724,159.82147029970432,120.49269325791107,175483549
sts,7.66322135925293,-11.736792564392,141.2241537836087,115.35879907080012,175500216
sts,5.60797357559204,-13.7935857772827,125.6067570942632,110.22894558680272,175516883
sts,3.59530067443847,-15.79953956604,114.92883129629888,105.93379483541891,175533550
sts,1.59140968322753,-17.7910575866699,109.70522229738746,102.94823759978037,175550217
sts,-0.429731398820877,-19.7563362121582,109.27763810509651,101.38744631428506,175566884
sts,-2.48295998573303,-21.6786937713623,112.2685435882377,101.06761396228354,175583551
sts,-4.53688478469848,-23.5812091827392,117.06014361091127,101.60661495423525,175600218
sts,-6.58475589752197,-25.4625835418701,122.18250475657082,102.53888405725623,175616885
sts,-8.62128639221191,-27.3583221435546,126.55252509092898,103.42278486237136,175633552
sts,-10.6981019973754,-29.2746753692626,129.5594015844872,103.92319398815775,175650219
sts,-12.7846479415893,-31.1840114593505,131.02967187494517,103.85668781797484,175666886
sts,-14.8652849197387,-33.0387573242187,131.12129416363163,103.19403846359633,175683553
sts,-16.9505386352539,-34.8465003967285,130.1944048346151,102.02576415018396,175700220
sts,-19.0728874206542,-36.6444587707519,128.69301679163277,100.50801928505673,175716887
sts,-21.1882305145263,-38.4713706970214,127.05422982511428,98.81164266715825,175733554
sts,-23.2389392852783,-40.3254013061523,125.64644794958984,97.09195186939213,175750221
sts,-25.2305660247802,-42.1804885864257,124.73111840129403,95.48298054454996,175766888
sts,-27.2139301300048,-43.9885215759277,124.44421710040865,94.1058586057406,175783555
sts,-29.2608680725097,-45.7587509155273,124.79830104276567,93.07552973530666,175800222
sts,-31.3499202728271,-47.5092468261718,125.70603573551415,92.4951746550211,175816889
sts,-33.4925346374511,-49.215461730957,127.01987215921767,92.43858989990649,175833556
sts,-35.6568756103515,-50.9424476623535,128.57525488535939,92.92969831347713,175850223
sts,-37.8090782165527,-52.7666053771972,130.2232444484199,93.93004792989555,175866890
sts,-39.9243774414062,-54.5498962402343,131.84492489555984,95.33956921669932,175883557
sts,-42.0779953002929,-56.2878799438476,133.35024248290682,97.0082658078805,175900224
sts,-44.3489303588867,-58.0960121154785,134.67053205348628,98.75301192123503,175916891
sts,-46.6904106140136,-59.9327239990234,135.75214350146328,100.37506674953092,175933558
sts,-48.9918937683105,-61.6879272460937,136.55096049559182,101.67640186779472,175950225
sts,-51.2331199645996,-63.4503555297851,137.02264796771198,102.47420031683316,175966892
sts,-53.4530944824218,-65.302375793457,137.106818476534,102.6136305539992,175983559
sts,-55.6790733337402,-67.1454315185546,136.71139395104046,101.97914304694989,176000226
sts,-57.9296150207519,-68.8825607299804,135.7074163556219,100.50359631038567,176016893
sts,-60.2090263366699,-70.6119155883789,133.94012501292116,98.17390769268125,176033560
sts,-62.4138259887695,-72.2548522949218,131.2536324886042,95.0325147694365,176050227
sts,-64.5003356933593,-73.7864532470703,127.52180348880658,91.17437257791546,176066894
sts,-66.4747161865234,-75.2718200683593,122.68018448365095,86.73926850861614,176083561
sts,-68.3458175659179,-76.6563568115234,116.75873212327198,81.90073229468683,176100228
sts,-70.1583480834961,-77.9814300537109,109.91541217572285,76.85576867382072,176116895
sts,-71.8866424560546,-79.2112808227539,102.46381307284027,71.8208907669019,176133562
sts,-73.4777450561523,-80.4156112670898,94.87856183971181,67.03626881718729,176150229
sts,-74.922248840332,-81.5567550659179,87.75884276764884,62.77134737868654,176166896
sts,-76.1999282836914,-82.5469665527343,81.73800742630037,59.31689179492739,176183563
sts,-77.3710708618164,-83.4289321899414,77.34510079288546,56.947606135699374,176200230
sts,-78.4176025390625,-84.2714614868164,74.84585861352734,55.850181617323194,176216897
sts,-79.3615417480468,-85.085464477539,74.1081331419385,56.02959256396812,176233564
sts,-80.2908706665039,-85.8634185791015,74.54241863552181,57.22243855656752,176250231
sts,-81.2167816162109,-86.5224990844726,75.15736092356106,58.853889693755725,176266898
sts,-82.0131378173828,-87.1041641235351,74.74235734795506,60.073046125023204,176283565
sts,-82.7340240478515,-87.4844131469726,72.1503238127947,59.88866365195094,176300232
sts,-83.2746276855468,-87.5117950439453,66.61445422862421,57.39943509743277,176316899
sts,-83.5392608642578,-87.0891952514648,58.00598764466609,52.07162940811469,176333566
sts,-83.5285568237304,-86.2828521728515,46.93821718840163,43.975763827476605,176350233
sts,-83.4053115844726,-85.5380096435546,34.65637853487341,33.8777534217477,176366900
sts,-83.2777786254882,-85.3185958862304,22.724311122436774,23.11183626708276,176383567
sts,-83.1926651000976,-85.3949584960937,12.60353159223204,13.244432783462129,176400234
sts,-83.2396926879882,-85.5928726196289,5.2734023169216995,5.635449164206768,176416901
sts,-83.4134063720703,-85.8256683349609,1.0255477665950368,1.059277895429085,176433568
sts,-83.5531463623046,-86.0734481811523,-0.512557099271895,-0.47433526587901537,176450235
sts,-83.5708084106445,-86.163703918457,-0.1640447707940642,0.35512534128250517,176466902
sts,-83.4990463256836,-85.8588714599609,1.0998867580583283,2.462692578864887,176483569
sts,-83.3901901245117,-85.2618637084961,2.43903609691498,4.730794843608623,176500236
sts,-83.2751235961914,-84.9029235839843,3.3166508708472593,6.329354856657054,176516903
sts,-83.1860656738281,-84.952163696289,3.533974139473701,6.8749243212501385,176533570
sts,-83.1661987304687,-85.19091796875,3.149823760111486,6.399020957593291,176550237
sts,-83.2305068969726,-85.3919830322265,2.344611336819688,5.182002742650299,176566904
sts,-83.3143234252929,-85.4390182495117,1.2942691329007834,3.5559639707165176,176583571
sts,-83.3208618164062,-85.279182434082,0.09787294505071478,1.7661835643371644,176600238
sts,-83.2335433959961,-85.1328125,-1.2314557879127273,-0.07485463615891379,176616905
sts,-83.1277923583984,-85.0677947998046,-2.7322614118403425,-1.9621195446835136,176633572
sts,-83.0681762695312,-85.1254043579101,-4.45026800511861,-3.946529903451303,176650239
sts,-83.075698852539,-85.2903137207031,-6.410980643225796,-6.091965664673964,176666906
sts,-83.0796432495117,-85.4769668579101,-8.618055603473334,-8.449749616084503,176683573
sts,-83.0740356445312,-85.6113052368164,-11.068264327531224,-11.041436223095975,176700240
sts,-83.0707778930664,-85.75439453125,-13.767699138172521,-13.840930851851564,176716907
sts,-83.0650634765625,-85.9109344482421,-16.739154015220485,-16.75994270857061,176733574
sts,-83.0571670532226,-86.1592178344726,-20.01863768959273,-19.651961028532153,176750241
sts,-83.0084075927734,-86.5559997558593,-23.64309519567694,-22.3475842931111,176766908
sts,-82.9409790039062,-86.9498291015625,-27.632419236203418,-24.717902695456367,176783575
sts,-82.8885955810546,-87.2352981567382,-31.970365637228582,-26.74420321604615,176800242
sts,-82.8199844360351,-87.5562362670898,-36.59133347975587,-28.565519984269866,176816909
sts,-82.7066116333007,-87.9672164916992,-41.380482439171686,-30.484557534858624,176833576
sts,-82.5324478149414,-88.2742233276367,-46.19225099546836,-32.928533147918934,176850243
sts,-82.2148818969726,-88.4667282104492,-50.888072443487154,-36.37368725476169,176866910
sts,-81.6819992065429,-88.2942962646484,-55.38784963950144,-41.247494677272556,176883577
sts,-81.0077209472656,-87.6960754394531,-59.720918597908195,-47.823720849601344,176900244
sts,-80.2629165649414,-86.8583908081054,-64.05480684768548,-56.125950693880846,176916911
sts,-79.4071960449218,-85.9039001464843,-68.68228089867053,-65.8581656295105,176933578
sts,-78.446907043457,-84.8392333984375,-73.96231239734368,-76.38642788222504,176950245
sts,-77.4204025268554,-83.5668716430664,-80.23095372091024,-86.79714237643228,176966912
sts,-76.2905731201171,-81.9750061035156,-87.7105769827371,-96.04457335219749,176983579
sts,-74.844612121582,-80.084976196289,-96.44277478021108,-103.16993550455244,177000246
sts,-73.1713409423828,-77.9964981079101,-106.25461244343572,-107.53747879626239,177016913
sts,-71.4385757446289,-75.7328033447265,-116.75214446483018,-109.01041485373553,177033580
sts,-69.5627288818359,-73.4468917846679,-127.33267703549726,-107.99742363931608,177050247
sts,-67.6387557983398,-71.4114074707031,-137.22099479909764,-105.33950348684685,177066914
sts,-65.5341186523437,-69.7878799438476,-145.5505823761036,-102.06402425136157,177083581
sts,-62.9122924804687,-68.4798431396484,-151.5068407443775,-99.08748221590287,177100248
sts,-59.9516983032226,-66.9958724975586,-154.51571325394315,-96.9761420847032,177116915
sts,-57.0869827270507,-65.3354949951171,-154.4156230204625,-95.85464053486396,177133582
sts,-54.4907836914062,-63.4488792419433,-151.531098823059,-95.48860568203699,177150249
sts,-52.3481292724609,-61.3696861267089,-146.59939578893594,-95.48905530972335,177166916
sts,-50.4911766052246,-59.2787818908691,-140.57273098634326,-95.53523961679294,177183583
sts,-48.5231475830078,-57.3682479858398,-134.38065057644104,-95.51381745076169,177200250
sts,-46.3032722473144,-55.7801437377929,-128.74691194402251,-95.52219657559881,177216917
sts,-44.1436767578125,-54.3313293457031,-124.11043214652427,-95.75503655899776,177233584
sts,-42.1804885864257,-52.7429008483886,-120.63826214468806,-96.34783916892829,177250251
sts,-40.3840141296386,-51.0402336120605,-118.28474552210035,-97.26271426604661,177266918
sts,-38.5539627075195,-49.2753219604492,-116.85818767005833,-98.26853890450155,177283585
sts,-36.6147727966308,-47.4445419311523,-116.08170387254223,-99.01609231141549,177300252
sts,-34.6964797973632,-45.5621452331543,-115.64994857439947,-99.16757714219436,177316919
sts,-32.8461418151855,-43.7136192321777,-115.28162495474223,-98.52347649457778,177333586
sts,-30.9653434753417,-41.9678688049316,-114.76143271450566,-97.09719237062835,177350253
sts,-29.1018657684326,-40.3097534179687,-113.96487770004133,-95.11237802564308,177366920
sts,-27.2287139892578,-38.7502861022949,-112.86381016129108,-92.9293642699667,177383587
sts,-25.3808574676513,-37.197883605957,-111.51411719127884,-90.93306856908156,177400254
sts,-23.5725231170654,-35.6620903015136,-110.02851871777054,-89.42480210174494,177416921
sts,-21.8645610809326,-34.126609802246,-108.53946996158406,-88.55222083609227,177433588
sts,-20.2170009613037,-32.5507278442382,-107.16089654716254,-88.29229347150087,177450255
sts,-18.4966793060302,-30.9387454986572,-105.95991842854835,-88.48231071214771,177466922
sts,-16.6903076171875,-29.3373394012451,-104.94598139386147,-88.8812827770873,177483589
sts,-14.8725032806396,-27.7602863311767,-104.07440657568281,-89.24046920689507,177500256
sts,-13.1702337265014,-26.1561603546142,-103.25222905670552,-89.36496196510237,177516923
sts,-11.5884160995483,-24.579683303833,-102.33696718604934,-89.15447254766181,177533590
sts,-10.0890598297119,-23.0338306427001,-101.1349816283218,-88.61807025328862,177550257
sts,-8.56908798217773,-21.4871463775634,-99.42296845052893,-87.86377457888125,177566924
sts,-6.98790264129638,-19.9473247528076,-97.01752146098035,-87.06910182068007,177583591
sts,-5.44211435317993,-18.3723564147949,-93.89758652455284,-86.44144992275262,177600258
sts,-3.87643122673034,-16.7942886352539,-90.35220887352232,-86.17680241522439,177616925
sts,-2.28522157669067,-15.238314628601,-87.0977041885531,-86.42323976915479,177633592
sts,-0.672006130218505,-13.6358051300048,-85.29703332628752,-87.25438533844762,177650259
sts,0.97613513469696,-11.899073600769,-86.4252123515663,-88.65679746636845,177666926
sts,2.66883444786071,-10.0393524169921,-91.95879624931162,-90.5319154635556,177683593
sts,4.43880701065063,-8.1323070526123,-102.92171976072349,-92.70731171703628,177700260
sts,6.31414127349853,-6.14593982696533,-119.3846197232843,-94.94772017631173,177716927
sts,8.16239356994628,-4.03561687469482,-140.07287985855191,-96.95725255424094,177733594
sts,10.0015268325805,-1.95284759998321,-162.26560033856563,-98.36978259139265,177750261
sts,11.9268646240234,-0.0342081487178802,-182.133334153896,-98.73259272733767,177766928
sts,16.6705875396728,1.70974338054656,-195.53895449607927,-97.49794922502632,177783595
sts,21.7878456115722,3.3624951839447,-199.1205965598574,-94.04423582793612,177800262
sts,26.3497047424316,4.96044921875,-191.27598557717826,-87.74401829349239,177816929
sts,28.9640731811523,6.41227912902832,-172.6224686067814,-78.0768025259753,177833596
sts,30.5072689056396,7.56404447555542,-145.70058189131518,-64.75875276577338,177850263
sts,31.4176540374755,8.29292869567871,-114.03089236672871,-47.8478702642384,177866930
sts,31.8960037231445,8.61692333221435,-80.91927134883551,-27.790936165795248,177883597
sts,32.125431060791,8.58780860900878,-48.48484504536493,-5.40113961943958,177900264
sts,32.1230430603027,8.16869831085205,-17.255345857270846,18.223289298916082,177916931
sts,31.8783645629882,7.40741872787475,13.565277569302918,41.81950895112513,177933598
sts,31.457160949707,6.19023656845092,45.29536832324785,64.09997623522095,177950265
sts,30.9009399414062,4.63620853424072,78.75574411012967,83.8944111310687,177966932
sts,30.0471229553222,2.84043884277343,113.42321164988535,100.27615459628896,177983599
sts,28.5944271087646,0.793060719966888,147.10661575814814,112.65554368857119,178000266
sts,25.5868301391601,-1.40416026115417,176.32887866373298,120.82783626201925,178016933
sts,20.6413459777832,-3.69644379615783,197.33426401729102,124.9719062105678,178033600
sts,15.1181335449218,-6.09947967529296,207.35987023597264,125.60385302895433,178050267
sts,10.6936063766479,-8.47922897338867,205.65293298943348,123.49399920437223,178066934
sts,8.65819072723388,-10.7852373123168,193.8018385322153,119.55779614397245,178083601
sts,6.50056838989257,-12.9757270812988,175.26526543494236,114.733987684128,178100268
sts,4.40281057357788,-15.0990123748779,154.34882572591596,109.86748122108118,178116935
sts,2.35313367843627,-17.132526397705,135.07241955651315,105.61625753105405,178133602
sts,0.302091687917709,-19.0780582427978,120.31762417499289,102.39768567887715,178150269
sts,-1.72713363170623,-20.9995365142822,111.44210869762246,100.38021597656528,178166936
sts,-3.72979092597961,-22.9256649017334,108.34516467357197,99.51524098941887,178183603
sts,-5.72269248962402,-24.81343460083,109.84572872747893,99.59487717378492,178200270
sts,-7.7113914489746,-26.6450843811035,114.19748332605455,100.31788279226915,178216937
sts,-9.74223327636718,-28.4980602264404,119.58791188314544,101.34948801357541,178233604
sts,-11.8154239654541,-30.4001026153564,124.51892874308842,102.36883515117994,178250271
sts,-13.9296541213989,-32.3074150085449,128.02224713880028,103.10413672152485,178266938
sts,-16.0162200927734,-34.2353248596191,129.70949224318258,103.35724154995187,178283605
sts,-18.038215637207,-36.1214904785156,129.6903025642548,103.0179637026757,178300272
sts,-20.0397205352783,-37.9815979003906,128.41054065588094,102.06782676512985,178316939
sts,-22.053165435791,-39.8506431579589,126.46705965639673,100.57392273386414,178333606
sts,-24.0630455017089,-41.6942138671875,124.44586653613904,98.67500090134752,178350273
sts,-26.0776138305664,-43.5198822021484,122.8111515370522,96.56216208311636,178366940
sts,-28.0947284698486,-45.3172454833984,121.851443815181,94.4555984973638,178383607
sts,-30.1005134582519,-47.0443954467773,121.67382954986975,92.5779372965637,178400274
sts,-32.10835647583,-48.7444648742675,122.23110039134852,91.12523935181197,178416941
sts,-34.154197692871,-50.4474754333496,123.36813550219702,90.23882650942954,178433608
sts,-36.2102813720703,-52.119270324707,124.87799946021583,89.9836870398187,178450275
sts,-38.3681106567382,-53.7474365234375,126.56045926720087,90.34044020900197,178466942
