Label,Left_Hip_q,Right_Hip_q,Left_Hip_qd,Right_Hip_qd,SampleTimeFine
fw,-81.8976364135742,-53.8478622436523,48.1598396301269,-19.0784587860107,552947109
fw,-80.8620223999023,-54.6424827575683,49.17635271024157,42.446974250832376,552963776
fw,-79.8295822143554,-56.7902526855468,45.87205579684746,64.6738096396463,552980443
fw,-78.8694076538086,-59.6060447692871,42.1356324390378,82.86404177361504,552997110
fw,-78.1243438720703,-62.0414009094238,37.78451694970395,94.01320028833315,553013777
fw,-77.4583587646484,-63.5552444458007,32.55698965517088,96.94548473821953,553030444
fw,-76.8924942016601,-64.6546936035156,26.109987354923106,92.39041324159327,553047111
fw,-76.3787231445312,-65.7718734741211,18.086161843736193,82.4863679906864,553063778
fw,-75.9608459472656,-66.5973205566406,8.229519320490004,69.98222232171355,553080445
fw,-75.7175979614257,-66.886962890625,-3.503537488035659,57.45961110989679,553097112
fw,-75.7539901733398,-67.4689636230468,-16.90178723531269,46.81785081016262,553113779
fw,-76.2497177124023,-68.7824096679687,-31.564405340241144,39.11694865286389,553130446
fw,-77.264175415039,-70.2199630737304,-47.05831982246131,34.719440180864055,553147113
fw,-78.7174682617187,-70.6907043457031,-63.09440973376473,33.56390840945354,553163780
fw,-80.6601791381836,-70.8415603637695,-79.62150331540322,35.393313962686825,553180447
fw,-82.9201354980468,-71.3603057861328,-96.76148026966789,39.84974755952209,553197114
fw,-85.1366348266601,-72.3314971923828,-114.58136374176908,46.46076016241125,553213781
fw,-87.0207977294921,-73.6284255981445,-132.78710690459576,54.598648541884785,553230448
fw,-86.8699417114257,-74.7721557617187,-150.48183232606374,63.47785441036307,553247115
fw,-84.5817337036132,-75.9005050659179,-166.12303270063006,72.2118959100705,553263782
fw,-81.8440399169921,-77.3760375976562,-177.7409693107114,79.92001326450125,553280449
fw,-79.1215286254882,-79.0450668334961,-183.38336679811346,85.85813116518898,553297116
fw,-75.9702377319336,-80.5523605346679,-181.67055109886996,89.53844693939205,553313783
fw,-72.1937026977539,-82.0812606811523,-172.29485906655304,90.80002761462424,553330450
fw,-68.9807357788086,-83.521499633789,-156.28237526820976,89.80846315108569,553347117
fw,-66.6559524536132,-85.0460739135742,-135.8763938618192,86.99033169802227,553363784
fw,-64.6631546020507,-86.6072540283203,-114.02104916252911,82.92902989101012,553380451
fw,-63.1163024902343,-88.0573043823242,-93.58531460986208,78.25063514506543,553397118
fw,-61.8476905822753,-89.0778350830078,-76.58476715435263,73.51880137194496,553413785
fw,-60.7602043151855,-89.5207138061523,-63.6655240763588,69.15164164878354,553430452
fw,-59.7348937988281,-88.6439132690429,-54.017835842781864,65.3756807091048,553447119
fw,-58.9827613830566,-87.4807586669921,-45.74031008805574,62.23097081679627,553463786
fw,-58.3473968505859,-86.3975601196289,-36.535518377306396,59.62714238569136,553480453
fw,-57.8371467590332,-85.3177642822265,-24.52060964498725,57.42883389038031,553497120
fw,-57.6960716247558,-84.28173828125,-8.901745578225524,55.53578657195909,553513787
fw,-57.6794052124023,-83.3153457641601,9.70347623387611,53.92521782935234,553530454
fw,-58.4662284851074,-82.3986053466796,29.40805823674822,52.63862489914021,553547121
fw,-60.4534721374511,-81.5148544311523,47.62178783864453,51.71525391260825,553563788
fw,-62.2638816833496,-80.6431503295898,61.84478739821526,51.09340789074808,553580455
fw,-64.3771057128906,-79.797492980957,70.40110620230571,50.51223880123602,553597122
fw,-65.9395980834961,-78.9930343627929,72.85577626374855,49.447115076572985,553613789
fw,-67.1230697631836,-78.1360321044921,70.0002868379699,47.10204020111399,553630456
fw,-68.4236984252929,-77.3463821411132,63.466727589775374,42.46735111254754,553647123
fw,-69.0796432495117,-76.7800750732421,55.15620799911271,34.43632246462548,553663790
fw,-69.295654296875,-76.4382629394531,46.70547113660347,21.966201834044,553680457
fw,-70.0598373413086,-76.4547653198242,39.17399880710844,4.268527512292378,553697124
fw,-71.7658538818359,-76.8360443115234,33.031045459091544,-18.986293710452582,553713791
fw,-73.2787322998046,-77.4592819213867,28.38388142521302,-47.47370097395071,553730458
fw,-73.8480148315429,-78.4375686645507,25.273954640462627,-80.07247594036266,553747125
fw,-74.2727890014648,-79.9662475585937,23.852408649499118,-114.83896243867802,553763792
fw,-75.0017700195312,-82.25,24.34745256784945,-149.16077650892524,553780459
fw,-76.080337524414,-85.3102798461914,26.87782460794659,-180.11178506310114,553797126
fw,-77.3648223876953,-89.1628036499023,31.250895021729814,-204.95441342541605,553813793
fw,-78.7046279907226,-86.3136901855468,36.87490588024614,-221.65851645330397,553830460
fw,-80.2239074707031,-81.8541183471679,42.84175489227191,-229.27396050496137,553847127
fw,-81.8196411132812,-78.3689193725586,48.148471725868326,-228.03678802813528,553863794
fw,-83.2320175170898,-75.8027572631836,51.96323211053509,-219.19561537463017,553880461
fw,-84.5239639282226,-72.5376434326171,53.830180394590336,-204.65780071242438,553897128
fw,-85.6695785522461,-69.1900482177734,53.74613768635157,-186.60033531615895,553913795
fw,-86.7876510620117,-66.3107986450195,52.10479867634073,-167.1426837293409,553930462
fw,-87.8868713378906,-63.7189712524414,49.553660312569015,-148.0924558378897,553947129
fw,-88.9180908203125,-61.6900177001953,46.823495122512796,-130.73105405319484,553963796
fw,-89.2903137207031,-59.9202995300293,44.57443528317893,-115.63070121903661,553980463
fw,-88.5581588745117,-58.3648071289062,43.27917169822256,-102.54542804093359,553997130
fw,-87.6550674438476,-57.0738716125488,43.15109438200509,-90.44491941117495,554013797
fw,-86.7025375366211,-55.9182510375976,44.12400601538484,-77.74123101769268,554030464
fw,-85.7420043945312,-54.9644012451171,45.88803248286773,-62.70397612461497,554047131
fw,-84.7103500366211,-54.0972900390625,47.97539929111207,-43.991072159134546,554063798
fw,-83.6709518432617,-53.3893814086914,49.874653761934134,-21.16128442916992,554080465
fw,-82.5644989013671,-52.9828338623046,51.142730585923786,4.997418146338798,554097132
fw,-81.3743133544921,-52.833152770996,51.484924532420834,32.471774443337765,554113799
fw,-80.2116470336914,-54.42427444458,50.78057046935378,58.423123881381095,554130466
fw,-79.0977554321289,-56.6002922058105,49.04512993047301,79.90344720045779,554147133
fw,-78.1907806396484,-59.2519340515136,46.33915020059688,94.65777920310288,554163800
fw,-77.4595184326171,-61.3578453063964,42.659269548343886,101.71519037241261,554180467
fw,-76.7422332763671,-62.9432182312011,37.863528889060106,101.54605545455482,554197134
fw,-76.0084381103515,-63.9083099365234,31.6755601062623,95.7545465987338,554213801
fw,-75.3444290161132,-65.1026382446289,23.775074500733073,86.47495118742864,554230468
fw,-74.8623428344726,-66.177993774414,13.933582067307938,75.74044817969977,554247135
fw,-74.5814208984375,-66.886962890625,2.124515282288741,65.05786928173762,554263802
fw,-74.5320053100586,-67.8888702392578,-11.454970193233278,55.296038780698915,554280469
fw,-74.9201126098632,-69.5454406738281,-26.470785855290867,46.85028610910426,554297136
fw,-75.8804244995117,-70.9866867065429,-42.610092743823444,39.93582349879525,554313803
fw,-77.358154296875,-71.2277374267578,-59.7257953004396,34.82593873871824,554330470
fw,-79.3183517456054,-71.1774063110351,-77.86864365128602,31.90963097022335,554347137
fw,-81.6484985351562,-71.5249557495117,-97.14606114406484,31.568814766845776,554363804
fw,-83.9094772338867,-72.2764053344726,-117.43117169210737,33.98310822823422,554380471
fw,-86.2529983520507,-73.2577819824218,-138.04029671368494,38.990520968808134,554397138
fw,-87.3583984375,-74.1897811889648,-157.54752841867517,46.07316113770478,554413805
fw,-85.3874359130859,-75.3280792236328,-173.87220734886,54.459379467820156,554430472
fw,-82.4525985717773,-76.6732482910156,-184.67029782320685,63.284481270134606,554447139
fw,-79.5217056274414,-77.9131851196289,-187.93878959063707,71.74088315744106,554463806
fw,-75.992073059082,-79.209716796875,-182.65547642190208,79.1679357150389,554480473
fw,-72.1245422363281,-80.4836959838867,-169.24158005352285,85.07072662339995,554497140
fw,-69.2561111450195,-81.7764587402343,-149.6550735393342,89.09765303962918,554513807
fw,-67.0951766967773,-83.4081344604492,-127.01562149800907,91.0249262729863,554530474
fw,-65.2695922851562,-85.1720886230468,-104.82688382517644,90.77969798146397,554547141
fw,-63.722599029541,-86.8633117675781,-86.03227876779216,88.49300976668944,554563808
fw,-62.3920364379882,-88.325439453125,-72.21898998646404,84.53905816462148,554580475
fw,-61.1444702148437,-89.5182723999023,-63.231216346737845,79.51458452430559,554597142
fw,-60.083324432373,-89.059341430664,-57.30830768867997,74.14246875959685,554613809
fw,-59.2586860656738,-88.0458602905273,-51.697462877519825,69.12439197579985,554630476
fw,-58.3915748596191,-87.0668182373046,-43.55572289974272,64.99416616034699,554647143
fw,-57.6616516113281,-85.9846878051757,-30.876504419179284,62.02424231253691,554663810
fw,-57.2673988342285,-84.8937835693359,-13.163627248471641,60.214371284330994,554680477
fw,-57.3615608215332,-83.748908996582,8.360119644649188,59.35471594400157,554697144
fw,-58.1949882507324,-82.6022491455078,31.08460705110605,59.12364586022543,554713811
fw,-60.250259399414,-81.5041427612304,51.778656415269204,59.168635809177076,554730478
fw,-62.0698776245117,-80.4627990722656,67.52835835487686,59.13173914053415,554747145
fw,-63.9180297851562,-79.5211639404296,76.52480094684307,58.611482667982266,554763812
fw,-65.6823196411132,-78.6898345947265,78.45155512207079,57.08656802740212,554780479
fw,-67.0652313232421,-77.8446655273437,74.39053882996362,53.84897778325465,554797146
fw,-68.6003189086914,-77.0243911743164,66.34083218041428,47.99538179583016,554813813
fw,-69.2988510131836,-76.3143920898437,56.55754418645762,38.50581760757493,554830480
fw,-69.4128875732421,-75.8547897338867,46.94751624350064,24.407661195491873,554847147
fw,-70.0580825805664,-75.8156585693359,38.71527441614294,4.995738227574046,554863814
fw,-71.7969970703125,-76.154556274414,32.34531231250154,-19.935123233018395,554880481
fw,-73.1426849365234,-76.8778686523437,27.85739217833865,-49.89344840452431,554897148
fw,-73.6532516479492,-77.9849548339843,25.14724596696581,-83.58135621332843,554913815
fw,-74.0680389404296,-79.631965637207,24.209523413742573,-118.92365684637122,554930482
fw,-74.7959289550781,-81.9666213989257,25.145844087731415,-153.27507454179678,554947149
fw,-75.8886642456054,-85.1300735473632,28.004714582607914,-183.8042465199247,554963816
fw,-77.1860198974609,-88.8425903320312,32.58523078447137,-207.98616854654256,554980483
fw,-78.495132446289,-86.0767440795898,38.33263733620211,-224.0683505639852,554997150
fw,-79.9608306884765,-81.7445068359375,44.389373353534744,-231.3537931595036,555013817
fw,-81.5539245605468,-78.5234222412109,49.7843064737175,-230.20029095876436,555030484
fw,-83.0785598754882,-76.2870254516601,53.682699770863024,-221.76168147122885,555047151
fw,-84.5927505493164,-73.5749282836914,55.60054442966456,-207.62294080813004,555063818
fw,-85.9223022460937,-69.4630050659179,55.50880566310702,-189.51087842583297,555080485
fw,-87.1027450561523,-66.0336227416992,53.801027075018325,-169.1590585820632,555097152
fw,-88.2222671508789,-63.4501152038574,51.150312393811106,-148.25252201315658,555113819
fw,-89.3480834960937,-61.5549011230468,48.31614196549845,-128.31263802650426,555130486
fw,-89.5647888183593,-59.8897972106933,45.9637738995055,-110.45675664055389,555147153
fw,-88.5776977539062,-58.7038230895996,44.53574037887478,-95.10252245201423,555163820
fw,-87.6442413330078,-57.7744598388671,44.18856182025662,-81.7717889369884,555180487
fw,-86.6309967041015,-56.7732925415039,44.79411492764571,-69.13876591779594,555197154
fw,-85.5534515380859,-55.9277305603027,45.99985280200027,-55.381162838586896,555213821
fw,-84.4800491333007,-55.0505981445312,47.33300682460465,-38.773416801624506,555230488
fw,-83.4243698120117,-54.2442436218261,48.3202685214201,-18.350870906124893,555247155
fw,-82.3830490112304,-53.6678733825683,48.58771558600594,5.586908811999099,555263822
fw,-81.3507766723632,-53.6649665832519,47.91357385236527,31.346004251643436,555280489
fw,-80.227668762207,-55.2250022888183,46.2236062822805,56.18202081361159,555297156
fw,-79.1828231811523,-57.4347457885742,43.53555194485727,77.03844516428806,555313823
fw,-78.3754425048828,-60.2717552185058,39.87218088877657,91.4229304640052,555330490
fw,-77.6927795410156,-62.0066299438476,35.175097044780145,98.09024858379175,555347157
fw,-77.0939788818359,-63.3825378417968,29.260103921203193,97.28636006439041,555363824
fw,-76.5259628295898,-64.4787292480468,21.846857714848483,90.51237222852531,555380491
fw,-76.0635452270507,-65.7526092529296,12.663286039113656,79.96909349023758,555397158
fw,-75.7475433349609,-66.4776916503906,1.582090511114372,67.93659914701058,555413825
fw,-75.6919784545898,-66.8983535766601,-11.280056983675165,56.311144300344175,555430492
fw,-76.0135803222656,-67.8005065917968,-25.560256338449992,46.41450056574421,555447159
fw,-76.8140640258789,-69.4886474609375,-40.758882214556984,39.06162465301417,555463826
fw,-78.0496826171875,-70.6802368164062,-56.416894159099336,34.76035545570043,555480493
fw,-79.7330245971679,-70.82080078125,-72.27374892991273,33.86994585451176,555497160
fw,-81.8239974975586,-70.9048385620117,-88.3151084346327,36.60199994231755,555513827
fw,-84.0920639038086,-71.4252700805664,-104.66273569304036,42.8768416345638,555530494
fw,-86.4180526733398,-72.4368896484375,-121.33354070265067,52.15465850889103,555547161
fw,-87.7412033081054,-73.8257827758789,-137.96580712635378,63.372630853006925,555563828
fw,-85.8717575073242,-75.1937789916992,-153.63978709103586,75.05134637002925,555580495
fw,-83.1886825561523,-76.6359939575195,-166.8909718342946,85.55052470099189,555597162
fw,-80.6272048950195,-78.3628921508789,-175.94635926391985,93.40067591936403,555613829
fw,-77.8854217529296,-80.1603088378906,-179.14056301808802,97.61846603539837,555630496
fw,-74.6036758422851,-82.0335617065429,-175.40723442466646,97.91743809524431,555647163
fw,-70.9252624511718,-83.7684173583984,-164.69467466282305,94.7483283262776,555663830
fw,-68.0735244750976,-85.1418762207031,-148.1393885706459,89.14803196308762,555680497
fw,-66.0172042846679,-86.2986373901367,-127.88315369598428,82.43839827685882,555697164
fw,-64.3703842163086,-87.4505538940429,-106.54778132602864,75.8722402921749,555713831
fw,-62.9752731323242,-88.6255569458007,-86.53136658013891,70.34293371375115,555730498
fw,-61.7876548767089,-89.4338684082031,-69.37195730437682,66.24206165851365,555747165
fw,-60.6927490234375,-88.9299087524414,-55.395453986809144,63.485715202142124,555763832
fw,-59.8276977539062,-87.8654022216796,-43.75359761639434,61.6700487431835,555780499
fw,-59.2840881347656,-86.7087173461914,-32.82628767107013,60.283961893866966,555797166
fw,-58.7887229919433,-85.5422286987304,-20.855504002328157,58.903233495552755,555813833
fw,-58.4656600952148,-84.5429306030273,-6.614527582790858,57.30859522187298,555830500
fw,-58.4667358398437,-83.6780242919921,10.096957248586785,55.502865122135475,555847167
fw,-58.8926773071289,-82.8819732666015,28.29630110221129,53.63981799991747,555863834
fw,-60.1907348632812,-82.055793762207,46.06038153771155,51.90540493228618,555880501
fw,-62.095115661621,-81.0600280761718,61.089282465361265,50.397586293475115,555897168
fw,-63.9100189208984,-80.0578002929687,71.39387894256541,49.034527795297684,555913835
fw,-65.9791793823242,-79.2565841674804,75.86722487552078,47.497673385015936,555930502
fw,-67.5051345825195,-78.5520629882812,74.5560403249546,45.20548575812478,555947169
fw,-69.1673965454101,-77.9450607299804,68.5732702336654,41.32117845353907,555963836
fw,-69.9179153442382,-77.4154739379882,59.72450521704469,34.81065334685165,555980503
fw,-70.1936645507812,-76.9371185302734,50.00955623291509,24.567543278643896,555997170
fw,-70.8266677856445,-76.7281723022461,41.181798450892515,9.60584113469603,556013837
fw,-72.0280151367187,-76.9555358886718,34.495748077125384,-10.703059911324726,556030504
fw,-73.0998611450195,-77.5936584472656,30.66463790336251,-36.39060941376439,556047171
fw,-73.7476272583007,-78.5144271850586,29.94300968560215,-66.70062452589872,556063838
fw,-74.4034805297851,-79.7931289672851,32.216651205178614,-100.00675482998824,556080505
fw,-75.3757629394531,-81.5712127685546,37.038577695590355,-133.89791246225164,556097172
fw,-76.7510757446289,-84.0939559936523,43.63502228518677,-165.47204496150965,556113839
fw,-78.3694305419921,-87.6750183105468,50.94926999665947,-191.82147020489225,556130506
fw,-79.924446105957,-87.8878021240234,57.77371937578225,-210.6064414746271,556147173
fw,-81.4149017333984,-83.5177764892578,62.9679088478838,-220.5420505279331,556163840
fw,-83.158088684082,-79.9468154907226,65.70852690793198,-221.62554179053933,556180507
fw,-84.936050415039,-77.343391418457,65.68903904096211,-215.02919917972713,556197174
fw,-86.3025512695312,-74.4568405151367,63.18972214403713,-202.72823965043867,556213841
fw,-87.3432540893554,-71.0386810302734,58.97764388196462,-187.02729995192308,556230508
fw,-88.2701416015625,-68.0451126098632,54.06456950580118,-170.1337708353729,556247175
fw,-88.9849014282226,-65.2971420288086,49.41626630943243,-153.83708522754273,556263842
fw,-88.8431015014648,-63.1442337036132,45.72409991812407,-139.28070666670948,556280509
fw,-88.0469589233398,-61.147590637207,43.30622464157232,-126.80908206972958,556297176
fw,-87.1307830810546,-59.3289833068847,42.136184527747105,-115.90998709925418,556313843
fw,-86.173110961914,-57.656509399414,41.94877961677149,-105.29913136769304,556330510
fw,-85.124641418457,-56.2927665710449,42.36515562028362,-93.18113024059909,556347177
fw,-84.1107406616211,-55.0918884277343,42.99737263907455,-77.67709516365008,556363844
fw,-83.1813125610351,-54.0805397033691,43.51546252541714,-57.35431814251951,556380511
fw,-82.2494430541992,-53.2819061279296,43.67631865206639,-31.743003812839135,556397178
fw,-81.2602767944336,-52.790470123291,43.32266261279374,-1.6918907161294037,556413845
fw,-80.3224258422851,-52.6641502380371,42.36275378454792,30.582243176932856,556430512
fw,-79.312141418457,-53.6184043884277,40.738848947787574,61.83645779987856,556447179
fw,-78.3245086669921,-55.8940505981445,38.38845828882257,88.49935248075028,556463846
fw,-77.5227279663086,-58.7352485656738,35.20227315331396,107.53997724577583,556480513
fw,-76.9278869628906,-61.3850402832031,30.98931218967785,117.22071082373203,556497180
fw,-76.4630279541015,-63.2799224853515,25.470048346258544,117.467512675672,556513847
fw,-75.9833450317382,-64.6358489990234,18.320129462997038,109.74572533179614,556530514
fw,-75.5186462402343,-66.015396118164,9.268241505059024,96.53664379043465,556547181
fw,-75.2191009521484,-67.095588684082,-1.7852543058699157,80.65237863880375,556563848
fw,-75.1872253417968,-67.6530685424804,-14.692694195739772,64.64139649242854,556580515
fw,-75.6162872314453,-68.4941787719726,-29.085202087231306,50.446459122327724,556597182
fw,-76.5886459350586,-69.996597290039,-44.510515565977784,39.342470041666274,556613849
fw,-78.0014877319336,-71.1503753662109,-60.62368298663668,32.060329705937555,556630516
fw,-79.8091201782226,-71.2813415527343,-77.32439060713943,28.942888813479072,556647183
fw,-81.9886932373046,-71.278335571289,-94.74239240496763,30.013137814128253,556663850
fw,-84.2942199707031,-71.8040237426757,-113.03959863575226,34.939031200236755,556680517
fw,-86.8115615844726,-72.6326217651367,-132.09403629874575,42.97291142929842,556697184
fw,-87.990852355957,-73.7882843017578,-151.206050829627,52.96204659411817,556713851
fw,-85.3876953125,-74.9224624633789,-168.97634685251901,63.47882871136255,556730518
fw,-82.1247787475586,-76.231689453125,-183.44233242960976,73.05533337195654,556747185
fw,-79.0978469848632,-77.8892669677734,-192.46157406081218,80.46153666157984,556763852
fw,-75.923469543457,-79.5150070190429,-194.2470315875419,84.94582414701347,556780519
fw,-72.1129989624023,-81.0713577270507,-187.90660018498141,86.3608932475351,556797186
fw,-68.2017745971679,-82.4326248168945,-173.8140796696142,85.13102340538065,556813853
fw,-65.4331741333007,-83.6354904174804,-153.65218163316115,82.07192400881904,556830520
fw,-63.3897705078125,-84.8908615112304,-130.05400701994927,78.12880228217223,556847187
fw,-61.7446632385253,-86.2353286743164,-105.92394373061379,74.12400270108584,556863854
fw,-60.3445663452148,-87.44189453125,-83.66518577668494,70.59096688635346,556880521
fw,-59.0086975097656,-88.494026184082,-64.58654235467591,67.72934442383199,556897188
fw,-57.9582595825195,-89.5984649658203,-48.683632289533165,65.47116182882998,556913855
fw,-57.2666893005371,-88.9639205932617,-34.84491504481326,63.61551569334845,556930522
fw,-56.7487335205078,-87.6805801391601,-21.393816425204534,61.972434234361096,556947189
fw,-56.4330520629882,-86.6242065429687,-6.784939011473126,60.458170650473996,556963856
fw,-56.4418029785156,-85.781982421875,9.76566575285536,59.10904681507031,556980523
fw,-56.6982765197753,-84.9435195922851,27.917602488164473,58.02200968586103,556997190
fw,-57.487190246582,-83.9571685791015,46.23474737341866,57.26344933175092,557013857
fw,-59.4833679199218,-82.8557891845703,62.60254237619912,56.79150754303385,557030524
fw,-61.3844490051269,-81.7029113769531,74.88980656994728,56.412680631667904,557047191
fw,-63.5192985534668,-80.700454711914,81.61519212130156,55.76499389022546,557063858
fw,-65.4365081787109,-79.9200286865234,82.38113786252622,54.31102433509961,557080525
fw,-66.9452209472656,-79.0637741088867,77.94104257920431,51.33735939740453,557097192
fw,-68.3714294433593,-78.2070922851562,69.91358932198992,45.97523827459168,557113859
fw,-68.9790954589843,-77.5191345214843,60.28312853741202,37.26203892302062,557130526
fw,-69.3429260253906,-77.1552352905273,50.88432451628673,24.25400818355322,557147193
fw,-70.1767883300781,-77.2320251464843,43.05035692908635,6.189282171499626,557163860
fw,-71.7180709838867,-77.6696166992187,37.513676904994135,-17.307550769414696,557180527
fw,-72.8443984985351,-78.260025024414,34.520106128140924,-46.001425232112794,557197194
fw,-73.4473342895507,-79.0910110473632,34.01963574676287,-78.85383621588556,557213861
fw,-74.1480941772461,-80.486099243164,35.79505271762625,-113.94494108832473,557230528
fw,-75.1755065917968,-82.5765914916992,39.47655658131104,-148.60196351478513,557247195
fw,-76.6469650268554,-85.4735946655273,44.4908328470777,-179.77762823914313,557263862
fw,-78.2233276367187,-88.564956665039,50.03666018793951,-204.62365686874776,557280529
fw,-79.6882247924804,-85.5819473266601,55.15527594942867,-221.09766526121868,557297196
fw,-81.3015975952148,-81.1318435668945,58.904110734088135,-228.39013655800164,557313863
fw,-82.9811401367187,-77.7443466186523,60.583544029238105,-227.008283986373,557330530
fw,-84.5226745605468,-75.2218170166015,59.93179890348969,-218.49779896744693,557347197
fw,-85.7312545776367,-72.2761535644531,57.205140431901704,-204.94468275890137,557363864
fw,-86.7372131347656,-68.8771896362304,53.10221425425816,-188.47290819881044,557380531
fw,-87.7443237304687,-65.584732055664,48.55819724501448,-170.8935335270477,557397198
fw,-88.6073150634765,-62.9270782470703,44.49014753411225,-153.52823885035895,557413865
fw,-88.9006881713867,-60.618408203125,41.58497409038572,-137.13668077806742,557430532
fw,-88.3846893310546,-58.7279548645019,40.185179532692665,-121.87885975183431,557447199
fw,-87.5698165893554,-57.1974754333496,40.277128837872056,-107.30662348384206,557463866
fw,-86.6044311523437,-55.8663330078125,41.55407580239991,-92.43376952916539,557480533
fw,-85.6122436523437,-54.7153282165527,43.519249721828004,-75.9410208639345,557497200
fw,-84.5680847167968,-53.8520889282226,45.601265636672345,-56.529981361504426,557513867
fw,-83.5044784545898,-53.117618560791,47.26179782186833,-33.37202592925169,557530534
fw,-82.437744140625,-52.6709785461425,48.07944171352735,-6.533542732438979,557547201
fw,-81.3533020019531,-52.4379920959472,47.79668436883183,22.77498084806365,557563868
fw,-80.32177734375,-52.8221282958984,46.32246676538036,52.25997899337382,557580535
fw,-79.2910079956054,-54.7568092346191,43.691651703366716,78.96585093881485,557597202
fw,-78.3614730834961,-57.2395324707031,39.993135843773196,99.96871443406367,557613869
fw,-77.6456222534179,-60.2632102966308,35.288350831036496,113.12114006003829,557630536
fw,-77.0606384277343,-62.1978950500488,29.54906530413992,117.57793128017695,557647203
fw,-76.5587615966796,-63.9042892456054,22.64260293363009,113.91914900611138,557663870
fw,-76.0405578613281,-65.1740798950195,14.377224026602406,103.86620102381048,557680537
fw,-75.6579895019531,-66.6769943237304,4.590845635070065,89.75251947844554,557697204
fw,-75.4967346191406,-67.4353790283203,-6.763066315983923,73.9740595473197,557713871
fw,-75.6802978515625,-68.1220703125,-19.585838783332644,58.59846047535069,557730538
fw,-76.3182296752929,-69.3814239501953,-33.68698751713986,45.205373658133425,557747205
fw,-77.4241256713867,-70.8822555541992,-48.89739540075401,34.91709479488423,557763872
fw,-78.9368057250976,-71.3338241577148,-65.17309832176436,28.500116271417014,557780539
fw,-80.954345703125,-71.2511901855468,-82.60734268110578,26.413986507363603,557797206
fw,-83.2868881225586,-71.5008468627929,-101.3016358542891,28.760712666005453,557813873
fw,-85.5929641723632,-72.2368698120117,-121.11678049703832,35.18787910790881,557830540
fw,-87.2491378784179,-73.3439025878906,-141.40161894892043,44.84294212716237,557847207
fw,-86.1230850219726,-74.3441390991211,-160.83751665630453,56.44385036303626,557863874
fw,-83.1662292480468,-75.5953369140625,-177.50960687812295,68.46632647723922,557880541
fw,-80.0315856933593,-77.100830078125,-189.23043804103017,79.39922209528456,557897208
fw,-77.138931274414,-78.6740646362304,-194.04406522560546,88.0001079003341,557913875
fw,-73.7712860107421,-80.3792495727539,-190.77127412631435,93.48671672100117,557930542
fw,-69.8639068603515,-82.0087814331054,-179.4283436703365,95.62029898480192,557947209
fw,-66.8529891967773,-83.5375900268554,-161.3601922368599,94.67001245119107,557963876
fw,-64.5292282104492,-84.9892501831054,-138.99234901895747,91.28277418048388,557980543
fw,-62.6197776794433,-86.3536834716796,-115.23626607097316,86.3061580554272,557997210
fw,-61.080150604248,-87.7720870971679,-92.73012810616272,80.61383852251534,558013877
fw,-59.7701263427734,-88.9103393554687,-73.17446815951354,74.96740220259714,558030544
fw,-58.6337203979492,-89.2126693725586,-56.98391525411504,69.92855747103133,558047211
fw,-57.780647277832,-88.1888961791992,-43.35513112386618,65.82253216233433,558063878
fw,-57.268138885498,-86.9827346801757,-30.711007892106302,62.746573100384914,558080545
fw,-56.8672218322753,-85.922248840332,-17.370292461692905,60.6122979923255,558097212
fw,-56.6549034118652,-84.9990768432617,-2.229787607899857,59.207181965407045,558113879
fw,-56.846694946289,-84.0340576171875,14.76047585118921,58.2608736067424,558130546
fw,-57.3722839355468,-83.0207901000976,32.4937716797071,57.50401224877605,558147213
fw,-58.9928245544433,-81.9727249145507,49.02251721713819,56.706714376886566,558163880
fw,-61.2065811157226,-80.9473571777343,62.18792938654122,55.682720504976004,558180547
fw,-63.0196151733398,-79.9770889282226,70.33030203267711,54.250234039463955,558197214
fw,-65.1054992675781,-79.1688766479492,72.81359983053841,52.15530652415023,558213881
fw,-66.7779159545898,-78.4272308349609,70.18239001666373,48.98319417598865,558230548
fw,-68.5445556640625,-77.6828536987304,63.922956700382066,44.09632974952986,558247215
fw,-69.1711807250976,-77.0228805541992,55.94714490080597,36.63506251305127,558263882
fw,-69.0797805786132,-76.5370025634765,48.007577785273284,25.59952124085942,558280549
fw,-69.623794555664,-76.415786743164,41.267779959498725,10.008657245007475,558297216
fw,-71.2973861694336,-76.7145538330078,36.17933238709705,-10.88309786803687,558313883
fw,-73.0333099365234,-77.3217468261718,32.67032813869729,-37.339854337161334,558330550
fw,-73.8085708618164,-78.2313995361328,30.49245946757494,-68.90901056986924,558347217
fw,-74.3782730102539,-79.5342941284179,29.50988917584314,-104.2572791257228,558363884
fw,-75.213882446289,-81.51953125,29.785108284144915,-141.15588744536925,558380551
fw,-76.2346496582031,-84.2350616455078,31.46172342728819,-176.6816058855718,558397218
fw,-77.5024795532226,-87.7724380493164,34.557194535242395,-207.643713745802,558413885
fw,-78.8186264038086,-87.3850631713867,38.80534078093203,-231.15763587789723,558430552
fw,-80.2657699584961,-82.408706665039,43.63884435343365,-245.20587179666413,558447219
fw,-81.8153991699218,-78.1945648193359,48.316911090512065,-249.00742683129323,558463886
fw,-83.3480758666992,-75.1412353515625,52.12941215680507,-243.08567105717793,558480553
fw,-84.8256225585937,-71.9540328979492,54.58084737285161,-229.05202090936868,558497220
fw,-86.0334014892578,-68.1020889282226,55.482701951270926,-209.22577856779924,558513887
fw,-87.1632385253906,-64.6054229736328,54.94018776237541,-186.21797128673813,558530554
fw,-88.322525024414,-61.8151245117187,53.27168087497916,-162.536844234868,558547221
fw,-89.5960388183593,-59.8075065612793,50.9145325856577,-140.21516510200607,558563888
fw,-89.2224197387695,-57.9929084777832,48.34706094804424,-120.47416522458806,558580555
fw,-88.2370834350586,-56.4673423767089,46.023672594202395,-103.49463499870627,558597222
fw,-87.2978820800781,-55.2089920043945,44.31104790466426,-88.39221234681364,558613889
fw,-86.3661727905273,-54.0457382202148,43.43027491782739,-73.45937582751905,558630556
fw,-85.4110260009765,-53.2486877441406,43.42637147364903,-56.659781327751446,558647223
fw,-84.3888092041015,-52.3956604003906,44.180838176931644,-36.27544998763665,558663890
fw,-83.3608856201171,-51.7456474304199,45.45936331273997,-11.539794669959926,558680557
fw,-82.3248138427734,-51.4894142150878,46.96672899900248,16.940180546457956,558697224
fw,-81.2724456787109,-51.8508682250976,48.379419579872206,47.139432449005994,558713891
fw,-80.2097778320312,-53.725227355957,49.34236353274572,76.0120502906923,558730558
fw,-79.1438446044921,-56.3834114074707,49.43834134641897,100.23540335887364,558747225
fw,-78.2165069580078,-59.3276863098144,48.15608315094406,117.05762026828342,558763892
fw,-77.4476623535156,-61.4178352355957,44.890806172994026,124.95263756634156,558780559
fw,-76.6466369628906,-63.1445655822753,39.006125004989954,123.87691854395395,558797226
fw,-75.9279479980468,-64.5712051391601,29.965217792068184,115.1064732042441,558813893
fw,-75.3121719360351,-66.418098449707,17.503282392431636,100.79903414599309,558830560
fw,-74.9769973754882,-67.6644821166992,1.7778635914588627,83.48582707321187,558847227
fw,-75.0068130493164,-68.4085083007812,-16.577708915759988,65.65041707576042,558863894
fw,-75.4447784423828,-69.4660873413086,-36.545669454228175,49.4611271551673,558880561
fw,-76.4786758422851,-70.7976303100586,-56.95018808110918,36.642360129469424,558897228
fw,-77.9854660034179,-71.1641845703125,-76.74544508006386,28.420150486192895,558913895
fw,-79.9981689453125,-71.105224609375,-95.2527448874452,25.47319243728448,558930562
fw,-82.4860763549804,-71.3535537719726,-112.24157569369125,27.868081587699695,558947229
fw,-85.1426773071289,-72.029800415039,-127.80843149225448,35.02120290627694,558963896
fw,-88.0377655029296,-73.1126480102539,-142.09706783915215,45.751961366345206,558980563
fw,-88.0163421630859,-74.4640808105468,-154.98287922375852,58.45527692140741,558997230
fw,-84.6986618041992,-75.7887573242187,-165.86889632962536,71.36248310688325,559013897
fw,-81.6117782592773,-77.1877670288086,-173.69705230323217,82.82407369745317,559030564
fw,-78.6596069335937,-78.736083984375,-177.192330866745,91.54919665476645,559047231
fw,-75.4307632446289,-80.337287902832,-175.27011569927055,96.76052358343946,559063898
fw,-71.7732543945312,-82.0182952880859,-167.47157515912403,98.24854724894912,559080565
fw,-68.5641479492187,-83.5980758666992,-154.25966980458787,96.32823220323579,559097232
fw,-66.027961730957,-85.2179183959961,-137.03226591875824,91.71660118855401,559113899
fw,-63.963321685791,-86.8013305664062,-117.8062302890001,85.36361373890294,559130566
fw,-62.2241859436035,-88.1786575317382,-98.66540350785598,78.27431636193887,559147233
fw,-60.7119750976562,-88.9990768432617,-81.16987544564483,71.35386664003967,559163900
fw,-59.4087409973144,-88.9986877441406,-65.93745791533279,65.29513731534624,559180567
fw,-58.44771194458,-88.3761138916015,-52.537385204989334,60.51957364279669,559197234
fw,-57.7989807128906,-87.4744644165039,-39.72864282041204,57.174925774184146,559213901
fw,-57.3444595336914,-86.4225921630859,-25.972734188539476,55.18262781325716,559230568
fw,-57.0134811401367,-85.4109344482421,-10.071085467243934,54.31411650341059,559247235
fw,-56.9592247009277,-84.4457855224609,8.271348541738226,54.26777079275278,559263902
fw,-57.0846061706543,-83.5234680175781,28.156818063149494,54.72211798908102,559280569
fw,-58.1009292602539,-82.5648117065429,47.61498088333909,55.353533273986386,559297236
fw,-60.5765800476074,-81.5403747558593,64.13099366649665,55.819966884693905,559313903
fw,-62.5664405822753,-80.530288696289,75.41205542708049,55.720921236343344,559330570
fw,-65.0221939086914,-79.6575393676757,80.10780582916695,54.54894860068483,559347237
fw,-67.0469284057617,-78.8819427490234,78.21172810537838,51.65293477452088,559363904
fw,-68.6736450195312,-78.0892181396484,71.00816276296386,46.23721385487508,559380571
fw,-69.2809219360351,-77.3799285888671,60.61826851065748,37.41650737627735,559397238
fw,-68.9883270263671,-76.9063491821289,49.351660487508035,24.33184607557291,559413905
fw,-69.1294555664062,-76.821174621582,39.12940861747906,6.314480007403765,559430572
fw,-70.4171829223632,-77.2662811279296,31.18338447241177,-16.926030620223255,559447239
fw,-72.0203323364257,-78.0587768554687,26.080141484489992,-45.11640849301703,559463906
fw,-72.9039916992187,-79.0240478515625,23.948594729879773,-77.27046235845319,559480573
fw,-73.3149337768554,-80.3884735107421,24.713226064055405,-111.62747084383061,559497240
fw,-73.9956741333007,-82.3665008544921,28.189090177337675,-145.7452264019177,559513907
fw,-75.0151138305664,-85.1742401123046,34.023930279998986,-176.79811362402845,559530574
fw,-76.3609466552734,-88.7761917114257,41.579477955058465,-202.0627096106394,559547241
fw,-77.860725402832,-86.407241821289,49.87403706976032,-219.47443335466875,559563908
fw,-79.4970474243164,-81.4970245361328,57.66710341747939,-228.06567116382254,559580575
fw,-81.2815856933593,-77.7724075317382,63.689174911830364,-228.10880196361472,559597242
fw,-83.1079635620117,-75.2704772949218,66.94587075226661,-220.90488250237257,559613909
fw,-84.8523178100586,-72.8787765502929,66.98529770108921,-208.3262719749492,559630576
fw,-86.2895431518554,-69.359992980957,64.02388750290535,-192.33024784754815,559647243
fw,-87.3647766113281,-65.8402633666992,58.87602245420563,-174.62853085892715,559663910
fw,-88.3417663574218,-63.0615539550781,52.71004319003313,-156.5548290686048,559680577
fw,-89.184829711914,-60.8301086425781,46.72364472262817,-139.04330140256312,559697244
fw,-89.4721450805664,-58.8188247680664,41.857033200267175,-122.61009679469365,559713911
fw,-88.6524505615234,-57.1620750427246,38.630313474731786,-107.30028281279212,559730578
fw,-87.7276382446289,-55.8826484680175,37.1276760732403,-92.64200132591961,559747245
fw,-86.7837524414062,-54.8316307067871,37.094534618596455,-77.68411282524049,559763912
fw,-85.840087890625,-53.9669914245605,38.087696972163805,-61.17811137374605,559780579
fw,-84.9578781127929,-53.2881240844726,39.62112492711799,-41.914891876708566,559797246
fw,-84.0655212402343,-52.8661956787109,41.26786391173111,-19.159615863700214,559813913
fw,-83.169937133789,-52.6716346740722,42.70179245848804,6.935041967931981,559830580
fw,-82.2713241577148,-52.5306015014648,43.684810747839705,35.091078296632176,559847247
fw,-81.3047866821289,-53.191307067871,44.02086406136945,62.9787329262405,559863914
fw,-80.3175354003906,-55.3057975769043,43.503836745176145,87.65204498213383,559880581
fw,-79.3787612915039,-57.9080924987793,41.8820703612271,106.25535949926923,559897248
fw,-78.6145553588867,-60.8956108093261,38.85317895194685,116.77168331370112,559913915
fw,-77.9308776855468,-62.9361724853515,34.09440691596643,118.53772359521041,559930582
fw,-77.2979431152343,-64.501480102539,27.32586948093856,112.34333534972615,559947249
fw,-76.8081817626953,-65.8092727661132,18.39242832828604,100.11845154503513,559963916
fw,-76.4766464233398,-66.974624633789,7.335227416094851,84.37821322841768,559980583
fw,-76.3374633789062,-67.6224594116211,-5.5846527441756715,67.65891606131241,559997250
fw,-76.5333633422851,-68.5666046142578,-19.93914463850398,52.12371114293201,560013917
fw,-77.2198486328125,-69.9011077880859,-35.26160397278081,39.39872670758563,560030584
fw,-78.4012832641601,-70.8296737670898,-51.20726048397941,30.582785363516624,560047251
fw,-79.9988937377929,-70.9391174316406,-67.66814689130119,26.31292387376002,560063918
fw,-82.0578918457031,-71.0984954833984,-84.763757998881,26.791107707207555,560080585
fw,-84.1709289550781,-71.5710906982421,-102.6737698368881,31.758074590262062,560097252
fw,-86.2297134399414,-72.3870391845703,-121.35733548528924,40.46986744821554,560113919
fw,-87.3015899658203,-73.5460128784179,-140.27459375446188,51.74327748142928,560130586
fw,-85.4484405517578,-74.8076171875,-158.24484235538856,64.09744453206966,560147253
fw,-82.5407638549804,-76.1413955688476,-173.52752653267993,75.97050385746657,560163920
fw,-79.7502899169921,-77.6252822875976,-184.12787595053177,85.96131804049351,560180587
fw,-77.0406646728515,-79.285659790039,-188.25594665296924,93.04156918739838,560197254
fw,-73.6782302856445,-80.988052368164,-184.82441235423954,96.69380200325857,560213921
fw,-69.8689956665039,-82.7388000488281,-173.84427159019666,96.94813764997986,560230588
fw,-66.8265228271484,-84.2541046142578,-156.5695984669629,94.31270072840694,560247255
fw,-64.7310943603515,-85.6645584106445,-135.28808114173293,89.61957396492396,560263922
fw,-63.0019874572753,-87.053970336914,-112.77480436712048,83.83109305413656,560280589
fw,-61.4889640808105,-88.4190979003906,-91.57297386870226,77.85734422050818,560297256
fw,-60.1538124084472,-89.5398712158203,-73.34531923578577,72.42055764727195,560313923
fw,-59.0889778137207,-89.0733871459961,-58.508263085663216,67.9781530529777,560330590
fw,-58.2859191894531,-88.029800415039,-46.25189743933798,64.70071379583791,560347257
fw,-57.7676162719726,-86.8622589111328,-34.926149543303936,62.49799803701597,560363924
fw,-57.4061012268066,-85.718017578125,-22.675491586492477,61.08560586631765,560380591
fw,-57.1840286254882,-84.6734008789062,-8.139552596471367,60.07976080249716,560397258
fw,-57.1597480773925,-83.6959075927734,8.991342561862169,59.10068396503545,560413925
fw,-57.3368072509765,-82.6721725463867,27.75454224611571,57.86151262471982,560430592
fw,-58.6564559936523,-81.5893325805664,46.12729162711097,56.21984607104902,560447259
fw,-61.280029296875,-80.5090408325195,61.62264096060351,54.1717896555117,560463926
fw,-62.9116783142089,-79.5611801147461,72.06042572659429,51.77758621162413,560480593
fw,-64.9709243774414,-78.8417053222656,76.22725458984767,49.02841646566325,560497260
fw,-66.7294692993164,-78.2049560546875,74.19771437264913,45.69192178367151,560513927
fw,-68.6375885009765,-77.5492782592773,67.2430126492349,41.19449131207701,560530594
fw,-69.4119415283203,-76.9226608276367,57.409723611871385,34.59595381409171,560547261
fw,-69.2142715454101,-76.4670944213867,46.95020720961323,24.68594925590451,560563928
fw,-69.6635971069336,-76.3723220825195,37.812945495944504,10.196419689657715,560580595
fw,-71.1384811401367,-76.6849517822265,31.347419013639872,-9.901516470689732,560597262
fw,-72.2716979980468,-77.261848449707,28.25422066456485,-36.063221368175654,560613929
fw,-72.7850036621093,-78.0799026489257,28.684271380692113,-67.8612065079698,560630596
fw,-73.3778228759765,-79.2861404418945,32.3512064627594,-103.78551645296854,560647263
fw,-74.3325500488281,-81.0996017456054,38.58773819411845,-141.2523156765202,560663930
fw,-75.7565536499023,-83.7613449096679,46.376729673450846,-176.89471122788706,560680597
fw,-77.4568634033203,-87.4816818237304,54.43506655890559,-207.12987454596518,560697264
fw,-79.0923233032226,-87.3284149169921,61.39959965845669,-228.8811889236232,560713931
fw,-80.7389602661132,-82.5473861694336,66.09519888729275,-240.24138317158565,560730598
fw,-82.6266632080078,-78.6498107910156,67.80542865958613,-240.85665212625418,560747265
fw,-84.3949661254882,-75.5986862182617,66.44630298697399,-231.91361529013147,560763932
fw,-85.6028747558593,-72.4024658203125,62.56837874168722,-215.76845472172369,560780599
fw,-86.5298309326171,-68.9245834350586,57.175599647219315,-195.37423917672655,560797266
fw,-87.5726318359375,-65.9381332397461,51.42865491542033,-173.67692359641933,560813933
fw,-88.6054916381836,-63.4360160827636,46.3502513597918,-153.0903450152647,560830600
fw,-89.4032440185546,-61.4191665649414,42.63187680216846,-135.1033099454465,560847267
fw,-88.9998626708984,-59.5789146423339,40.572201551484895,-120.05821552311842,560863934
fw,-88.1439590454101,-57.7275085449218,40.113473209513494,-107.14587516188287,560880601
fw,-87.1990051269531,-56.3928565979003,40.924020570423174,-94.64458668804372,560897268
fw,-86.2024383544921,-55.0369415283203,42.49450937641771,-80.38416055898136,560913935
fw,-85.1862258911132,-53.9822044372558,44.2396879438653,-62.356703583024895,560930602
fw,-84.1691131591796,-53.0262947082519,45.60370734335592,-39.345411889419545,560947269
fw,-83.0971221923828,-52.4303359985351,46.15777100660018,-11.413131780517922,560963936
fw,-82.0226287841796,-52.2865142822265,45.668614627010896,19.902509029877614,560980603
fw,-81.0038299560546,-52.8917732238769,44.11608487958372,51.78638381216101,560997270
fw,-79.9947662353515,-54.8074798583984,41.649423115352235,80.72817564368475,561013937
fw,-79.0903396606445,-57.2461395263671,38.490128145666496,103.34779101088745,561030604
fw,-78.3959732055664,-60.2045135498046,34.80806570162957,117.21464812442717,561047271
fw,-77.848274230957,-62.2495880126953,30.61099095011944,121.39599809045902,561063938
fw,-77.3312149047851,-63.7273445129394,25.689932704533177,116.57210564409202,561080605
fw,-76.8510131835937,-65.1230697631836,19.648020956507974,104.73127575212295,561097272
fw,-76.4614639282226,-66.8354415893554,12.008550016940726,88.60818359283041,561113939
fw,-76.1664352416992,-67.5974197387695,2.3619303830787173,71.0792361943935,561130606
fw,-76.1214981079101,-68.2051086425781,-9.509251864272972,54.6813132708434,561147273
fw,-76.4234390258789,-69.3098907470703,-23.578418687748716,41.33121354121585,561163940
fw,-77.1461410522461,-70.3223800659179,-39.610209079157855,32.23788092051314,561180607
fw,-78.2953643798828,-70.4966201782226,-57.24884043435774,27.939988787064422,561197274
fw,-80.059585571289,-70.7348022460937,-76.09387785806332,28.38875988186094,561213941
fw,-82.1756210327148,-71.2243576049804,-95.70228309596708,33.034038150423804,561230608
fw,-84.4458923339843,-72.0894546508789,-115.50057248202215,40.92276161079691,561247275
fw,-87.2365036010742,-73.3541793823242,-134.65568185487606,50.83591980616961,561263942
fw,-88.4389038085937,-74.6931076049804,-151.99690184914058,61.465863719339325,561280609
fw,-85.2636032104492,-75.918342590332,-166.07051130268556,71.60171180604479,561297276
fw,-82.1250610351562,-77.2091064453125,-175.35087340649704,80.2781324443492,561313943
fw,-79.2171096801757,-78.6714248657226,-178.56815540133007,86.85803041179118,561330610
fw,-75.8788452148437,-80.3117446899414,-175.07148706291605,91.04538681925017,561347277
fw,-72.1297760009765,-81.8572235107421,-165.12061241979154,92.84230396159883,561363944
fw,-69.0262680053711,-83.2707214355468,-149.98451193457458,92.47220777577596,561380611
fw,-66.6074752807617,-84.751968383789,-131.75182673712146,90.29605492668912,561397278
fw,-64.4315643310546,-86.3002166748046,-112.85262327632697,86.74812829192675,561413945
fw,-62.6755714416503,-87.9677963256836,-95.42123773111325,82.30327002496657,561430612
fw,-61.1959342956543,-89.4058761596679,-80.71620375412515,77.46130547907417,561447279
fw,-59.8091659545898,-89.370376586914,-68.80319141312509,72.71811968487414,561463946
fw,-58.6235809326171,-88.2588653564453,-58.61276621450151,68.50433996413422,561480613
fw,-57.7074432373046,-87.2250518798828,-48.356962499741925,65.10456407101339,561497280
fw,-57.0721473693847,-86.1248092651367,-36.1763030447092,62.59576290131623,561513947
fw,-56.5735282897949,-84.998176574707,-20.821311968035882,60.84225113948546,561530614
fw,-56.4247283935546,-83.8916320800781,-2.1592467550751477,59.55751290432034,561547281
fw,-56.7185821533203,-82.781623840332,18.661537460687615,58.40766256473284,561563948
fw,-57.6910171508789,-81.6953201293945,39.46122775992936,57.10761912920967,561580615
fw,-60.3434028625488,-80.6635055541992,57.62612523230464,55.461369583131024,561597282
fw,-62.1533279418945,-79.7468338012695,70.85202599299353,53.32197095831982,561613949
fw,-64.2609558105468,-79.0759124755859,77.76762696805127,50.48492021168879,561630616
fw,-66.1251678466796,-78.4349136352539,78.22868218617238,46.563947967609565,561647283
fw,-67.9206771850586,-77.7524261474609,73.22088523789365,40.913759972589524,561663950
fw,-69.0482559204101,-77.123062133789,64.46199426891386,32.649572769275814,561680617
fw,-69.2345352172851,-76.6119308471679,53.88627988633068,20.77499616162319,561697284
fw,-69.55517578125,-76.5209350585937,43.21008511744235,4.390004490412747,561713951
fw,-70.9028396606445,-76.9457778930664,33.717565020583486,-17.069349592481686,561730618
fw,-72.3441619873046,-77.7115249633789,26.28349522016086,-43.605586033530585,561747285
fw,-72.8503952026367,-78.7570571899414,21.520034566939948,-74.48718833017637,561763952
fw,-73.1461563110351,-80.1866455078125,19.882430754212685,-108.17093506117868,561780619
fw,-73.7439041137695,-82.0884017944336,21.63424262825297,-142.37218887756447,561797286
fw,-74.732192993164,-84.7704086303711,26.698379667339122,-174.3273121056707,561813953
fw,-76.0835647583007,-88.514045715332,34.50815396417148,-201.2402099916617,561830620
fw,-77.5252609252929,-86.8246078491211,43.97444509366019,-220.8179569367747,561847287
fw,-78.8831634521484,-81.967056274414,53.62242623854543,-231.72652405326392,561863954
fw,-80.4069366455078,-78.1422805786132,61.87391618163447,-233.79811307054462,561880621
fw,-82.3022918701171,-75.611328125,67.39622479358533,-227.92159075465707,561897288
fw,-84.2173156738281,-73.0171737670898,69.41466333736702,-215.69834394767082,561913955
fw,-85.8071212768554,-69.1052703857421,67.89051333670929,-199.04304985890658,561930622
fw,-87.0881195068359,-65.604248046875,63.50256452665883,-179.87651642418928,561947289
fw,-88.2036590576171,-62.8084106445312,57.43665937382933,-159.93213771970036,561963956
fw,-89.1665496826171,-60.6003608703613,51.05662372394025,-140.60087483969718,561980623
fw,-90.0,-58.6966590881347,45.56392285368511,-122.7521834073172,561997290
fw,-89.0825119018554,-57.1763267517089,41.74036858304826,-106.55437170951662,562013957
fw,-88.1564483642578,-56.0201225280761,39.828056037063206,-91.38864597136157,562030624
fw,-87.152359008789,-54.9053001403808,39.5583903990467,-75.956306417773,562047291
fw,-86.105598449707,-54.051902770996,40.30667383885506,-58.62241087629807,562063958
fw,-85.0864944458007,-53.2128982543945,41.31914631230812,-37.94958429815206,562080625
fw,-84.1406784057617,-52.560245513916,41.940000625665824,-13.28534173424939,562097292
fw,-83.2238998413086,-52.2668228149414,41.767967098353736,14.791066844459058,562113959
fw,-82.3363800048828,-52.284065246582,40.699856827301986,44.35123274854069,562130626
fw,-81.4271240234375,-53.885570526123,38.86055038349877,72.43422774530164,562147293
fw,-80.5417938232421,-56.3655815124511,36.456621671025154,95.74862389757416,562163960
fw,-79.8363342285156,-59.2574501037597,33.61232659825445,111.54311691757657,562180627
fw,-79.2387771606445,-61.729564666748,30.250408770860417,118.33575585012304,562197294
fw,-78.6344146728515,-63.4367027282714,26.066495553421404,116.24184310675803,562213961
fw,-78.0435638427734,-64.7725524902343,20.613259253012018,106.8166237743367,562230628
fw,-77.5937118530273,-66.3239974975586,13.464256968881376,92.52982701420066,562247295
fw,-77.3306198120117,-67.1296463012695,4.387347292677114,76.10759294102196,562263962
fw,-77.2804336547851,-67.5345611572265,-6.551945611932824,59.97598948975699,562280629
fw,-77.4941329956054,-68.4609909057617,-19.00742277715773,45.95247877602426,562297296
fw,-78.0391311645507,-69.9726181030273,-32.4858366092609,35.207343533013635,562313963
fw,-78.9321594238281,-70.8964614868164,-46.53998957584463,28.399623467616156,562330630
fw,-80.2955703735351,-70.8900070190429,-60.93353475999432,25.83370343944224,562347297
fw,-82.1477279663086,-70.9813079833984,-75.69469025281175,27.52199726287727,562363964
fw,-84.238296508789,-71.4075698852539,-91.01814569242124,33.14617242110558,562380631
fw,-86.7246398925781,-72.381607055664,-107.04077053131819,41.99685553778506,562397298
fw,-88.5698776245117,-73.6850357055664,-123.57839207935835,52.98073242398321,562413965
fw,-86.1663589477539,-74.8271713256836,-139.934587290964,64.73203509168657,562430632
fw,-83.026252746582,-76.0459289550781,-154.8661173413985,75.8081730324542,562447299
fw,-80.2288360595703,-77.5879592895507,-166.7345503379791,84.92023246825352,562463966
fw,-77.5750350952148,-79.3261184692382,-173.82115417933124,91.14413952615843,562480633
fw,-74.5423431396484,-81.053237915039,-174.74157987081534,94.06210350173865,562497300
fw,-71.0155639648437,-82.6006088256836,-168.85750255091074,93.7955949597931,562513967
fw,-67.8374481201171,-84.052749633789,-156.5487425880541,90.91880796272773,562530634
fw,-65.4124069213867,-85.4422073364257,-139.21772042325892,86.28093869754976,562547301
fw,-63.4838638305664,-86.7816162109375,-118.97912465786736,80.79601457420767,562563968
fw,-61.8856735229492,-88.1132202148437,-98.11588540665299,75.26246142235611,562580635
fw,-60.5462112426757,-89.2480087280273,-78.48453585955059,70.25227295421428,562597302
fw,-59.3953475952148,-89.5335388183593,-61.07187344193665,66.07838175008133,562613969
fw,-58.5026321411132,-88.4395294189453,-45.842362110719556,62.82480003166515,562630636
fw,-57.9695243835449,-87.2955703735351,-31.91402620689157,60.41225344802284,562647303
fw,-57.6199531555175,-86.2157669067382,-18.00138250303627,58.67016042136587,562663970
fw,-57.4436874389648,-85.2479934692382,-2.9894170808362777,57.392610439700256,562680637
fw,-57.5204124450683,-84.3597640991211,13.538795575734953,56.37007413582843,562697304
fw,-57.8350028991699,-83.4453964233398,30.99851730516405,55.40315013203926,562713971
fw,-58.4684410095214,-82.4831848144531,47.84941045811197,54.30995229531624,562730638
fw,-60.7429008483886,-81.4548873901367,62.00873874908383,52.93100676038561,562747305
fw,-62.7925720214843,-80.4069519042968,71.50834623219876,51.121835976363435,562763972
fw,-64.8737030029296,-79.5354766845703,75.15890270296603,48.71703753611373,562780639
fw,-66.987564086914,-78.8604736328125,72.96844984271435,45.45987507922629,562797306
fw,-68.7686538696289,-78.2324829101562,66.1606838043271,40.91506641280045,562813973
fw,-69.5919189453125,-77.6882019042968,56.80072361276,34.40458615521592,562830640
fw,-69.3407974243164,-77.2347869873046,47.1882551821723,25.011486892200562,562847307
fw,-69.5752258300781,-77.0529251098632,39.26089337912689,11.682197074789533,562863974
fw,-70.8251724243164,-77.4056091308593,34.22437316060985,-6.566559651283115,562880641
fw,-72.335090637207,-78.0358657836914,32.49262600282581,-30.355121236319693,562897308
fw,-73.1890411376953,-78.717300415039,33.85572443625565,-59.60985912360584,562913975
fw,-73.722412109375,-79.7123184204101,37.708430714984,-93.27884428063716,562930642
fw,-74.5685348510742,-81.1737670898437,43.213801351771586,-129.2140589104386,562947309
fw,-75.8195571899414,-83.4431228637695,49.38614531166188,-164.33643640698892,562963976
fw,-77.5402526855468,-86.7402725219726,55.15896469448389,-195.12713077741003,562980643
fw,-79.5208053588867,-87.8230895996093,59.50757007348405,-218.35607549720385,562997310
fw,-81.2942581176757,-83.3370056152343,61.638673671016114,-231.82767295229104,563013977
fw,-83.0013732910156,-78.8981018066406,61.1896825440837,-234.87562707837174,563030644
fw,-84.6555480957031,-76.0226211547851,58.346395441855506,-228.42356775760607,563047311
fw,-85.8720321655273,-73.2876052856445,53.80845705586471,-214.61345592230933,563063978
fw,-86.671516418457,-70.0694580078125,48.592970547999336,-196.1813076400642,563080645
fw,-87.3892593383789,-67.0261306762695,43.73825475186149,-175.82069308929007,563097312
fw,-88.1850128173828,-64.3366775512695,40.01912806410715,-155.70314815329115,563113979
fw,-89.0827255249023,-62.1265144348144,37.78344637051867,-137.20560298023545,563130646
fw,-89.6103363037109,-60.0480995178222,36.96110215588245,-120.8190148188396,563147313
fw,-88.5655059814453,-58.2467956542968,37.212637071801694,-106.19866067571616,563163980
fw,-87.6212615966796,-56.7408447265625,38.125617512072004,-92.33029870139204,563180647
fw,-86.7514114379882,-55.6343193054199,39.36533523300531,-77.79656320494162,563197314
fw,-85.8748321533203,-54.8618202209472,40.733173118794106,-61.125997040256706,563213981
fw,-84.950454711914,-54.059226989746,42.14169317910969,-41.19198356619171,563230648
fw,-84.0134963989257,-53.563606262207,43.54560220343307,-17.59959181403562,563247315
fw,-83.0573120117187,-53.359634399414,44.86723653754678,9.035730076219949,563263982
fw,-82.0830459594726,-53.4053993225097,45.940855473732476,37.02797144831717,563280649
fw,-81.1096725463867,-54.3335762023925,46.487141660522084,63.8568891841608,563297316
fw,-80.1132659912109,-56.6189308166503,46.12119334213512,86.6906735699267,563313983
fw,-79.1831359863281,-59.0266723632812,44.3914197017419,103.06476482039153,563330650
fw,-78.3772430419921,-61.6430435180664,40.84244130627514,111.49525121303715,563347317
fw,-77.6858520507812,-63.3317756652832,35.0930374468397,111.80962765724144,563363984
fw,-77.0667266845703,-64.647102355957,26.918081603508305,105.0933736426886,563380651
fw,-76.5780029296875,-66.163818359375,16.317205687376067,93.31473505985267,563397318
fw,-76.2900085449218,-67.2713088989257,3.544032180635253,78.80628007963465,563413985
fw,-76.2826232910156,-67.7174911499023,-10.931746432013618,63.797607685420445,563430652
fw,-76.7571258544921,-68.8461074829101,-26.540068789412075,50.12586164193125,563447319
fw,-77.7246475219726,-70.2998352050781,-42.778233307933654,39.14709939028541,563463986
fw,-79.0559463500976,-71.0634231567382,-59.36511710599696,31.77664938224299,563480653
fw,-80.8274230957031,-71.1539764404296,-76.29922065356823,28.544630711360895,563497320
fw,-82.9534683227539,-71.3880996704101,-93.76320918423282,29.59099897729971,563513987
fw,-85.1904678344726,-71.9357299804687,-111.88330696132414,34.611923390815996,563530654
fw,-87.742935180664,-72.8235397338867,-130.429735583843,42.832341056446815,563547321
fw,-87.6213455200195,-73.9433135986328,-148.59120319037876,53.074077133432624,563563988
fw,-84.395278930664,-75.2253036499023,-164.94064489299572,63.93377469606666,563580655
fw,-81.1669158935546,-76.526123046875,-177.6381969412038,74.0269332281385,563597322
fw,-78.2245864868164,-77.9921646118164,-184.83209537228632,82.22578987112576,563613989
fw,-75.0250396728515,-79.6156997680664,-185.15434623348375,87.82488525993679,563630656
fw,-71.2207565307617,-81.1907501220703,-178.16989429134946,90.5967949077227,563647323
fw,-67.7136688232421,-82.5794982910156,-164.62244849091508,90.73703668759464,563663990
fw,-65.0765762329101,-83.9047164916992,-146.34911189021253,88.7313718264102,563680657
fw,-62.987621307373,-85.2800064086914,-125.83638075836828,85.20008570654059,563697324
fw,-61.2571258544921,-86.7770614624023,-105.53765143512459,80.77080816743204,563713991
fw,-59.7556266784668,-88.1375427246093,-87.18608408494079,76.00402286598278,563730658
fw,-58.4118614196777,-89.1937637329101,-71.34706327957981,71.36267179856371,563747325
fw,-57.3060798645019,-89.1551208496093,-57.362223378117314,67.20183553510317,563763992
fw,-56.4840812683105,-87.9998321533203,-43.697687052396056,63.760571773791106,563780659
fw,-55.8965759277343,-86.8963165283203,-28.581300912143895,61.152043283222994,563797326
fw,-55.4769706726074,-85.9680862426757,-10.729699899584654,59.35823775002395,563813993
fw,-55.429344177246,-85.0672760009765,10.063280714613791,58.23986748487094,563830660
fw,-55.7102012634277,-84.0630722045898,32.67580079085562,57.56920549873194,563847327
fw,-56.6769866943359,-82.9626312255859,54.85221961911435,57.08074833417123,563863994
fw,-59.2586822509765,-81.8680725097656,73.80485462037265,56.51677805736373,563880661
fw,-61.4204978942871,-80.8147048950195,87.0281905023562,55.636879868874246,563897328
fw,-63.6038818359375,-79.9749908447265,93.03509488531202,54.1735568565589,563913995
fw,-65.6603317260742,-79.2753448486328,91.75533251627819,51.746271649318494,563930662
fw,-67.8168487548828,-78.446174621582,84.48108187534311,47.77576528819166,563947329
fw,-69.2345123291015,-77.7098922729492,73.41913987196192,41.4502702167954,563963996
fw,-69.2176055908203,-77.1605148315429,61.038571995412454,31.77960964986202,563980663
fw,-69.282470703125,-76.8954544067382,49.45598731355404,17.744386215564873,563997330
fw,-70.4037170410156,-77.0603637695312,40.06648293964968,-1.477517312310447,564013997
fw,-72.0530319213867,-77.524658203125,33.50398569764786,-26.241369343971314,564030664
fw,-72.8662109375,-78.209487915039,29.849197818100066,-56.173508765987414,564047331
fw,-73.3331298828125,-79.2062377929687,28.89893476217843,-89.9893306016538,564063998
fw,-74.094497680664,-80.8028564453125,30.33563713429131,-125.48020983718409,564080665
fw,-75.290542602539,-83.196174621582,33.75157233450886,-159.74252991507944,564097332
fw,-76.8662948608398,-86.2488174438476,38.58916581731278,-189.65565385829973,564113999
fw,-78.3315734863281,-88.0940246582031,44.09626257056185,-212.5120229197212,564130666
fw,-79.7730712890625,-84.250862121582,49.36871320642662,-226.6093743267584,564147333
fw,-81.4233016967773,-79.8829269409179,53.4952691585459,-231.59141778615393,564164000
fw,-83.0466766357421,-76.6421432495117,55.76166815388648,-228.40316951130347,564180667
fw,-84.4717483520507,-73.9525070190429,55.83538319491738,-218.8863177728859,564197334
fw,-85.7781295776367,-70.990249633789,53.853619808168474,-205.19317368366762,564214001
fw,-86.8986511230468,-67.4559020996093,50.37457357928103,-189.2496770003525,564230668
fw,-87.9910430908203,-64.3532028198242,46.209581301395616,-172.42234762453225,564247335
fw,-88.938720703125,-61.8097305297851,42.203385434386036,-155.41117421860204,564264002
fw,-89.3064880371093,-59.4611549377441,39.04403277910099,-138.30028181529502,564280669
fw,-88.485610961914,-57.4303131103515,37.15522847505902,-120.68979345400757,564297336
fw,-87.6321411132812,-55.9232749938964,36.67367226549685,-101.87028250892196,564314003
fw,-86.7915496826171,-54.7191886901855,37.47849776756008,-81.0355850741495,564330670
fw,-85.9196166992187,-53.9691429138183,39.23982390055342,-57.53854198867109,564347337
fw,-85.0409774780273,-53.4464645385742,41.47592860965513,-31.176858637521935,564364004
fw,-84.0496520996093,-53.1342506408691,43.62493217451477,-2.459464477224776,564380671
fw,-83.0095062255859,-53.1887092590332,45.13230695944247,27.23632184748017,564397338
fw,-81.911506652832,-53.3805313110351,45.538340565764834,55.72234431352187,564414005
fw,-80.789321899414,-54.9640045166015,44.53740127955247,80.3401091014874,564430672
fw,-79.7514038085937,-57.2259979248046,41.984718496286725,98.55216299002146,564447339
fw,-78.9365844726562,-60.3902931213378,37.8468990382448,108.62086037569543,564464006
fw,-78.36962890625,-62.6266822814941,32.121354288018786,110.12394921781993,564480673
fw,-77.7975692749023,-64.2339782714843,24.77168568020827,104.08826788204277,564497340
fw,-77.278205871582,-65.4673080444336,15.722655200634728,92.67877333587514,564514007
fw,-76.88427734375,-66.4130554199218,4.923201459420925,78.57536647611056,564530674
fw,-76.6732940673828,-66.6881332397461,-7.562698644421675,64.29327912898208,564547341
fw,-76.8462295532226,-67.2561416625976,-21.50522065662411,51.698696971032,564564008
fw,-77.4751434326171,-68.3492889404296,-36.54854393287271,41.85796149084058,564580675
fw,-78.6345672607421,-70.08837890625,-52.33572670824841,35.19472015328636,564597342
fw,-80.2302856445312,-70.8477706909179,-68.65084800667609,31.791191386086382,564614009
fw,-82.2314834594726,-70.9739379882812,-85.48232914748812,31.63112517879608,564630676
fw,-84.5003585815429,-71.2204284667968,-102.93911696461278,34.66358792783819,564647343
fw,-87.0715637207031,-71.8682861328125,-121.02543220311429,40.70357134658196,564664010
fw,-88.4971466064453,-72.9952316284179,-139.3607385509715,49.279385098188875,564680677
fw,-85.5022506713867,-74.0676803588867,-156.97334670601242,59.54381195097297,564697344
fw,-82.2346420288086,-75.1487274169921,-172.2775280995959,70.31512117490843,564714011
fw,-79.2983093261718,-76.670166015625,-183.28267120610374,80.25217447090353,564730678
fw,-76.4702911376953,-78.528335571289,-188.01208770936566,88.11612449862857,564747345
fw,-73.0469512939453,-80.259895324707,-185.04320004208208,93.03490001447585,564764012
fw,-69.0092315673828,-81.9485321044921,-174.01759937867908,94.67848733481215,564780679
fw,-65.7935562133789,-83.3523864746093,-155.92730758306294,93.28549083293198,564797346
fw,-63.5223236083984,-84.6924896240234,-133.01390616483496,89.54319884957384,564814013
fw,-61.8168601989746,-86.1881332397461,-108.24969416285093,84.37924057361396,564830680
fw,-60.4156455993652,-87.6707305908203,-84.55195090235476,78.74181241228291,564847347
fw,-59.3361434936523,-88.8980178833007,-64.0049220177664,73.42536693802897,564864014
fw,-58.3688430786132,-89.6357727050781,-47.361145045062585,68.9645896140644,564880681
fw,-57.6280212402343,-88.8791809082031,-33.98219994070885,65.59691784302085,564897348
fw,-57.2624778747558,-87.719985961914,-22.224249303192764,63.286050994691635,564914015
fw,-56.9778861999511,-86.5890655517578,-10.134072595485915,61.79348732247714,564930682
fw,-56.8138008117675,-85.5612487792968,3.770624064475216,60.77657492603034,564947349
fw,-56.8985176086425,-84.5427474975586,19.89188560678443,59.88634744011492,564964016
fw,-57.3103561401367,-83.4722595214843,37.32494971863636,58.841058947670064,564980683
fw,-58.9463577270507,-82.3600769042968,54.10688328416323,57.45785346577986,564997350
fw,-61.3501205444335,-81.299087524414,67.86014671967312,55.63188350998068,565014017
fw,-63.2521018981933,-80.4180526733398,76.59017222022568,53.26296990243195,565030684
fw,-65.4284286499023,-79.7223587036132,79.33269993689545,50.14838989217148,565047351
fw,-67.1327819824218,-79.0020523071289,76.42079212820896,45.88070361387779,565064018
fw,-68.898696899414,-78.2792129516601,69.30897153732266,39.797471036910146,565080685
fw,-69.2701950073242,-77.6781311035156,60.064649703840665,31.016383894609948,565097352
fw,-69.1225280761718,-77.3350830078125,50.74870557795811,18.562048312146022,565114019
fw,-69.8311386108398,-77.4444046020507,42.92655940147111,1.5665647948488415,565130686
fw,-71.403823852539,-77.9085311889648,37.46736763680368,-20.485712952449745,565147353
fw,-72.7805480957031,-78.58642578125,34.630824962469475,-47.5060698855037,565164020
fw,-73.5332641601562,-79.5185928344726,34.297499271236475,-78.59510075056394,565180687
fw,-74.0875167846679,-80.7714004516601,36.164203009711315,-111.95969658270539,565197354
fw,-74.9281005859375,-82.6983337402343,39.810375095602915,-145.03913445624698,565214021
fw,-76.179946899414,-85.5186538696289,44.66296375344034,-174.88618172724753,565230688
fw,-77.7542495727539,-88.7628326416015,49.957384744002034,-198.75218536451692,565247355
fw,-79.4035949707031,-85.4811782836914,54.78249424371014,-214.70749047678464,565264022
fw,-80.8678283691406,-80.9780578613281,58.235055983641004,-222.06363503519287,565280689
fw,-82.4498901367187,-77.7770004272461,59.64035083165015,-221.41669455687833,565297356
fw,-84.1860122680664,-75.5046005249023,58.75542157209942,-214.29935430736137,565314023
fw,-85.5857238769531,-73.0087966918945,55.868966291364536,-202.61985015824078,565330690
fw,-86.578010559082,-69.346694946289,51.74187279425228,-188.14930336925894,565347357
fw,-87.4067840576171,-65.7703475952148,47.39017431268228,-172.23579751558677,565364024
fw,-88.2190780639648,-63.0374679565429,43.781846398888426,-155.748087929592,565380691
fw,-89.0420303344726,-60.9357261657714,41.562804997195094,-139.12917596357013,565397358
fw,-89.4108276367187,-59.1049690246582,40.91317318688848,-122.44794528940622,565414025
fw,-88.5069503784179,-57.3891220092773,41.569271051184934,-105.42663661546992,565430692
fw,-87.5170669555664,-56.0823974609375,42.97280568827912,-87.49432873698201,565447359
fw,-86.5057067871093,-55.0430488586425,44.46905072499886,-67.92437110980993,565464026
fw,-85.4659881591796,-54.3786926269531,45.48187914639923,-46.07425432038929,565480693
fw,-84.4918899536132,-53.8600616455078,45.625719069364905,-21.693042868085172,565497360
fw,-83.5679702758789,-53.6140747070312,44.74641123237184,4.786633505447492,565514027
fw,-82.5938415527343,-53.6359138488769,42.901749952960216,32.08557311685574,565530694
fw,-81.6448974609375,-53.9680213928222,40.29901587721626,58.15267394957475,565547361
fw,-80.6849746704101,-55.6777648925781,37.2063479909018,80.52741783438651,565564028
fw,-79.7793655395507,-58.0125007629394,33.85296531672869,96.92896957118997,565580695
fw,-79.0802154541015,-60.9254035949707,30.334949912067632,105.88741711073017,565597362
fw,-78.5274200439453,-62.9323654174804,26.549506326236003,107.17268426468485,565614029
fw,-78.0001907348632,-64.4213104248046,22.184879162027784,101.83908909566837,565630696
fw,-77.4560394287109,-65.4672546386718,16.783963060820653,91.87085003116545,565647363
fw,-77.0438690185546,-66.5834655761718,9.87173718990651,79.59051548174052,565664030
fw,-76.7916641235351,-67.2057800292968,1.1015660916585697,67.07771789345578,565680697
fw,-76.7780609130859,-67.7198791503906,-9.64317929058322,55.80829799368982,565697364
fw,-77.1715393066406,-68.8852615356445,-22.240749925407123,46.60248367891617,565714031
fw,-77.9906997680664,-70.7475204467773,-36.419485096314276,39.82546773336663,565730698
fw,-79.2189636230468,-71.7850341796875,-51.89389584558261,35.67189855972436,565747365
fw,-80.8941421508789,-71.7918548583984,-68.46663285539022,34.344359403927065,565764032
fw,-82.9219131469726,-71.8743209838867,-86.02290729254531,36.02779650868353,565780699
fw,-85.1216278076171,-72.573127746582,-104.39575305528305,40.70887313823278,565797366
fw,-87.7571105957031,-73.6423797607421,-123.15443216974413,47.98466615060878,565814033
fw,-87.7851257324218,-74.6653213500976,-141.4232161807848,56.99367391302862,565830700
fw,-84.5852813720703,-75.881591796875,-157.83813464842984,66.52013521307386,565847367
fw,-81.3547973632812,-77.3517150878906,-170.69561200846772,75.23802029675845,565864034
fw,-78.5030975341796,-78.9471130371093,-178.2747412118701,82.00932937007002,565880701
fw,-75.4927368164062,-80.5624084472656,-179.25768592265914,86.13618220493011,565897368
fw,-71.9519729614257,-82.0773468017578,-173.13503203450207,87.48494488896623,565914035
fw,-68.48388671875,-83.3943176269531,-160.4594884963745,86.44812105106865,565930702
fw,-65.7106246948242,-84.6850357055664,-142.82127944841983,83.769381380094,565947369
fw,-63.6233024597168,-85.993911743164,-122.49475099521503,80.30299398309968,565964036
fw,-61.8872947692871,-87.3912048339843,-101.8391771302987,76.79010627576446,565980703
fw,-60.4211044311523,-88.6578292846679,-82.65636072370206,73.70997855484062,565997370
fw,-59.1874198913574,-89.5335388183593,-65.73772446777431,71.22531221860902,566014037
fw,-58.0935325622558,-88.9961395263671,-50.760231476922975,69.21210684471671,566030704
fw,-57.3565673828125,-87.8909530639648,-36.5602763463205,67.35340383424757,566047371
fw,-56.7871856689453,-86.6739807128906,-21.687027358293008,65.27199369446377,566064038
fw,-56.4231605529785,-85.4738159179687,-5.050425919026489,62.66972345114216,566080705
fw,-56.4419364929199,-84.3932495117187,13.549463421073076,59.43445070305138,566097372
fw,-56.8442878723144,-83.4319534301757,33.191885532499924,55.68070532187917,566114039
fw,-57.9269981384277,-82.5696716308593,51.99347944890338,51.70989732022207,566130706
fw,-59.9915466308593,-81.7683486938476,67.61658654299202,47.90202781020702,566147373
fw,-61.8473587036132,-81.0208663940429,77.96338586163262,44.57103691642501,566164040
fw,-63.9346084594726,-80.332649230957,81.82117765797906,41.82314414536661,566180707
fw,-66.0753707885742,-79.6282424926757,79.24386074742121,39.452371711374155,566197374
fw,-68.1738662719726,-78.9117050170898,71.55094821720819,36.89469550564521,566214041
fw,-69.7567443847656,-78.3391418457031,60.9530288936873,33.248044686381625,566230708
fw,-69.5531921386718,-77.8784866333007,49.93393267090203,27.355821378151525,566247375
fw,-69.139289855957,-77.6552047729492,40.6079494600723,17.949835888012238,566264042
fw,-69.9397277832031,-77.7473754882812,34.284317412406814,3.8506909712325923,566280709
fw,-71.6934127807617,-78.0979385375976,31.37469722857222,-15.780083617120809,566297376
fw,-73.0467376708984,-78.6328430175781,31.604317936124716,-41.16045890105322,566314043
fw,-73.6805038452148,-79.4360809326171,34.34508761768361,-71.63869531437176,566330710
fw,-74.2404251098632,-80.6608352661132,38.87703889803003,-105.56572419461021,566347377
fw,-75.1989212036132,-82.5629959106445,44.490542245784425,-140.38646880091034,566364044
fw,-76.6322479248046,-85.3136215209961,50.46605155715663,-173.001986852263,566380711
fw,-78.3363418579101,-88.7992706298828,56.02914691788969,-200.35681439228324,566397378
fw,-79.930061340332,-85.9695434570312,60.3665467116453,-220.09147126344575,566414045
fw,-81.3736572265625,-81.0754241943359,62.73610140336866,-231.03150936675513,566430712
fw,-83.1192626953125,-77.4115295410156,62.64407837601156,-233.32076709790317,566447379
fw,-84.7210311889648,-74.9970321655273,60.0185267205254,-228.15659980112363,566464046
fw,-85.9545593261718,-72.4741439819336,55.29344026171682,-217.2762218199646,566480713
fw,-86.8938598632812,-68.6144104003906,49.34533888829919,-202.44962705574926,566497380
fw,-87.7086868286132,-64.7779693603515,43.28637085740415,-185.17439737050037,566514047
fw,-88.4387817382812,-61.8370704650878,38.18439880298586,-166.59335728549047,566530714
fw,-88.9943923950195,-59.3982887268066,34.810471115884745,-147.51586018163127,566547381
fw,-88.8919982910156,-57.3678741455078,33.492408701472776,-128.4166517511527,566564048
fw,-88.1223678588867,-55.7629013061523,34.10021353972365,-109.3798119528258,566580715
fw,-87.2085266113281,-54.4887924194335,36.139398396729455,-90.04993598721964,566597382
fw,-86.2351684570312,-53.6634902954101,38.904540856350614,-69.68590638076884,566614049
fw,-85.1738739013671,-52.9720115661621,41.64661725320299,-47.38127665640352,566630716
fw,-84.1231384277343,-52.3992614746093,43.7190781866561,-22.442307674430552,566647383
fw,-83.1104965209961,-52.2375564575195,44.677742667301075,5.17172429426687,566664050
fw,-82.1369018554687,-52.247573852539,44.318903568865665,34.507587797338005,566680717
fw,-81.1917877197265,-52.2788200378418,42.653293398291694,63.54942409702355,566697384
fw,-80.1813201904296,-54.403938293457,39.82906956299688,89.52761993286664,566714051
fw,-79.2718734741211,-57.2988395690918,36.028166268477435,109.56680315991177,566730718
fw,-78.5850448608398,-60.4439430236816,31.364820163357066,121.46673074301796,566747385
fw,-78.0032501220703,-62.5993385314941,25.81559510328075,124.31768752996555,566764052
fw,-77.473159790039,-64.4155044555664,19.20629546866325,118.71384948772724,566780719
fw,-77.0181274414062,-65.7048110961914,11.266410100491953,106.51624644164787,566797386
fw,-76.7743377685546,-67.0991744995117,1.7347075490851243,90.31062789665485,566814053
fw,-76.6911010742187,-67.8311309814453,-9.527570545339843,72.79651461510377,566830720
fw,-76.8759002685546,-68.4962081909179,-22.468707630335643,56.31251172707059,566847387
fw,-77.4997177124023,-69.659912109375,-36.85825046268254,42.59819691026297,566864054
fw,-78.5870971679687,-71.0433044433593,-52.3727443860259,32.77323411615948,566880721
fw,-80.0169982910156,-71.4058074951171,-68.70610813416238,27.428265229158583,566897388
fw,-81.8733901977539,-71.3711776733398,-85.63376602233086,26.709721838045787,566914055
fw,-84.063606262207,-71.7333145141601,-102.97826576305575,30.345944532713762,566930722
fw,-86.7833175659179,-72.5701904296875,-120.47779377392877,37.64823525032983,566947389
fw,-89.7006454467773,-73.6416015625,-137.6175962811568,47.5557577215399,566964056
fw,-86.0379562377929,-74.7187881469726,-153.5116355163958,58.76254419225677,566980723
fw,-82.3482971191406,-75.9917602539062,-166.90402861167905,69.91140533162182,566997390
fw,-79.1177673339843,-77.5937881469726,-176.31596887592167,79.80475086432614,567014057
fw,-76.0361022949218,-79.2591323852539,-180.32184871572693,87.57446339521844,567030724
fw,-72.6646041870117,-80.6582260131836,-177.90314769212446,92.76596519124253,567047391
fw,-68.9003295898437,-82.0920486450195,-168.78810731393315,95.3221489688747,567064058
fw,-65.5373077392578,-83.6264953613281,-153.64863133927156,95.49097571443085,567080725
fw,-63.0277214050293,-85.2527389526367,-134.036088326471,93.70469402270105,567097392
fw,-61.1337394714355,-86.9682312011718,-112.02554780466937,90.47396742825157,567114059
fw,-59.5813179016113,-88.4818649291992,-89.6709615134686,86.31481538156768,567130726
fw,-58.2263717651367,-89.0320663452148,-68.47054875747364,81.70235220169204,567147393
fw,-57.1126632690429,-88.3489837646484,-49.04214464864989,77.03835515904818,567164060
fw,-56.3654899597168,-87.3089218139648,-31.120066996353128,72.62770054998845,567180727
fw,-55.9989547729492,-86.2385940551757,-13.863220451536623,68.66788541231217,567197394
fw,-55.9144287109375,-85.2245101928711,3.6385703584431517,65.25630018076389,567214061
fw,-56.0333137512207,-84.2064437866211,21.833181974416313,62.41381712338753,567230728
fw,-56.2542114257812,-83.1141891479492,40.337042827365885,60.116575409218676,567247395
fw,-57.3405799865722,-81.9673767089843,57.87766449152087,58.321551544592104,567264062
fw,-59.3737678527832,-80.8929290771484,72.59835071336941,56.96644434769466,567280729
fw,-61.4511566162109,-79.9358901977539,82.63288733615836,55.9273884322434,567297396
fw,-63.7430000305175,-79.056396484375,86.73582211450463,54.935141017459244,567314063
fw,-66.0199432373046,-78.3079299926757,84.72497411352968,53.476612177057845,567330730
fw,-67.9817581176757,-77.5512237548828,77.57371430773743,50.728761582994,567347397
fw,-69.4187316894531,-76.7768783569336,67.13358699869978,45.572043535796894,567364064
fw,-69.6127014160156,-76.0737152099609,55.6083794294293,36.70812998933935,567380731
fw,-69.762092590332,-75.5554885864257,44.988751192232144,22.87228269335613,567397398
fw,-70.8058471679687,-75.5336608886718,36.656254849091134,3.1019339317030568,567414065
fw,-72.3917999267578,-76.1175155639648,31.26735840684931,-22.988324737304655,567430732
fw,-73.3079376220703,-77.0256958007812,28.8782024821441,-54.97259362127486,567447399
fw,-73.8024520874023,-78.2075424194336,29.164033689447383,-91.46675842506718,567464066
fw,-74.5697402954101,-79.8471374511718,31.592476088168528,-130.12481410732104,567480733
fw,-75.8316802978515,-82.2715301513671,35.502572938433346,-167.8387403049832,567497400
fw,-77.4114761352539,-85.6190338134765,40.13329148457115,-201.1700570029166,567514067
fw,-78.9553451538086,-89.7126541137695,44.672436288016655,-226.95950894924647,567530734
fw,-80.3916244506836,-84.8106155395507,48.36248768848256,-242.9612889046727,567547401
fw,-81.9748382568359,-80.1908111572265,50.64500011939183,-248.29482908014703,567564068
fw,-83.5353469848632,-76.9412612915039,51.287795515404774,-243.5548661481466,567580735
fw,-84.9680633544921,-74.0372085571289,50.43478994303675,-230.56022248864983,567597402
fw,-86.1219711303711,-70.2744979858398,48.5449970820035,-211.8676874114031,567614069
fw,-87.1672439575195,-67.0227127075195,46.23539987462404,-190.23089187808702,567630736
fw,-88.2224960327148,-64.0730667114257,44.0907952255315,-168.12921062929323,567647403
fw,-89.3297271728515,-61.8116149902343,42.520273518265604,-147.407115239578,567664070
fw,-89.4960403442382,-59.7990989685058,41.707829350971046,-129.02874491444697,567680737
fw,-88.3861465454101,-57.9132690429687,41.64601873214997,-112.967470808673,567697404
fw,-87.3942108154296,-56.5243797302246,42.20152144992135,-98.26770005564147,567714071
fw,-86.4503936767578,-55.3422393798828,43.16571971917422,-83.30429482281959,567730738
fw,-85.5196990966796,-54.4825439453125,44.27835511584987,-66.22606358986489,567747405
fw,-84.5329132080078,-53.6243476867675,45.243366022303334,-45.51692376779099,567764072
fw,-83.5134201049804,-52.9341316223144,45.75998225738779,-20.55268560285587,567780739
fw,-82.488410949707,-52.6172828674316,45.57247824598524,8.008827198888813,567797406
fw,-81.4601287841796,-52.7977676391601,44.51888167002597,38.16209646404103,567814073
fw,-80.4839477539062,-54.1546020507812,42.550373942446306,66.89723405142519,567830740
fw,-79.6167602539062,-56.2467956542968,39.70397203331714,90.9009569420298,567847407
fw,-78.8627548217773,-59.3040199279785,36.034342128540715,107.41326881614735,567864074
fw,-78.2488174438476,-61.8774299621582,31.533736952254905,114.94899135616276,567880741
fw,-77.6649017333984,-63.5265502929687,26.079666060192093,113.62932634279981,567897408
fw,-77.1400451660156,-64.7310562133789,19.440608598813718,105.02888000003112,567914075
fw,-76.6961135864257,-66.2190017700195,11.342971547660278,91.6452438483725,567930742
fw,-76.3812713623046,-67.2235870361328,1.570148458454625,76.22819584266401,567947409
fw,-76.3084030151367,-67.6962051391601,-9.955546701213095,61.20857276467033,567964076
fw,-76.5753402709961,-68.6398086547851,-23.15204295120898,48.37422446483578,567980743
fw,-77.3269119262695,-70.078254699707,-37.829969609828105,38.81540329271619,567997410
fw,-78.5434112548828,-70.9853515625,-53.785539369007196,33.052677328985304,568014077
fw,-80.1846466064453,-71.1905136108398,-70.86692951819359,31.20777260869651,568030744
fw,-82.3016052246093,-71.4219894409179,-88.94857153989958,33.10922154618473,568047411
fw,-84.5860824584961,-72.0603332519531,-107.79295810721332,38.314466752035855,568064078
fw,-87.237922668457,-73.0253982543945,-126.84994043447858,46.10500193672106,568080745
fw,-87.954360961914,-74.2192993164062,-145.0983858430576,55.520895170445144,568097412
fw,-85.0247192382812,-75.435302734375,-161.03748793561078,65.46022719975922,568114079
fw,-81.8859634399414,-76.6626968383789,-172.8814015366544,74.82431854975646,568130746
fw,-79.0064620971679,-78.1924743652343,-178.93325542028026,82.6692890845294,568147413
fw,-75.8245010375976,-79.7654571533203,-178.04761468264226,88.32629984297887,568164080
fw,-72.1321563720703,-81.3984832763671,-170.0444725181829,91.46443418893173,568180747
fw,-68.7482147216796,-82.8423690795898,-155.9162436762249,92.0866068646502,568197414
fw,-66.2687377929687,-84.2273559570312,-137.698396544872,90.46970617970948,568214081
fw,-64.2992782592773,-85.6432418823242,-117.98206878555567,87.07799706165684,568230748
fw,-62.6627044677734,-87.0957336425781,-99.20364950470915,82.48063464032177,568247415
fw,-61.1991462707519,-88.4996261596679,-82.96164179298083,77.28671987829573,568264082
fw,-59.8175811767578,-89.2861862182617,-69.61088676826365,72.08963489415346,568280749
fw,-58.6160774230957,-88.6488189697265,-58.27361157726538,67.40670911681013,568297416
fw,-57.725284576416,-87.6247177124023,-47.252285297056254,63.615055018424094,568314083
fw,-57.1077194213867,-86.5214309692382,-34.69951169961997,60.903486338634174,568330750
fw,-56.6676483154296,-85.3926620483398,-19.33004956819676,59.263563106551004,568347417
fw,-56.5766258239746,-84.3131484985351,-0.9532183917754872,58.525140839931275,568364084
fw,-56.7838668823242,-83.2588424682617,19.346864980322138,58.416886953095116,568380751
fw,-57.6705741882324,-82.2223663330078,39.456131193719564,58.61834800227138,568397418
fw,-60.099983215332,-81.2010498046875,56.83480625464925,58.77554365231908,568414085
fw,-62.0385055541992,-80.2037506103515,69.27597677048573,58.47211998289773,568430752
fw,-63.9564933776855,-79.3279418945312,75.54212336630837,57.17239202464363,568447419
fw,-65.8159255981445,-78.5228195190429,75.65509047540503,54.17123765478798,568464086
fw,-67.2684783935546,-77.7002487182617,70.76858722344419,48.590831619572185,568480753
fw,-68.4102706909179,-76.9371032714843,62.71924061196924,39.45117844822682,568497420
fw,-68.61181640625,-76.3773956298828,53.455824517719485,25.814361970613945,568514087
fw,-68.9772109985351,-76.2566299438476,44.56440578111167,6.975669254572411,568530754
fw,-70.4382019042968,-76.6520309448242,37.0454807203605,-17.33681495215795,568547421
fw,-72.1947174072265,-77.3917694091796,31.372952972089895,-46.787938376951594,568564088
fw,-73.0919418334961,-78.4977188110351,27.72294309076787,-80.31450499844482,568580755
fw,-73.3879852294921,-80.0659561157226,26.18747355296617,-116.09239692878407,568597422
fw,-73.979751586914,-82.0932388305664,26.83734251683386,-151.63955969785732,568614089
fw,-74.9656295776367,-84.7708587646484,29.628141064437077,-184.09564239206966,568630756
fw,-76.3677444458007,-88.0237503051757,34.25189368711078,-210.66963346676178,568647423
fw,-77.8581619262695,-86.0086975097656,40.05887263196008,-229.16234237289825,568664090
fw,-79.3087997436523,-81.296630859375,46.12003620654534,-238.3977260692824,568680757
fw,-80.9817123413086,-77.4800109863281,51.419792239650874,-238.39872501366975,568697424
fw,-82.6566619873046,-74.7979660034179,55.10543508573737,-230.2456212507488,568714091
fw,-84.1295776367187,-71.8620681762695,56.69650667046889,-215.705302499636,568730758
fw,-85.3399505615234,-68.0993957519531,56.178663898603844,-196.81158373612897,568747425
fw,-86.5182266235351,-64.8095550537109,53.96004733681446,-175.54211059627895,568764092
fw,-87.7048416137695,-62.1576652526855,50.72513783963436,-153.61952273226822,568780759
fw,-88.8189849853515,-60.0320281982421,47.25053216759578,-132.37565600429593,568797426
fw,-89.8368682861328,-58.1340751647949,44.239080541503085,-112.6220078424595,568814093
fw,-89.0848617553711,-56.7938652038574,42.20089539384705,-94.53461949420247,568830760
fw,-88.100715637207,-55.8779335021972,41.38665922609972,-77.61771225458703,568847427
fw,-87.129768371582,-55.0585784912109,41.770903594529635,-60.82021398553874,568864094
fw,-86.1414642333984,-54.4211769104003,43.083514503249496,-42.84073317090995,568880761
fw,-85.1442108154296,-53.7951164245605,44.884398218686215,-22.583383098332938,568897428
fw,-84.150650024414,-53.4248123168945,46.6653441614258,0.3544333582713336,568914095
fw,-83.1329345703125,-53.2623443603515,47.95247735944788,25.33337287142594,568930762
fw,-82.0992279052734,-53.7182350158691,48.38166414697779,50.62349829084132,568947429
fw,-80.9715881347656,-55.3639450073242,47.72847459741578,73.73100727671834,568964096
fw,-79.8512115478515,-57.3443069458007,45.88769984547995,92.03442876587337,568980763
fw,-78.9543228149414,-60.5751876831054,42.81156991394736,103.52272589019077,568997430
fw,-78.2480316162109,-62.6292419433593,38.43177590178694,107.36060676302687,569014097
fw,-77.6203231811523,-64.1000671386718,32.60418813286328,104.06630884639759,569030764
fw,-77.0199203491211,-65.1361999511718,25.113106512112818,95.258556684098,569047431
fw,-76.5151977539062,-66.3758926391601,15.744007623115378,83.11965327053774,569064098
fw,-76.1671600341796,-67.0882263183593,4.39123793664883,69.82080500476913,569080765
fw,-76.1186828613281,-67.8272628784179,-8.861082628241933,57.12233709044519,569097432
fw,-76.4901046752929,-68.9791641235351,-23.737342690794755,46.24011257543126,569114099
fw,-77.337532043457,-70.4833221435546,-39.855365281512036,37.93379824684046,569130766
fw,-78.5714035034179,-71.1297225952148,-56.85082714223031,32.68122888864509,569147433
fw,-80.325942993164,-71.1815795898437,-74.46263061848241,30.7947674526095,569164100
fw,-82.4557723999023,-71.4119415283203,-92.51304883078707,32.411903669931505,569180767
fw,-84.6483001708984,-72.1017913818359,-110.77004285073488,37.39767092277049,569197434
fw,-86.9468765258789,-73.2035064697265,-128.74876747186946,45.25424749030002,569214101
fw,-87.6042861938476,-74.3603973388671,-145.5568459918077,55.11525746007956,569230768
fw,-85.1534576416015,-75.4795837402343,-159.88312958846288,65.8442158388336,569247435
fw,-82.2583084106445,-76.8368377685546,-170.1739277158724,76.20742014829878,569264102
fw,-79.5043334960937,-78.4624404907226,-174.9681340310264,85.0705560046853,569280769
fw,-76.5084152221679,-80.0121154785156,-173.3064660937887,91.56823199542391,569297436
fw,-72.9944839477539,-81.6023483276367,-165.0955058376766,95.20814211225121,569314103
fw,-69.6722793579101,-83.0691299438476,-151.2905950831309,95.89475592398037,569330770
fw,-67.2513732910156,-84.6121749877929,-133.7837484534949,93.88532289220254,569347437
fw,-65.2476806640625,-86.2811126708984,-114.97242996660405,89.70863391361264,569364104
fw,-63.4615097045898,-87.8998794555664,-97.12174939866595,84.07304523154406,569380771
fw,-61.9036712646484,-89.184829711914,-81.7376038630567,77.77110507324237,569397438
fw,-60.5182151794433,-89.2878341674804,-69.17387541075588,71.57478760721905,569414105
fw,-59.309471130371,-88.4826431274414,-58.6065755072838,66.12284685282334,569430772
fw,-58.4075012207031,-87.5565567016601,-48.3786305225906,61.822480320072025,569447439
fw,-57.8163146972656,-86.5502624511718,-36.60628089361281,58.79902228578721,569464106
fw,-57.3330459594726,-85.467414855957,-21.868327268062686,56.91610274037017,569480773
fw,-57.1679191589355,-84.3647308349609,-3.776332712073906,55.86068712956829,569497440
fw,-57.1605834960937,-83.3218002319336,16.754315006230136,55.2597092523897,569514107
fw,-57.8160896301269,-82.3433227539062,37.64201735206021,54.782088859331694,569530774
fw,-60.0622940063476,-81.3370590209961,56.173833829862076,54.18654811957238,569547441
fw,-62.0551109313964,-80.3521881103515,69.78004009437451,53.296848666315704,569564108
fw,-64.0714797973632,-79.5172576904296,76.78448947552793,51.912758270271006,569580775
fw,-66.3006439208984,-78.8148803710937,76.8679961191209,49.68976905827654,569597442
fw,-68.2570037841796,-78.0673828125,71.09639633018037,46.03702978969758,569614109
fw,-69.3949356079101,-77.3858871459961,61.531118631450276,40.083796720990875,569630776
fw,-69.0366668701171,-76.8371124267578,50.58841335289231,30.746776789854465,569647443
fw,-68.8972091674804,-76.5490646362304,40.39808725139701,16.90171111276985,569664110
fw,-69.8328475952148,-76.7332077026367,32.39694022014089,-2.36397624008017,569680777
fw,-71.5765686035156,-77.2173080444336,27.263579753250355,-27.458370028118285,569697444
fw,-72.5955047607421,-77.9121856689453,25.118662066099574,-58.00782901832503,569714111
fw,-73.0888442993164,-78.9683685302734,25.79450320396136,-92.66976413032829,569730778
fw,-73.8497543334961,-80.6303405761718,28.99751063764285,-129.12349692561273,569747445
fw,-74.8927154541015,-83.1496276855468,34.3108159396728,-164.31027790369814,569764112
fw,-76.3382873535156,-86.4252166748046,41.108365472227774,-194.9268415168512,569780779
fw,-77.8415298461914,-88.4265365600586,48.500061249512946,-218.07407426776308,569797446
fw,-79.3389358520507,-84.1389694213867,55.39462070161105,-231.87214218121426,569814113
fw,-80.9794921875,-79.9607162475586,60.69107158882561,-235.83386160889907,569830780
fw,-82.7315902709961,-76.5918960571289,63.53753514135016,-230.86784869406665,569847447
fw,-84.3834686279296,-73.7504577636718,63.55825121429724,-218.93085059777513,569864114
fw,-85.7731170654296,-70.4880599975586,60.95659029804267,-202.4815260970774,569880781
fw,-86.9518814086914,-67.3114852905273,56.44905467200843,-183.9286083247935,569897448
fw,-88.0285110473632,-64.3746337890625,51.05516674184342,-165.20749072413983,569914115
fw,-88.9961395263671,-62.0660133361816,45.82598431667893,-147.52572254136012,569930782
fw,-89.4411697387695,-59.900951385498,41.60688333603062,-131.26098201141969,569947449
fw,-88.7838897705078,-57.9994812011718,38.89616123462802,-115.99117856798993,569964116
fw,-87.9558944702148,-56.494457244873,37.81045290778928,-100.6528174310017,569980783
fw,-87.0488586425781,-55.2295989990234,38.13396672937467,-83.82721427780216,569997450
fw,-86.0989151000976,-54.3347206115722,39.41952735528801,-64.13572912257591,570014117
fw,-85.1398620605468,-53.579849243164,41.112162832677726,-40.69067651165565,570030784
fw,-84.1767501831054,-52.9938468933105,42.66824204131876,-13.507248914819977,570047451
fw,-83.2113800048828,-52.7816429138183,43.64538685881822,16.250206982050038,570064118
fw,-82.2281951904296,-53.0019836425781,43.74583692088173,46.3109569458558,570080785
fw,-81.2074432373046,-54.600975036621,42.80867372755605,73.69011659081204,570097452
fw,-80.2328567504882,-56.8526496887207,40.75986775626514,95.36897134936277,570114119
fw,-79.4837646484375,-59.7890243530273,37.54074210566374,109.06644883503539,570130786
fw,-78.8782577514648,-62.1559600830078,33.04468385563552,113.83286784131018,570147453
fw,-78.2775650024414,-63.8454933166503,27.094766785931984,110.2480448016922,570164120
fw,-77.7721786499023,-64.9049224853515,19.482921991955557,100.1680887283819,570180787
fw,-77.3597335815429,-66.2331161499023,10.062079738231033,86.15229763600709,570197454
fw,-77.1055526733398,-67.0866928100586,-1.150766810239253,70.81115631655624,570214121
fw,-77.1209335327148,-67.5276947021484,-13.918991575384135,56.30446923253919,570230788
fw,-77.4909515380859,-68.3508911132812,-27.82201249541428,44.116683385028075,570247455
fw,-78.2948455810546,-69.8292160034179,-42.38325791252868,35.10410118331806,570264122
fw,-79.5237350463867,-70.9321746826171,-57.239718997199596,29.69551334204506,570280789
fw,-81.1793823242187,-71.0218505859375,-72.26839695208209,28.079407049654474,570297456
fw,-83.2268524169921,-71.1130752563476,-87.59032756499619,30.25908996981092,570314123
fw,-85.487075805664,-71.4711990356445,-103.42147291694414,35.97427224565445,570330790
fw,-87.8648529052734,-72.336181640625,-119.81225768774934,44.588175713598346,570347457
fw,-87.2710800170898,-73.6681442260742,-136.3780900100057,55.05567421710973,570364124
fw,-84.2574462890625,-74.9040298461914,-152.13967512674802,66.02875343778368,570380791
fw,-81.2914657592773,-76.2190933227539,-165.5578313272967,76.07848067376693,570397458
fw,-78.5714035034179,-77.7986679077148,-174.78457313335022,83.96391314116535,570414125
fw,-75.8219604492187,-79.5332870483398,-178.087421007548,88.86660810814911,570430792
fw,-72.5673904418945,-81.2112350463867,-174.34699846639546,90.52274000215087,570447459
fw,-68.9485778808593,-82.6693115234375,-163.47953302832448,89.21551771881964,570464126
fw,-66.1610031127929,-83.8385925292968,-146.61621344555348,85.63608650399392,570480793
fw,-64.1132278442382,-85.136474609375,-125.92126550116107,80.66800633943264,570497460
fw,-62.4897575378418,-86.4762496948242,-104.06131686807355,75.17297739552292,570514127
fw,-61.1755676269531,-87.7244567871093,-83.49137531331363,69.8386839691992,570530794
fw,-60.0667724609375,-88.6527328491211,-65.80721850517129,65.10879017367715,570547461
fw,-59.0639038085937,-89.1658477783203,-51.38660616864308,61.182787904927764,570564128
fw,-58.3060684204101,-88.7274322509765,-39.429892216749046,58.06507323458587,570580795
fw,-57.8923912048339,-87.6661987304687,-28.373420704891917,55.644686740698425,570597462
fw,-57.5514678955078,-86.6497039794921,-16.53512551732535,53.78243873404466,570614129
fw,-57.3959732055664,-85.7665405273437,-2.7856026246529217,52.375447835749846,570630796
fw,-57.5211486816406,-84.9771881103515,12.972259730199566,51.37647670049066,570647463
fw,-57.9614906311035,-84.2051925659179,29.681940028710393,50.767376783549345,570664130
fw,-59.3809356689453,-83.3083343505859,45.42687034433455,50.50545792536185,570680797
fw,-61.5462760925293,-82.346450805664,58.04678862959294,50.4651385960066,570697464
fw,-63.3754005432128,-81.4337539672851,65.85258775664393,50.38786845672249,570714131
fw,-65.3423995971679,-80.6179504394531,68.16968796571362,49.84419364800122,570730798
fw,-66.7845764160156,-79.8260269165039,65.51392355006335,48.211726248726464,570747465
fw,-68.1824264526367,-79.0412368774414,59.36042198092421,44.678753062464246,570764132
fw,-68.7074432373046,-78.3757629394531,51.6257308554831,38.28664787713209,570780799
fw,-68.5041580200195,-77.9564590454101,44.08213873643944,28.02163856974595,570797466
fw,-68.898323059082,-77.8733520507812,37.93193530527963,12.960989111282046,570814133
fw,-70.2937545776367,-78.124397277832,33.68445796049719,-7.528405963826734,570830800
fw,-71.8935623168945,-78.6052322387695,31.327380809240438,-33.55541578607411,570847467
fw,-72.8262557983398,-79.3003921508789,30.63951493568323,-64.47798073903076,570864134
fw,-73.3426513671875,-80.4810791015625,31.44407662953469,-98.76162212304332,570880801
fw,-74.1326141357421,-82.3748626708984,33.67683854377131,-134.01531491575514,570897468
fw,-75.2013092041015,-84.9529418945312,37.27892595830799,-167.26667642099912,570914135
fw,-76.6411209106445,-88.1132202148437,42.023957097760835,-195.45872171172437,570930802
fw,-78.1203536987304,-86.7640838623046,47.40559005812138,-216.05047830819976,570947469
fw,-79.5681915283203,-82.2491378784179,52.65925360740714,-227.53444422780765,570964136
fw,-81.1991577148437,-78.3103866577148,56.91563469032707,-229.6920680453102,570980803
fw,-82.8908309936523,-75.5050506591796,59.4237660466145,-223.50755368804957,570997470
fw,-84.465087890625,-72.9024429321289,59.75751349170942,-210.80695778377626,571014137
fw,-85.8357620239257,-69.4467697143554,57.93095052257796,-193.7940348644471,571030804
fw,-87.0330429077148,-65.9869079589843,54.38664082177939,-174.64526969116355,571047471
fw,-88.1543197631836,-63.1962356567382,49.870497894803194,-155.22370215899178,571064138
fw,-89.1879577636718,-61.1020584106445,45.245009999869765,-136.87511539277816,571080805
fw,-89.8559875488281,-59.2849617004394,41.30145142682894,-120.26122283302365,571097472
fw,-88.8498840332031,-57.7640113830566,38.61316567199637,-105.24644257017755,571114139
fw,-87.9779357910156,-56.5341300964355,37.44631631707017,-90.91089506852471,571130806
fw,-87.1005859375,-55.3961067199707,37.73098632360131,-75.75985143122726,571147473
fw,-86.1962585449218,-54.48286819458,39.09470781748057,-58.14126031485024,571164140
fw,-85.2502212524414,-53.6159400939941,40.957327022750434,-36.79920141585801,571180807
fw,-84.2707748413086,-52.953369140625,42.67046745689658,-11.415763285986614,571197474
fw,-83.2945709228515,-52.7139472961425,43.664684685644396,17.043117806597934,571214141
fw,-82.2835235595703,-53.0878639221191,43.55925150178967,46.33644792108709,571230808
fw,-81.2819519042968,-54.7330665588378,42.20091613637207,73.37181411185695,571247475
fw,-80.3250656127929,-57.1273155212402,39.62295446074585,94.95378103943163,571264142
fw,-79.5552673339843,-59.9388465881347,35.943831454935925,108.62362616144284,571280809
fw,-78.92822265625,-62.1748161315918,31.24751696179841,113.29826572837302,571297476
fw,-78.3281631469726,-63.8121643066406,25.497073243012892,109.48862807888695,571314143
fw,-77.7763290405273,-64.9558639526367,18.521389648670777,99.05285803335669,571330810
fw,-77.3816299438476,-66.362678527832,10.081774873707676,84.62341050289072,571347477
fw,-77.1724472045898,-67.1592102050781,-0.014539703258518458,68.9450314344712,571364144
fw,-77.1649780273437,-67.608657836914,-11.810905117749899,54.343641665031896,571380811
fw,-77.4571762084961,-68.428726196289,-25.15965331116431,42.45153986952117,571397478
fw,-78.1615753173828,-69.7856140136718,-39.76304156002193,34.195193385031466,571414145
fw,-79.2638092041015,-70.6883850097656,-55.274614540485565,29.949112561294793,571430812
fw,-80.8293914794921,-70.7632217407226,-71.40412080722912,29.713504789502842,571447479
fw,-82.9300384521484,-71.0277023315429,-87.96045703652827,33.212156198290415,571464146
fw,-85.3828887939453,-71.6660385131836,-104.792848711779,39.90177184940284,571480813
fw,-88.2820587158203,-72.7211837768554,-121.64205143228493,48.959071020662705,571497480
fw,-88.0068893432617,-74.0083465576171,-137.96554752625846,59.31755763002757,571514147
fw,-84.5691680908203,-75.2559509277343,-152.82461928683202,69.77995320255296,571530814
fw,-81.4347076416015,-76.5888137817382,-164.90524373883886,79.18366041139309,571547481
fw,-78.6059417724609,-78.2469253540039,-172.70238745708357,86.57307864376568,571564148
fw,-75.6222686767578,-79.8542556762695,-174.84753965527858,91.33212758561211,571580815
fw,-72.1574554443359,-81.3522796630859,-170.50645098504106,93.24343223270148,571597482
fw,-68.5724411010742,-82.8030700683593,-159.72073782586338,92.46384482648062,571614149
fw,-65.7555694580078,-84.2059326171875,-143.5426454290742,89.43460987824838,571630816
fw,-63.5926666259765,-85.7269897460937,-123.86019453802803,84.76490135033592,571647483
fw,-61.7929954528808,-87.2749481201171,-102.93198961842066,79.12656815639562,571664150
fw,-60.3089179992675,-88.5512542724609,-82.78312976155925,73.17784552436959,571680817
fw,-59.0791435241699,-89.3794555664062,-64.67711640473523,67.51195790270897,571697484
fw,-58.0345001220703,-89.1817092895507,-48.846299627026006,62.619087432309875,571714151
fw,-57.3328971862793,-88.1487121582031,-34.5664303685687,58.85624755418773,571730818
fw,-56.9405250549316,-87.1038970947265,-20.547833262823385,56.4260808628529,571747485
fw,-56.6918907165527,-86.1489334106445,-5.52065581940467,55.36588534879258,571764152
fw,-56.6150245666503,-85.193115234375,11.169573196742432,55.54717718129164,571780819
fw,-56.780216217041,-84.2227096557617,29.15798294220679,56.68745706429396,571797486
fw,-57.3145904541015,-83.215835571289,47.01133507358325,58.37571003417674,571814153
fw,-59.4299201965332,-82.1447296142578,62.58986533968408,60.1082725052961,571830820
fw,-61.8781127929687,-81.0012969970703,73.7162177470048,61.32500531978302,571847487
fw,-63.8811264038085,-79.8812026977539,78.90339285164013,61.43281651538122,571864154
fw,-66.1629333496093,-78.8870086669921,77.85479372093818,59.808329906757834,571880821
fw,-67.8823928833007,-77.9717254638671,71.55067032785533,55.7840304981944,571897488
fw,-69.0357818603515,-77.2119369506836,61.917930181898484,48.63740462766405,571914155
fw,-68.8794937133789,-76.6136703491211,51.24689780348207,37.61161678071213,571930822
fw,-68.9797668457031,-76.2402648925781,41.60026862944206,21.992892026866446,571947489
fw,-70.2171096801757,-76.3548431396484,34.42839350876584,1.2549331280103326,571964156
fw,-71.7414016723632,-76.8503494262695,30.4749246128951,-24.740528511651974,571980823
fw,-72.3422470092773,-77.4960098266601,29.898729524239005,-55.523082919327706,571997490
fw,-72.7290802001953,-78.5088729858398,32.45315281170826,-89.83745268128266,572014157
fw,-73.5660324096679,-80.1257400512695,37.599818551517316,-125.59863350391642,572030824
fw,-74.7987594604492,-82.4694671630859,44.53977106558661,-160.05792617941978,572047491
fw,-76.4392471313476,-85.6082763671875,52.22789248403292,-190.2030445073389,572064158
fw,-78.0461196899414,-88.3311767578125,59.45012985884611,-213.32006562130172,572080825
fw,-79.6375885009765,-85.0637435913086,65.00010209139904,-227.55518869538147,572097492
fw,-81.459602355957,-81.0354690551757,67.92812455889718,-232.28678098391154,572114159
fw,-83.3124694824218,-77.7076797485351,67.78312966185233,-228.18282502091245,572130826
fw,-84.8188858032226,-74.6411972045898,64.74840782487111,-216.9467211092069,572147493
fw,-85.8996505737304,-71.1730499267578,59.59904539630567,-200.86814091428852,572164160
fw,-86.7875900268554,-68.1197128295898,53.47959076969006,-182.32993479307186,572180827
fw,-87.6942062377929,-65.3369140625,47.582680660001316,-163.37973537389442,572197494
fw,-88.5295333862304,-63.0592422485351,42.852467745986026,-145.41472492775816,572214161
fw,-89.1172943115234,-61.0412368774414,39.812675460115095,-128.9989047191418,572230828
fw,-88.8025360107421,-59.2267570495605,38.5487731935612,-113.83226399189535,572247495
fw,-88.0422592163086,-57.6396751403808,38.80581545989337,-98.88969190594115,572264162
fw,-87.1531143188476,-56.2894096374511,40.13347241591539,-82.72532982098187,572280829
fw,-86.1977005004882,-55.240493774414,42.020067713761115,-63.90047576339489,572297496
fw,-85.2650527954101,-54.5733680725097,43.98651565622595,-41.455798523282304,572314163
fw,-84.32373046875,-54.1118927001953,45.636097005814904,-15.323188766823506,572330830
fw,-83.4032287597656,-53.9168052673339,46.668536719260814,13.435792038941294,572347497
fw,-82.4797668457031,-54.0775146484375,46.87060512438793,42.66363152547332,572364164
fw,-81.4615783691406,-55.0704154968261,46.09511343592975,69.46293715965771,572380831
fw,-80.3890686035156,-57.1663970947265,44.23637696517283,90.83322560237623,572397498
fw,-79.3874130249023,-59.7687950134277,41.20438840078397,104.42892866901539,572414165
fw,-78.6812973022461,-62.5996475219726,36.898251227383646,109.19123635262551,572430832
fw,-78.126106262207,-64.1611175537109,31.186701981143727,105.61699088801335,572447499
fw,-77.5987472534179,-65.347053527832,23.91301900666639,95.5602644545471,572464166
fw,-77.1857757568359,-66.3848419189453,14.93765458254317,81.65766830892552,572480833
fw,-76.8875885009765,-66.9957580566406,4.208504942360818,66.61780153073929,572497500
fw,-76.8288269042968,-67.4020080566406,-8.178804489907227,52.641564841399365,572514167
fw,-77.1348800659179,-68.220703125,-21.975062506498237,41.14746486447645,572530834
fw,-77.8681411743164,-69.5494766235351,-36.844958745807894,32.82394590512819,572547501
fw,-79.0388717651367,-70.5221328735351,-52.481008126207804,27.889264364462633,572564168
fw,-80.6162567138671,-70.7985687255859,-68.69876194802751,26.37087208956785,572580835
fw,-82.6288223266601,-70.9699783325195,-85.4437715892961,28.25302165349948,572597502
fw,-84.7054977416992,-71.3856124877929,-102.67917876685235,33.45310942622787,572614169
fw,-86.8554000854492,-72.2934799194336,-120.18811045678358,41.69445572308577,572630836
fw,-87.5811920166015,-73.4719848632812,-137.38114568297328,52.38259104104358,572647503
fw,-85.1476821899414,-74.5915985107421,-153.21008188400106,64.56342641033122,572664170
fw,-82.1427536010742,-75.8080368041992,-166.24788239729395,76.9886652635276,572680837
fw,-79.4646835327148,-77.2900085449218,-174.9307161563113,88.27394580658067,572697504
fw,-76.8313064575195,-79.0683441162109,-177.9080448203434,97.1143035620226,572714171
fw,-73.6463928222656,-80.9440841674804,-174.4180990464453,102.50876923205905,572730838
fw,-70.1203689575195,-82.7784347534179,-164.58331540523292,103.93943816007032,572747505
fw,-67.330078125,-84.4061279296875,-149.5075770451237,101.45950716738113,572764172
fw,-65.1395492553711,-86.0264053344726,-131.09091544266934,95.67153291437558,572780839
fw,-63.3100471496582,-87.6290893554687,-111.57684810823878,87.6071374513833,572797506
fw,-61.7746429443359,-89.045913696289,-92.96816061033518,78.53643300296586,572814173
fw,-60.5380783081054,-89.6539535522461,-76.51230270794314,69.74011499911747,572830840
fw,-59.4191780090332,-88.861343383789,-62.43185491765092,62.282571313495794,572847507
fw,-58.5313873291015,-87.9335098266601,-49.98384596267223,56.833815035072725,572864174
fw,-57.9035301208496,-86.8809661865234,-37.82225494307712,53.58720499150484,572880841
fw,-57.468692779541,-85.8315353393554,-24.547415941864166,52.295694081890616,572897508
fw,-57.1634674072265,-84.8131103515625,-9.272634087122869,52.40888778134169,572914175
fw,-57.1504936218261,-83.8526382446289,7.9711107761738065,53.25853691887166,572930842
fw,-57.467716217041,-82.940315246582,26.13325200832407,54.22879179505898,572947509
fw,-58.7493743896484,-81.9911193847656,43.397054447472165,54.86123400493483,572964176
fw,-61.0963859558105,-80.9550857543945,57.71490563666456,54.87196113832842,572980843
fw,-62.6870994567871,-79.9637756347656,67.4339455568613,54.08534889697635,572997510
fw,-64.6448211669921,-79.16064453125,71.7779599523277,52.3105225392759,573014177
fw,-66.2365112304687,-78.4532089233398,71.01944598096905,49.2029274401912,573030844
fw,-67.7890853881836,-77.806282043457,66.3146695948686,44.163340840021405,573047511
fw,-68.57373046875,-77.1750335693359,59.30463513426788,36.32269972195147,573064178
fw,-68.7245025634765,-76.6781463623046,51.65416090359325,24.638650749451998,573080845
fw,-69.469123840332,-76.5662231445312,44.69947043586904,8.096749645826087,573097512
fw,-70.9915084838867,-76.907730102539,39.30630031399027,-14.018767682211264,573114179
fw,-72.2269134521484,-77.5897521972656,35.92625749530625,-41.83522847786026,573130846
fw,-72.9094467163086,-78.5545959472656,34.738029414644934,-74.64328134423728,573147513
fw,-73.5830535888671,-79.9415969848632,35.74181207550285,-110.76326609200875,573164180
fw,-74.5700073242187,-81.9196472167968,38.75006426772059,-147.6057148305509,573180847
fw,-75.9951934814453,-84.7093505859375,43.318604186712335,-181.98057125477837,573197514
fw,-77.6644439697265,-88.5796279907226,48.712288490139656,-210.63640000068244,573214181
fw,-79.1921997070312,-86.2928237915039,53.976709295082934,-230.9068493862888,573230848
fw,-80.7202835083007,-81.5813751220703,58.122088432851655,-241.26298706499702,573247515
fw,-82.4756698608398,-77.8060531616211,60.36243972997813,-241.57975282817617,573264182
fw,-84.174087524414,-75.0041580200195,60.321024366104105,-233.038169289058,573280849
fw,-85.482177734375,-71.6550064086914,58.12102051972414,-217.7393286488203,573297516
fw,-86.5086212158203,-68.0346374511718,54.325593840687155,-198.19914455866987,573314183
fw,-87.5559997558593,-64.9176864624023,49.75732685026825,-176.8725478292504,573330850
fw,-88.6120986938476,-62.3401145935058,45.276638771104956,-155.7705191514127,573347517
fw,-89.6539535522461,-60.2724876403808,41.59957443209556,-136.17520425792253,573364184
fw,-89.3438949584961,-58.4587211608886,39.192902618457765,-118.4648639525314,573380851
fw,-88.4307708740234,-56.9881591796875,38.23860850216921,-102.09287725801731,573397518
fw,-87.5132064819336,-55.7458915710449,38.643209228677605,-85.76990982964755,573414185
fw,-86.5748062133789,-54.6949996948242,40.07831788025806,-67.858516689861,573430852
fw,-85.6006546020507,-53.7972564697265,42.05294782331247,-46.92110499410186,573447519
fw,-84.5824279785156,-53.0105819702148,44.01574930646817,-22.292348214199382,573464186
fw,-83.5370712280273,-52.6429634094238,45.46835392151514,5.496954252858134,573480853
fw,-82.48046875,-52.7708702087402,46.0559254380812,34.61109911899743,573497520
fw,-81.4887924194336,-53.6286468505859,45.60249580686658,62.209957468349884,573514187
fw,-80.476806640625,-55.8870582580566,44.07805755985301,85.12133142551112,573530854
fw,-79.5674209594726,-58.315990447998,41.51154822274784,100.69625455685345,573547521
fw,-78.8699417114257,-61.1586227416992,37.88665824291684,107.55554788988556,573564188
fw,-78.2358703613281,-62.9568061828613,33.067888937715495,105.94976879265518,573580855
fw,-77.6199035644531,-64.1897735595703,26.79712796363554,97.6009786594527,573597522
fw,-77.0427169799804,-65.0001525878906,18.772959618340817,85.10987720347718,573614189
fw,-76.6246795654296,-65.9393844604492,8.782710458317137,71.18470977966743,573630856
fw,-76.4206924438476,-66.2730102539062,-3.1779087731035935,57.99385446542955,573647523
fw,-76.5891418457031,-66.9242630004882,-16.866567330942786,46.85518066767714,573664190
fw,-77.2167053222656,-68.2531051635742,-31.870538613776237,38.30973074557204,573680857
fw,-78.370491027832,-69.8845443725586,-47.76967542988704,32.45900155492655,573697524
fw,-79.9750442504882,-70.5521926879882,-64.30394368152129,29.341367442857205,573714191
fw,-82.0398178100586,-70.5229110717773,-81.44632859358248,29.135196816927614,573730858
fw,-84.2404708862304,-70.6223526000976,-99.31738123120962,32.10210987342593,573747525
fw,-86.4325714111328,-71.2054824829101,-117.95386549531646,38.34454607892716,573764192
fw,-87.3141632080078,-72.3180770874023,-137.0236141298476,47.54446539704213,573780859
fw,-85.1104431152343,-73.432876586914,-155.61702240587346,58.83409084676771,573797526
fw,-82.0838394165039,-74.6902465820312,-172.2211235566664,70.86519827571354,573814193
fw,-79.247688293457,-76.2257843017578,-184.9145238342388,82.05396926475099,573830860
fw,-76.5837020874023,-78.0483093261718,-191.75108142603617,90.91825668826121,573847527
fw,-73.4933395385742,-79.890869140625,-191.24817754852117,96.39857718689737,573864194
fw,-69.6772079467773,-81.7063064575195,-182.85381965439615,98.06291832637183,573880861
fw,-66.2648315429687,-83.1728057861328,-167.23472706708515,96.13812362374799,573897528
fw,-63.9398727416992,-84.5490036010742,-146.24073686686145,91.37476250765454,573914195
fw,-62.1355628967285,-85.9048995971679,-122.49785350978756,84.80997371500966,573930862
fw,-60.6823501586914,-87.2151947021484,-98.73774804743638,77.51586882365265,573947529
fw,-59.4831008911132,-88.3873519897461,-77.09450762710597,70.40351661090426,573964196
fw,-58.3694114685058,-89.1639709472656,-58.61407115925211,64.11458640974271,573980863
fw,-57.5368194580078,-89.1078109741211,-43.13077960588138,59.00056624354132,573997530
fw,-57.0755767822265,-88.0628585815429,-29.529323130054795,55.171127961292164,574014197
fw,-56.7749786376953,-86.9397659301757,-16.28910280271674,52.58054492960964,574030864
fw,-56.6086235046386,-85.9570770263671,-2.1307297740167632,51.11185120766789,574047531
fw,-56.5966720581054,-85.214111328125,13.443284651523333,50.62328218254668,574064198
fw,-57.0097122192382,-84.4512939453125,29.896073735142284,50.94527779605735,574080865
fw,-58.2667045593261,-83.5521163940429,45.78844298751078,51.844374673330776,574097532
fw,-60.308349609375,-82.5853500366211,59.25414372973857,52.982025263870035,574114199
fw,-62.2439384460449,-81.5490341186523,68.6372124822092,53.88728086155055,574130866
fw,-64.2535171508789,-80.6560821533203,73.04142544087173,53.94697320444515,574147533
fw,-65.7881240844726,-79.8141632080078,72.58853694420128,52.41160714982356,574164200
fw,-67.3365173339843,-78.9687194824218,68.31787635564851,48.42116756226714,574180867
fw,-68.192756652832,-78.290786743164,61.808918029359056,41.06155810955774,574197534
fw,-68.5019607543945,-77.7687454223632,54.70296643581933,29.460533559276154,574214201
fw,-69.2360610961914,-77.6080551147461,48.313923786340446,12.923375955761669,574230868
fw,-70.5768508911132,-77.8771438598632,43.45528099653495,-8.900555036733284,574247535
fw,-72.1532592773437,-78.4233703613281,40.493573517572976,-35.838419982883025,574264202
fw,-73.0984497070312,-79.2413330078125,39.52086473804214,-67.0349214279692,574280869
fw,-73.638916015625,-80.4382171630859,40.49417121417363,-100.86983747810756,574297536
fw,-74.3972702026367,-82.2146453857421,43.25072965069478,-135.0239272500658,574314203
fw,-75.63134765625,-84.7429046630859,47.42331474013317,-166.74754885941255,574330870
fw,-77.2600708007812,-87.799934387207,52.359882662947825,-193.32046464831265,574347537
fw,-78.9556655883789,-86.6625823974609,57.149433232420975,-212.59575726857383,574364204
fw,-80.5989913940429,-82.2820281982421,60.78923036468829,-223.44769762795107,574380871
fw,-82.3055267333984,-78.5196075439453,62.44653038539865,-225.94977792599258,574397538
fw,-83.908447265625,-75.7509460449218,61.71402722358362,-221.21354084515178,574414205
fw,-85.1772918701171,-73.0971603393554,58.75268213580274,-210.9723965632,574430872
fw,-86.1232376098632,-69.673355102539,54.25614821162127,-197.0998648418774,574447539
fw,-86.9709548950195,-66.0596542358398,49.24080886424244,-181.23626737241213,574464206
fw,-87.7831802368164,-63.2080345153808,44.737005932558525,-164.58547493281074,574480873
fw,-88.4109497070312,-60.9500617980957,41.49717319504132,-147.83673588013176,574497540
fw,-88.4526290893554,-58.8367614746093,39.82393359428282,-131.14566146978743,574514207
fw,-87.8759689331054,-57.0441284179687,39.563203200765294,-114.15814792579788,574530874
fw,-86.9512405395507,-55.7685623168945,40.2367996217793,-96.11059786080004,574547541
fw,-86.0056610107421,-54.5818061828613,41.241926011674806,-76.04409647281327,574564208
fw,-85.0843048095703,-53.7089080810546,42.0380677860568,-53.132076698026864,574580875
fw,-84.1766815185546,-53.0140151977539,42.2672033022835,-27.06331530401542,574597542
fw,-83.2768402099609,-52.7382202148437,41.789309276076814,1.6299294754790807,574614209
fw,-82.322151184082,-52.8832511901855,40.64364202231186,31.428791180206535,574630876
fw,-81.3965911865234,-53.7203788757324,38.96076820202031,59.96811913079561,574647543
fw,-80.5325775146484,-55.514289855957,36.85426586722779,84.47497823188456,574664210
fw,-79.6882247924804,-57.3843269348144,34.32063418354604,102.40897548679591,574680877
fw,-78.9794158935546,-60.2057075500488,31.174414608047048,112.11414190078021,574697544
fw,-78.3796157836914,-62.5698661804199,27.041711271113858,113.26177369501839,574714211
fw,-77.8399429321289,-64.2672042846679,21.425656125508997,106.92249195016097,574730878
fw,-77.3588485717773,-65.3075561523437,13.838461688295741,95.24181206887567,574747545
fw,-76.991340637207,-66.497932434082,3.967263378478929,80.85043806643463,574764212
fw,-76.7908172607421,-67.0245513916015,-8.185419368219824,66.23839725525379,574780879
fw,-76.8831253051757,-67.6107177734375,-22.253795071282138,53.310835952147976,574797546
fw,-77.5081710815429,-68.8534545898437,-37.59561690599329,43.23705261751824,574814213
fw,-78.6778259277343,-70.3230361938476,-53.49866672216129,36.56141799582437,574830880
fw,-80.266372680664,-70.9951553344726,-69.4259002484035,33.43341203867846,574847547
fw,-82.300537109375,-71.0233917236328,-85.18113094522037,33.790992515758106,574864214
fw,-84.5145950317382,-71.3206176757812,-100.89815915656429,37.407988583009015,574880881
fw,-86.8622589111328,-72.031867980957,-116.83361252725919,43.833021947398386,574897548
fw,-88.4407882690429,-73.1499099731445,-133.0401832658782,52.31906042413502,574914215
fw,-85.9451293945312,-74.4247512817382,-149.05996097380702,61.83373747335804,574930882
fw,-82.7529220581054,-75.7734375,-163.77478967872426,71.18173985391084,574947549
fw,-79.9723663330078,-77.2960662841796,-175.49301766487204,79.20971511046598,574964216
fw,-77.335693359375,-78.9924621582031,-182.2772785146786,85.02673218972977,574980883
fw,-74.2892379760742,-80.4347229003906,-182.4487837449452,88.16490870973736,574997550
fw,-70.5290222167968,-81.788459777832,-175.13689805975002,88.62554288024242,575014217
fw,-66.9662704467773,-83.0058288574218,-160.68617244889742,86.80046031151504,575030884
fw,-64.5948257446289,-84.2596359252929,-140.73200674309655,83.30823916018068,575047551
fw,-62.8040962219238,-85.7392883300781,-117.8554384526548,78.81476114425826,575064218
fw,-61.3442573547363,-87.1872177124023,-94.90207486913266,73.9009075656163,575080885
fw,-60.1495094299316,-88.1736145019531,-74.20146096523388,69.00418744233461,575097552
fw,-59.0864028930664,-88.4915618896484,-56.96279529333815,64.4221142902856,575114219
fw,-58.224063873291,-88.4208297729492,-43.044202837206356,60.34724900088584,575130886
fw,-57.6927795410156,-87.8293991088867,-31.154266513813404,56.908128384996836,575147553
fw,-57.3495750427246,-87.0514450073242,-19.408807204955284,54.200360712671866,575164220
fw,-57.0883560180664,-86.2283096313476,-6.066891014434973,52.29760376612451,575180887
fw,-57.0169868469238,-85.3993835449218,9.781031449993042,51.237073010203545,575197554
fw,-57.1332092285156,-84.5455474853515,27.795996395657564,50.98326942637481,575214221
fw,-57.9246559143066,-83.6532516479492,46.39771473532323,51.38223229119495,575230888
fw,-60.2678604125976,-82.7088470458984,63.21261350765627,52.12053515891701,575247555
fw,-62.2941131591796,-81.7273254394531,75.81092418686781,52.69911842746417,575264222
fw,-64.5442810058593,-80.8812255859375,82.45940559181703,52.42791710484331,575280889
fw,-66.4271240234375,-80.1354293823242,82.61615811348203,50.447500766817775,575297556
fw,-68.0238647460937,-79.3022079467773,77.01810561524769,45.78626674473612,575314223
fw,-69.1894836425781,-78.5400772094726,67.38514083530436,37.45882664057771,575330890
fw,-69.4758148193359,-78.0570068359375,55.90102664978715,24.60028122362279,575347557
fw,-69.8839797973632,-77.9847946166992,44.68365607301818,6.619947027553582,575364224
fw,-70.8314819335937,-78.471321105957,35.41822697051977,-16.643520377923416,575380891
fw,-72.217056274414,-79.304931640625,29.2163884393677,-44.77899322423628,575397558
fw,-73.0278930664062,-80.2892303466796,26.63870489443535,-76.68985648580698,575414225
fw,-73.5239334106445,-81.6416625976562,27.755312662663115,-110.55226942003897,575430892
fw,-74.2853164672851,-83.5204696655273,32.16056670106311,-143.9109829685737,575447559
fw,-75.4803619384765,-86.2261810302734,38.95880328820363,-173.97053256107873,575464226
fw,-77.0293197631836,-89.4376831054687,46.81155986685002,-198.07347688490188,575480893
fw,-78.8573455810546,-85.3121185302734,54.126488403387825,-214.2520497470716,575497560
fw,-80.5525436401367,-80.6717834472656,59.38786424492858,-221.657977009401,575514227
fw,-82.2881774902343,-77.1573715209961,61.53695959464527,-220.68747861683195,575530894
fw,-84.0821914672851,-74.7809677124023,60.265681795913686,-212.74458419375375,575547561
fw,-85.5667266845703,-72.4081344604492,56.107503199183085,-199.7606427216566,575564228
fw,-86.5335540771484,-69.0470886230468,50.27708207643329,-183.6935548657622,575580895
fw,-87.2460098266601,-65.8056030273437,44.298309665659005,-166.19114279712522,575597562
fw,-87.8874359130859,-63.150276184082,39.544462190104575,-148.4601465817592,575614229
fw,-88.5811462402343,-60.9455604553222,36.85659287212968,-131.2579676633339,575630896
fw,-89.5277023315429,-59.1283531188964,36.374954636083004,-114.90397502119916,575647563
fw,-89.1684341430664,-57.7160911560058,37.62195417466704,-99.27234116384898,575664230
fw,-88.0921783447265,-56.5765419006347,39.76734596121671,-83.80336084107563,575680897
fw,-87.0863037109375,-55.6173248291015,41.94599756470643,-67.6007822406994,575697564
fw,-86.1676864624023,-54.9183616638183,43.507990949660524,-49.65994491987125,575714231
fw,-85.3481063842773,-54.4277725219726,44.13771138190609,-29.213628475760743,575730898
fw,-84.538833618164,-54.0701332092285,43.84221965258464,-6.115816037191233,575747565
fw,-83.6967163085937,-53.8796195983886,42.85112408225037,18.866402255625594,575764232
fw,-82.7999877929687,-54.0865287780761,41.48301666156426,43.9930764015128,575780899
fw,-81.8566436767578,-55.2294769287109,40.02323403795514,66.81609473162243,575797566
fw,-80.9186172485351,-57.2070274353027,38.63575940460795,84.75055507993784,575814233
fw,-80.0833969116211,-59.9101638793945,37.31193780779211,95.7949586978049,575830900
fw,-79.4348983764648,-62.3180313110351,35.850909795768196,99.14220957912397,575847567
fw,-78.8467712402343,-63.9173431396484,33.872211923902555,95.43440372601229,575864234
fw,-78.2307739257812,-64.8753967285156,30.868675815844693,86.55232579514345,575880901
