Label,Left_Hip_q,Right_Hip_q,Left_Hip_qd,Right_Hip_qd,SampleTimeFine
fw,-78.6491241455078,-73.1908569335937,-86.6102142333984,29.5487957000732,252441099
fw,-80.6715469360351,-74.5158767700195,-87.26229786032415,67.73354788707373,252457766
fw,-82.9026794433593,-75.9368591308593,-110.69673356295759,73.75534450735833,252474433
fw,-85.6047973632812,-77.0426864624023,-132.51425808007974,79.34576407487401,252491100
fw,-87.9246292114257,-78.3028030395507,-151.17401471215638,84.07803637659659,252507767
fw,-86.3245391845703,-80.0171203613281,-165.26685756131837,87.55289089778994,252524434
fw,-83.6511001586914,-81.7905883789062,-173.65218710077946,89.46900056349256,252541101
fw,-81.0858612060546,-83.3954391479492,-175.61321784283965,89.70357932588959,252557768
fw,-78.2914276123046,-84.7808380126953,-171.00573075236127,88.35710266756021,252574435
fw,-75.1885528564453,-86.0792388916015,-160.37340357130623,85.7354898881196,252591102
fw,-72.230712890625,-87.2965850830078,-144.98077016248888,82.27919761741576,252607769
fw,-69.8197937011718,-88.1287384033203,-126.69632536586155,78.47085503797325,252624436
fw,-67.9031448364257,-88.3638687133789,-107.68712438124241,74.75035188577193,252641103
fw,-66.2510528564453,-87.8087539672851,-89.96739204516764,71.45206526256908,252657770
fw,-64.9108428955078,-86.7908172607421,-74.9281593320901,68.76914902013931,252674437
fw,-63.809097290039,-85.5672607421875,-63.00639538149524,66.74662865834706,252691104
fw,-62.8418540954589,-84.3455276489257,-53.61398808408567,65.30175490432342,252707771
fw,-62.0235633850097,-83.2181777954101,-45.36241940534862,64.2639436862995,252724438
fw,-61.2908058166503,-82.2360076904296,-36.52301801477681,63.421709737818844,252741105
fw,-60.7834167480468,-81.2063674926757,-25.58599630016823,62.56400581981953,252757772
fw,-60.8002738952636,-80.135383605957,-11.74948196985524,61.50646208149285,252774439
fw,-61.0598907470703,-79.0733337402343,4.804359958028633,60.09511992138032,252791106
fw,-61.5842018127441,-78.0129623413086,22.91723192535327,58.18168006302072,252807773
fw,-62.5402107238769,-77.0848922729492,40.7332944356434,55.56980421267392,252824440
fw,-63.9207077026367,-76.271614074707,56.16624547588203,51.944078394805544,252841107
fw,-65.9726104736328,-75.5119552612304,67.42635805940807,46.807283635289075,252857774
fw,-67.8880767822265,-74.9199142456054,73.45648583683624,39.4587332990515,252874441
fw,-69.3251419067382,-74.3652191162109,74.14325143046253,29.04050835751667,252891108
fw,-70.5591964721679,-74.0565872192382,70.24276610516685,14.661203231473381,252907775
fw,-71.5215606689453,-74.2494277954101,63.071611584620776,-4.413323800309871,252924442
fw,-72.0419540405273,-74.8070907592773,54.10818355897597,-28.528151048116747,252941109
fw,-72.8634033203125,-75.5325317382812,44.67267318912202,-57.40449775465142,252957776
fw,-74.4709091186523,-76.6143798828125,35.790151146188855,-89.95651722566353,252974443
fw,-75.5974807739257,-78.193130493164,28.223888234246207,-124.23345442999911,252991110
fw,-76.0672836303711,-80.4175033569336,22.568609686054643,-157.5615803507837,253007777
fw,-76.5222244262695,-83.5380783081054,19.28542942674924,-186.91764068367547,253024444
fw,-77.2686996459961,-87.3599548339843,18.641315419992633,-209.47956408778458,253041111
fw,-78.3682250976562,-87.1163558959961,20.6092002254187,-223.207422313826,253057778
fw,-79.7127914428711,-83.1907806396484,24.815788867879796,-227.2652926942735,253074445
fw,-80.7287521362304,-80.0690002441406,30.58688525132907,-222.1428011564313,253091112
fw,-81.718032836914,-77.2667160034179,37.08086671286766,-209.45764362019852,253107779
fw,-83.2205734252929,-73.9296188354492,43.46201391498767,-191.54247308709867,253124446
fw,-84.7934646606445,-70.5994110107421,49.055785997569885,-170.96350215103521,253141113
fw,-85.8025970458984,-68.114013671875,53.439369623599745,-150.07620407680278,253157780
fw,-86.5972290039062,-66.4115982055664,56.450919439059206,-130.66325164425868,253174447
fw,-87.6553192138671,-64.6852416992187,58.1424916634756,-113.68388100492118,253191114
fw,-88.6695404052734,-63.1801986694335,58.72414036780755,-99.18079441129828,253207781
fw,-88.6056289672851,-61.6281776428222,58.526221582137595,-86.38544224896008,253224448
fw,-87.6735076904296,-60.2223396301269,57.9654966888132,-74.01316928515634,253241115
fw,-86.6005096435546,-59.1846504211425,57.48345661690317,-60.67687130067985,253257782
fw,-85.5110549926757,-58.6144561767578,57.44753330151297,-45.31187708450775,253274449
fw,-84.4248657226562,-58.0653038024902,58.041758443650956,-27.507812350945528,253291116
fw,-83.3021850585937,-57.5531425476074,59.19063826424897,-7.669243259451952,253307783
fw,-82.1630859375,-57.3930435180664,60.548693120008885,13.040641922575315,253324450
fw,-81.0065841674804,-58.446361541748,61.56062758627925,32.97472207595274,253341117
fw,-79.8066711425781,-59.9003562927246,61.571626783652505,50.427603368510425,253357784
fw,-78.5916519165039,-61.7446632385253,59.95420260095427,64.0715035997311,253374451
fw,-77.2548217773437,-62.823917388916,56.21742721010168,73.23996403180361,253391118
fw,-76.0895462036132,-63.8379135131835,50.07263784556893,77.96476754917909,253407785
fw,-75.3149948120117,-64.8489608764648,41.445628274918256,78.79660040689797,253424452
fw,-74.7950820922851,-66.0934143066406,30.447006580530445,76.53993705300722,253441119
fw,-74.3163986206054,-67.084228515625,17.32852576364032,72.04617093207628,253457786
fw,-73.9201354980468,-68.1577529907226,2.4477710985015153,66.14213549533883,253474453
fw,-73.8120422363281,-69.7965393066406,-13.762871221998042,59.675424331441285,253491120
fw,-74.3081893920898,-71.1607971191406,-30.847756511451045,53.58459480195962,253507787
fw,-75.4853897094726,-71.7725524902343,-48.41104621432618,48.885839938510166,253524454
fw,-76.9515533447265,-71.7886047363281,-66.1986254976405,46.52259773250786,253541121
fw,-78.5542678833007,-72.3462982177734,-84.11360635022845,47.12458575368407,253557788
fw,-80.4558334350586,-73.4061279296875,-102.1180231789873,50.79784994012642,253574455
fw,-82.594985961914,-74.8493499755859,-120.03921998214359,57.05865797817167,253591122
fw,-85.1980895996093,-76.2720947265625,-137.3685649629438,64.94316343155924,253607789
fw,-88.258186340332,-77.5109558105468,-153.16210775372247,73.23952869984109,253624456
fw,-87.0059814453125,-78.9206924438476,-166.11008973239703,80.75359786023103,253641123
fw,-83.8754196166992,-80.5416107177734,-174.76438922827657,86.53298312824012,253657790
fw,-81.1311340332031,-82.2197952270507,-177.85446372678553,90.00567246222265,253674457
fw,-78.3572082519531,-83.7035903930664,-174.61206456493787,91.01714172529196,253691124
fw,-75.1764678955078,-85.01025390625,-165.0389448223554,89.77591890493156,253707791
fw,-71.9456787109375,-86.3622894287109,-150.05108253021476,86.74321122085968,253724458
fw,-69.386604309082,-87.7177581787109,-131.42303325718646,82.51397859967174,253741125
fw,-67.3804779052734,-88.7323608398437,-111.48367208197472,77.72196279494575,253757792
fw,-65.7412490844726,-88.6517257690429,-92.60175678685479,72.97034396769261,253774459
fw,-64.3457336425781,-87.7715606689453,-76.60280191944702,68.77041366459657,253791126
fw,-63.1628494262695,-86.7672348022461,-64.30781853399289,65.47812472442594,253807793
fw,-62.2539176940918,-85.659683227539,-55.349993839446284,63.24078504815059,253824460
fw,-61.3899269104003,-84.5887603759765,-48.33259935291171,61.97938941266263,253841127
fw,-60.6419868469238,-83.5276489257812,-41.283812707898036,61.42360665298142,253857794
fw,-59.9776344299316,-82.4629516601562,-32.27397672002827,61.19341021273112,253874461
fw,-59.7256813049316,-81.3908615112304,-20.01060301803754,60.89958759047186,253891128
fw,-59.8106231689453,-80.3027572631836,-4.233897612944315,60.22569664713002,253907795
fw,-60.2523384094238,-79.2218933105468,14.197847006497609,58.95887558246452,253924462
fw,-61.2695236206054,-78.2484512329101,33.54228257984376,56.953892953637514,253941129
fw,-62.7439422607421,-77.3925018310546,51.63728175753147,54.039327243110215,253957796
fw,-64.5185317993164,-76.6475219726562,66.4421486864931,49.89985449319786,253974463
fw,-66.3593673706054,-76.0302047729492,76.49055624141506,43.98512482865662,253991130
fw,-67.9532012939453,-75.4639892578125,81.13370205652406,35.49523146933101,254007797
fw,-69.3573303222656,-75.0415649414062,80.53563543605792,23.472941646776224,254024464
fw,-70.749526977539,-74.8864135742187,75.47218647426622,7.000172082847378,254041131
fw,-71.7886734008789,-75.11767578125,67.04497559586677,-14.537100575535828,254057798
fw,-72.6225357055664,-75.7236022949218,56.43338519204843,-41.17492492567594,254074465
fw,-74.0307540893554,-76.6886367797851,44.76830486970636,-72.15896265239728,254091132
fw,-75.5338439941406,-78.1765670776367,33.132342617293645,-105.8639023645862,254107799
fw,-76.1564788818359,-80.1734085083007,22.606263663272557,-139.9009072868827,254124466
fw,-76.4685974121093,-82.8498229980468,14.250376311283494,-171.4332399906017,254141133
fw,-77.0252990722656,-86.6043701171875,8.966733937896004,-197.65835115172857,254157800
fw,-77.7216873168945,-89.0022048950195,7.290515895981468,-216.3406407749755,254174467
fw,-78.7239227294921,-84.5823211669921,9.222245103883038,-226.22962661688484,254191134
fw,-79.803955078125,-81.0073928833007,14.194959263869144,-227.2185696427124,254207801
fw,-80.6744613647461,-78.5343780517578,21.199724576600815,-220.20298636600944,254224468
fw,-81.5255584716796,-75.7567672729492,29.02384976107929,-206.73627022531832,254241135
fw,-82.8023300170898,-72.0154495239257,36.52280351234194,-188.65543185881683,254257802
fw,-84.1670608520507,-68.6879501342773,42.847359610597486,-167.8054982304116,254274469
fw,-84.9705581665039,-66.2648773193359,47.566988287467034,-145.87357743197856,254291136
fw,-85.4978485107421,-64.4732971191406,50.66606258055355,-124.26584560293287,254307803
fw,-86.0829849243164,-62.9928817749023,52.437541480061945,-103.98139103290144,254324470
fw,-86.6861953735351,-61.6779060363769,53.333910767189636,-85.5074584881716,254341137
fw,-87.0112838745117,-60.5196838378906,53.83107409198687,-68.79851829156001,254357804
fw,-86.7900848388671,-59.4455337524414,54.327084734705295,-53.378880725565644,254374471
fw,-86.1733627319336,-59.0397682189941,55.07065160003237,-38.55718015647999,254391138
fw,-85.3684921264648,-58.8677330017089,56.11530677180943,-23.70159585549821,254407805
fw,-84.4591751098632,-58.6098136901855,57.31031673470572,-8.508775167146052,254424472
fw,-83.4977264404296,-58.2178955078125,58.34223283749248,6.806976472228642,254441139
fw,-82.4296493530273,-58.1266403198242,58.822743437919016,21.48121035394254,254457806
fw,-81.340705871582,-59.0104446411132,58.39449858259382,34.37853388828956,254474473
fw,-80.263671875,-60.4720306396484,56.81676267479822,44.365056196411054,254491140
fw,-79.1553421020507,-62.1178131103515,54.00297814241857,50.750561207543605,254507807
fw,-78.0637283325195,-63.2955703735351,50.00366806607073,53.609471987261585,254524474
fw,-77.1176147460937,-64.3422698974609,44.94840123879472,53.81983830761734,254541141
fw,-76.4134902954101,-65.2381515502929,38.97349299537347,52.78002604243039,254557808
fw,-75.8429183959961,-65.6744537353515,32.16585371389419,51.90738211225921,254574475
fw,-75.3087005615234,-65.6407699584961,24.54465846253224,52.12330987067584,254591142
fw,-74.7893371582031,-65.9126510620117,16.079496634689313,53.54784801650519,254607809
fw,-74.4351654052734,-67.0523071289062,6.716452852082507,55.55139814593566,254624476
fw,-74.3932647705078,-69.2162475585937,-3.6258400946438347,57.153789677768685,254641143
fw,-74.7528686523437,-71.2091827392578,-15.104366261400562,57.58276842586127,254657810
fw,-75.4991989135742,-72.2148208618164,-28.01193339709943,56.70966219291545,254674477
fw,-76.4870986938476,-72.4352111816406,-42.78199445280117,55.14453072313024,254691144
fw,-77.7867965698242,-72.655029296875,-59.87825292739081,53.96468093160556,254707811
fw,-79.5442657470703,-73.6451950073242,-79.56411056607598,54.24148681832231,254724478
fw,-81.5771331787109,-74.9123458862304,-101.62125073597925,56.602669386249765,254741145
fw,-84.2254867553711,-75.9044570922851,-125.13654235043202,61.00491850187795,254757812
fw,-87.5038528442382,-77.1087112426757,-148.46803879229446,66.76997461168676,254774479
fw,-86.9954071044921,-78.616096496582,-169.43268309438116,72.83359461231522,254791146
fw,-83.882568359375,-80.2700729370117,-185.6699539275497,78.09666097803746,254807813
fw,-80.9135360717773,-82.0613098144531,-195.08243479757405,81.74688273409033,254824480
fw,-77.9065475463867,-83.4006118774414,-196.25661301193514,83.44033041813796,254841147
fw,-74.5299072265625,-84.3229446411132,-188.7921897434747,83.29638242887712,254857814
fw,-71.0415496826171,-85.1875305175781,-173.47483162267258,81.74422341046692,254874481
fw,-68.0453567504882,-86.1661605834961,-152.2206530104041,79.31779173654897,254891148
fw,-65.7650909423828,-87.1597900390625,-127.74531952788105,76.49460375133083,254907815
fw,-64.0046691894531,-87.8042984008789,-102.99212805483408,73.62133854135546,254924482
fw,-62.634407043457,-87.5139923095703,-80.4590513380347,70.91065078366515,254941149
fw,-61.603702545166,-86.6213607788086,-61.62898202815352,68.46853618695904,254957816
fw,-60.8036155700683,-85.4948043823242,-46.68956120207393,66.32217108765147,254974483
fw,-60.1975517272949,-84.4527816772461,-34.63824743758153,64.44006421308828,254991150
fw,-59.6719894409179,-83.5519561767578,-23.743491425655122,62.748758009960945,255007817
fw,-59.3861236572265,-82.6347274780273,-12.216134224075239,61.15092275436652,255024484
fw,-59.3297958374023,-81.650146484375,1.127011553571835,59.545219581174635,255041151
fw,-59.485969543457,-80.5872955322265,16.42661020279277,57.8421083896585,255057818
fw,-60.3254470825195,-79.5560913085937,32.714935186539044,55.96337496712553,255074485
fw,-61.8619728088378,-78.6324920654296,48.23407306211658,53.811946664337015,255091152
fw,-63.4973945617675,-77.7459106445312,61.01342570716321,51.2080764359167,255107819
fw,-65.4408187866211,-76.94873046875,69.49259245620019,47.80612123362943,255124486
fw,-67.2345428466796,-76.2684707641601,72.97357361333464,43.02353155172212,255141153
fw,-68.6579666137695,-75.7608566284179,71.76540980966811,36.02134830328176,255157820
fw,-70.1551513671875,-75.4320755004882,67.00307544430419,25.770119581126963,255174487
fw,-71.1000442504882,-75.3077926635742,60.2334125040221,11.217458027122966,255191154
fw,-71.2904739379882,-75.4305191040039,52.93290609744965,-8.454291181131943,255207821
fw,-71.9004974365234,-75.817138671875,46.139347794820196,-33.52523971195856,255224488
fw,-73.4191513061523,-76.5774917602539,40.32980842317109,-63.46597214012738,255241155
fw,-75.2528228759765,-77.8239212036132,35.56123517894735,-96.78942396685113,255257822
fw,-76.2560958862304,-79.5864105224609,31.754460441966774,-131.11064948653774,255274489
fw,-76.8630142211914,-82.063606262207,28.935918359998457,-163.45511319479502,255291156
fw,-77.4831619262695,-85.5620880126953,27.304802882969,-190.77967122410317,255307823
fw,-78.2890167236328,-88.5535507202148,27.120239075076256,-210.57953789429678,255324490
fw,-79.4449005126953,-85.1341323852539,28.50681279168354,-221.39078694637908,255341157
fw,-80.7684783935546,-81.4973068237304,31.301657475954258,-223.01247854165905,255357824
fw,-81.8095779418945,-79.0608444213867,35.023013962709065,-216.3844665540248,255374491
fw,-82.9710006713867,-76.4197463989257,38.97113075988161,-203.2139175659218,255391158
fw,-84.4189300537109,-72.8419570922851,42.4148538162646,-185.54015025908612,255407825
fw,-85.7771987915039,-69.433967590332,44.78851479741521,-165.39304142867655,255424492
fw,-86.61962890625,-66.925796508789,45.826887032263684,-144.57702103848925,255441159
fw,-87.2833633422851,-65.1968307495117,45.599149877772604,-124.52072824268168,255457826
fw,-87.943000793457,-63.8020324707031,44.45095700164115,-106.14407773930292,255474493
fw,-88.2768325805664,-62.4116058349609,42.89600080948881,-89.7664999301964,255491160
fw,-87.9493865966796,-61.0693855285644,41.49639884846597,-75.12043119956891,255507827
fw,-87.2243423461914,-59.865421295166,40.75079969705891,-61.50460461732863,255524494
fw,-86.407730102539,-59.1534271240234,40.99862187588438,-48.04781992594715,255541161
fw,-85.5513305664062,-58.7170829772949,42.354063108169505,-34.00898300860999,255557828
fw,-84.6469421386718,-58.4484825134277,44.68731661958129,-19.032773366895483,255574495
fw,-83.7216796875,-58.0417251586914,47.659253449141,-3.2958972639610975,255591162
fw,-82.711799621582,-57.9722480773925,50.79538874359291,12.501584555776736,255607829
fw,-81.6891326904296,-58.940631866455,53.57140083691983,27.31565675806745,255624496
fw,-80.6510696411132,-60.1095924377441,55.48511806279329,40.06933524631751,255641163
fw,-79.4960556030273,-61.4750442504882,56.1040389316156,49.99023229934019,255657830
fw,-78.2844619750976,-62.6451721191406,55.09080048010502,56.839897003079116,255674497
fw,-77.1642837524414,-63.7310829162597,52.213507394673776,60.93962425289126,255691164
fw,-76.2394332885742,-64.638916015625,47.34610727225923,62.9882167191365,255707831
fw,-75.4970550537109,-65.684585571289,40.46333600372488,63.75756742561747,255724498
fw,-74.875747680664,-66.2898254394531,31.63573267608107,63.80017699693255,255741165
fw,-74.3504562377929,-66.7720794677734,21.025939405856672,63.296950909158504,255757832
fw,-73.9161682128906,-67.8393859863281,8.875464952049368,62.11908821069012,255774499
fw,-73.7774963378906,-69.8987808227539,-4.538330208588065,60.083106657194286,255791166
fw,-74.0644836425781,-71.7668914794921,-18.985853777765367,57.26967651161493,255807833
fw,-74.96728515625,-72.594253540039,-34.38713042965161,54.21801844922857,255824500
fw,-76.1937408447265,-72.6929168701171,-50.870487459720735,51.86067201677144,255841167
fw,-77.6097946166992,-73.0499572753906,-68.71575412139305,51.21395617202939,255857834
fw,-79.3785324096679,-74.0384750366211,-88.1508537058414,52.9834705194834,255874501
fw,-81.4320297241211,-75.2316513061523,-109.05233580908174,57.279862562750466,255891168
fw,-84.0870285034179,-76.3546829223632,-130.67499359224684,63.561336968497486,255907835
fw,-87.4021072387695,-77.8143844604492,-151.55103684471445,70.80122884355919,255924502
fw,-87.6630935668945,-79.4045944213867,-169.63827226288308,77.79294251084153,255941169
fw,-84.5622406005859,-81.0573272705078,-182.69443078048266,83.47217664381604,255957836
fw,-81.4305801391601,-82.6077194213867,-188.77290049074483,87.149930425134,255974503
fw,-78.3289260864257,-83.8251800537109,-186.70904316282676,88.59812884654676,255991170
fw,-74.8824386596679,-84.9355392456054,-176.47936331117236,87.99449672656846,256007837
fw,-71.5659713745117,-86.0431900024414,-159.3345107474738,85.78447246133311,256024504
fw,-68.7500305175781,-87.032844543457,-137.6314923904574,82.53037434105535,256041171
fw,-66.6230087280273,-87.6581573486328,-114.3513633714233,78.79289568050257,256057838
fw,-65.0837173461914,-87.516357421875,-92.3947523878204,75.05405456193098,256074505
fw,-63.8067474365234,-86.7301483154296,-73.85380093144225,71.67104283234177,256091172
fw,-62.7723846435546,-85.6218490600586,-59.498954194360344,68.85164732452857,256107839
fw,-61.8261489868164,-84.4765701293945,-48.661461829272326,66.6498827381113,256124506
fw,-61.0414352416992,-83.4114151000976,-39.56140119768162,64.98263765033946,256141173
fw,-60.3502731323242,-82.4284057617187,-29.980683020967838,63.66416474132807,256157840
fw,-59.84468460083,-81.4004287719726,-18.06379999230699,62.450461408930074,256174507
fw,-59.770767211914,-80.3102874755859,-2.9838133942199736,61.082255020352214,256191174
fw,-60.0515098571777,-79.2340774536132,14.74541633005672,59.313146401934404,256207841
fw,-61.0229721069335,-78.2275314331054,33.40829387111294,56.910265682171385,256224508
fw,-62.6569747924804,-77.3072509765625,50.6177089699816,53.62198798468775,256241175
fw,-64.3539428710937,-76.4514770507812,64.04216089459017,49.12092127667207,256257842
fw,-66.3905334472656,-75.7999954223632,72.07733423369511,42.94525003456245,256274509
fw,-68.3330078125,-75.2951354980468,74.24604347185243,34.47055260349596,256291176
fw,-69.8508987426757,-74.9419555664062,71.21820684788679,22.94262819064303,256307843
fw,-71.2529678344726,-74.8184051513671,64.4766334866016,7.5885594433917065,256324510
fw,-71.4807205200195,-75.0487823486328,55.77399835753095,-12.198738678576227,256341177
fw,-71.3711853027343,-75.5598602294921,46.59897069885794,-36.63169219180555,256357844
fw,-72.2654190063476,-76.4443435668945,37.86363640040247,-65.3056993308762,256374511
fw,-74.1997375488281,-77.763801574707,29.92109992991151,-97.0493232032343,256391178
fw,-75.8128204345703,-79.5443801879882,22.851671212848736,-129.91689520345173,256407845
fw,-76.2163848876953,-81.8895416259765,16.81367852409937,-161.37501856894204,256424512
fw,-76.4110107421875,-85.242805480957,12.239988350392878,-188.68465338590252,256441179
fw,-76.8213882446289,-88.9770355224609,9.780668349415263,-209.40400432711732,256457846
fw,-77.6108245849609,-85.5547637939453,10.049846803939849,-221.86478675830642,256474513
fw,-78.6030197143554,-81.5802764892578,13.32705592663696,-225.4563240747079,256491180
fw,-79.5697250366211,-78.9240341186523,19.359867726876438,-220.62390914592697,256507847
fw,-80.4994125366211,-76.5551147460937,27.34838465271962,-208.6240261110317,256524514
fw,-81.7907257080078,-72.8749389648437,36.11008480842518,-191.18755612054687,256541181
fw,-83.2017974853515,-69.4341049194336,44.358810137885044,-170.23636556547555,256557848
fw,-84.3502502441406,-66.7322540283203,51.00062273604081,-147.69102947128505,256574515
fw,-85.2758636474609,-64.9408721923828,55.35702877457143,-125.30887171450962,256591182
fw,-86.2425079345703,-63.5076675415039,57.265794847605726,-104.49309928970683,256607849
fw,-87.2159652709961,-62.2711296081543,57.057297635078484,-86.09229033833219,256624516
fw,-87.8187789916992,-61.1570587158203,55.433322030242046,-70.27274326315528,256641183
fw,-87.7284088134765,-60.1238822937011,53.28184064331745,-56.539935801064594,256657850
fw,-87.1783905029296,-59.3918685913085,51.46364494048336,-43.92782806020388,256674517
fw,-86.4743041992187,-59.0765075683593,50.61533736399231,-31.313235286494432,256691184
fw,-85.7033538818359,-58.7811470031738,51.0168197875226,-17.775465148390605,256707851
fw,-84.8574600219726,-58.2684211730957,52.55491460564129,-2.9077756924428892,256724518
fw,-83.9408721923828,-58.2259445190429,54.78137869632333,13.011966995866771,256741185
fw,-82.9387283325195,-58.8611030578613,57.03303125367277,29.060990410757547,256757852
fw,-81.8521347045898,-59.8814849853515,58.57065046202237,43.92941780682444,256774519
fw,-80.7029037475586,-61.8816528320312,58.70206001520906,56.31324799898115,256791186
fw,-79.4772262573242,-63.2433853149414,56.87155118975727,65.28897959029112,256807853
fw,-78.3182525634765,-64.300422668457,52.71123429672054,70.51989613805702,256824520
fw,-77.3687210083007,-65.2102966308593,46.057477293506736,72.2317537378917,256841187
fw,-76.6506729125976,-66.3464126586914,36.94046788750159,71.01511483935344,256857854
fw,-76.0943450927734,-67.2621002197265,25.557816252820853,67.5865401390598,256874521
fw,-75.6980895996093,-67.8755493164062,12.23989646961553,62.63472855280887,256891188
fw,-75.503791809082,-68.9276123046875,-2.595505498406667,56.81059203173334,256907855
fw,-75.6377868652343,-70.5811233520507,-18.509064826603876,50.831150033676266,256924522
fw,-76.3392868041992,-71.883544921875,-35.127179477711834,45.590571991100994,256941189
fw,-77.5105285644531,-72.4329299926757,-52.22470030543935,42.14869095735187,256957856
fw,-78.9405059814453,-72.395637512207,-69.7521143056736,41.53108081185915,256974523
fw,-80.6901702880859,-72.7252197265625,-87.76138960859237,44.40085349289591,256991190
fw,-82.7660064697265,-73.8017272949218,-106.23063410066052,50.76236916150232,257007857
fw,-85.2513732910156,-75.3065719604492,-124.85025340320422,59.85370778756201,257024524
fw,-88.3232192993164,-76.6855773925781,-142.86882597993235,70.28619524655372,257041191
fw,-86.780158996582,-78.1586990356445,-159.07749892512604,80.37419274390604,257057858
fw,-83.4713897705078,-79.7868881225586,-171.9508477463584,88.53538502732188,257074525
fw,-80.7393569946289,-81.6275253295898,-179.90590804464324,93.64022588040768,257091192
fw,-78.0390014648437,-83.5105209350586,-181.62308748503654,95.22158881499253,257107859
fw,-75.0353393554687,-84.8914031982421,-176.37785789321964,93.50162976960381,257124526
fw,-71.5971527099609,-86.0922927856445,-164.32042854306843,89.24716003121395,257141193
fw,-68.4791564941406,-87.1005859375,-146.6068361321215,83.51651146579265,257157860
fw,-66.2276916503906,-87.6917495727539,-125.27704674315798,77.38675053545829,257174527
fw,-64.5962829589843,-87.8295822143554,-102.8428727363129,71.73692104368006,257191194
fw,-63.4092636108398,-87.5927124023437,-81.6765221485115,67.12533372359012,257207861
fw,-62.3941955566406,-86.9111709594726,-63.40147382316165,63.76365988260593,257224528
fw,-61.6086883544921,-85.8262252807617,-48.50730629529636,61.56962756553986,257241195
fw,-60.9356613159179,-84.6762008666992,-36.329178281048115,60.26808140427922,257257862
fw,-60.4771728515625,-83.6747894287109,-25.398154101132732,59.50324993810833,257274529
fw,-60.0333747863769,-82.8122863769531,-14.03953471342287,58.928986862374785,257291196
fw,-60.00825881958,-81.9374694824218,-1.015316441667098,58.26090525445754,257307863
fw,-60.3359985351562,-80.8981246948242,14.00289302466227,57.293296529369535,257324530
fw,-60.8315162658691,-79.8236465454101,30.280659689583857,55.88990609832004,257341197
fw,-62.1788330078125,-78.8636245727539,46.22452335101499,53.95097902575444,257357864
fw,-63.7358894348144,-77.989631652832,59.85982091377287,51.353822818449565,257374531
fw,-65.5262832641601,-77.1659774780273,69.41353764136205,47.871300081553215,257391198
fw,-67.4657211303711,-76.4218139648437,73.80951131716122,43.088018230221145,257407865
fw,-69.0233764648437,-75.9239883422851,72.92663510745457,36.34620644813,257424532
fw,-70.660285949707,-75.6310577392578,67.55984312406305,26.75636681248759,257441199
fw,-71.6128921508789,-75.500129699707,59.12492124464356,13.301227342639624,257457866
fw,-71.7249221801757,-75.6564025878906,49.23222541804705,-4.956331466087702,257474533
fw,-72.110969543457,-76.0457534790039,39.29715783660585,-28.581688020720218,257491200
fw,-73.2775344848632,-76.7026824951171,30.33157932832997,-57.45293293529678,257507867
fw,-74.875732421875,-77.8278045654296,22.96117610227774,-90.5154017265955,257524534
fw,-75.7003021240234,-79.5038986206054,17.583390559129843,-125.71126177724898,257541201
fw,-76.0049057006836,-81.9192581176757,14.509250604304993,-160.16073041397237,257557868
fw,-76.5766677856445,-85.3380126953125,13.976735617316235,-190.6003777788261,257574535
fw,-77.3888473510742,-89.0144424438476,16.04131701778263,-213.98858412644972,257591202
fw,-78.4969787597656,-85.7856979370117,20.44263595531882,-228.1096284034729,257607869
fw,-79.6944808959961,-81.8146057128906,26.55566950684816,-231.99348530787339,257624536
fw,-80.6770706176757,-78.7892913818359,33.47543987608239,-226.038085709397,257641203
fw,-81.9399261474609,-75.6592941284179,40.20826751701869,-211.83898807294165,257657870
fw,-83.438606262207,-72.087776184082,45.89271838945785,-191.82286835458873,257674537
fw,-84.5373992919921,-68.8611907958984,49.9671658772863,-168.7942037364164,257691204
fw,-85.1680374145507,-66.6480102539062,52.23510916424934,-145.46263213417402,257707871
fw,-86.107307434082,-65.0477981567382,52.834048421280094,-123.99283934145161,257724538
fw,-87.2362899780273,-63.5228576660156,52.152810763639344,-105.64201117672394,257741205
fw,-88.0243453979492,-62.1241989135742,50.738031132072706,-90.57983864556888,257757872
fw,-88.099365234375,-60.7775230407714,49.197599296916906,-77.96551865293276,257774539
fw,-87.5634536743164,-59.4930725097656,48.09103627269936,-66.28121030886808,257791206
fw,-86.7576751708984,-58.527603149414,47.81376012442197,-53.83642154504626,257807873
fw,-85.8945922851562,-57.8106880187988,48.50989216668044,-39.30609196482349,257824540
fw,-84.9612960815429,-57.3993797302246,50.052150536991284,-22.16013017776131,257841207
fw,-83.9458923339843,-57.1475715637207,52.09937449184765,-2.8728254019633455,257857874
fw,-82.8881759643554,-57.0185546875,54.20357856220136,17.149247183992028,257874541
fw,-81.8159027099609,-58.0609245300293,55.917396619229216,35.91820614967341,257891208
fw,-80.7204284667968,-59.391918182373,56.86130118514113,51.41322614519428,257907875
fw,-79.6261978149414,-61.1722679138183,56.737635863851665,62.165991246764506,257924542
fw,-78.5392532348632,-62.7318954467773,55.305384322330504,67.68535699856757,257941209
fw,-77.4992980957031,-64.008316040039,52.343081224183095,68.56473055872861,257957876
fw,-76.6079864501953,-65.0759735107421,47.626754041026636,66.23062068048647,257974543
fw,-75.832046508789,-65.891731262207,40.9401456833581,62.4293795229908,257991210
fw,-75.2029876708984,-65.9315490722656,32.11937045077356,58.65241620706284,258007877
fw,-74.6840362548828,-66.1295852661132,21.115842779277106,55.72901509003254,258024544
fw,-74.3332901000976,-67.1631164550781,8.044811935490127,53.75281776596421,258041211
fw,-74.2661361694336,-69.2886505126953,-6.817634698134689,52.35930037861378,258057878
fw,-74.6285400390625,-71.1864929199218,-23.108009465068076,51.191526563993634,258074545
fw,-75.6268768310546,-72.1582107543945,-40.49742038883186,50.284742120088396,258091212
fw,-77.0394973754882,-72.1043930053711,-58.79634256917612,50.152546455554365,258107879
fw,-78.6661071777343,-72.2474670410156,-77.96233720473694,51.54511618610781,258124546
fw,-80.5921630859375,-73.2939529418945,-97.96977229748603,55.04197256409915,258141213
fw,-82.7439880371093,-74.7835693359375,-118.57957054609778,60.70949420867609,258157880
fw,-85.5933151245117,-75.9888687133789,-139.11648596830244,67.9791144332735,258174547
fw,-87.5621719360351,-77.3194198608398,-158.37088357161915,75.77162575322095,258191214
fw,-85.6032409667968,-78.9822082519531,-174.6851808851564,82.79478408125101,258207881
fw,-82.9443435668945,-80.7863616943359,-186.2079046042081,87.89889777915661,258224548
fw,-80.4014892578125,-82.5779953002929,-191.25354687088517,90.3716899081151,258241215
fw,-77.5558242797851,-84.1475372314453,-188.7003079366151,90.08125609817,258257882
fw,-74.0689086914062,-85.1962127685546,-178.35240217862525,87.43471638624395,258274549
fw,-70.7033615112304,-86.0932540893554,-161.16500733750783,83.19287043648482,258291216
fw,-68.0551300048828,-87.0888595581054,-139.2105269478782,78.23105617267969,258307883
fw,-66.1137161254882,-87.8464202880859,-115.31233613638555,73.33504732589202,258324550
fw,-64.6490249633789,-87.9508209228515,-92.39650847666448,69.07623024405203,258341217
fw,-63.4932670593261,-87.392105102539,-72.74822252781848,65.76254183007563,258357884
fw,-62.6601982116699,-86.4572372436523,-57.42316338766439,63.44356650803101,258374551
fw,-61.9346733093261,-85.3720474243164,-46.0220984988703,61.95532312943878,258391218
fw,-61.2986946105957,-84.315071105957,-36.91641763171635,60.99637746749849,258407885
fw,-60.6995506286621,-83.2981491088867,-27.86342536353525,60.2197275728565,258424552
fw,-60.2668113708496,-82.3402023315429,-16.81836447676341,59.31502860841676,258441219
fw,-60.1583824157714,-81.3520584106445,-2.6768784146440554,58.05660007782921,258457886
fw,-60.3850555419921,-80.3436203002929,14.302248941775002,56.304829357283644,258474553
fw,-61.0416412353515,-79.3868179321289,32.53790948711146,53.9637445293291,258491220
fw,-62.6399192810058,-78.5388946533203,49.61510700519381,50.909349443096,258507887
fw,-64.4568099975586,-77.6958236694336,63.049505743398846,46.91054480755727,258524554
fw,-66.4878005981445,-76.9512710571289,71.06071308242106,41.56715205785248,258541221
fw,-68.3706588745117,-76.3368759155273,73.08696472185234,34.28733890995856,258557888
fw,-69.8164291381836,-75.9974212646484,69.87213463537003,24.320974936575528,258574555
fw,-71.0876388549804,-75.9227676391601,63.116005666153534,10.858687269938377,258591222
fw,-71.1752853393554,-76.0945739746093,54.84077971292598,-6.8020670664295375,258607889
fw,-70.8774719238281,-76.4818878173828,46.7320155703918,-29.037724251306575,258624556
fw,-71.5037231445312,-77.1629028320312,39.71738571041325,-55.66482874288766,258641223
fw,-73.3145446777343,-78.1691741943359,33.935921677549715,-85.75888861229618,258657890
fw,-75.3563385009765,-79.6848754882812,29.059283590206647,-117.60864300147179,258674557
fw,-76.2720031738281,-81.8830795288086,24.75321612304275,-148.87191208739895,258691224
fw,-76.6112823486328,-84.9327239990234,21.019780130322243,-176.94043882885407,258707891
fw,-77.1051712036132,-88.2191925048828,18.264175612398365,-199.43291713477313,258724558
fw,-77.8619003295898,-86.0710525512695,17.099672098981397,-214.6582435982168,258741225
fw,-78.8789291381836,-82.0057144165039,18.02830230423424,-221.87832472759192,258757892
fw,-80.0720138549804,-79.183609008789,21.163877240488613,-221.28125990906832,258774559
fw,-81.1833724975586,-77.012092590332,26.11499258558612,-213.72096302410569,258791226
fw,-82.1755447387695,-73.6286849975586,32.06123120371922,-200.3969315441351,258807893
fw,-83.4960632324218,-69.5863952636718,37.977624622125425,-182.64467836133707,258824560
fw,-84.8643188476562,-66.435302734375,42.9173825936856,-161.87940536315375,258841227
fw,-85.9336471557617,-64.21728515625,46.2544413514666,-139.59420773161114,258857894
fw,-86.6267013549804,-62.5889320373535,47.81021965163103,-117.28305569055534,258874561
fw,-87.3314895629882,-61.0924034118652,47.83809086992629,-96.24671343925642,258891228
fw,-87.8788299560546,-59.9733848571777,46.895240769264824,-77.34913648565568,258907895
fw,-88.1060714721679,-59.0634613037109,45.66348244210286,-60.83736153533044,258924562
fw,-87.7439804077148,-58.3447608947753,44.775691124978074,-46.31338654061216,258941229
fw,-87.0498504638671,-58.1666145324707,44.680898044003165,-32.890730136865166,258957896
fw,-86.269546508789,-57.9123764038085,45.56253263495062,-19.510768776694945,258974563
fw,-85.4664688110351,-57.5618553161621,47.316363405909144,-5.341444253917307,258991230
fw,-84.593505859375,-57.0549430847168,49.58848224475085,9.864299360105251,259007897
fw,-83.6380081176757,-57.0881729125976,51.86306894648864,25.592066148152455,259024564
fw,-82.6320419311523,-58.0998916625976,53.57807598805539,40.67291585625103,259041231
fw,-81.5001678466796,-59.9092979431152,54.24029078012545,53.66360501776866,259057898
fw,-80.2706146240234,-61.8973541259765,53.51065521911351,63.35325994888827,259074565
fw,-79.0882110595703,-63.0143280029296,51.23548725780147,69.17438539148343,259091232
fw,-78.0968933105468,-64.1231918334961,47.412495867722704,71.34241375385274,259107899
fw,-77.3458862304687,-65.16162109375,42.105151684969236,70.68975229529535,259124566
fw,-76.7639846801757,-66.003303527832,35.34666674679549,68.30526652137819,259141233
fw,-76.2894287109375,-66.5967559814453,27.08556761685877,65.16032862636321,259157900
fw,-75.8093872070312,-67.2357864379882,17.203931627652878,61.88278303093816,259174567
fw,-75.4120941162109,-68.6432647705078,5.5946610714912826,58.75563717732642,259191234
fw,-75.2944641113281,-70.4958114624023,-7.755053743984383,55.901857328540174,259207901
fw,-75.6303024291992,-71.6347274780273,-22.730608271598086,53.51798734862257,259224568
fw,-76.4054565429687,-72.1339263916015,-39.12541855675644,51.99740040843539,259241235
fw,-77.5515975952148,-72.4542083740234,-56.708424965021734,51.86320814146677,259257902
fw,-79.1046600341796,-73.2627868652343,-75.25645948057337,53.55803320944096,259274569
fw,-81.0571899414062,-74.5306243896484,-94.50259882421634,57.21947764023243,259291236
fw,-83.3579559326171,-75.8731536865234,-114.00960579335391,62.558754914480545,259307903
fw,-86.3842620849609,-77.0477828979492,-133.03667373440274,68.88834094746257,259324570
fw,-88.995361328125,-78.2996597290039,-150.48585837555382,75.27557624754719,259341237
fw,-85.8952102661132,-79.9507522583007,-164.97854846979905,80.76351647590084,259357904
fw,-82.8408966064453,-81.6349105834961,-175.05208402614883,84.58993675493525,259374571
fw,-80.0802993774414,-83.2059783935546,-179.42813300274247,86.33939492839876,259391238
fw,-77.0865631103515,-84.4826049804687,-177.30042778027638,85.9864534385266,259407905
fw,-73.7659301757812,-85.6258850097656,-168.58961532806262,83.83203287976323,259424572
fw,-70.5088653564453,-86.8496780395507,-154.0926157366573,80.37841846989815,259441239
fw,-67.8451690673828,-87.8990478515625,-135.4372270205334,76.2021968600844,259457906
fw,-65.8516845703125,-88.518928527832,-114.78815926612731,71.86152137586359,259474573
fw,-64.23876953125,-88.3297729492187,-94.34705951422224,67.83874423224978,259491240
fw,-62.9632110595703,-87.4944610595703,-75.79402649009606,64.50130529005722,259507907
fw,-61.8999824523925,-86.3823165893554,-59.864292446071325,62.06945197965875,259524574
fw,-61.1151733398437,-85.3311691284179,-46.21573597611748,60.59338445549654,259541241
fw,-60.4580879211425,-84.38037109375,-33.64490331431126,59.94990759599194,259557908
fw,-59.961669921875,-83.4002609252929,-20.593105543095803,59.86712705791098,259574575
fw,-59.6143341064453,-82.3512725830078,-5.785195417304977,59.97771208728012,259591242
fw,-59.6440963745117,-81.2639389038086,11.209957197891093,59.88876380056899,259607909
fw,-60.0893898010253,-80.1417465209961,29.69421162827036,59.24461363861476,259624576
fw,-61.0192718505859,-79.1111755371093,47.941113229199004,57.756334117241146,259641243
fw,-62.8071212768554,-78.1802520751953,63.661465446324264,55.182561845120375,259657910
fw,-64.6701889038086,-77.3308029174804,74.68111341388591,51.26636527449711,259674577
fw,-66.9744338989257,-76.5702819824218,79.60031364057659,45.65321758223231,259691244
fw,-68.9491729736328,-75.9282531738281,78.20938691454573,37.82718947732167,259707911
fw,-70.4810180664062,-75.5515899658203,71.52263294967499,27.102801614042328,259724578
fw,-71.6674194335937,-75.4326934814453,61.4307245062842,12.700274954734398,259741245
fw,-71.3854751586914,-75.6445083618164,50.11365176335923,-6.085283735517173,259757912
fw,-71.218017578125,-76.0964660644531,39.448879639442616,-29.635206615392356,259774579
fw,-72.1124954223632,-76.7739868164062,30.644533581009846,-57.727034633031415,259791246
fw,-73.9244766235351,-77.7206878662109,24.20817341229479,-89.30669891604879,259807913
fw,-75.1089553833007,-79.2383880615234,20.180513208627094,-122.41809476828352,259824580
fw,-75.5803833007812,-81.4827423095703,18.434723989630964,-154.37706534326338,259841247
fw,-76.1157150268554,-84.5604400634765,18.852868140806866,-182.2064414486764,259857914
fw,-76.8602523803711,-87.8613739013671,21.316318527779973,-203.24147525897612,259874581
fw,-77.9119110107421,-86.0657272338867,25.5792905807282,-215.71873692087843,259891248
fw,-79.2393951416015,-82.0524368286132,31.15012771391061,-219.13679374717557,259907915
fw,-80.3757553100586,-79.2616806030273,37.27694190892767,-214.2577029916591,259924582
fw,-81.5503158569336,-76.8723831176757,43.064265206713344,-202.77520108434425,259941249
fw,-83.1291961669921,-73.7533264160156,47.67970159294384,-186.81709792072044,259957916
fw,-84.7136154174804,-70.5133972167968,50.569039613758726,-168.48324033379933,259974583
fw,-85.9070510864257,-67.8478012084961,51.59348080300273,-149.53569862517853,259991250
fw,-86.6806411743164,-65.72509765625,51.03573363762852,-131.24008821936755,260007917
fw,-87.4190444946289,-63.9663696289062,49.48170494919909,-114.30106362683992,260024584
fw,-88.1352310180664,-62.463207244873,47.63778199202124,-98.85544270597208,260041251
fw,-88.5268783569336,-61.1244277954101,46.15612241046955,-84.52822440256806,260057918
fw,-88.1830673217773,-59.9384002685546,45.51210667104251,-70.57048696506361,260074585
fw,-87.3759460449218,-58.9781646728515,45.94141695332578,-56.07855823496728,260091252
fw,-86.4340515136718,-58.4280014038085,47.42666009393482,-40.262937387000285,260107919
fw,-85.4105529785156,-58.0858154296875,49.724169172011955,-22.71324502653301,260124586
fw,-84.4017868041992,-57.9059829711914,52.423383140254685,-3.597032368028538,260141253
fw,-83.3919143676757,-57.7105178833007,55.02549087580329,16.26848327148838,260157920
fw,-82.3360443115234,-58.1739845275878,57.02187799797555,35.51922844840976,260174587
fw,-81.2554931640625,-59.4519424438476,57.95531053004768,52.52948120408743,260191254
fw,-80.1278533935546,-61.112018585205,57.45666992266848,65.81693603002611,260207921
fw,-78.9561233520507,-63.2691230773925,55.25944496407518,74.43360815703828,260224588
fw,-77.8006744384765,-64.5121994018554,51.197771515562266,78.19010443676126,260241255
fw,-76.8241348266601,-65.3787460327148,45.193223239275234,77.62724748161521,260257922
fw,-76.1080474853515,-66.4100570678711,37.23613917695935,73.77132570793299,260274589
fw,-75.5727844238281,-67.2109909057617,27.370510845074442,67.81055769967577,260291256
fw,-75.1847457885742,-67.9141235351562,15.690905764199929,60.84725526913466,260307923
fw,-74.8787994384765,-69.2102127075195,2.3486898601994177,53.81083987716437,260324590
fw,-74.8865966796875,-70.7298202514648,-12.451204137604432,47.5101546733427,260341257
fw,-75.4878005981445,-71.5879211425781,-28.483257039888738,42.720484013985576,260357924
fw,-76.6453781127929,-72.004150390625,-45.55832753399213,40.18933203765822,260374591
fw,-78.0336456298828,-72.2747955322265,-63.55982578868297,40.51458252273977,260391258
fw,-79.7567367553711,-73.0652847290039,-82.39996064292636,43.95044415931381,260407925
fw,-81.7951736450195,-74.079605102539,-101.87327478264486,50.2552233196075,260424592
fw,-84.0286331176757,-75.2543716430664,-121.45646614473645,58.673935330603456,260441259
fw,-86.7742080688476,-76.5277099609375,-140.16131393055068,68.07587892329481,260457926
fw,-87.5436172485351,-77.9031600952148,-156.5454639562003,77.19749216601235,260474593
fw,-84.8180923461914,-79.5248413085937,-168.9192153696804,84.90770163571543,260491260
fw,-82.0691680908203,-81.2197341918945,-175.69941545075267,90.41716681187596,260507927
fw,-79.3985290527343,-82.7477493286132,-175.8087311382473,93.38088218948008,260524594
fw,-76.3290481567382,-84.1046524047851,-169.013179476876,93.88377351739247,260541261
fw,-73.1057815551757,-85.3407897949218,-156.1037922061249,92.33895546945047,260557928
fw,-70.3826065063476,-86.6292572021484,-138.8423997690098,89.350984397149,260574595
fw,-68.1513519287109,-87.8644866943359,-119.63086375553382,85.58943227339145,260591262
fw,-66.3196411132812,-88.334114074707,-100.95042742388576,81.689222892104,260607929
fw,-64.7582550048828,-87.6839599609375,-84.72298994955433,78.1692312513988,260624596
fw,-63.4559288024902,-86.6792907714843,-71.80335395124916,75.36051607416758,260641263
fw,-62.3482208251953,-85.4633102416992,-61.78157345817276,73.35536387316357,260657930
fw,-61.3519973754882,-84.1497116088867,-53.172876578610854,72.00281113691149,260674597
fw,-60.5034828186035,-82.9063262939453,-43.94588319857954,70.96660338199402,260691264
fw,-59.8764991760253,-81.7217254638671,-32.23223529541309,69.83330951267637,260707931
fw,-59.4601097106933,-80.5209121704101,-17.00086825119913,68.23256308830612,260724598
fw,-59.4739189147949,-79.3212280273437,1.5173104195857345,65.9233882417512,260741265
fw,-59.9580383300781,-78.2373809814453,21.800687500748523,62.81178198899596,260757932
fw,-61.1175231933593,-77.2615203857421,41.42889267692216,58.889350728581924,260774599
fw,-63.5497550964355,-76.4417953491211,57.77550722429493,54.11300735687826,260791266
fw,-65.3597106933593,-75.7575759887695,68.76508760480785,48.271474347727846,260807933
fw,-67.4405517578125,-75.1098861694336,73.42774734488872,40.89491898926852,260824600
fw,-69.1105804443359,-74.5792160034179,72.06690000312437,31.25355854445018,260841267
fw,-70.7217025756836,-74.1853256225586,66.01291030877941,18.462860655280313,260857934
fw,-71.6817398071289,-74.1306533813476,57.08967431834869,1.6789939452978744,260874601
fw,-71.3901214599609,-74.4523239135742,47.015219615332335,-19.65790663793353,260891268
fw,-71.5187911987304,-75.0826416015625,36.971800470574,-45.58711564986126,260907935
fw,-72.9567794799804,-76.1307983398437,27.506938002293644,-75.45335444498605,260924602
fw,-74.880744934082,-77.6502227783203,18.769738285894444,-107.84782967916539,260941269
fw,-75.6006774902343,-79.7636566162109,10.909732330216588,-140.7047807464151,260957936
fw,-75.7394256591796,-82.5770950317382,4.382318714598339,-171.56432224064324,260974603
fw,-76.0939407348632,-86.5375671386718,-0.01822779729604926,-197.96076219526088,260991270
fw,-76.5449523925781,-88.9055023193359,-1.3991815814769502,-217.836969475613,261007937
fw,-77.2484741210937,-84.594123840332,0.8657358330996247,-229.8551448056319,261024604
fw,-78.2373580932617,-81.2597351074218,6.835259966910205,-233.508587118877,261041271
fw,-78.7609176635742,-78.8406143188476,15.889621073200141,-229.037774430326,261057938
fw,-79.5957641601562,-75.7022628784179,26.83567253295578,-217.25900196484469,261074605
fw,-80.9266281127929,-71.4655609130859,38.17333830314709,-199.43851387159063,261091272
fw,-82.3227920532226,-68.0402069091796,48.42783708139336,-177.25575306338214,261107939
fw,-83.3387374877929,-65.1925659179687,56.44620090882233,-152.76950649628296,261124606
fw,-84.2449645996093,-63.2033004760742,61.58265098326601,-128.2521975585093,261141273
fw,-85.2732925415039,-61.7702102661132,63.748041297932495,-105.83590034242137,261157940
fw,-86.4091033935546,-60.732982635498,63.34521129335011,-87.04979254080217,261174607
fw,-87.1615142822265,-59.81538772583,61.12828744160766,-72.42120530956379,261191274
fw,-87.1577911376953,-58.8015632629394,58.01762001254524,-61.31166935816623,261207941
fw,-86.7196807861328,-58.0386390686035,54.90059045083527,-52.079734023664635,261224608
fw,-86.117431640625,-57.4671821594238,52.45875752787502,-42.55079365394276,261241275
fw,-85.4338684082031,-56.9064826965332,51.06336043595014,-30.675635817673797,261257942
fw,-84.6509017944336,-56.2976760864257,50.75880573771819,-15.196155206632703,261274609
fw,-83.7917404174804,-55.5968208312988,51.31955755775031,3.8858471507132686,261291276
fw,-82.8805389404296,-55.7676963806152,52.34432401068908,25.211361993384948,261307943
fw,-81.9129180908203,-57.0454177856445,53.35272672484788,46.4123441162714,261324610
fw,-80.8641052246093,-59.3778076171875,53.86401075443599,64.81502806105429,261341277
fw,-79.7315292358398,-61.640266418457,53.450045867285326,78.24637985698091,261357944
fw,-78.6207733154296,-62.960636138916,51.760445540006316,85.63309431097694,261374611
fw,-77.6017303466796,-64.3397903442382,48.52123058150182,87.18006959255187,261391278
fw,-76.7833023071289,-65.5577850341796,43.5165167129698,84.11527644283083,261407945
fw,-76.1737747192382,-66.4625854492187,36.57328261606286,78.16935182710164,261424612
fw,-75.6283874511718,-67.0625686645507,27.571544035193686,71.03355501771446,261441279
fw,-75.1243515014648,-67.8090362548828,16.48656427354356,64.00226983559158,261457946
fw,-74.7485809326171,-69.3871078491211,3.440507470138184,57.89382212658531,261474613
fw,-74.736083984375,-71.2616882324218,-11.280388933238559,53.2016632189355,261491280
fw,-75.2294158935546,-72.2815322875976,-27.27705381027211,50.31648387426847,261507947
fw,-76.1481475830078,-72.6661758422851,-44.14774989331861,49.64364926040259,261524614
fw,-77.4132843017578,-72.954231262207,-61.59839702121053,51.53498252922611,261541281
fw,-79.0459671020507,-73.7598190307617,-79.47736112315651,56.09125088110612,261557948
fw,-81.0164642333984,-75.0390243530273,-97.6927450335898,62.97242488928007,261574615
fw,-83.3067245483398,-76.5329284667968,-116.03764017507653,71.33494921629871,261591282
fw,-86.3433380126953,-77.9228591918945,-134.00809447668362,79.93748549697223,261607949
fw,-88.9099807739257,-79.3933715820312,-150.71005281439145,87.3827855573764,261624616
fw,-85.971923828125,-81.0169448852539,-164.90762028623473,92.42457446274877,261641283
fw,-83.0492706298828,-82.9039230346679,-175.20084558167648,94.2571153608968,261657950
fw,-80.3383483886718,-84.8529205322265,-180.28413093368212,92.70734781003371,261674617
fw,-77.3417510986328,-86.3330764770507,-179.23577789858078,88.26760860276273,261691284
fw,-73.9948501586914,-87.4551620483398,-171.790158095513,81.95136479507218,261707951
fw,-70.6774291992187,-88.4234390258789,-158.5203860846791,75.01770862284408,261724618
fw,-67.9422836303711,-89.2231750488281,-140.83730181504802,68.65948572731531,261741285
fw,-65.8323974609375,-88.8183288574218,-120.74104692666376,63.75289073909067,261757952
fw,-64.1809844970703,-87.8654022216796,-100.35543097941515,60.72541556370599,261774619
fw,-62.8399391174316,-86.9041442871093,-81.38212830334267,59.547635363483444,261791286
fw,-61.7924766540527,-85.8089065551757,-64.66478389319226,59.82189615503694,261807953
fw,-60.912727355957,-84.5741882324218,-50.02415829647128,60.929999697287776,261824620
fw,-60.2053260803222,-83.3968734741211,-36.43356139357195,62.19961203261302,261841287
fw,-59.6670188903808,-82.3504028320312,-22.487722925740997,63.0497586130529,261857954
fw,-59.3341407775878,-81.3905715942382,-7.014878282962465,63.08443730640247,261874621
fw,-59.3175315856933,-80.401985168457,10.376785615597372,62.12145349443465,261891288
fw,-59.7973098754882,-79.2642288208007,29.01666341703077,60.16135650381719,261907955
fw,-60.8796348571777,-78.075569152832,47.26632949383708,57.30859800753817,261924622
fw,-62.880573272705,-77.1587982177734,62.968394943590965,53.65635963200934,261941289
fw,-64.7576141357421,-76.422134399414,74.0923346840651,49.150751470427835,261957956
fw,-66.9322738647461,-75.7861785888671,79.34614547335079,43.46532394388543,261974623
fw,-68.8181762695312,-75.2077178955078,78.54237348501096,35.932176393947415,261991290
fw,-70.3014068603515,-74.8090286254882,72.60668062475978,25.57465967215438,262007957
fw,-71.4121322631836,-74.6643524169921,63.25090801470177,11.264476129646111,262024624
fw,-71.4011535644531,-74.8713455200195,52.45200856523724,-8.007069705352317,262041291
fw,-71.5447998046875,-75.3643341064453,41.94396577515561,-32.78698125751281,262057958
fw,-72.4841232299804,-76.1531982421875,32.911143654766526,-62.82086083828655,262074625
fw,-73.9745864868164,-77.2681198120117,25.962178357546794,-96.81385799595581,262091292
fw,-74.8906173706054,-78.8513793945312,21.312308306218302,-132.3998006013379,262107959
fw,-75.4439697265625,-81.2083511352539,19.004677173342984,-166.3988274850333,262124626
fw,-76.0730361938476,-84.7138366699218,19.023818981967274,-195.36492118604744,262141293
fw,-76.9232864379882,-88.1475524902343,21.266028607987234,-216.30699407164298,262157960
fw,-78.0805282592773,-85.4105529785156,25.436902555798298,-227.36350853263016,262174627
fw,-79.43115234375,-81.5835723876953,30.980031617131832,-228.19306244937096,262191294
fw,-80.5105895996093,-79.0255126953125,37.10514765084627,-219.9480988683008,262207961
fw,-81.5088806152343,-76.2295303344726,42.92109909339759,-204.87781026105637,262224628
fw,-83.1007308959961,-72.7627563476562,47.62823198762056,-185.7449554486523,262241295
fw,-84.6338958740234,-69.4363479614257,50.70112643162787,-165.252697424498,262257962
fw,-85.5894012451171,-67.1495819091796,51.995595988738096,-145.58750965852283,262274629
fw,-86.2836456298828,-65.4882583618164,51.74446166545183,-128.10120913185062,262291296
fw,-87.0887222290039,-63.9202499389648,50.45677644289865,-113.1469192670257,262307963
fw,-87.799575805664,-62.4379692077636,48.77276955802099,-100.112228164907,262324630
fw,-88.0078659057617,-60.7624435424804,47.32419625451697,-87.68163046047675,262341297
fw,-87.5490417480468,-59.1810913085937,46.62046451946081,-74.29012132203223,262357964
fw,-86.7908782958984,-58.0555152893066,46.96171471548885,-58.64825694512951,262374631
fw,-85.9124679565429,-57.4547462463378,48.384815587628864,-40.18358113509216,262391298
fw,-84.9758605957031,-57.124412536621,50.65810963390969,-19.27230742162572,262407965
fw,-83.9909057617187,-56.938190460205,53.33430059045222,2.7968936516470078,262424632
fw,-82.9869766235351,-57.1298141479492,55.84906418685402,24.11504760969033,262441299
fw,-81.9472351074218,-58.2819786071777,57.63380714920238,42.630854843601384,262457966
fw,-80.852798461914,-59.7892036437988,58.208791176307834,56.69218359675832,262474633
fw,-79.6843185424804,-61.6271705627441,57.23612136095587,65.48985051757606,262491300
fw,-78.5057373046875,-62.8401718139648,54.52935163829856,69.2497829672388,262507967
fw,-77.508674621582,-63.8831443786621,50.029405760044106,69.0977022635375,262524634
fw,-76.7026443481445,-64.7120742797851,43.76487244939331,66.64592150271312,262541301
fw,-76.0441818237304,-65.7062683105468,35.818767647811065,63.461655640221764,262557968
fw,-75.4762344360351,-66.0050201416015,26.31818925312284,60.61717652021713,262574635
fw,-74.9750289916992,-66.5685806274414,15.443862861829466,58.484832346385026,262591302
fw,-74.6613388061523,-67.7669677734375,3.4325222636841093,56.84445427444338,262607969
fw,-74.696044921875,-69.819351196289,-9.46259891768558,55.2423956466573,262624636
fw,-75.2035446166992,-71.4009094238281,-23.063988732364923,53.422024217579924,262641303
fw,-76.1501388549804,-72.0330657958984,-37.37861881579729,51.60300911240295,262657970
fw,-77.3055953979492,-72.1902236938476,-52.64880546934846,50.46782812553261,262674637
fw,-78.7906799316406,-72.7915802001953,-69.27497790420101,50.878658304557895,262691304
fw,-80.6451873779296,-73.8415222167968,-87.59559717490842,53.485957822253766,262707971
fw,-82.7549743652343,-75.0384216308593,-107.58931109675636,58.418620500313594,262724638
fw,-85.4850387573242,-76.0778198242187,-128.6219713780313,65.17518722783842,262741305
fw,-87.7504959106445,-77.3389663696289,-149.35901264213842,72.73573911106757,262757972
fw,-85.882583618164,-78.9418563842773,-167.89937599065942,79.83764859329379,262774639
fw,-83.0225601196289,-80.6781692504882,-182.09961660265898,85.31594544216354,262791306
fw,-80.3109588623046,-82.4387969970703,-189.99932901247362,88.396952802983,262807973
fw,-77.3793640136718,-83.8440322875976,-190.2512283424957,88.8556971623718,262824640
fw,-73.8809585571289,-85.0206756591796,-182.47190143174745,87.00256998297776,262841307
fw,-70.4349594116211,-86.0824356079101,-167.42838824308757,83.53080523092518,262857974
fw,-67.6315536499023,-87.1422729492187,-146.97377670043866,79.29904724385214,262874641
fw,-65.5123291015625,-88.083984375,-123.68834352968112,75.12352889962307,262891308
fw,-63.823932647705,-88.2906265258789,-100.28582083498063,71.62472874980493,262907975
fw,-62.4253196716308,-87.6476516723632,-78.95515607513005,69.14300898140218,262924642
fw,-61.3419380187988,-86.5223922729492,-60.85382220866567,67.72248399913256,262941309
fw,-60.4817886352539,-85.2477493286132,-45.92278521714279,67.15519664791508,262957976
fw,-59.8019485473632,-84.0838088989257,-33.08530448193248,67.0677651953555,262974643
fw,-59.2888412475585,-83.0037536621093,-20.767864945163545,67.02309466141287,262991310
fw,-58.9747924804687,-81.9668884277343,-7.576386059861874,66.6104185855074,263007977
fw,-58.9209632873535,-80.8905792236328,7.098993739056116,65.50809197305377,263024644
fw,-59.1629753112793,-79.7947540283203,22.76846566148072,63.51509157795528,263041311
fw,-59.966136932373,-78.6704025268554,37.94686936999152,60.55128814742107,263057978
fw,-62.0702476501464,-77.6267852783203,50.65827800380199,56.62500284562882,263074645
fw,-64.1735076904296,-76.6851272583007,59.15769154867344,51.76647406725999,263091312
fw,-66.1478500366211,-75.9111328125,62.58375944001839,45.93298485952233,263107979
fw,-67.7382278442382,-75.2809219360351,61.277665039369445,38.90479084266849,263124646
fw,-68.780029296875,-74.8215103149414,56.64755342812536,30.204697607438177,263141313
fw,-69.728889465332,-74.5813293457031,50.65047815355748,19.081262214143496,263157980
fw,-69.7601547241211,-74.7533721923828,45.112654896258135,4.591892620813099,263174647
fw,-69.8716201782226,-75.0956115722656,41.160795921231774,-14.1948154637511,263191314
fw,-70.7653656005859,-75.512451171875,38.98312993659011,-37.89155051255223,263207981
fw,-72.7462844848632,-76.1608810424804,37.995690521296495,-66.44294167042926,263224648
fw,-74.8872375488281,-77.3764877319336,37.3062043501688,-98.84713333065567,263241315
fw,-75.8025207519531,-79.2429122924804,36.2304217061226,-133.07826703882677,263257982
fw,-76.1700210571289,-81.8717727661132,34.60743012724441,-166.2979871129977,263274649
fw,-76.7185974121093,-85.6376266479492,32.79127076834346,-195.3458161510526,263291316
fw,-77.5398864746093,-89.7609710693359,31.380423851681726,-217.38040629724952,263307983
fw,-78.7453536987304,-85.0504684448242,30.86959627188016,-230.46289490186157,263324650
fw,-80.4179077148437,-81.3096389770507,31.411737808596705,-233.8827869358587,263341317
fw,-81.5583419799804,-78.9429779052734,32.78493557349381,-228.14079880631473,263357984
fw,-82.6242904663086,-76.0838775634765,34.53928048550739,-214.66624567602756,263374651
fw,-83.9777069091796,-72.0631027221679,36.221656150021715,-195.4480471079033,263391318
fw,-85.1943817138671,-68.6750946044921,37.566215646910024,-172.72261850778554,263407985
fw,-85.9071578979492,-66.1663589477539,38.57526219290763,-148.73643606047054,263424652
fw,-86.3468246459961,-64.2820358276367,39.472464358516476,-125.51648895617173,263441319
fw,-86.8224487304687,-62.7624855041503,40.56876758337036,-104.60882394539796,263457986
fw,-87.3375854492187,-61.6136207580566,42.11622303756782,-86.83161824989875,263474653
fw,-87.6750183105468,-60.5098419189453,44.21505903138568,-72.14206300523617,263491320
fw,-87.4901733398437,-59.4117813110351,46.79462331327036,-59.69792541575774,263507987
fw,-86.8198699951171,-58.720401763916,49.64641489707066,-48.12841706796877,263524654
fw,-85.9498138427734,-58.1941223144531,52.47556491666316,-35.95733772750867,263541321
fw,-84.9949645996093,-57.8387870788574,54.9518150785524,-22.072844508881854,263557988
fw,-83.9998168945312,-57.3420219421386,56.75793069326451,-6.117325676143093,263574655
fw,-82.9661483764648,-56.801700592041,57.6360878245329,11.326968556628163,263591322
fw,-81.9082336425781,-57.4094810485839,57.42514681731318,28.84656630631132,263607989
fw,-80.8150863647461,-58.9184761047363,56.07695763569567,44.604159444176844,263624656
fw,-79.7204055786132,-60.8117218017578,53.64388623923937,56.923059736905046,263641323
fw,-78.5929870605468,-62.3389854431152,50.23877317345571,64.82586872735615,263657990
fw,-77.5982208251953,-63.5510940551757,45.97684180609733,68.30654263505166,263674657
fw,-76.7401504516601,-64.4823989868164,40.91506959903983,68.2344925513637,263691324
fw,-76.0603942871093,-65.4318161010742,35.00882054717953,65.9567795875692,263707991
fw,-75.5769653320312,-65.9264450073242,28.10545335272409,62.787815397322305,263724658
fw,-75.119270324707,-66.2042999267578,19.984138828795135,59.607043569623606,263741325
fw,-74.7031478881836,-67.0080871582031,10.428664345151669,56.72589726481301,263757992
fw,-74.4460983276367,-68.8566665649414,-0.7037812844255292,54.05951641863724,263774659
fw,-74.5773468017578,-70.7675628662109,-13.459993612696413,51.4875852709818,263791326
fw,-75.2554550170898,-71.7457580566406,-27.82965865725996,49.18559556743634,263807993
fw,-76.2874679565429,-71.9629440307617,-43.81306077747852,47.72748536839634,263824660
fw,-77.5938644409179,-72.1697463989257,-61.44946723867502,47.903658856578346,263841327
fw,-79.3258361816406,-72.9817733764648,-80.74761694813449,50.36800192249597,263857994
fw,-81.4136810302734,-74.2357025146484,-101.51621656251284,55.308975778062084,263874661
fw,-83.876480102539,-75.4134216308593,-123.16253600317731,62.299519661047704,263891328
fw,-87.0229721069336,-76.6330108642578,-144.56513431669038,70.37487243103614,263907995
fw,-87.5851593017578,-78.1595458984375,-164.1047361092828,78.29076838361121,263924662
fw,-84.3633728027343,-79.9278793334961,-179.86822957741302,84.85962375018595,263941329
fw,-81.4087219238281,-81.7651824951171,-189.97347578224523,89.24718302001739,263957996
fw,-78.6502609252929,-83.388442993164,-192.93882937083362,91.13274962239606,263974663
fw,-75.4775390625,-84.5568389892578,-188.03184848104712,90.69239113594368,263991330
fw,-71.8197021484375,-85.5536270141601,-175.53244151733796,88.44018542542302,264007997
fw,-68.542236328125,-86.6561965942382,-156.82204421874138,85.01928527703326,264024664
fw,-66.0624542236328,-87.710220336914,-134.20643679176985,81.0366670414216,264041331
fw,-64.1897583007812,-88.1790924072265,-110.44681572233614,76.98421728078587,264057998
fw,-62.7040672302246,-87.7079162597656,-88.0988941394155,73.22691945007406,264074665
fw,-61.5544509887695,-86.7300872802734,-68.866396602665,70.01206312612939,264091332
fw,-60.6666030883789,-85.5566177368164,-53.19429611807911,67.46916638634146,264107999
fw,-59.9464607238769,-84.3709259033203,-40.251389685501515,65.60029016291861,264124666
fw,-59.3821296691894,-83.2921524047851,-28.322464638061273,64.27689511553812,264141333
fw,-58.9530792236328,-82.2914123535156,-15.49580074577815,63.257915898498474,264158000
fw,-58.6893844604492,-81.2903366088867,-0.4298849299407015,62.23358652877359,264174667
fw,-58.7440872192382,-80.2062835693359,17.056509803426234,60.88719929600975,264191334
fw,-59.2943077087402,-79.0716705322265,35.784997086790284,58.95438914882324,264208001
fw,-60.4694480895996,-77.9339752197265,53.50146739895068,56.25114078460714,264224668
fw,-62.9212341308593,-77.0363235473632,67.56539019444448,52.64566208177923,264241335
fw,-64.9369430541992,-76.2833251953125,75.8080393387275,47.97035411454283,264258002
fw,-67.3816375732421,-75.6744079589843,77.24727454935169,41.902102632205946,264274669
fw,-69.2762832641601,-75.1890182495117,72.39651026483847,33.86548296720528,264291336
fw,-70.9569854736328,-74.8368301391601,63.06263720613414,23.0183664851959,264308003
fw,-70.9639663696289,-74.7855606079101,51.7242930469721,8.359222420895312,264324670
fw,-70.1732025146484,-74.9930191040039,40.74404887894974,-11.040995397100751,264341337
fw,-70.3741455078125,-75.4043197631836,31.733589083486688,-35.72044454270475,264358004
fw,-72.0259780883789,-76.1334838867187,25.31495649515525,-65.49728320901927,264374671
fw,-74.1970901489257,-77.3607635498046,21.31695151798612,-99.23231544831222,264391338
fw,-75.1442108154296,-79.2633819580078,19.221721476198418,-134.787598948347,264408005
fw,-75.3341979980468,-81.8468322753906,18.577065532958255,-169.2477515072693,264424672
fw,-75.8622817993164,-85.3874740600586,19.17240345231397,-199.39322330784657,264441339
fw,-76.6530227661132,-88.8048324584961,20.959942026670234,-222.31859678290357,264458006
fw,-77.754280090332,-84.9495697021484,23.851376336789713,-236.01443737932462,264474673
fw,-79.1399993896484,-80.692642211914,27.557366944066075,-239.72387032369826,264491340
fw,-80.4309844970703,-77.6978302001953,31.5733882146669,-233.96772243695187,264508007
fw,-81.8446960449218,-74.7544403076171,35.31099318043152,-220.27324055037192,264524674
fw,-83.154670715332,-71.1955490112304,38.29199202973852,-200.75670819741518,264541341
fw,-84.4070434570312,-67.9496994018554,40.30119288902549,-177.72375723576397,264558008
fw,-85.2438354492187,-65.3820114135742,41.42803760226188,-153.36978897614426,264574675
fw,-85.7868118286132,-63.2206344604492,41.9907298554185,-129.57106858649482,264591342
fw,-86.3302459716796,-61.4343681335449,42.395028789960726,-107.72587267504905,264608009
fw,-87.0761184692382,-60.0112113952636,43.003353542826346,-88.63055268038532,264624676
fw,-87.7958450317382,-58.9134826660156,44.064794330915774,-72.4109891450478,264641343
fw,-87.8010025024414,-57.9776992797851,45.70399823160158,-58.544761101963864,264658010
fw,-87.2884902954101,-57.4178085327148,47.93061036540751,-46.00047798422365,264674677
fw,-86.5648727416992,-57.0839233398437,50.63716122606441,-33.49579549738612,264691344
fw,-85.7368087768554,-56.7888298034668,53.58636667752206,-19.841560634180578,264708011
fw,-84.7823333740234,-56.4633598327636,56.41292159857234,-4.30157844741982,264724678
fw,-83.7164077758789,-56.2051086425781,58.66147462209801,13.134155278873566,264741345
fw,-82.5494689941406,-56.6925048828125,59.86071643929352,31.668332898271487,264758012
fw,-81.3592300415039,-57.9621543884277,59.612769594884035,49.864571979058134,264774679
fw,-80.1730651855468,-59.8801612854003,57.66884485754036,66.02551514058904,264791346
fw,-78.9295806884765,-61.8388175964355,53.96643844703381,78.64296931400473,264808013
fw,-77.8650436401367,-63.2481613159179,48.61536989786191,86.74801591228221,264824680
fw,-77.0321044921875,-64.3332595825195,41.83648583655478,90.04928816468552,264841347
fw,-76.3803405761718,-65.7789611816406,33.87510657574876,88.8639658462903,264858014
fw,-75.8766479492187,-67.1546096801757,24.92357740422321,83.93882654272447,264874681
fw,-75.4454116821289,-68.0206222534179,15.082929316877092,76.27560246846971,264891348
fw,-75.1294174194336,-69.2247467041015,4.370321894167615,67.02656557554798,264908015
fw,-74.9715957641601,-71.025390625,-7.250035660594029,57.45516950258986,264924682
fw,-75.2255477905273,-72.1682510375976,-19.847400698530883,48.898640357571146,264941349
fw,-75.9942321777343,-72.4554824829101,-33.53374223634195,42.65567421301868,264958016
fw,-76.9778823852539,-72.5212478637695,-48.480181750763435,39.77367863596906,264974683
fw,-78.2537689208984,-73.1286087036132,-64.88979580964318,40.799121149609405,264991350
fw,-79.9676895141601,-74.2077178955078,-82.88534739191219,45.60874366271146,265008017
fw,-82.0623703002929,-75.4185562133789,-102.31968685848804,53.411446379425385,265024684
fw,-84.7443161010742,-76.6845397949218,-122.5762122464488,62.92752896510484,265041351
fw,-87.9465255737304,-78.0267868041992,-142.45849900022029,72.67810779782938,265058018
fw,-87.7743759155273,-79.4286422729492,-160.24883331679052,81.29078319013205,265074685
fw,-84.5533828735351,-81.0541152954101,-173.95358040283236,87.74239440029747,265091352
fw,-81.6033554077148,-82.7607498168945,-181.68642016811953,91.4927043066449,265108019
fw,-78.5147018432617,-84.081787109375,-182.1016840140159,92.49829704450758,265124686
fw,-74.9825897216796,-85.4550247192382,-174.77736782006664,91.12828073222921,265141353
fw,-71.4683151245117,-86.7864303588867,-160.44050112527506,88.02569915303019,265158020
fw,-68.5824279785156,-88.0508728027343,-140.93230306076717,83.95975524545986,265174687
fw,-66.3661499023437,-88.8140335083007,-118.86100783338522,79.6938459067129,265191354
fw,-64.5867843627929,-88.3559875488281,-96.99618661291659,75.87263707588382,265208021
fw,-63.1287956237793,-87.2493591308593,-77.57272531355464,72.92830809756627,265224688
fw,-61.9552688598632,-86.0518646240234,-61.728063257313025,71.01883921446358,265241355
fw,-61.0765991210937,-84.8066864013671,-49.263543828020524,70.01910714823087,265258022
fw,-60.3207130432128,-83.5598373413086,-38.81972172493867,69.57546120176045,265274689
fw,-59.6407203674316,-82.3282852172851,-28.425106881873052,69.21231632670538,265291356
fw,-59.1044883728027,-81.1362991333007,-16.25405586021452,68.45970091388125,265308023
fw,-58.7512588500976,-79.9684982299804,-1.3471461878650406,66.96365053949383,265324690
fw,-58.9200553894043,-78.8657150268554,15.959348981181032,64.54809891959215,265341357
fw,-59.7227783203125,-77.7429122924804,34.06129614564251,61.21206502112296,265358024
fw,-61.4513511657714,-76.6920013427734,50.5753772396077,57.06237756948227,265374691
fw,-63.9055786132812,-75.7910003662109,63.11216010873649,52.1964300044548,265391358
fw,-65.617446899414,-75.0872802734375,70.0415475790531,46.5624712701277,265408025
fw,-67.6643600463867,-74.5273818969726,70.96907682311439,39.83695467309979,265424692
fw,-69.0550842285156,-74.0444259643554,66.77330161263912,31.36425031625238,265441359
fw,-70.5869064331054,-73.6850814819336,59.23361676888203,20.19619573734476,265458026
fw,-70.9237518310546,-73.6622543334961,50.41996631225377,5.24662659594625,265474693
fw,-70.6068267822265,-73.9779968261718,42.08144330317281,-14.453110477199061,265491360
fw,-71.2066268920898,-74.5379257202148,35.255752966222886,-39.43961622647981,265508027
fw,-73.0676956176757,-75.4200668334961,30.22415443448043,-69.51082427673282,265524694
fw,-75.0355377197265,-76.8073120117187,26.774258897709135,-103.51449624565768,265541361
fw,-75.7298431396484,-78.7619552612304,24.58160447859274,-139.3228917507675,265558028
fw,-75.9360961914062,-81.3915710449218,23.482207784069864,-174.05491109907027,265574695
fw,-76.5826110839843,-85.2505111694336,23.5120213579621,-204.53651952428936,265591362
fw,-77.5304718017578,-89.3934860229492,24.752523323111905,-227.8955155465207,265608029
fw,-78.7767181396484,-85.1516036987304,27.12789944412929,-242.1107470956135,265624696
fw,-80.2686386108398,-81.1947174072265,30.297079748634278,-246.3335999778108,265641363
fw,-81.3684005737304,-78.7295455932617,33.70280183964178,-240.89710462130017,265658030
fw,-82.6194839477539,-75.5914230346679,36.744132298961226,-227.07872322195132,265674697
fw,-84.000373840332,-71.3120193481445,38.98068429177764,-206.77858399962315,265691364
fw,-85.2157440185546,-67.8445968627929,40.272493395354374,-182.23943784822964,265708031
fw,-85.7208938598632,-65.1677017211914,40.79767880023843,-155.8152127650061,265724698
fw,-86.1425323486328,-63.2526130676269,40.95147276706575,-129.72079401409266,265741365
fw,-86.7462844848632,-61.7659835815429,41.187292212044746,-105.73258189220783,265758032
fw,-87.4169998168945,-60.6297721862793,41.87769741365882,-84.90033322916418,265774699
fw,-87.6033020019531,-59.6208038330078,43.23924097710556,-67.38208592107836,265791366
fw,-87.2024307250976,-58.733657836914,45.31441722169958,-52.489992253605635,265808033
fw,-86.5025177001953,-58.167251586914,47.98081932077956,-38.96189015833596,265824700
fw,-85.677001953125,-57.7241020202636,50.97014484590718,-25.394920192652627,265841367
fw,-84.7919540405273,-57.3905982971191,53.900201100032184,-10.722389580810908,265858034
fw,-83.8405990600586,-56.9753875732421,56.32700448656953,5.407245054630174,265874701
fw,-82.8281326293945,-57.0305862426757,57.81298664236762,22.476552713158426,265891368
fw,-81.7440338134765,-58.1228256225585,57.996747619809085,39.23915047706483,265908035
fw,-80.6096649169921,-59.7011756896972,56.648010581026526,54.118841846013375,265924702
fw,-79.4183120727539,-61.8100280761718,53.69493498154085,65.71983522270976,265941369
fw,-78.2811508178711,-63.0428657531738,49.21473190642845,73.24311092979701,265958036
fw,-77.3922348022461,-64.0823440551757,43.384590969416365,76.65103946136449,265974703
fw,-76.7431488037109,-65.1504287719726,36.40358845573031,76.55150728112399,265991370
fw,-76.227783203125,-66.390266418457,28.414389335764604,73.90266601297313,266008037
fw,-75.7918014526367,-67.0392761230468,19.460841596496625,69.69749949497232,266024704
fw,-75.3798446655273,-67.7179641723632,9.500432872862214,64.76253866180454,266041371
fw,-75.1053924560546,-69.2199478149414,-1.544499374235279,59.72879449707925,266058038
fw,-75.1094589233398,-71.0692062377929,-13.739678107478625,55.13776072381155,266074705
fw,-75.5868682861328,-72.0309906005859,-27.132490456378633,51.56728863009477,266091372
fw,-76.518310546875,-72.3952560424804,-41.78326673163594,49.65229657797958,266108039
fw,-77.6987075805664,-72.7454223632812,-57.7868976770642,49.95522002853154,266124706
fw,-79.3138961791992,-73.5801086425781,-75.22558339021967,52.755777665282466,266141373
fw,-81.399787902832,-74.8013000488281,-94.02960353886206,57.88825728975544,266158040
fw,-83.900405883789,-76.2432556152343,-113.78660758759521,64.72042483076703,266174707
fw,-87.0387954711914,-77.5384826660156,-133.58917374141035,72.28397948539961,266191374
fw,-88.4490966796875,-78.8957290649414,-152.0119185202184,79.49807817940919,266208041
fw,-85.4109802246093,-80.4585494995117,-167.26186459212815,85.40536685470057,266224708
fw,-82.4892425537109,-82.2314834594726,-177.48084744321545,89.35290616144754,266241375
fw,-79.5528869628906,-83.8625335693359,-181.13349163094452,91.0765762423979,266258042
fw,-76.2665252685546,-85.0566482543945,-177.39614030289616,90.67944470862473,266274709
fw,-72.7551803588867,-86.2532043457031,-166.4510793615128,88.53135737133132,266291376
fw,-69.6199264526367,-87.5308990478515,-149.58065993476092,85.14421600451065,266308043
fw,-67.1920928955078,-88.616340637207,-128.9773747050094,81.07292047553834,266324710
fw,-65.2350997924804,-88.5185317993164,-107.26665663767618,76.85633534978471,266341377
fw,-63.64839553833,-87.5221939086914,-86.85623536526643,72.97732345368115,266358044
fw,-62.3957748413085,-86.3524551391601,-69.31414290070536,69.81586037799212,266374711
fw,-61.4298057556152,-85.1921768188476,-54.98629317144407,67.59219868416967,266391378
fw,-60.603660583496,-84.0388259887695,-42.99245919191103,66.32154617083991,266408045
fw,-59.8893241882324,-82.9142150878906,-31.61880027833597,65.80683206883651,266424712
fw,-59.3356437683105,-81.8427200317382,-18.9948970997471,65.68131535216878,266441379
fw,-58.9754180908203,-80.7122344970703,-3.8410228458952735,65.49059575515098,266458046
fw,-58.9836311340332,-79.5526657104492,13.967718669910214,64.78633665535243,266474713
fw,-59.5902862548828,-78.3896942138671,33.22705527059431,63.197649897178714,266491380
fw,-60.7995452880859,-77.2973098754882,51.69768733275286,60.451861050982906,266508047
fw,-63.3383255004882,-76.2843246459961,66.77579236651371,56.333331768835556,266524714
fw,-65.2350463867187,-75.5462036132812,76.30027466638089,50.59350784699805,266541381
fw,-67.5350799560546,-74.9338607788086,79.20249044694566,42.849791120535876,266558048
fw,-69.2862777709961,-74.4280548095703,75.77350279589088,32.524780162866094,266574715
fw,-70.6500473022461,-74.1278762817382,67.48223931294584,18.872269013155233,266591382
fw,-71.5150451660156,-74.1201019287109,56.44938381893367,1.1119308345339516,266608049
fw,-71.110366821289,-74.521614074707,44.80099357716337,-21.339603413675334,266624716
fw,-71.2513809204101,-75.2051086425781,34.155908570940525,-48.58639973574817,266641383
fw,-72.8467407226562,-76.2133636474609,25.425613859140714,-79.99127511592846,266658050
fw,-74.3798599243164,-77.6809463500976,18.942213493842033,-114.02343505799526,266674717
fw,-74.8416061401367,-79.7032165527343,14.75931815528971,-148.30343783319108,266691384
fw,-75.100830078125,-82.4471893310546,12.903440049788038,-179.89700145509963,266708051
fw,-75.7918930053711,-86.3451080322265,13.434090109355955,-205.83163940168666,266724718
fw,-76.7324142456054,-88.5913848876953,16.325005509170236,-223.7106519915913,266741385
fw,-78.0208206176757,-83.966812133789,21.290384428606338,-232.2262866003687,266758052
fw,-79.4286193847656,-80.3777847290039,27.692881520496112,-231.3847132327383,266774719
fw,-80.4855194091796,-77.8634567260742,34.60527341249133,-222.36960308034827,266791386
fw,-81.7870941162109,-74.8451309204101,41.009450366165716,-207.13351793207897,266808053
fw,-83.4277725219726,-71.2990798950195,46.0521288640784,-187.90935769291434,266824720
fw,-84.9095382690429,-68.2215576171875,49.255941689275886,-166.80893455727363,266841387
fw,-85.7661743164062,-65.807258605957,50.60599158711028,-145.5650653607846,266858054
fw,-86.504638671875,-63.9172172546386,50.48819279790448,-125.38572358795153,266874721
fw,-87.3178100585937,-62.2279014587402,49.523565591226806,-106.88077544383502,266891388
fw,-88.1842575073242,-60.8058700561523,48.379605427488215,-90.05899926554332,266908055
fw,-88.4894943237304,-59.5731086730957,47.622432395857885,-74.41550669275945,266924722
fw,-87.9699172973632,-58.508201599121,47.62726379382283,-59.11727378337686,266941389
fw,-87.1535263061523,-57.9223136901855,48.53493019071876,-43.26504078024987,266958056
fw,-86.221565246582,-57.6342239379882,50.24355367130792,-26.185283975031673,266974723
fw,-85.2322311401367,-57.476936340332,52.436166822682196,-7.692641084714431,266991390
fw,-84.2275924682617,-57.0990562438964,54.64481144418644,11.744928415360956,267008057
fw,-83.1582870483398,-57.214672088623,56.340187712453314,31.00825092614009,267024724
fw,-82.0455245971679,-58.3698768615722,57.02664293112894,48.54200488942642,267041391
fw,-80.8671417236328,-60.0822601318359,56.32137204137418,62.75655269833508,267058058
fw,-79.6157302856445,-62.2490615844726,54.00053975093035,72.49144437222371,267074725
fw,-78.4462966918945,-63.6359634399414,50.00077724980389,77.35694919392256,267091392
fw,-77.5426635742187,-64.6714935302734,44.375149500972135,77.80972877133634,267108059
fw,-76.9388580322265,-65.8105697631836,37.220730975135275,74.9436908117671,267124726
fw,-76.4281845092773,-66.8413696289062,28.61279092071512,70.10818122282545,267141393
fw,-75.9829483032226,-67.2915344238281,18.581473357825843,64.52795592148674,267158060
fw,-75.6287765502929,-67.8785934448242,7.141300291671726,59.07592692230606,267174727
fw,-75.4454956054687,-69.3004760742187,-5.6544440648329894,54.266171278216824,267191394
fw,-75.6440887451171,-71.0729598999023,-19.683197328097258,50.423576910726915,267208061
fw,-76.340591430664,-72.1107101440429,-34.77782725691516,47.89200445682257,267224728
fw,-77.4216842651367,-72.5172805786132,-50.79109036448919,47.125394567049,267241395
fw,-78.7632598876953,-72.7038803100586,-67.64263410447998,48.591395376758655,267258062
fw,-80.4548721313476,-73.5029678344726,-85.28939333046908,52.54812212496698,267274729
fw,-82.5833129882812,-74.844009399414,-103.60446493468442,58.83372616976053,267291396
fw,-85.2162780761718,-76.2944259643554,-122.21102020398845,66.78828689711646,267308063
fw,-88.3668594360351,-77.5552368164062,-140.35379155091752,75.34519431440904,267324730
fw,-86.8871231079101,-78.9613342285156,-156.87722623148534,83.25331954106089,267341397
fw,-83.6386947631836,-80.6119918823242,-170.3307295764539,89.35605704595314,267358064
fw,-80.8348617553711,-82.4633407592773,-179.17776860152875,92.84861985582613,267374731
fw,-78.0687637329101,-84.3812713623046,-182.0726972580296,93.44331205521345,267391398
fw,-75.0311584472656,-85.7156372070312,-178.169943481391,91.39538798345158,267408065
fw,-71.4587631225586,-86.8242416381836,-167.4097490508419,87.3869306358925,267424732
fw,-68.1891021728515,-87.8893814086914,-150.68345812509915,82.3194752159459,267441399
fw,-65.8729019165039,-88.5708389282226,-129.76833383961343,77.09431544499856,267458066
fw,-64.1168746948242,-88.2933807373046,-106.98366815108658,72.44321426631018,267474733
fw,-62.6636543273925,-87.5314559936523,-84.64070185743975,68.83126170052805,267491400
fw,-61.4749946594238,-86.5384140014648,-64.464153128726,66.42448173204738,267508067
fw,-60.6375923156738,-85.3499221801757,-47.18805095146817,65.11004093357487,267524734
fw,-60.0388107299804,-84.0404052734375,-32.4685834455099,64.55981227469651,267541401
fw,-59.6293296813964,-82.8955993652343,-19.15004618007937,64.32300638225414,267558068
fw,-59.3513259887695,-81.9258651733398,-5.805292987151352,63.92555681788364,267574735
fw,-59.2298316955566,-80.9440841674804,8.623213047019306,62.95503823706892,267591402
fw,-59.4181861877441,-79.8688278198242,24.3046352941718,61.118859530611594,267608069
fw,-59.8327941894531,-78.7081832885742,40.32339534732843,58.2681804771383,267624736
fw,-61.3588752746582,-77.5959014892578,54.90267683989774,54.376796761055076,267641403
fw,-63.6733932495117,-76.7379684448242,65.98648568230945,49.46503238951179,267658070
fw,-65.7512817382812,-76.1334838867187,71.96388994527288,43.47605724700617,267674737
fw,-67.9307632446289,-75.6787643432617,72.2463721984193,36.141933805135366,267691404
fw,-69.4366760253906,-75.2557601928711,67.46726520497187,26.89878355085344,267708071
fw,-70.7486724853515,-74.9539489746093,59.236127099275706,14.906023915510316,267724738
fw,-70.6244888305664,-75.0571365356445,49.56967109667489,-0.8063116477467076,267741405
fw,-70.2525405883789,-75.4556808471679,40.25239883724188,-21.078572309557444,267758072
fw,-70.8002777099609,-76.0888214111328,32.40027987058933,-46.301642061324436,267774739
fw,-72.7831954956054,-77.0096435546875,26.390958082861356,-76.11324487505986,267791406
fw,-74.5637283325195,-78.3783416748046,22.125532457565477,-109.20583058347489,267808073
fw,-75.1465454101562,-80.3866271972656,19.412015149918275,-143.34030951200725,267824740
fw,-75.4610061645507,-83.1630477905273,18.224840901535824,-175.61984261645813,267841407
fw,-76.1237106323242,-87.047866821289,18.713912834157256,-202.99422315756703,267858074
fw,-77.0546798706054,-88.0311965942382,21.01041331220162,-222.86448698883981,267874741
fw,-78.1826095581054,-83.470962524414,24.987055374822315,-233.5925606153156,267891408
fw,-79.557014465332,-79.880126953125,30.13217156827154,-234.7439584416352,267908075
fw,-80.8427963256836,-77.3785018920898,35.61622022282095,-227.00997414997929,267924742
fw,-82.3016815185546,-74.2187881469726,40.521848797077375,-211.90513002567735,267941409
fw,-83.7786788940429,-70.3445663452148,44.12996186314226,-191.41203433957617,267958076
fw,-85.1075592041015,-67.2758331298828,46.13561364662408,-167.69621937297973,267974743
fw,-85.8957366943359,-64.8673858642578,46.7071793779285,-142.89734937178326,267991410
fw,-86.5413589477539,-62.9217262268066,46.377209611002215,-118.93379985006811,268008077
fw,-87.1206436157226,-61.4852333068847,45.82874249632154,-97.28230284403689,268024744
fw,-87.7936248779296,-60.337230682373,45.6771369690852,-78.76403446364638,268041411
fw,-88.0942306518554,-59.4417037963867,46.326000573838115,-63.41397980171914,268058078
fw,-87.6660232543945,-58.5798416137695,47.91913688968243,-50.50541456668104,268074745
fw,-86.8895797729492,-58.1578788757324,50.36307833654858,-38.7585037355087,268091412
fw,-85.9714889526367,-57.7715911865234,53.38179087251846,-26.705551026522514,268108079
fw,-84.9825744628906,-57.4350128173828,56.57727525480284,-13.134079894841241,268124746
fw,-83.9564514160156,-57.1024894714355,59.485503922141135,2.5081992701539164,268141413
fw,-82.8800506591796,-56.8039360046386,61.626812086213846,19.876636680339587,268158080
fw,-81.7010192871093,-57.6144142150878,62.554663315312276,37.76439056586235,268174747
fw,-80.4530334472656,-59.02827835083,61.906094632427894,54.428967819030944,268191414
fw,-79.1221389770507,-61.333152770996,59.44897603163143,68.10955680453189,268208081
fw,-77.8445816040039,-62.967658996582,55.1103235615472,77.53748260687802,268224748
fw,-76.7862472534179,-64.1849517822265,48.96776265634455,82.2404530418701,268241415
fw,-76.0302047729492,-65.292251586914,41.20012477319056,82.54753457631374,268258082
fw,-75.4761505126953,-66.6115264892578,32.01663485203977,79.34904264029981,268274749
fw,-75.0023651123046,-67.3084487915039,21.599003805195867,73.76285661529835,268291416
fw,-74.6336364746093,-67.9895782470703,10.081532970008306,66.86543696919045,268308083
fw,-74.3926467895507,-69.3852462768554,-2.435500358549109,59.580422935589276,268324750
fw,-74.4455490112304,-71.2058868408203,-15.87087449305864,52.71752517513856,268341417
fw,-74.990493774414,-72.1999969482421,-30.176201137575024,47.06325643631312,268358084
fw,-75.9813003540039,-72.4843139648437,-45.374703086053515,43.398257683641084,268374751
fw,-77.1879196166992,-72.655776977539,-61.5793290711625,42.38159794273026,268391418
fw,-78.7420654296875,-73.4085006713867,-78.93229261642894,44.353295813529684,268408085
fw,-80.6501007080078,-74.5120162963867,-97.44458026658023,49.17272920889561,268424752
fw,-82.9297866821289,-75.7126235961914,-116.78107958531619,56.188779722564966,268441419
fw,-85.9556198120117,-76.8795700073242,-136.09070065564418,64.36230557540753,268458086
fw,-88.7500839233398,-78.1574630737304,-153.9819496063706,72.49430615418522,268474753
fw,-86.1957473754882,-79.7137298583984,-168.68765886709153,79.48362019948159,268491420
fw,-83.1637878417968,-81.3474655151367,-178.38483635585362,84.5398677019148,268508087
fw,-80.3256530761718,-82.8922348022461,-181.5863576858799,87.29775374529908,268524754
fw,-77.1794662475586,-84.1099166870117,-177.51481873445124,87.8136369125607,268541421
fw,-73.7399749755859,-85.3299102783203,-166.3760784589369,86.46792329921962,268558088
fw,-70.5108261108398,-86.717529296875,-149.44720142833853,83.82747435295029,268574755
fw,-67.9703292846679,-88.0501708984375,-128.90307922415238,80.52026829733789,268591422
fw,-66.0374679565429,-88.9654312133789,-107.36730765107043,77.14354811540271,268608089
fw,-64.4703063964843,-88.5812835693359,-87.28086836837763,74.1958755163841,268624756
fw,-63.2273368835449,-87.5456085205078,-70.2773716233111,72.01827896237761,268641423
fw,-62.2224426269531,-86.3051452636718,-56.77551027200947,70.74620611451222,268658090
fw,-61.4168434143066,-85.0247650146484,-45.935553690079985,70.2887443718223,268674757
fw,-60.7125358581543,-83.8334045410156,-36.00961013703103,70.3496991028893,268691424
fw,-60.1154861450195,-82.689224243164,-24.988991743295735,70.49156368590194,268708091
fw,-59.662010192871,-81.5240707397461,-11.352005162738873,70.22974540377629,268724758
fw,-59.4735260009765,-80.3045425415039,5.33024810546484,69.13488177112337,268741425
fw,-59.8727416992187,-79.0459442138671,24.142911779301667,66.91436967316639,268758092
fw,-60.8537902832031,-77.7626876831054,43.034899882927355,63.44203572199554,268774759
fw,-63.1711235046386,-76.7000198364257,59.426017036126936,58.713551795766485,268791426
fw,-65.0102081298828,-75.9468688964843,70.99967983135059,52.72940854562279,268808093
fw,-67.1299362182617,-75.3364105224609,76.39383522194109,45.34199958274515,268824760
fw,-68.9407730102539,-74.8520431518554,75.55206357357284,36.13164978917947,268841427
fw,-70.4703750610351,-74.421401977539,69.64157340046195,24.378940479234025,268858094
fw,-71.527587890625,-74.2578353881836,60.61034252443975,9.172221448713694,268874761
fw,-71.297119140625,-74.4761734008789,50.576750203005936,-10.356092605991421,268891428
fw,-71.4728469848632,-74.9848098754882,41.28857003371852,-34.71276347120281,268908095
fw,-72.8677444458007,-75.8427505493164,33.83834417418571,-63.723383039850575,268924762
fw,-74.5751037597656,-77.0942764282226,28.68590679892204,-96.30103317868385,268941429
fw,-75.3028717041015,-78.7771224975586,25.878853317864227,-130.39744882744378,268958096
fw,-75.7014541625976,-81.1356124877929,25.281589718619855,-163.204538612913,268974763
fw,-76.4100341796875,-84.6788482666015,26.67676912094688,-191.60967810261934,268991430
fw,-77.423957824707,-88.9288177490234,29.732609864807056,-212.81148811433235,269008097
fw,-78.8243408203125,-86.2409973144531,33.92880605648995,-224.91341479385562,269024764
fw,-80.4678039550781,-82.3092041015625,38.54605814379456,-227.29170446887312,269041431
fw,-81.7016677856445,-79.7842712402343,42.767653042983525,-220.61983708669757,269058098
fw,-82.973876953125,-77.1802673339843,45.867150538251295,-206.5874690495394,269074765
fw,-84.6533203125,-73.5710372924804,47.407002746315584,-187.474778140509,269091432
fw,-86.1269760131836,-70.1992568969726,47.364155476184756,-165.74467846254072,269108099
fw,-86.9656524658203,-67.7615203857421,46.12559543526496,-143.7154032429832,269124766
fw,-87.5975952148437,-65.9655380249023,44.35098645903179,-123.28636678766094,269141433
fw,-88.3556289672851,-64.4861297607421,42.76101751904163,-105.69136219348226,269158100
fw,-88.9688339233398,-63.1808280944824,41.94049921523747,-91.31505448609697,269174767
fw,-88.7191619873046,-61.8582801818847,42.2218716524932,-79.6484055026648,269191434
fw,-87.9380645751953,-60.6190032958984,43.66167487796692,-69.43640620242655,269208101
fw,-87.0217208862304,-59.7785148620605,46.08357298348731,-59.010605588337455,269224768
fw,-85.9362030029296,-59.2442207336425,49.153321535298296,-46.741331380837565,269241435
fw,-84.8349533081054,-58.6190185546875,52.458889190263314,-31.51013704938524,269258102
fw,-83.7429504394531,-57.7858581542968,55.57688476517041,-13.086066266855271,269274769
fw,-82.6444396972656,-57.3674621582031,58.11366031773485,7.7139562926015675,269291436
fw,-81.512954711914,-58.1014213562011,59.71981415509549,29.16812542599011,269308103
fw,-80.2985076904296,-59.6424751281738,60.087108465803674,49.09044245797025,269324770
fw,-79.0988388061523,-61.8687133789062,58.94060813241326,65.43117397096863,269341437
fw,-77.9175033569336,-63.4466438293457,56.03556395842608,76.80823546799994,269358104
fw,-76.8736419677734,-64.5761947631836,51.163572641469436,82.76733616464321,269374771
fw,-76.0468063354492,-65.4443054199218,44.1699679502492,83.7094142087123,269391438
fw,-75.2862930297851,-66.7120208740234,34.98256755617338,80.58794354855867,269408105
fw,-74.6804962158203,-67.6398468017578,23.646027917101048,74.56308016535976,269424772
fw,-74.3144989013671,-68.5139999389648,10.345498466962084,66.77040364378182,269441439
fw,-74.2106781005859,-69.9692230224609,-4.604043019010256,58.261257289051635,269458106
fw,-74.4370193481445,-71.5202331542968,-20.81902203677539,50.0631922227269,269474773
fw,-75.2769241333007,-72.3432388305664,-37.94918082375003,43.242213597707085,269491440
fw,-76.6133346557617,-72.5725784301757,-55.7752258603398,38.856495354079726,269508107
fw,-78.1174926757812,-72.7330017089843,-74.23597538429586,37.77430483407408,269524774
fw,-79.8310546875,-73.4558181762695,-93.33606637964672,40.43319020374295,269541441
fw,-81.8935852050781,-74.5309829711914,-112.9458619702991,46.666782015588346,269558108
fw,-84.4527816772461,-75.7064971923828,-132.57773671267623,55.68965015403796,269574775
fw,-87.3981170654296,-76.9087829589843,-151.25613611594773,66.24848609801556,269591442
fw,-87.0103683471679,-78.1745223999023,-167.56354415239005,76.88123037166515,269608109
fw,-83.901626586914,-79.7616348266601,-179.86295154828892,86.20359156568234,269624776
fw,-81.1223526000976,-81.5544357299804,-186.6272717615765,93.15270342407304,269641443
fw,-78.2351989746093,-83.2841110229492,-186.7870222933966,97.13903448853453,269658110
fw,-74.964241027832,-84.7321014404296,-180.02363369455702,98.08388997106456,269674777
fw,-71.4030532836914,-85.9886322021484,-166.9435977361609,96.3524324072904,269691444
fw,-68.3843078613281,-87.2764587402343,-149.06090512249452,92.62107477126882,269708111
fw,-66.1601104736328,-88.2547149658203,-128.53404960880638,87.72466016982546,269724778
fw,-64.3828125,-88.1321945190429,-107.68178871793623,82.51010026578336,269741445
fw,-62.8712348937988,-87.2994079589843,-88.40751623510212,77.70191644024763,269758112
fw,-61.6691017150878,-86.3370285034179,-71.72420060096857,73.7856744153778,269774779
fw,-60.6932182312011,-85.1748123168945,-57.54873048585895,70.93345305487665,269791446
fw,-59.9047355651855,-83.8808059692382,-44.84341127060034,69.0028310336557,269808113
fw,-59.3169212341308,-82.5451278686523,-32.06832671533046,67.61886311941538,269824780
fw,-58.8934898376464,-81.3369369506836,-17.80806449748999,66.31023076237479,269841447
fw,-58.6813049316406,-80.2199020385742,-1.3732311102143748,64.64583604038526,269858114
fw,-58.6943855285644,-79.1297454833984,16.8303762093269,62.32245134108055,269874781
fw,-59.4500350952148,-78.0821838378906,35.31109524453268,59.17912645840641,269891448
fw,-61.3008460998535,-77.105728149414,51.89938695146224,55.14152906743849,269908115
fw,-63.3994026184082,-76.1707458496093,64.41972556030203,50.11855090537564,269924782
fw,-65.1764678955078,-75.4413223266601,71.37819505396439,43.88451724406456,269941449
fw,-67.2858352661132,-74.9751892089843,72.411292240128,35.986689600000965,269958116
fw,-69.1123886108398,-74.5900344848632,68.3457257291692,25.71910467843975,269974783
fw,-70.5216979980468,-74.4156646728515,60.872679877099294,12.19504753843716,269991450
fw,-70.3844299316406,-74.5143966674804,51.97716076368343,-5.472146497988941,270008117
fw,-70.1406097412109,-74.9073333740234,43.34841012848219,-27.902562955572225,270024784
fw,-70.8358001708984,-75.6500473022461,36.00370705517378,-55.15232857565573,270041451
fw,-72.7450408935546,-76.7117843627929,30.26012788505991,-86.46480533708839,270058118
fw,-74.4323348999023,-78.2022094726562,26.012238687374936,-120.16090169119839,270074785
fw,-75.0685653686523,-80.3612899780273,23.11709279773271,-153.74667642702377,270091452
fw,-75.5040283203125,-83.3608245849609,21.65559058073411,-184.2677820392536,270108119
fw,-76.0891418457031,-87.1772842407226,21.94466624102151,-208.8552387301885,270124786
fw,-76.9652481079101,-87.1868667602539,24.331542218485833,-225.3143061891503,270141453
fw,-78.1017684936523,-82.7604217529296,28.908884454884475,-232.56149824022867,270158120
fw,-79.3973922729492,-79.4475479125976,35.30746765615311,-230.7592924990647,270174787
fw,-80.3897247314453,-76.8567657470703,42.66916363145478,-221.12696597955033,270191454
fw,-81.8039855957031,-73.4996337890625,49.818260919111935,-205.54573720393242,270208121
fw,-83.5691986083984,-69.8789596557617,55.56951322536532,-186.13250488946292,270224788
fw,-85.1062774658203,-66.8830108642578,59.059427141798466,-164.89888472636594,270241455
fw,-86.2946701049804,-64.6442794799804,59.978054310092546,-143.51171922893104,270258122
fw,-87.2870483398437,-62.9895896911621,58.62026939405677,-123.12485629487622,270274789
fw,-87.9502487182617,-61.5069198608398,55.752660267954006,-104.2791320640501,270291456
fw,-88.3301239013671,-60.0148849487304,52.36321340885287,-86.90606839907959,270308123
fw,-88.1709365844726,-58.640625,49.39016127344467,-70.4630238670377,270324790
fw,-87.5237731933593,-57.652904510498,47.51041567935924,-54.17796456591598,270341457
fw,-86.6863708496093,-57.1366386413574,47.02878291300171,-37.33610164481514,270358124
fw,-85.7686767578125,-56.8547668457031,47.870128935333895,-19.53109873807426,270374791
fw,-84.854866027832,-56.8462257385253,49.64981144972756,-0.8249567170957839,270391458
fw,-83.9623641967773,-56.9390335083007,51.785872145246124,18.212440143621237,270408125
fw,-83.053108215332,-57.3982391357421,53.61945772394398,36.593895376579,270424792
fw,-82.0714797973632,-58.557861328125,54.52320966135225,53.12429598494332,270441459
fw,-80.9397430419921,-60.2733459472656,53.989813652074,66.6817319536365,270458126
fw,-79.6694946289062,-62.235050201416,51.69452299859105,76.48223247737066,270474793
fw,-78.523078918457,-63.4751548767089,47.519102305262614,82.22887322110283,270491460
fw,-77.663703918457,-64.4827346801757,41.52505138306537,84.09358500130975,270508127
fw,-77.0424423217773,-65.63720703125,33.88127425169998,82.56851390356758,270524794
fw,-76.5735931396484,-67.0202178955078,24.77608261812662,78.29136355845908,270541461
fw,-76.1937408447265,-67.9563827514648,14.352793826179163,71.94619268064623,270558128
fw,-75.9786529541015,-69.1194610595703,2.6900237746275497,64.27634032859923,270574795
fw,-75.9190063476562,-70.7704238891601,-10.184501933627772,56.16688957398995,270591462
fw,-76.3330383300781,-71.9845123291015,-24.276283074453517,48.70166038119431,270608129
fw,-77.2742309570312,-72.3667526245117,-39.619607758047806,43.09956176599594,270624796
fw,-78.5066146850586,-72.61083984375,-56.26955602846336,40.497637775591706,270641463
fw,-79.9330596923828,-73.0775985717773,-74.250481858062,41.64590441269084,270658130
fw,-81.7235107421875,-73.9680938720703,-93.43684759758574,46.646630836559005,270674797
fw,-83.8844528198242,-75.1309509277343,-113.39340433701375,54.859192068643054,270691464
fw,-86.7613067626953,-76.4222335815429,-133.25028749542815,65.01467918770481,270708131
fw,-88.2481079101562,-77.7479858398437,-151.6932256681996,75.49805918482514,270724798
fw,-85.0995101928711,-79.2349319458007,-167.10176899868665,84.70504829318136,270741465
fw,-82.1608581542968,-81.0044021606445,-177.80493724610088,91.37394090757954,270758132
fw,-79.5318145751953,-82.8437118530273,-182.39095361787173,94.81311133337276,270774799
fw,-76.5783004760742,-84.3298873901367,-180.01423317248887,94.97843679253535,270791466
fw,-73.1526184082031,-85.6019439697265,-170.65110226398747,92.39750456081984,270808133
fw,-69.7357101440429,-86.7020568847656,-155.23651882256925,87.98146087719867,270824800
fw,-67.0615692138671,-87.8811416625976,-135.59407651560616,82.79080194955094,270841467
fw,-65.0943832397461,-88.5087890625,-114.1062589388296,77.81402691994795,270858134
fw,-63.5412559509277,-88.051773071289,-93.17312038251018,73.79066116306545,270874801
fw,-62.2594566345214,-87.1749954223632,-74.61802716670368,71.0920390421165,270891468
fw,-61.2473258972168,-86.1050491333007,-59.24468390288669,69.67583911540616,270908135
fw,-60.4340057373046,-84.8412933349609,-46.704345541204326,69.1339583608641,270924802
fw,-59.7889442443847,-83.4897918701171,-35.72561884668743,68.83395262118016,270941469
fw,-59.3026123046875,-82.2064819335937,-24.638679855825202,68.11595007388169,270958136
fw,-58.9218215942382,-81.0443649291992,-12.027305807365575,66.4786152564045,270974803
fw,-58.800724029541,-80.0036544799804,2.7083168626605114,63.69222920734935,270991470
fw,-59.0433540344238,-79.0056076049804,19.077252161392106,59.80970461409264,271008137
fw,-60.0571556091308,-77.961196899414,35.61830018598976,55.08352301853355,271024804
fw,-62.316104888916,-77.0097045898437,50.37445184832022,49.81862000661975,271041471
fw,-63.9512176513671,-76.2479400634765,61.53538158490852,44.19738961427831,271058138
fw,-65.7994232177734,-75.6786651611328,67.99454104011878,38.1152041206961,271074805
fw,-67.4522628784179,-75.2799072265625,69.6194047214521,31.07042822077219,271091472
fw,-69.0245819091796,-75.0070648193359,67.17009153061228,22.155217698676623,271108139
fw,-70.2013702392578,-74.8632278442382,61.94197566615862,10.180006322536464,271124806
fw,-70.3279571533203,-74.901496887207,55.2967657649643,-6.06845831552124,271141473
fw,-70.5176773071289,-75.1828079223632,48.272961830304766,-27.479032662718563,271158140
fw,-71.7783432006836,-75.9058761596679,41.42750652316112,-54.25922481975407,271174807
fw,-73.9576339721679,-77.0422973632812,34.95093812576118,-85.6691979701054,271191474
fw,-75.2442550659179,-78.6555404663086,28.952229334784242,-119.93991497381761,271208141
fw,-75.4692993164062,-80.8951950073242,23.71550261860995,-154.43528572163174,271224808
fw,-75.8800811767578,-84.0977783203125,19.76441867874945,-186.0582157246402,271241475
fw,-76.553955078125,-88.0008087158203,17.707577911912438,-211.8199763328427,271258142
fw,-77.5434417724609,-86.5983810424804,17.97338056419164,-229.41617425089015,271274809
fw,-78.7360000610351,-82.1227416992187,20.590075545709738,-237.62615980664359,271291476
fw,-79.8546981811523,-79.0933303833007,25.12166411548096,-236.41421169034848,271308143
fw,-80.9871826171875,-76.4831008911132,30.78122893078556,-226.7462864269361,271324810
fw,-82.3329467773437,-72.8780288696289,36.662844799511646,-210.26270584332272,271341477
fw,-83.7132492065429,-69.0697860717773,41.9927105420539,-188.96806194116854,271358144
fw,-84.8649673461914,-65.7854232788086,46.30486035106767,-165.0022104521597,271374811
fw,-85.5536270141601,-63.5970115661621,49.487731160905845,-140.44061253389182,271391478
fw,-86.2166976928711,-62.0026359558105,51.70859693455349,-117.05080296629738,271408145
fw,-86.8954391479492,-60.7162704467773,53.27468624883197,-96.0117873617358,271424812
fw,-87.5602493286132,-59.7712860107421,54.50190428023339,-77.69508032313898,271441479
fw,-87.6401748657226,-58.7363700866699,55.63111536312148,-61.626967786925455,271458146
fw,-87.0003662109375,-57.892463684082,56.789672326203906,-46.69152449158886,271474813
fw,-86.0710525512695,-57.319766998291,57.97762502653612,-31.538068520596696,271491480
fw,-85.0617218017578,-56.9310607910156,59.068551102546486,-15.076630941413217,271508147
fw,-84.0120849609375,-56.7830123901367,59.830511381234516,3.090985169203255,271524814
fw,-82.9218063354492,-56.6307563781738,59.9720724616086,22.44559713189596,271541481
fw,-81.8440856933593,-57.3790473937988,59.2043418083489,41.619013654378136,271558148
fw,-80.7317657470703,-58.6827239990234,57.29957348038262,58.75651038701321,271574815
fw,-79.5956726074218,-60.7948036193847,54.12900644380154,72.06511585555607,271591482
fw,-78.390640258789,-62.7520103454589,49.67106911700613,80.35357237001948,271608149
fw,-77.3171234130859,-64.2110443115234,43.987801708376274,83.36107254354046,271624816
fw,-76.569709777832,-65.2655868530273,37.17416365362245,81.76112564081025,271641483
fw,-76.0282897949218,-66.4952545166015,29.297459347041205,76.87157452641227,271658150
fw,-75.6275253295898,-67.2077178955078,20.356828987462475,70.22154353469901,271674817
fw,-75.2514877319336,-67.6086654663086,10.289060715042346,63.163841129644226,271691484
fw,-74.9421234130859,-68.6295471191406,-0.9803974474922522,56.67326538344231,271708151
fw,-74.8915786743164,-70.3478240966796,-13.47631843473988,51.366647297911875,271724818
fw,-75.2873306274414,-71.6451644897461,-27.14816227346123,47.663716082733806,271741485
fw,-76.1142272949218,-72.2330780029296,-41.89850643715518,45.940130228599145,271758152
fw,-77.1833419799804,-72.556396484375,-57.636337064635846,46.55328847973269,271774819
fw,-78.6105270385742,-73.1860275268554,-74.29630081037638,49.72745616010042,271791486
fw,-80.4955596923828,-74.3335342407226,-91.7793067828919,55.383944519596845,271808153
fw,-82.7599334716796,-75.7041778564453,-109.82136248678266,63.02734959524598,271824820
fw,-85.7638168334961,-76.8509979248046,-127.85180242972201,71.75548379443515,271841487
fw,-89.4773559570312,-78.1317977905273,-144.92160746379125,80.39930479841064,271858154
fw,-86.5879211425781,-79.8063430786132,-159.75335749962423,87.75523768316859,271874821
fw,-83.3094482421875,-81.6775360107421,-170.90980401851854,92.84628807368675,271891488
fw,-80.4617080688476,-83.5697174072265,-177.04010518889632,95.1340937293893,271908155
fw,-77.4458541870117,-85.1105194091796,-177.15789321287403,94.61204254586406,271924822
fw,-74.1187744140625,-86.3736114501953,-170.90690472524406,91.7513935830627,271941489
fw,-70.7199478149414,-87.6756057739257,-158.7491628656534,87.33303857327977,271958156
fw,-67.7803192138671,-88.9115982055664,-141.9851192301641,82.23887191881008,271974823
fw,-65.4973983764648,-89.0262222290039,-122.53471154814201,77.27214880048794,271991490
fw,-63.6843643188476,-87.9809417724609,-102.4934219220453,73.03778538522324,272008157
fw,-62.1901779174804,-86.8628158569336,-83.58650779869694,69.8784029818872,272024824
fw,-60.9856605529785,-85.7552261352539,-66.70900473408969,67.85360706469514,272041491
fw,-60.0412101745605,-84.5281143188476,-51.72191617449128,66.75990530996266,272058158
fw,-59.3357543945312,-83.3219757080078,-37.59000352690727,66.19399184019115,272074825
fw,-58.8151969909668,-82.1780319213867,-22.83269041504188,65.65284156076386,272091492
fw,-58.4958229064941,-81.0616302490234,-6.153492538939649,64.64861636653491,272108159
fw,-58.4255142211914,-79.9786224365234,12.955814393361566,62.807374827055,272124826
fw,-58.8634948730468,-78.8586044311523,33.848548402765026,59.92220494328884,272141493
fw,-59.8177795410156,-77.744514465332,54.74151863989453,55.940787006999436,272158160
fw,-61.8911247253418,-76.8244400024414,73.1386630414707,50.882449912110104,272174827
fw,-64.1010589599609,-76.1715316772461,86.53070324973105,44.70150941756056,272191494
fw,-66.4375457763671,-75.6964492797851,93.13170973097469,37.14002570130704,272208161
fw,-68.8856506347656,-75.3578872680664,92.39567618840053,27.632951408863004,272224828
fw,-70.9169616699218,-75.1743774414062,85.13972924329683,15.326547552982515,272241495
fw,-72.173095703125,-75.1614990234375,73.2486358216445,-0.7593329200160107,272258162
fw,-72.0641555786132,-75.466079711914,59.0926014069905,-21.443192024655637,272274829
fw,-71.9713287353515,-76.0998001098632,44.89993121232555,-47.03464844830581,272291496
fw,-73.058364868164,-77.1391906738281,32.331551602278225,-77.027179100571,272308163
fw,-74.856689453125,-78.5434494018554,22.38135402055245,-109.93859036139166,272324830
fw,-75.6937179565429,-80.4558486938476,15.534713442806549,-143.38714271298517,272341497
fw,-75.9800415039062,-83.2149963378906,11.988068989823743,-174.43779918848472,272358164
fw,-76.4920501708984,-87.1925811767578,11.75524426962969,-200.16536883990355,272374831
fw,-77.2173538208007,-88.0750198364257,14.620962921951797,-218.28018448611158,272391498
fw,-78.1352233886718,-83.22216796875,20.03015477552895,-227.59955987242782,272408165
fw,-79.2654953002929,-79.9547500610351,27.044381093128784,-228.18432602670765,272424832
fw,-80.6390991210937,-77.7076797485351,34.45245479120058,-221.1060037625902,272441499
fw,-81.8542556762695,-74.9482345581054,41.03011954526918,-207.99104348379356,272458166
fw,-83.2439880371093,-71.0411148071289,45.855540050517924,-190.57696738012805,272474833
fw,-84.5882873535156,-67.6718826293945,48.55011268313393,-170.44354427302898,272491500
fw,-85.5578536987304,-65.1912536621093,49.3430488193988,-148.92184834599283,272508167
fw,-86.0071792602539,-63.4031715393066,48.933218289519175,-127.07983951479633,272524834
fw,-86.3540725708007,-61.839988708496,48.2073207931456,-105.70131209136703,272541501
fw,-86.7218322753906,-60.4057579040527,47.93163308064867,-85.25392357485444,272558168
fw,-87.0584259033203,-59.2598762512207,48.53578754278005,-65.8885795258454,272574835
fw,-87.0303421020507,-58.3857765197753,50.051298437394955,-47.50076209474486,272591502
fw,-86.4985961914062,-58.1132774353027,52.1908279487136,-29.850056822688675,272608169
fw,-85.7296447753906,-58.127815246582,54.501580734167696,-12.71302482878796,272624836
fw,-84.8518600463867,-58.1978378295898,56.51833116884778,3.9609953766742443,272641503
fw,-83.934211730957,-58.064208984375,57.86688055129871,19.92931260886806,272658170
fw,-83.0001907348632,-58.3278007507324,58.302552933599536,34.62303952893187,272674837
fw,-82.0394821166992,-59.2470436096191,57.69420560867593,47.25111841795218,272691504
fw,-81.046630859375,-61.0398254394531,55.97829447919268,57.04089030559258,272708171
fw,-79.9967651367187,-62.903938293457,53.110742712825775,63.530898105958336,272724838
fw,-78.9990921020507,-64.0331420898437,49.0380484633957,66.7738401210742,272741505
fw,-78.1471862792968,-64.959602355957,43.69687902189771,67.33497461451658,272758172
fw,-77.4254150390625,-66.0447463989257,37.039075320588495,66.07749328600588,272774839
fw,-76.8280639648437,-66.8485260009765,29.069721102501887,63.84036171912688,272791506
fw,-76.3477935791015,-67.0920715332031,19.878758421423473,61.16771461064298,272808173
fw,-76.0296630859375,-67.6982803344726,9.641645310835498,58.22472987181642,272824840
fw,-75.9124526977539,-69.3681411743164,-1.4323786741424556,54.94760122507956,272841507
fw,-76.178726196289,-71.4491577148437,-13.206630447173287,51.35008955311666,272858174
fw,-76.9854049682617,-72.5902099609375,-25.74454664490835,47.80274338289576,272874841
fw,-78.0765838623046,-72.8157958984375,-39.38894425359976,45.0950696370265,272891508
fw,-79.3187637329101,-72.8313293457031,-54.71503891318587,44.21510404518237,272908175
fw,-80.8114318847656,-73.3810195922851,-72.31980781494858,45.95573074948127,272924842
fw,-82.6688537597656,-74.508071899414,-92.4903940421325,50.55580486743024,272941509
fw,-84.9584579467773,-75.6958389282226,-114.87139540242295,57.5486492661679,272958176
fw,-87.295425415039,-76.9324340820312,-138.2759476491463,65.86969716319742,272974843
fw,-86.1788482666015,-78.3751907348632,-160.73832597280375,74.15852221028084,272991510
fw,-83.1692504882812,-79.9084854125976,-179.8122751507523,81.13064163239588,273008177
fw,-80.3054580688476,-81.6356658935546,-193.03466474785873,85.8916466803844,273024844
fw,-77.5206604003906,-83.4094772338867,-198.4387254481801,88.10092100021267,273041511
fw,-74.35400390625,-84.3563232421875,-195.0080135075875,87.95059784469662,273058178
fw,-70.6111526489257,-85.1079177856445,-182.9747280069491,85.99564408074887,273074845
fw,-67.4075546264648,-85.9921951293945,-163.8694838219355,82.92710081007878,273091512
fw,-65.1505813598632,-86.8273773193359,-140.25503760896058,79.38723517497274,273108179
fw,-63.4810028076171,-87.3059387207031,-115.15989939788986,75.87467418834598,273124846
fw,-62.0685729980468,-87.1669692993164,-91.34984879591973,72.72145193056772,273141513
fw,-60.9449653625488,-86.4339981079101,-70.66216756941697,70.09654610261667,273158180
fw,-60.0394821166992,-85.3537521362304,-53.62029882696174,68.01123954114394,273174847
fw,-59.3701286315918,-84.2278289794921,-39.452644155384334,66.33353120517836,273191514
fw,-58.8429565429687,-83.1917343139648,-26.50775262052453,64.82756896805233,273208181
fw,-58.4412384033203,-82.2849502563476,-12.934630853816765,63.21933584772357,273224848
fw,-58.2849769592285,-81.2971038818359,2.5892662582343995,61.27086963989927,273241515
fw,-58.3622665405273,-80.1581573486328,20.323877554579468,58.83502331603816,273258182
fw,-59.1871261596679,-79.0512313842773,39.31071587268378,55.86274762936819,273274849
fw,-61.1214981079101,-78.1743469238281,57.64659646192425,52.34580141029274,273291516
fw,-63.107177734375,-77.4959182739257,73.07359030058004,48.202021952168735,273308183
fw,-65.0425033569336,-76.8155975341796,83.65364047000939,43.141583579945674,273324850
fw,-66.84912109375,-76.184585571289,88.28766549025075,36.57295932720003,273341517
fw,-68.5999450683593,-75.7181015014648,86.9347631104146,27.602003744883007,273358184
fw,-70.3961715698242,-75.5258026123046,80.51821159857468,15.150677739699756,273374851
fw,-71.4542999267578,-75.6703567504882,70.60451567087938,-1.8105750064502337,273391518
fw,-71.7735824584961,-76.0565109252929,58.99095645798309,-23.951369341175408,273408185
fw,-72.5540237426757,-76.6208724975586,47.3432442339329,-51.25242204645369,273424852
fw,-73.9662399291992,-77.5358581542968,36.98391976219502,-82.74794665124647,273441519
fw,-74.9683074951171,-78.9508361816406,28.84413148039726,-116.44394131363927,273458186
fw,-75.5014419555664,-80.944839477539,23.502100836907346,-149.49865400502523,273474853
fw,-76.1073608398437,-83.7248992919921,21.21065202201572,-178.68448339809376,273491520
fw,-76.9795532226562,-86.7759704589843,21.877184186256002,-201.0451160775707,273508187
fw,-78.1547241210937,-86.0049209594726,25.03806246198383,-214.55872806471865,273524854
fw,-79.6366500854492,-82.3232498168945,29.895461888676337,-218.57789972850333,273541521
fw,-80.8550949096679,-79.5595016479492,35.44821802887787,-213.88487786354378,273558188
fw,-81.9183273315429,-76.9835662841796,40.6908634535431,-202.3603378364086,273574855
fw,-83.3048782348632,-73.9623184204101,44.82063849789693,-186.42424476607383,273591522
fw,-84.8401489257812,-70.8420639038086,47.391575751090734,-168.4664576704135,273608189
fw,-86.0030670166015,-68.2198486328125,48.37286117000825,-150.4207758647958,273624856
fw,-86.8294830322265,-66.1305923461914,48.09694972612128,-133.52629376157282,273641523
fw,-87.6831130981445,-64.4231185913086,47.12152003667918,-118.25408338079093,273658190
fw,-88.5983505249023,-62.7174682617187,46.06178683876807,-104.37203225050423,273674857
fw,-89.0670776367187,-61.084129333496,45.449374589251605,-91.13045067111652,273691524
fw,-88.4644317626953,-59.6687850952148,45.64202473961558,-77.53861063126944,273708191
fw,-87.5842742919921,-58.5082969665527,46.777664702474596,-62.67518115665296,273724858
fw,-86.6086349487304,-57.9683265686035,48.761579636622386,-45.96269553636761,273741525
fw,-85.5596160888671,-57.6536903381347,51.287761330131076,-27.350796854617375,273758192
fw,-84.4836349487304,-57.3956031799316,53.900445777191194,-7.38115739463699,273774859
fw,-83.3404159545898,-57.4943962097168,56.08963036887959,12.872949703874047,273791526
fw,-82.2078399658203,-57.7702445983886,57.396440414823495,31.990984034386077,273808193
fw,-81.0822067260742,-58.7623329162597,57.496672215502336,48.497012304698124,273824860
fw,-79.9234466552734,-60.4748497009277,56.23865158198712,61.205706358532694,273841527
fw,-78.7627334594726,-62.2634735107421,53.62774459119457,69.52233714001457,273858194
fw,-77.678482055664,-63.6400756835937,49.7653969992419,73.58011331090542,273874861
fw,-76.8685760498046,-64.5573348999023,44.762764859616695,74.14611770151743,273891528
fw,-76.2133026123046,-65.6106643676757,38.65910037234691,72.32778876555199,273908195
fw,-75.6390838623046,-66.5914611816406,31.37915949426221,69.20642792096757,273924862
fw,-75.1338348388671,-67.0802612304687,22.752362323977252,65.55543605793133,273941529
fw,-74.6605377197265,-67.9273223876953,12.586634424857268,61.75702871272031,273958196
fw,-74.3667755126953,-69.6058959960937,0.7562608067713791,57.936683211861535,273974863
fw,-74.4580078125,-71.3969039916992,-12.749858164135269,54.2256921054051,273991530
fw,-75.1024703979492,-72.3075408935546,-27.85005865957329,50.98858864244466,274008197
fw,-76.1489639282226,-72.5778121948242,-44.44223855978211,48.86803663639233,274024864
fw,-77.4604797363281,-72.938003540039,-62.46224843400839,48.61038465922497,274041531
fw,-79.2082366943359,-73.828872680664,-81.85928821368285,50.767430114605354,274058198
fw,-81.292251586914,-75.0853729248046,-102.46439658650792,55.43157056919752,274074865
fw,-83.5345840454101,-76.2688293457031,-123.7983567683462,62.12560265236309,274091532
fw,-86.3551406860351,-77.3952102661132,-144.9171035963872,69.88310870582663,274108199
fw,-87.5176162719726,-78.7442169189453,-164.39017157651168,77.48099597998484,274124866
fw,-84.7138748168945,-80.5323257446289,-180.44924686591156,83.74463806875788,274141533
fw,-81.8490982055664,-82.3205947875976,-191.2713054037586,87.8309361218428,274158200
fw,-79.1397094726562,-83.9336013793945,-195.32506910031307,89.40243992576136,274174867
fw,-75.9795532226562,-85.1600875854492,-191.71532963579688,88.64404824766955,274191534
fw,-72.2679443359375,-86.3232650756836,-180.46399629438108,86.13633467937886,274208201
fw,-68.8694915771484,-87.532485961914,-162.64431375249669,82.65329353754814,274224868
fw,-66.2997360229492,-88.483154296875,-140.27289235142095,78.96346288781395,274241535
fw,-64.3905868530273,-88.6166152954101,-115.91899491024064,75.68250843983417,274258202
fw,-62.7725181579589,-87.8619232177734,-92.10808469348264,73.1866187079575,274274869
fw,-61.4649200439453,-86.7215957641601,-70.7040857012239,71.57942811797655,274291536
fw,-60.4677124023437,-85.3717498779296,-52.4817426086245,70.70840116981768,274308203
fw,-59.7460708618164,-84.0491867065429,-37.03835052369971,70.228765409229,274324870
fw,-59.1961441040039,-82.8891220092773,-23.082082741436636,69.70448238309496,274341537
fw,-58.8431930541992,-81.7291107177734,-9.013866797782619,68.72407394443215,274358204
fw,-58.6235160827636,-80.5556259155273,6.3798354701213205,67.00317388392064,274374871
fw,-58.7497634887695,-79.3774032592773,23.35813722449234,64.44587622896546,274391538
fw,-59.2178306579589,-78.1907958984375,40.99406909426856,61.14167889832464,274408205
fw,-60.5962829589843,-77.1576309204101,57.388479179480555,57.28652140620112,274424872
fw,-63.1110496520996,-76.3150405883789,70.27254383431145,53.037790131045526,274441539
fw,-65.1536560058593,-75.62548828125,77.77849881454267,48.340376969325135,274458206
fw,-67.5028610229492,-74.9524154663086,79.07819161882186,42.78222125333319,274474873
fw,-69.1176986694336,-74.3901748657226,74.64306900161068,35.54012345918546,274491540
fw,-70.5299606323242,-73.9922866821289,66.04262303061903,25.455798420927696,274508207
fw,-71.0418395996093,-73.8342590332031,55.38801288524787,11.24682874934969,274524874
fw,-70.4928970336914,-73.9844589233398,44.66208193189062,-8.179012933632572,274541541
fw,-70.658203125,-74.4233245849609,35.210572297622434,-33.36695061149033,274558208
fw,-72.1584091186523,-75.1462326049804,27.58725934929057,-63.9985672828258,274574875
fw,-74.0988540649414,-76.3427352905273,21.769088738288165,-98.71008129506639,274591542
fw,-74.9529495239257,-78.2834701538086,17.566625729443274,-135.1319545754679,274608209
fw,-75.2105178833007,-81.0090103149414,14.967340840964933,-170.19340141016244,274624876
fw,-75.8243255615234,-84.5537109375,14.224556664550857,-200.65649061545153,274641543
fw,-76.7363586425781,-88.6555023193359,15.681914334352916,-223.75271626336684,274658210
fw,-77.8573837280273,-86.0437850952148,19.476089332789385,-237.73251266035118,274674877
fw,-79.1330795288086,-81.7489318847656,25.307141275003925,-242.1469499032358,274691544
fw,-80.3297576904296,-78.688980102539,32.406519194086194,-237.77549089260268,274708211
fw,-81.8294906616211,-75.637580871582,39.71855460813482,-226.258276581339,274724878
fw,-83.3349380493164,-71.9259033203125,46.20611862569461,-209.6041712755147,274741545
fw,-84.8556671142578,-68.517593383789,51.14221271153653,-189.75572687320954,274758212
fw,-85.9662399291992,-65.7175979614257,54.269882970296436,-168.30796090768186,274774879
fw,-86.8696899414062,-63.4944839477539,55.78523110617838,-146.38155248284394,274791546
fw,-87.7676086425781,-61.4286727905273,56.183124984444966,-124.61005225288535,274808213
fw,-88.8475036621093,-59.5406303405761,56.0549732842137,-103.20785736068098,274824880
fw,-88.8084335327148,-58.2137489318847,55.91769039919882,-82.09702468092101,274841547
fw,-87.8404312133789,-57.1298675537109,56.10511899626192,-61.06838895657181,274858214
fw,-86.7700805664062,-56.6872596740722,56.71544509034255,-39.94838813194504,274874881
fw,-85.6545867919921,-56.570384979248,57.603608742441054,-18.74687790254511,274891548
fw,-84.5323410034179,-56.4304656982421,58.41904009513397,2.2348272436217864,274908215
fw,-83.388557434082,-56.3465309143066,58.690314838960646,22.362164076501273,274924882
fw,-82.192268371582,-57.0473594665527,57.944657596329726,40.72535169004281,274941549
fw,-81.0081787109375,-58.3071136474609,55.833402138587225,56.31411521723607,274958216
fw,-79.7492904663086,-60.2586059570312,52.22536898808651,68.27324200306577,274974883
fw,-78.4996719360351,-62.0216445922851,47.233002823287194,76.14297049640811,274991550
fw,-77.5494842529296,-63.1714515686035,41.152960368943646,79.97437538081769,275008217
fw,-76.920539855957,-64.0979690551757,34.33376809893664,80.26879435849077,275024884
fw,-76.484634399414,-65.4225921630859,27.019712722727768,77.78698190693316,275041551
fw,-76.0986328125,-66.5585784912109,19.241180112395035,73.33841634817152,275058218
fw,-75.7166061401367,-67.197395324707,10.805869215600033,67.65447884147667,275074885
fw,-75.3389587402343,-68.2550888061523,1.3935392010545515,61.389179640570354,275091552
fw,-75.1324081420898,-69.9805755615234,-9.30097410306916,55.216722899490655,275108219
fw,-75.3191146850586,-71.3751449584961,-21.45683362070833,49.93388021332305,275124886
fw,-75.9834213256836,-71.8246002197265,-35.10207904168673,46.45645932079936,275141553
fw,-76.9464874267578,-71.9041290283203,-50.16627140996607,45.65315819665116,275158220
fw,-78.1855392456054,-72.3114395141601,-66.5481573281497,48.069190848852266,275174887
fw,-79.9071655273437,-73.4635314941406,-84.12513129974411,53.67813975339707,275191554
fw,-82.021987915039,-75.0592803955078,-102.6709040836645,61.795104284268284,275208221
fw,-84.5560455322265,-76.4063186645507,-121.71153602048565,71.19809067844895,275224888
fw,-87.8107223510742,-77.7556457519531,-140.39909232157405,80.40858689844215,275241555
fw,-87.9900665283203,-79.4911956787109,-157.4860853268079,88.03209040681669,275258222
fw,-84.3478546142578,-81.3515548706054,-171.43982826552383,93.05718330016971,275274889
fw,-81.2583923339843,-82.9776458740234,-180.67655388749068,95.03491803289315,275291556
fw,-78.3493423461914,-84.2966613769531,-183.8614114932964,94.09952242687619,275308223
fw,-75.0596466064453,-85.6348419189453,-180.2164972818639,90.84498050833648,275324890
fw,-71.4904327392578,-87.1955795288086,-169.77299182350615,86.12044041784873,275341557
fw,-68.3418655395507,-88.8278045654296,-153.48221101108996,80.82129734028771,275358224
fw,-65.9185562133789,-89.6678009033203,-133.10094817721682,75.72680225184007,275374891
fw,-63.9592018127441,-88.7095718383789,-110.8295157410647,71.39718738157853,275391558
