Label,Left_Hip_q,Right_Hip_q,Left_Hip_qd,Right_Hip_qd,SampleTimeFine
iw,-60.9895858764648,-78.4776000976562,22.2013988494873,23.8785915374755,1785938435
iw,-61.955280303955,-78.076675415039,28.568768896934266,23.513765236701285,1785955102
iw,-63.1315002441406,-77.6577072143554,32.90095724445896,20.1988616792402,1785971769
iw,-64.1145553588867,-77.3543548583984,36.80719205766526,14.9334823067674,1785988436
iw,-64.9209365844726,-77.244140625,39.96846979316753,6.0970623392425045,1786005103
iw,-65.7993011474609,-77.2742614746093,42.182143381626425,-7.313114096516554,1786021770
iw,-67.0553131103515,-77.5383682250976,43.41641773774939,-25.49013351473301,1786038437
iw,-68.3593368530273,-78.1598129272461,43.85399393970053,-47.74825966888737,1786055104
iw,-68.9813919067382,-79.1620330810546,43.88441382619257,-72.59533887353031,1786071771
iw,-69.3332138061523,-80.5557479858398,44.009546602524004,-97.9482515657063,1786088438
iw,-70.0690994262695,-82.2000427246093,44.67663413100169,-121.46877220968071,1786105105
iw,-71.391487121582,-83.8245773315429,46.109423501838286,-140.9698007711284,1786121772
iw,-72.9146041870117,-84.82373046875,48.217945922695826,-154.8173443607847,1786138439
iw,-74.2671203613281,-84.2941513061523,50.625591410146924,-162.23925209944554,1786155106
iw,-75.5328598022461,-82.4437408447265,52.79628920325873,-163.45703897855591,1786171773
iw,-76.8496475219726,-80.4212265014648,54.20905865095019,-159.59247918023098,1786188440
iw,-78.0441741943359,-78.6711959838867,54.51798819974748,-152.3664999562535,1786205107
iw,-79.0134887695312,-76.9653625488281,53.64520380715611,-143.68094120139074,1786221774
iw,-79.9064025878906,-75.1192016601562,51.77897432673537,-135.21285518747547,1786238441
iw,-80.8193893432617,-73.2090911865234,49.285197804062285,-128.1307486535322,1786255108
iw,-81.7643661499023,-71.3469543457031,46.5739985987584,-122.97911450983585,1786271775
iw,-82.6457138061523,-69.5140991210937,43.97609851826999,-119.7146004412369,1786288442
iw,-83.3784561157226,-67.4786987304687,41.67087598728333,-117.8428324915685,1786305109
iw,-83.9596405029296,-65.339126586914,39.6803585428023,-116.59682948870665,1786321776
iw,-84.4398651123046,-63.3535919189453,37.916257229526025,-115.10284919544678,1786338443
iw,-84.8466491699218,-61.6242027282714,36.25136392728752,-112.49589915247809,1786355110
iw,-85.1694107055664,-60.2766304016113,34.58595319330513,-107.979302173776,1786371777
iw,-85.3413391113281,-58.8347091674804,32.8903735244427,-100.85950610388004,1786388444
iw,-85.3333511352539,-57.1984367370605,31.217491573546464,-90.60139288617272,1786405111
iw,-85.2178726196289,-55.7001190185546,29.6861399324913,-76.92449095419691,1786421778
iw,-84.9947280883789,-54.6840858459472,28.44041670290566,-59.915215735614936,1786438445
iw,-84.6806488037109,-54.1722106933593,27.594540278539338,-40.10344124923025,1786455112
iw,-84.2894134521484,-53.9031295776367,27.17935824336129,-18.46245701870526,1786471779
iw,-83.802993774414,-53.9263305664062,27.109635874642947,3.677968144656891,1786488446
iw,-83.2510147094726,-54.2494163513183,27.186811815457123,24.79290718676831,1786505113
iw,-82.6348648071289,-55.1463890075683,27.140679945148637,43.37611200520287,1786521780
iw,-81.9831314086914,-56.3207740783691,26.699722600768926,58.174887184219514,1786538447
iw,-81.3197250366211,-57.6358566284179,25.66856571079002,68.39925154766034,1786555114
iw,-80.6326293945312,-59.0058479309082,23.98593264591729,73.85138565937173,1786571781
iw,-80.0296401977539,-60.6573944091796,21.739455282391052,74.93635875493845,1786588448
iw,-79.5275268554687,-62.0296745300293,19.125222773894254,72.54860905420591,1786605115
iw,-79.0967254638671,-63.3047637939453,16.358240608228733,67.86509414775861,1786621782
iw,-78.7175674438476,-64.2264022827148,13.559456735891601,62.103765891175804,1786638449
iw,-78.453254699707,-65.0980682373046,10.657698215407745,56.31816212372884,1786655116
iw,-78.2894744873046,-66.0411148071289,7.345225585484125,51.287067650430174,1786671783
iw,-78.231201171875,-67.2855072021484,3.113178255307792,47.51757912886408,1786688450
iw,-78.1845550537109,-68.7208175659179,-2.629676909249846,45.32242895830412,1786705117
iw,-78.1635131835937,-69.5784149169921,-10.38081402188716,44.89105005456822,1786721784
iw,-78.3714752197265,-69.8002853393554,-20.363645205536734,46.2850959262327,1786738451
iw,-78.8523178100586,-70.1601409912109,-32.40781863325412,49.357069563316976,1786755118
iw,-79.6351547241211,-71.133918762207,-45.93987647578237,53.66724366722605,1786771785
iw,-80.8844299316406,-72.4359436035156,-60.09479726637332,58.49329396815064,1786788452
iw,-82.5111465454101,-73.8643341064453,-73.91194421299697,62.970167850889105,1786805119
iw,-84.1871566772461,-75.1997299194336,-86.54578949012566,66.31243534023335,1786821786
iw,-85.5906906127929,-76.3621826171875,-97.41863927829608,68.02265446345926,1786838453
iw,-86.2812194824218,-77.4757461547851,-106.2710632771793,68.00213442390596,1786855120
iw,-85.570442199707,-78.5497283935546,-113.10938837103312,66.53245824023912,1786871787
iw,-83.67724609375,-79.4899444580078,-118.08492615133498,64.14969507618737,1786888454
iw,-81.4673309326171,-80.3204193115234,-121.35547201850498,61.46571516430785,1786905121
iw,-79.2722396850586,-81.208869934082,-122.98107978150622,58.999006697313064,1786921788
iw,-77.0342483520507,-82.2104110717773,-122.89694467044151,57.06494085185742,1786938455
iw,-74.6654434204101,-83.1608123779296,-120.97983125442161,55.747946853794936,1786955122
iw,-72.4237976074218,-83.9857559204101,-117.18090532878858,54.946010335557986,1786971789
iw,-70.3614501953125,-84.7258224487304,-111.65893971484877,54.455569093381406,1786988456
iw,-68.4083251953125,-85.4023208618164,-104.8415101850372,54.060104774012,1787005123
iw,-66.5739364624023,-85.9631805419921,-97.37357941293286,53.59499158900646,1787021790
iw,-64.8510055541992,-86.4046783447265,-89.96250977246453,52.97605546144935,1787038457
iw,-63.2476158142089,-86.6744003295898,-83.17089149978548,52.193554853914534,1787055124
iw,-61.703498840332,-86.7152099609375,-77.2297797056191,51.28326801348019,1787071791
iw,-60.2108650207519,-86.5140686035156,-71.94149713877272,50.29001343798925,1787088458
iw,-58.9111328125,-86.1032409667968,-66.71479756661311,49.236846933529435,1787105125
iw,-57.6975860595703,-85.6446380615234,-60.73293600565081,48.10866675877055,1787121792
iw,-56.7035217285156,-85.1562118530273,-53.20971972625622,46.85511823750817,1787138459
iw,-55.9543266296386,-84.5231781005859,-43.65520434520621,45.41417766055517,1787155126
iw,-55.5406341552734,-83.8487167358398,-32.065155878349614,43.751559410975425,1787171793
iw,-55.5774421691894,-83.20166015625,-18.972727217944797,41.90175959829322,1787188460
iw,-55.7640266418457,-82.5013961791992,-5.3478120773902855,39.98948034064481,1787205127
iw,-56.130386352539,-81.7861328125,7.622948111629904,38.21159895245069,1787221794
iw,-57.0819625854492,-81.1818542480468,18.81300457223684,36.77095413350331,1787238461
iw,-58.2304992675781,-80.6691665649414,27.416530587481702,35.77081113693179,1787255128
iw,-59.082706451416,-80.150405883789,33.12178680515622,35.097614435628834,1787271795
iw,-59.9737739562988,-79.6175003051757,36.145649887371924,34.331899340528615,1787288462
iw,-60.8497734069824,-79.1183242797851,37.122137269664414,32.72590010105826,1787305129
iw,-61.9238128662109,-78.6239776611328,36.89181888132908,29.2708149380698,1787321796
iw,-62.8480262756347,-78.227798461914,36.27062797209556,22.853244429880533,1787338463
iw,-63.5449600219726,-77.981689453125,35.87155062826094,12.47682411355298,1787355130
iw,-64.371955871582,-77.9117889404296,36.02502783356699,-2.493309848180143,1787371797
iw,-65.5012588500976,-78.1311721801757,36.808981976892845,-22.1161238133637,1787388464
iw,-66.7674255371093,-78.714370727539,38.15844145847951,-45.74404069619881,1787405131
iw,-67.5470886230468,-79.7628784179687,39.98698440351379,-72.01897287366239,1787421798
iw,-67.9667510986328,-81.2889556884765,42.24795242706451,-99.01527532704245,1787438465
iw,-68.6505661010742,-83.1297378540039,44.90931925397346,-124.51832970288548,1787455132
iw,-69.9176940917968,-85.0767440795898,47.88014504114098,-146.39369437642023,1787471799
iw,-71.4832534790039,-86.4731979370117,50.954850282940036,-162.97290894819,1787488466
iw,-72.9346237182617,-85.4423370361328,53.81719947642862,-173.36427483087454,1787505133
iw,-74.1970748901367,-82.7985458374023,56.10048409819649,-177.59908004855598,1787521800
iw,-75.4375381469726,-80.2345352172851,57.47186466481904,-176.55870885938458,1787538467
iw,-76.6069717407226,-78.0972137451171,57.70669299114339,-171.69861315838548,1787555134
iw,-77.6095199584961,-75.8056030273437,56.730158206366,-164.6635273981102,1787571801
iw,-78.5062484741211,-73.2885284423828,54.61742986133086,-156.92497504558935,1787588468
iw,-79.4056549072265,-70.8621520996093,51.55764765290365,-149.54040452773654,1787605135
iw,-80.3575134277343,-68.5224838256836,47.7999275117659,-143.06058937570342,1787621802
iw,-81.2847442626953,-66.1709442138671,43.6046140903728,-137.5521231351248,1787638469
iw,-82.0669403076171,-63.8182563781738,39.21640655104308,-132.6824792249261,1787655136
iw,-82.7079849243164,-61.7110176086425,34.862217758910475,-127.82508736066023,1787671803
iw,-83.2668762207031,-59.726261138916,30.764126491802138,-122.16114628487291,1787688470
iw,-83.7722854614257,-57.9230766296386,27.15174181393234,-114.77486447677188,1787705137
iw,-84.2546844482421,-56.3927536010742,24.259651064660762,-104.75572477548418,1787721804
iw,-84.7075042724609,-55.0177764892578,22.303332754546677,-91.32773081682197,1787738471
iw,-85.1116027832031,-53.7153587341308,21.43773171303604,-74.01417547235982,1787755138
iw,-85.3977279663086,-52.7327423095703,21.711002417530487,-52.81877615284799,1787771805
iw,-85.5918960571289,-52.304889678955,23.027896692771584,-28.374097669193624,1787788472
iw,-85.6280746459961,-52.1246299743652,25.134341946050213,-1.994953366797132,1787805139
iw,-85.4514923095703,-52.2141075134277,27.630569187080425,24.413516191760234,1787821806
iw,-85.1682815551757,-53.0102195739746,30.01579446394275,48.61108668423621,1787838473
iw,-84.7803878784179,-54.4534530639648,31.76196922711164,68.41284754355578,1787855140
iw,-84.1845932006836,-56.1646728515625,32.407097469821764,82.13311073037148,1787871807
iw,-83.4827804565429,-58.1671752929687,31.650305380945923,88.96043475284068,1787888474
iw,-82.7496109008789,-59.7543334960937,29.42286259791735,89.1427103464426,1787905141
iw,-82.0200958251953,-61.5714111328125,25.906884209347716,83.91539113851725,1787921808
iw,-81.4456253051757,-62.8519668579101,21.482935457232823,75.1903840259313,1787938475
iw,-81.0868148803711,-63.6417236328125,16.610401828088175,65.10096564520441,1787955142
iw,-80.8365936279296,-64.2959823608398,11.672602504498672,55.54288450964355,1787971809
iw,-80.64697265625,-64.9465942382812,6.838305618797389,47.850371801376575,1787988476
iw,-80.5726242065429,-65.8743057250976,1.9905082229163735,42.692749679005374,1788005143
iw,-80.5923690795898,-67.3428955078125,-3.2490507292035695,40.184165091135235,1788021810
iw,-80.6806716918945,-68.5538024902343,-9.40446113398329,40.1055100749528,1788038477
iw,-80.8739242553711,-68.9585037231445,-16.974492621230898,42.09943062522261,1788055144
iw,-81.2114639282226,-69.1859359741211,-26.259065227337526,45.74781716569484,1788071811
iw,-81.7806396484375,-69.9813385009765,-37.2377521321566,50.545065623932054,1788088478
iw,-82.7443695068359,-71.2166290283203,-49.5371652999727,55.85891017935898,1788105145
iw,-83.9850387573242,-72.5960311889648,-62.49241215239403,60.965103720176145,1788121812
iw,-85.2160263061523,-73.9610061645507,-75.27508117093409,65.17084722886305,1788138479
iw,-86.0805892944336,-75.2365112304687,-87.04255585402208,67.97212332397733,1788155146
iw,-86.1424255371093,-76.4039993286132,-97.06772833339411,69.16967208759603,1788171813
iw,-84.9874191284179,-77.5459518432617,-104.82539178790618,68.8949747498896,1788188480
iw,-83.001708984375,-78.6484146118164,-110.02720493829791,67.54114170079268,1788205147
iw,-80.8612213134765,-79.6214218139648,-112.60770817729994,65.62851504440385,1788221814
iw,-78.8149490356445,-80.5654754638671,-112.67655632442329,63.65222847983184,1788238481
iw,-76.7408981323242,-81.608901977539,-110.46627226572986,61.95969673078694,1788255148
iw,-74.564208984375,-82.7197265625,-106.30515699668972,60.691752536059234,1788271815
iw,-72.5352630615234,-83.7212142944336,-100.62179210982414,59.79575505387488,1788288482
iw,-70.7466201782226,-84.6214141845703,-93.95614134490418,59.09277635582059,1788305149
iw,-69.0908050537109,-85.4489135742187,-86.94014122091657,58.36612943534715,1788321816
iw,-67.459602355957,-86.1678466796875,-80.22738468945636,57.43947417780416,1788338483
iw,-65.9857406616211,-86.7322998046875,-74.38097172176208,56.224520860246464,1788355150
iw,-64.6228942871093,-87.1357040405273,-69.75043045914968,54.73284752866029,1788371817
iw,-63.3159294128418,-87.256477355957,-66.37618839865173,53.057275672682245,1788388484
iw,-62.0570106506347,-87.0732345581054,-63.95641611336256,51.33286366342555,1788405151
iw,-60.8035812377929,-86.6948852539062,-61.897700224938916,49.68798174479347,1788421818
iw,-59.6877250671386,-86.1947631835937,-59.44773447187386,48.196803458707734,1788438485
iw,-58.7375106811523,-85.6274490356445,-55.88007896326578,46.846880889575246,1788455152
iw,-57.9771728515625,-85.0145416259765,-50.679739485254395,45.534997331887475,1788471819
iw,-57.4629478454589,-84.4210052490234,-43.675239569196584,44.097633230408796,1788488486
iw,-57.2352409362793,-83.7159729003906,-35.08096421406413,42.370570922492405,1788505153
iw,-57.3501281738281,-82.9711380004882,-25.44497862706848,40.259761015632726,1788521820
iw,-57.4155197143554,-82.3129043579101,-15.526704011690303,37.797335222683905,1788538487
iw,-57.5168380737304,-81.7208709716796,-6.140700414634114,35.157306407379096,1788555154
iw,-58.1322326660156,-81.1474304199218,2.003903750385598,32.61701822247007,1788571821
iw,-58.8157348632812,-80.6529464721679,8.446970497410353,30.468565798150316,1788588488
iw,-59.5004692077636,-80.2526473999023,13.077120968073292,28.901274330834717,1788605155
iw,-60.2680740356445,-79.7865600585937,16.152507490460213,27.886055666863584,1788621822
iw,-60.8188323974609,-79.280044555664,18.219930348334056,27.093056893141917,1788638489
iw,-61.6133003234863,-78.8601608276367,19.94717947440044,25.86668195528938,1788655156
iw,-62.408203125,-78.5383224487304,21.92332641972352,23.27134309417235,1788671823
iw,-63.126350402832,-78.3024063110351,24.498371484649436,18.21168806405874,1788688490
iw,-63.9733505249023,-78.1389465332031,27.71924659908049,9.621413571236006,1788705157
iw,-65.0653076171875,-78.1203536987304,31.38160863645072,-3.3000951364415765,1788721824
iw,-66.2968978881836,-78.2782745361328,35.16889760336156,-20.844854853313453,1788738491
iw,-67.1647491455078,-78.6886444091796,38.809178768408835,-42.60730750364282,1788755158
iw,-67.7149200439453,-79.578872680664,42.17131742748646,-67.4137069921971,1788771825
iw,-68.3613815307617,-80.989517211914,45.25954099821393,-93.41545913350674,1788788492
iw,-69.4437255859375,-82.6444625854492,48.1283489323943,-118.35152238574479,1788805159
iw,-70.9447021484375,-84.3425827026367,50.78229493572779,-139.93615228732958,1788821826
iw,-72.4849243164062,-85.5292434692382,53.1201112112084,-156.2890132148094,1788838493
iw,-73.8449935913086,-84.9591979980468,54.94378139724457,-166.30653003693126,1788855160
iw,-75.0647354125976,-82.9482345581054,56.01522720456001,-169.87983588465923,1788871827
iw,-76.2701187133789,-80.5955657958984,56.12883101169012,-167.89707102184,1788888494
iw,-77.3685226440429,-78.4130554199218,55.174207966171956,-162.02311321679483,1788905161
iw,-78.3740158081054,-76.308235168457,53.174896868078555,-154.31234538132344,1788921828
iw,-79.4240951538086,-74.2986907958984,50.29683238339725,-146.75467964966649,1788938495
iw,-80.541030883789,-72.3355941772461,46.82796467762192,-140.86496653158437,1788955162
iw,-81.611946105957,-70.3851699829101,43.137929876878864,-137.40390932698404,1788971829
iw,-82.4902572631836,-68.2087249755859,39.62931393473646,-136.27851685950114,1788988496
iw,-83.1830978393554,-65.8056488037109,36.687766108502196,-136.62320682003792,1789005163
iw,-83.7865676879882,-63.4252243041992,34.63216306079738,-137.01836479282923,1789021830
iw,-84.389404296875,-61.2659034729003,33.66476084881574,-135.776732519547,1789038497
iw,-84.9651489257812,-59.3067741394043,33.82641170406151,-131.2333335097148,1789055164
iw,-85.4420318603515,-57.5063896179199,34.96913203825899,-122.00608385500502,1789071831
iw,-85.782112121582,-55.8601341247558,36.76075410385151,-107.22456090624362,1789088498
iw,-85.9410247802734,-54.3272552490234,38.73018678923046,-86.72738006220895,1789105165
iw,-85.8457946777343,-53.0818519592285,40.349023210620075,-61.2026542492782,1789121832
iw,-85.4449081420898,-52.3480834960937,41.13182831187349,-32.215619013445156,1789138499
iw,-84.9017333984375,-52.1916122436523,40.729524303533836,-2.063690262643408,1789155166
iw,-84.2861557006836,-52.4742927551269,38.991887202153386,26.563585308623985,1789171833
iw,-83.6873931884765,-53.6477355957031,35.986181437337784,51.07451462169913,1789188500
iw,-83.0522842407226,-55.5749816894531,31.97357371098755,69.49893998387434,1789205167
iw,-82.3791122436523,-57.3735275268554,27.354422251915075,80.88843330534836,1789221834
iw,-81.771499633789,-58.9396896362304,22.59350227248383,85.45587242474352,1789238501
iw,-81.2480392456054,-60.0196456909179,18.131367148888337,84.40611087585287,1789255168
iw,-80.7984848022461,-61.1378288269043,14.287211103364639,79.5306515203178,1789271835
iw,-80.3926849365234,-62.2544708251953,11.165273657455675,72.72677734522168,1789288502
iw,-80.0776062011718,-63.4030570983886,8.586168643183905,65.6089926004929,1789305169
iw,-79.8836441040039,-64.4917755126953,6.069281864204753,59.31430724208917,1789321836
iw,-79.8060989379882,-65.6126022338867,2.888321088245033,54.507775610423,1789338503
iw,-79.7768020629882,-67.0730819702148,-1.7924882479821183,51.51552145892178,1789355170
iw,-79.7461013793945,-68.3157730102539,-8.719103427042588,50.47381614409211,1789371837
iw,-79.8667831420898,-68.8284835815429,-18.332491194276297,51.39620244968235,1789388504
iw,-80.3122329711914,-69.1753921508789,-30.604735793963677,54.126900051712546,1789405171
iw,-81.0850677490234,-70.1294174194336,-44.98761571183488,58.23850313342121,1789421838
iw,-82.3184280395507,-71.4574813842773,-60.49910523385826,62.984866952780344,1789438505
iw,-83.9509506225586,-72.9355163574218,-75.92275408053219,67.39232532858661,1789455172
iw,-85.5578155517578,-74.4998321533203,-90.05492107372797,70.48379771260727,1789471839
iw,-86.7766342163086,-75.8812713623046,-101.92478461410342,71.54681969499212,1789488506
iw,-86.8416061401367,-77.0168151855468,-110.93287701594993,70.33080718135635,1789505173
iw,-85.1822052001953,-77.9980239868164,-116.88801738890078,67.09633439095474,1789521840
iw,-82.7696914672851,-78.858169555664,-119.95048136308748,62.5080254261853,1789538507
iw,-80.3815841674804,-79.599609375,-120.50817827617452,57.42342813593919,1789555174
iw,-78.1465682983398,-80.3672256469726,-119.03047475028353,52.659414244354934,1789571841
iw,-75.8256759643554,-81.2332611083984,-115.95589233961417,48.812120594857916,1789588508
iw,-73.4011154174804,-82.099868774414,-111.655047058566,46.175209314717954,1789605175
iw,-71.1576309204101,-82.8864974975586,-106.46461515948968,44.75922102526814,1789621842
iw,-69.176399230957,-83.5512237548828,-100.74161700957474,44.38000684570642,1789638509
iw,-67.2921066284179,-84.1716003417968,-94.87688265762688,44.76992094095669,1789655176
iw,-65.5916595458984,-84.8367691040039,-89.23772599705096,45.671948846572704,1789671843
iw,-63.9074020385742,-85.5116195678711,-84.05549614079862,46.893918990745604,1789688510
iw,-62.326602935791,-86.0857391357421,-79.30508879274058,48.31727493226242,1789705177
iw,-60.845417022705,-86.5308456420898,-74.6316768617145,49.8690706628226,1789721844
iw,-59.4880332946777,-86.8185729980468,-69.36992929412644,51.47646213355075,1789738511
iw,-58.2561874389648,-86.8045120239257,-62.67782921378501,53.02722130324233,1789755178
iw,-57.2026329040527,-86.4627685546875,-53.772668730585444,54.354345884346735,1789771845
iw,-56.3773689270019,-85.9335098266601,-42.21649401950248,55.249948450017,1789788512
iw,-55.7957687377929,-85.279182434082,-28.165789410145937,55.50145741450511,1789805179
iw,-55.5596961975097,-84.5280456542968,-12.492043062486378,54.938156996781935,1789821846
iw,-55.721824645996,-83.7290573120117,3.2940105616405413,53.477116637776824,1789838513
iw,-56.274658203125,-82.9205780029296,17.324894754997047,51.15917997282871,1789855180
iw,-57.1199417114257,-82.0818328857421,27.80651566774266,48.164863346172524,1789871847
iw,-58.2279777526855,-81.2728500366211,33.479675256738965,44.79839844662859,1789888514
iw,-59.366584777832,-80.5414199829101,33.974378127286954,41.42990824197901,1789905181
iw,-60.1288757324218,-79.8850479125976,29.942745050239985,38.39436002190733,1789921848
iw,-60.76362991333,-79.3422241210937,22.924566570806004,35.86145044600794,1789938515
iw,-61.5350341796875,-78.8794784545898,14.987679061918612,33.707915792494035,1789955182
iw,-62.4425544738769,-78.4687576293945,8.252627398661692,31.43480924654668,1789971849
iw,-63.0162811279296,-78.0566329956054,4.428483820141824,28.170008329374614,1789988516
iw,-62.9380760192871,-77.6601257324218,4.464464194773871,22.7784282656045,1790005183
iw,-62.9385948181152,-77.3964920043945,8.39174409982907,14.073570379820024,1790021850
iw,-63.5076789855957,-77.2935638427734,15.399295506084773,1.0936650013486409,1790038517
iw,-64.7929916381836,-77.4170608520507,24.13444660634481,-16.616508339466872,1790055184
iw,-66.3496017456054,-77.8672561645507,33.136957447680636,-38.78565583823265,1790071851
iw,-67.291519165039,-78.7150573730468,41.24709472780951,-64.31954984042937,1790088518
iw,-67.6675720214843,-79.9670486450195,47.83373351618062,-91.37048731927628,1790105185
iw,-68.2197570800781,-81.4515075683593,52.78109107786306,-117.58387437515412,1790121852
iw,-69.3174743652343,-83.0620574951171,56.29394571622551,-140.49365046691753,1790138519
iw,-70.8998336791992,-84.467041015625,58.65141060209162,-157.995029116493,1790155186
iw,-72.5108947753906,-84.5174484252929,60.02806541837095,-168.7839683108613,1790171853
iw,-73.9566345214843,-82.7392044067382,60.4394581310507,-172.63426208115615,1790188520
iw,-75.3727111816406,-80.531265258789,59.80366297225366,-170.40909702463557,1790205187
iw,-76.7465591430664,-78.7080078125,58.06703460905187,-163.7858863093891,1790221854
iw,-77.9028778076171,-77.0217132568359,55.325489444660775,-154.78431995287886,1790238521
iw,-78.7956161499023,-75.2261505126953,51.882169158996504,-145.26681084147847,1790255188
iw,-79.5600357055664,-73.1277770996093,48.21427602462095,-136.57760858790118,1790271855
iw,-80.3492431640625,-70.9638519287109,44.86274399970197,-129.40610728843072,1790288522
iw,-81.1833419799804,-68.8546447753906,42.28889549264149,-123.85548095663873,1790305189
iw,-82.0045852661132,-66.768440246582,40.749925873047694,-119.62725610550336,1790321856
iw,-82.7355575561523,-64.7018280029296,40.23140215070341,-116.21777429856445,1790338523
iw,-83.360855102539,-62.9274749755859,40.45106626237632,-113.0511677626565,1790355190
iw,-83.8830795288086,-61.4043579101562,40.9266800964685,-109.52308102134792,1790371857
iw,-84.3039855957031,-60.0122756958007,41.08887460265149,-104.98143261827508,1790388524
iw,-84.6047210693359,-58.6781616210937,40.41676265109608,-98.70653547267685,1790405191
iw,-84.7475280761718,-57.2368545532226,38.5722113371975,-89.95447201671406,1790421858
iw,-84.7698059082031,-55.7119522094726,35.50373238442924,-78.09001239157382,1790438525
iw,-84.675796508789,-54.5016708374023,31.487555359239668,-62.77827390031007,1790455192
iw,-84.5218124389648,-53.8624992370605,27.080812958377937,-44.16309098765968,1790471859
iw,-84.462043762207,-53.6018104553222,22.984272122192564,-22.959772677846285,1790488526
iw,-84.5040969848632,-53.5430450439453,19.844938811847033,-0.42439032328316617,1790505193
iw,-84.5052490234375,-53.7505302429199,18.059364803430253,21.79816335919175,1790521860
iw,-84.3511810302734,-54.5007438659668,17.649651814190207,41.92000878352907,1790538527
iw,-83.9615478515625,-55.5541915893554,18.263931553039516,58.308408341606984,1790555194
iw,-83.3482284545898,-57.034740447998,19.305228527701125,69.77972843828994,1790571861
iw,-82.5867004394531,-58.5517959594726,20.13794846854694,75.82103832544531,1790588528
iw,-81.8755416870117,-60.3034896850585,20.286524287848486,76.67753183640016,1790605195
iw,-81.3591842651367,-61.6456756591796,19.544074657559758,73.27553646080472,1790621862
iw,-81.0014343261718,-62.7705879211425,17.95028776699587,66.9994799928445,1790638529
iw,-80.7068786621093,-63.6110191345214,15.657828008377793,59.389586006166894,1790655196
iw,-80.4871139526367,-64.2722549438476,12.755983960176133,51.8553212794884,1790671863
iw,-80.3035736083984,-64.9794464111328,9.136285951995468,45.4907799640292,1790688530
iw,-80.1784973144531,-66.1427688598632,4.463276776505552,41.02836799969484,1790705197
iw,-80.0674362182617,-67.4406585693359,-1.7328136656709237,38.895551068202444,1790721864
iw,-80.0406951904296,-68.1083984375,-9.876250641529623,39.28784608355066,1790738531
iw,-80.2345886230468,-68.2390441894531,-20.150517001440253,42.181007360889325,1790755198
iw,-80.7526550292968,-68.7464828491211,-32.36645624088011,47.27647906420223,1790771865
iw,-81.7112045288086,-69.8618850708007,-45.94571408796571,53.950044780812554,1790788532
iw,-83.0391769409179,-71.2301330566406,-60.02193617486615,61.28811355832848,1790805199
iw,-84.4805831909179,-72.7338485717773,-73.61529349972547,68.23983363054147,1790821866
iw,-85.7018508911132,-74.1733093261718,-85.81549703495703,73.83836733663256,1790838533
iw,-86.3706970214843,-75.5041198730468,-95.92100417067911,77.40726658548873,1790855200
iw,-85.8914413452148,-76.7952117919921,-103.51201364201145,78.6816071102536,1790871867
iw,-84.2278289794921,-78.0750579833984,-108.45901424293028,77.81522564159684,1790888534
iw,-82.1842041015625,-79.2036972045898,-110.87870037338071,75.28666964148367,1790905201
iw,-80.171646118164,-80.2395248413086,-111.05532804260663,71.74356731931591,1790921868
iw,-78.1799011230468,-81.2947540283203,-109.35605925286016,67.83655571870491,1790938535
iw,-76.0849151611328,-82.3984985351562,-106.17294337493735,64.0897021994489,1790955202
iw,-73.9798278808593,-83.4321517944336,-101.90756683781491,60.83486581294207,1790971869
iw,-72.0850143432617,-84.3225631713867,-96.98357672228553,58.21014898405651,1790988536
iw,-70.3233413696289,-85.1227569580078,-91.85165895957641,56.201199448747744,1791005203
iw,-68.6501235961914,-85.8306350708007,-86.95713025492923,54.69781974241717,1791021870
iw,-67.0128631591796,-86.4326782226562,-82.66521080613181,53.54543536277657,1791038537
iw,-65.4703140258789,-86.9339523315429,-79.16465888899597,52.583268603521056,1791055204
iw,-63.9866485595703,-87.2381362915039,-76.38432843781635,51.670645629431625,1791071871
iw,-62.5676345825195,-87.2329635620117,-73.95821422495473,50.705318292316214,1791088538
iw,-61.1836929321289,-86.9305038452148,-71.26566213405269,49.63378334634581,1791105205
iw,-59.8984222412109,-86.4354782104492,-67.55524993833116,48.44918385429315,1791121872
iw,-58.7046928405761,-85.9046173095703,-62.13398624761429,47.173785230289376,1791138539
iw,-57.7415046691894,-85.4054794311523,-54.57491913225461,45.83106887765391,1791155206
iw,-57.0531044006347,-84.8618011474609,-44.87926329037817,44.42149294637084,1791171873
iw,-56.6228408813476,-84.2611389160156,-33.53477595784817,42.91804556096786,1791188540
iw,-56.5443038940429,-83.5978927612304,-21.44110036583696,41.28878220203748,1791205207
iw,-56.7758407592773,-82.8934478759765,-9.715462812571038,39.53723374957769,1791221874
iw,-57.1749420166015,-82.2160339355468,0.5670221210590336,37.737556644615246,1791238541
iw,-57.7441940307617,-81.5909652709961,8.621534819786783,36.03832725355009,1791255208
iw,-58.2661781311035,-80.9679107666015,14.119220514621306,34.61873824921381,1791271875
iw,-58.7160835266113,-80.3490524291992,17.230594902937877,33.59849200477388,1791288542
iw,-59.5120468139648,-79.8335342407226,18.547888112667096,32.921042419426215,1791305209
iw,-60.2906761169433,-79.4403305053711,18.920140410876922,32.24483080208085,1791321876
iw,-61.2900733947753,-79.0820617675781,19.24876707738227,30.88583059888692,1791338543
iw,-62.2451820373535,-78.6562881469726,20.288414845472012,27.85142372638858,1791355210
iw,-62.8197441101074,-78.2250747680664,22.489744685216817,21.984662107592786,1791371877
iw,-63.3655776977539,-77.8759765625,25.917441967148864,12.202264438533975,1791388544
iw,-64.1641464233398,-77.7648086547851,30.273258140193075,-2.226256306597193,1791405211
iw,-65.4696655273437,-77.9694290161132,35.03079750233718,-21.430361845794266,1791421878
iw,-66.756103515625,-78.5317611694336,39.63898641652035,-44.789068814185356,1791438545
iw,-67.3318557739257,-79.4986572265625,43.70530974118879,-70.92593522255403,1791455212
iw,-67.7224655151367,-80.8777084350586,47.07501477957585,-97.86350900711915,1791471879
iw,-68.4759063720703,-82.5383605957031,49.785887305261895,-123.3199890361638,1791488546
iw,-69.7467803955078,-84.2471847534179,51.950280192114,-145.09879873344772,1791505213
iw,-71.3467864990234,-85.3615570068359,53.64245802487088,-161.4922440634046,1791521880
iw,-72.8401184082031,-84.5769729614257,54.8444062288879,-171.6004773640816,1791538547
iw,-74.1424560546875,-82.4059677124023,55.46044236723926,-175.47019125824,1791555214
iw,-75.3952255249023,-80.0659561157226,55.37940302036882,-173.99856913120723,1791571881
iw,-76.5464706420898,-78.065185546875,54.549682127136556,-168.62622393975894,1791588548
iw,-77.5166625976562,-76.1202850341796,53.03289091293277,-160.92682660304138,1791605215
iw,-78.3560180664062,-73.9393920898437,51.01345321723556,-152.24124656163337,1791621882
iw,-79.216194152832,-71.6460876464843,48.76115593292752,-143.47155744334674,1791638549
iw,-80.1482925415039,-69.3499984741211,46.56335442046192,-135.0651605266039,1791655216
iw,-81.0721664428711,-67.1827087402343,44.65291004385153,-127.13472591125596,1791671883
iw,-81.9017257690429,-65.1093826293945,43.15415872647536,-119.61898157325308,1791688550
iw,-82.6467056274414,-63.2466239929199,42.0589175986591,-112.40001890126037,1791705217
iw,-83.2931365966796,-61.6939086914062,41.23537252198111,-105.33573314034564,1791721884
iw,-83.8702011108398,-60.2725601196289,40.46643223743372,-98.21755062796615,1791738551
iw,-84.4125823974609,-59.0311546325683,39.509084115544894,-90.7041261001117,1791755218
iw,-84.8443298339843,-57.8607749938964,38.161858811532056,-82.29560475506113,1791771885
iw,-85.107795715332,-56.6058120727539,36.32441364792651,-72.39306189928789,1791788552
iw,-85.2507171630859,-55.4337730407714,34.0326416484506,-60.44257161936124,1791805219
iw,-85.2842025756836,-54.7090415954589,31.4565803087341,-46.11797708537565,1791821886
iw,-85.1682815551757,-54.5201568603515,28.857711447550585,-29.478082188594247,1791838553
iw,-84.96826171875,-54.2776908874511,26.514519753937098,-11.049456981344292,1791855220
iw,-84.723030090332,-54.1489906311035,24.636029231324542,8.185925124838372,1791871887
iw,-84.4295501708984,-54.3912162780761,23.289306514723357,26.902672598476254,1791888554
iw,-84.121337890625,-55.2167282104492,22.36652153422319,43.639986213658084,1791905221
iw,-83.6936340332031,-56.5364379882812,21.60793504034249,57.079828835251156,1791921888
iw,-83.1593780517578,-58.0001220703125,20.678783132658438,66.33011908542043,1791938555
iw,-82.5447540283203,-59.3564338684082,19.275188956509606,71.12164319970147,1791955222
iw,-81.9838409423828,-60.8447265625,17.217293289072483,71.84517274030517,1791971889
iw,-81.5624618530273,-62.08394241333,14.4879761593457,69.414047757353,1791988556
iw,-81.2177276611328,-63.087718963623,11.19662713811135,65.00477113505647,1792005223
iw,-80.9684753417968,-63.9219322204589,7.480778926805976,59.771783451981925,1792021890
iw,-80.8397674560546,-64.7965774536132,3.3875731883404603,54.6366720945503,1792038557
iw,-80.8229675292968,-65.9320297241211,-1.2116544670804479,50.213868733419766,1792055224
iw,-80.8687133789062,-67.2971801757812,-6.631128159517165,46.865551024124265,1792071891
iw,-81.0385360717773,-68.3093872070312,-13.290665871892447,44.810617751427756,1792088558
iw,-81.3621215820312,-68.6783599853515,-21.567909197821294,44.19144605875877,1792105225
iw,-81.8327865600586,-68.9430389404296,-31.633982041381714,45.04967239529882,1792121892
iw,-82.5947723388671,-69.6765975952148,-43.333220337267946,47.24593717760331,1792138559
iw,-83.7078323364257,-70.7620086669921,-56.1518953797063,50.41043409364664,1792155226
iw,-85.0139465332031,-72.0458908081054,-69.2872772304254,53.990082806876444,1792171893
iw,-86.1224288940429,-73.3340148925781,-81.7941735304846,57.38731016517267,1792188560
iw,-86.7014694213867,-74.4405899047851,-92.76725561597108,60.124292486285505,1792205227
iw,-86.1273345947265,-75.4081344604492,-101.51570983555654,61.95580247608552,1792221894
iw,-84.2329940795898,-76.4300384521484,-107.69015208126443,62.88933248487808,1792238561
iw,-81.8107528686523,-77.4189224243164,-111.32424851284262,63.119652713014666,1792255228
iw,-79.4741744995117,-78.3062591552734,-112.76799310952215,62.91699848314992,1792271895
iw,-77.3141479492187,-79.2381744384765,-112.52938065647751,62.516302122965826,1792288562
iw,-75.1414947509765,-80.3129272460937,-111.08971140078646,62.04590815788389,1792305229
iw,-72.9745101928711,-81.4290008544921,-108.77473059152345,61.51415690875499,1792321896
iw,-70.9204711914062,-82.4338226318359,-105.72932996854365,60.846883197935455,1792338563
iw,-69.0536270141601,-83.2730255126953,-101.98290535444568,59.949469001835446,1792355230
iw,-67.2834014892578,-84.0390167236328,-97.54921852021242,58.76400719762846,1792371897
iw,-65.6128540039062,-84.7835006713867,-92.49966666585152,57.303735562014126,1792388564
iw,-64.0134201049804,-85.4639205932617,-86.97314694754336,55.66109580933153,1792405231
iw,-62.5212287902832,-86.0164566040039,-81.12063612433577,53.99283182837513,1792421898
iw,-61.1088638305664,-86.3586883544921,-75.01460263653762,52.485788982806305,1792438565
iw,-59.7797775268554,-86.4613265991211,-68.5726837354497,51.3069804387612,1792455232
iw,-58.5494766235351,-86.3352127075195,-61.54349372926514,50.545881623638266,1792471899
iw,-57.4352111816406,-86.0532073974609,-53.57812998941166,50.164890298351985,1792488566
iw,-56.5036163330078,-85.6471557617187,-44.37315324099273,49.979364924714794,1792505233
iw,-55.8005294799804,-85.155647277832,-33.83659078066113,49.684680924804994,1792521900
iw,-55.3477020263671,-84.5719833374023,-22.213538897268904,48.93248305970405,1792538567
iw,-55.2162895202636,-83.932502746582,-10.118656362191746,47.437752052689156,1792555234
iw,-55.3535079956054,-83.2625427246093,1.5461061022738507,45.08250256245552,1792571901
iw,-55.7800712585449,-82.6017227172851,11.77224846556487,41.97835299994601,1792588568
iw,-56.4977722167968,-82.0185928344726,19.6764836388468,38.460269076727194,1792605235
iw,-57.3224792480468,-81.4880065917968,24.71975766775511,35.003648454056496,1792621902
iw,-57.963279724121,-80.9693908691406,26.851669110061277,32.07980346279102,1792638569
iw,-58.793170928955,-80.541877746582,26.53963271966725,29.98386401791931,1792655236
iw,-59.5660400390625,-80.2261581420898,24.677155385544925,28.67992279572557,1792671903
iw,-60.7168769836425,-79.8950881958007,22.39849405002404,27.70945100688867,1792688570
iw,-61.6170959472656,-79.4801940917968,20.842707750628858,26.199104919616058,1792705237
iw,-62.1578979492187,-79.0413665771484,20.91209053636973,22.981609157724282,1792721904
iw,-62.484806060791,-78.6596450805664,23.07477313771224,16.812495519957558,1792738571
iw,-63.0055503845214,-78.4441528320312,27.2700224628847,6.637484525225942,1792755238
iw,-64.003433227539,-78.5028381347656,32.962365955566554,-8.148272143648787,1792771905
iw,-65.4643478393554,-78.8834152221679,39.33752227504004,-27.504096807871846,1792788572
iw,-66.7321090698242,-79.5560684204101,45.56179534181026,-50.65118040013704,1792805239
iw,-67.3136978149414,-80.6237869262695,50.99211557662759,-76.10704360918942,1792821906
iw,-67.8579177856445,-82.0421600341796,55.26075306545713,-101.85496860142037,1792838573
iw,-68.8670806884765,-83.5916137695312,58.24027126986411,-125.63766560081606,1792855240
iw,-70.4194793701171,-85.1617126464843,59.954880885347016,-145.33759630978068,1792871907
iw,-72.172866821289,-85.6926116943359,60.50484942844077,-159.37264256460134,1792888574
iw,-73.6597213745117,-84.1387634277343,60.030783699982756,-167.00745818226784,1792905241
iw,-74.9254379272461,-81.7031555175781,58.70889180462325,-168.4799982212182,1792921908
iw,-76.1724014282226,-79.4596557617187,56.7575129263101,-164.88839084288665,1792938575
iw,-77.3042297363281,-77.5727233886718,54.4392523192711,-157.86841018982628,1792955242
iw,-78.2145462036132,-75.5960083007812,52.04769236882508,-149.17417280127026,1792971909
iw,-79.0620193481445,-73.4470138549804,49.87270039689459,-140.30340792359144,1792988576
iw,-79.9884796142578,-71.3330078125,48.14888752796604,-132.26782178867717,1793005243
iw,-80.967041015625,-69.4109268188476,47.00331096096625,-125.53273301920946,1793021910
iw,-81.9236068725586,-67.4452285766601,46.42131948295383,-120.0887146247181,1793038577
iw,-82.7545089721679,-65.4134902954101,46.24206620409473,-115.59379279991973,1793055244
iw,-83.4652633666992,-63.5121688842773,46.18488344255371,-111.52696857687553,1793071911
iw,-84.0550918579101,-61.784122467041,45.90063742828201,-107.30761640079301,1793088578
iw,-84.5246124267578,-60.2255363464355,45.039234592369105,-102.35868788598076,1793105245
iw,-84.8551712036132,-58.8931694030761,43.32346439080339,-96.12323880839718,1793121912
iw,-85.0069580078125,-57.5565032958984,40.617705527236176,-88.07000768844155,1793138579
iw,-85.0167388916015,-56.1366729736328,36.976983218290435,-77.7270374279497,1793155246
iw,-84.9292449951171,-55.0198974609375,32.660382551184426,-64.75964247598351,1793171913
iw,-84.751220703125,-54.4073333740234,28.09712707225672,-49.078237324633115,1793188580
iw,-84.5418167114257,-54.0671653747558,23.804660050807055,-30.944790219785894,1793205247
iw,-84.3486175537109,-53.7695236206054,20.272748444505485,-11.04668827429436,1793221914
iw,-84.1731491088867,-53.6536788940429,17.84157070741444,9.4921821738579,1793238581
iw,-83.9834365844726,-53.8884658813476,16.610075239750874,29.197740341884465,1793255248
iw,-83.6964111328125,-54.7816696166992,16.407947981083076,46.45546459833912,1793271915
iw,-83.2751846313476,-56.3499641418457,16.846754751566863,59.82786715362715,1793288582
iw,-82.7300491333007,-57.8820838928222,17.436642905055198,68.40032178353542,1793305249
iw,-82.090461730957,-59.4895210266113,17.72611125241814,72.0336475109586,1793321916
iw,-81.5876388549804,-60.9492607116699,17.409051849492446,71.41784635203867,1793338583
iw,-81.2234115600586,-62.2553520202636,16.355619021640273,67.89155756308762,1793355250
iw,-80.956802368164,-63.2126083374023,14.558383483636602,63.07878890476568,1793371917
iw,-80.7548828125,-63.9280586242675,12.02549493982334,58.46112204387175,1793388584
iw,-80.625244140625,-64.5078353881836,8.676884239799664,55.02942674057936,1793405251
iw,-80.5402374267578,-65.2975082397461,4.296330914247796,53.13452898370952,1793421918
iw,-80.4846878051757,-66.6470108032226,-1.4349039838798774,52.580691299488166,1793438585
iw,-80.506118774414,-68.4118194580078,-8.83460728728676,52.90012125749013,1793455252
iw,-80.692153930664,-69.6487197875976,-18.089459656332956,53.661102589916865,1793471919
iw,-81.1295394897461,-70.0435638427734,-29.153287706324857,54.65438687345039,1793488586
iw,-81.9013900756836,-70.3829650878906,-41.71567303294057,55.88803654803969,1793505253
iw,-83.0404739379882,-71.3034057617187,-55.250354752685745,57.44339382475329,1793521920
iw,-84.4265518188476,-72.5248107910156,-69.11654477812236,59.31464838361295,1793538587
iw,-85.5796890258789,-73.7860488891601,-82.66517837045657,61.33125064506791,1793555254
iw,-85.8543319702148,-74.9381332397461,-95.30857858537908,63.18640466060892,1793571921
iw,-84.9846420288086,-76.0931243896484,-106.5413286007685,64.5333628542224,1793588588
iw,-83.1190109252929,-77.2427978515625,-115.93034863094343,65.0937638357276,1793605255
iw,-80.8269729614257,-78.3665313720703,-123.1020473065719,64.73484804499742,1793621922
iw,-78.62841796875,-79.3744735717773,-127.74478115653724,63.49303186450932,1793638589
iw,-76.6486740112304,-80.1879119873046,-129.63385786999476,61.542094186118824,1793655256
iw,-74.6376800537109,-81.0300827026367,-128.68207555106952,59.12461370704286,1793671923
iw,-72.4663009643554,-81.9585342407226,-125.00986391438823,56.47934756457319,1793688590
iw,-70.3048553466796,-82.9041366577148,-119.00742918588453,53.79547405628276,1793705257
iw,-68.2954483032226,-83.709732055664,-111.34182297879276,51.20661224626959,1793721924
iw,-66.5548858642578,-84.4319686889648,-102.86942162864094,48.81556991351261,1793738591
iw,-64.9675827026367,-85.1000747680664,-94.45522041788433,46.72800118558803,1793755258
iw,-63.3832397460937,-85.7068252563476,-86.75210842384233,45.07269324830716,1793771925
iw,-61.8301734924316,-86.2427673339843,-80.02206012663753,43.994106321042835,1793788592
iw,-60.3624191284179,-86.7118148803711,-74.06879124569096,43.61540039792996,1793805259
iw,-59.0158729553222,-87.0771179199218,-68.30773397070065,43.98408350564777,1793821926
iw,-57.7957687377929,-87.2690658569336,-61.95086281986448,45.0220615465742,1793838593
iw,-56.7184448242187,-87.2457962036132,-54.25209338520821,46.5025891477101,1793855260
iw,-55.8570861816406,-86.9568939208984,-44.74730685327942,48.06851880192558,1793871927
iw,-55.2737464904785,-86.4498443603515,-33.42524545150313,49.29304869183291,1793888594
iw,-55.0542869567871,-85.8460235595703,-20.77947179540405,49.770335159579425,1793905261
iw,-55.2538566589355,-85.1462326049804,-7.72066913374398,49.212975350278754,1793921928
iw,-55.7436561584472,-84.3427200317382,4.629767113859913,47.529068321707165,1793938595
iw,-56.3024291992187,-83.5608139038086,15.204787931942601,44.85354823482069,1793955262
iw,-57.2342834472656,-82.8458251953125,23.237463481111334,41.516427981570544,1793971929
iw,-57.9447975158691,-82.1882705688476,28.419764880992602,37.94481503876887,1793988596
iw,-58.7659187316894,-81.6272735595703,30.937500518223626,34.514586726007536,1794005263
iw,-59.6484947204589,-81.1803359985351,31.383809124075412,31.386539771738576,1794021930
iw,-60.7512893676757,-80.8218994140625,30.588270515028547,28.374381498684212,1794038597
iw,-61.7891082763671,-80.4828491210937,29.41547370749599,24.89255994123178,1794055264
iw,-62.5163345336914,-80.1483917236328,28.583051101775382,20.017016587615775,1794071931
iw,-63.0349235534668,-79.8705520629882,28.538031501124653,12.662716798660215,1794088598
iw,-63.6656837463378,-79.7545089721679,29.422234955090886,1.8467348685303577,1794105265
iw,-64.6165695190429,-79.872573852539,31.141035178309227,-13.02279925119382,1794121932
iw,-65.9393539428711,-80.2101364135742,33.50884883326688,-31.904378003063268,1794138599
iw,-66.7203369140625,-80.8464202880859,36.394192893860385,-53.995244447030814,1794155266
iw,-66.9447784423828,-81.9502182006836,39.77517975148035,-77.76593296816729,1794171933
iw,-67.4684143066406,-83.4307250976562,43.672121451963875,-101.17192883542648,1794188600
iw,-68.6307220458984,-85.0507431030273,48.01083872666873,-122.01358226040328,1794205267
iw,-70.248908996582,-86.3901214599609,52.51535419108819,-138.37043437674257,1794221934
iw,-71.8893814086914,-85.9829788208007,56.700646992259955,-149.0034484736428,1794238601
iw,-73.3514251708984,-83.8662719726562,59.97075588971495,-153.61212030530194,1794255268
iw,-74.764533996582,-81.4825592041015,61.777054819697774,-152.86388227191415,1794271935
iw,-76.1562042236328,-79.4414520263671,61.775917081083385,-148.1811462343465,1794288602
iw,-77.3564147949218,-77.6153488159179,59.93380486732249,-141.3550048673182,1794305269
iw,-78.3211288452148,-75.7662506103515,56.54777374683104,-134.11298978981688,1794321936
iw,-79.196044921875,-73.8201293945312,52.1766374437225,-127.7693043341946,1794338603
iw,-80.1246643066406,-71.8600234985351,47.508230774281024,-123.03428959439148,1794355270
iw,-81.0633239746093,-69.9482421875,43.208175377415984,-119.99194912356843,1794371937
iw,-81.9340133666992,-67.9789581298828,39.793977563426246,-118.20563771610583,1794388604
iw,-82.6742935180664,-65.9573364257812,37.55932139083237,-116.89297231243216,1794405271
iw,-83.3255615234375,-64.0532913208007,36.55222795276749,-115.11312142448239,1794421938
iw,-83.9081954956054,-62.3724060058593,36.5983262384202,-111.92485380535344,1794438605
iw,-84.4256439208984,-60.7117614746093,37.357216020558084,-106.49922865766497,1794455272
iw,-84.8221054077148,-59.1700592041015,38.400286146919726,-98.19830771479123,1794471939
iw,-84.9930419921875,-57.7639617919921,39.297254399679645,-86.64465169468073,1794488606
iw,-84.9616088867187,-56.449047088623,39.695198181718474,-71.79550559603906,1794505273
iw,-84.7491683959961,-55.3702812194824,39.37216627814686,-54.00834847945097,1794521940
iw,-84.4071807861328,-54.7816505432128,38.25302119065619,-34.062555581722044,1794538607
iw,-83.9856872558593,-54.7689399719238,36.38822141627494,-13.104559107269463,1794555274
iw,-83.547737121582,-54.9037742614746,33.910288894225374,7.488493358701912,1794571941
iw,-83.0121383666992,-55.1719779968261,30.989365407953965,26.29971919385929,1794588608
iw,-82.452392578125,-55.916706085205,27.80454100878502,42.077266536688654,1794605275
iw,-81.8908767700195,-57.0539932250976,24.534543650268535,53.91687852676905,1794621942
iw,-81.3478927612304,-58.1139259338378,21.35793400399915,61.39456112421829,1794638609
iw,-80.8416137695312,-59.3711547851562,18.446806056878412,64.62591264663484,1794655276
iw,-80.3930740356445,-60.7153892517089,15.941749108554244,64.23567552584312,1794671943
iw,-80.0014572143554,-62.0011672973632,13.906720468191534,61.23601803687703,1794688610
iw,-79.6091995239257,-63.0155906677246,12.27514069690742,56.83171785882017,1794705277
iw,-79.280647277832,-63.890640258789,10.80758594651421,52.190835376264005,1794721944
iw,-79.0455551147461,-64.4996643066406,9.083420296187661,48.23689824107086,1794738611
iw,-78.8466796875,-65.1528854370117,6.542743734953391,45.52315426750364,1794755278
iw,-78.6902160644531,-66.1378784179687,2.5819661398493405,44.22782648444863,1794771945
iw,-78.5914154052734,-67.4829788208007,-3.311813805495982,44.25939674268572,1794788612
iw,-78.6139450073242,-68.6018905639648,-11.420645500204616,45.40490324547148,1794805279
iw,-78.8958053588867,-69.1740798950195,-21.692675120295732,47.432728241531,1794821946
iw,-79.4213485717773,-69.5157928466796,-33.71332970544184,50.10069785188911,1794838613
iw,-80.2165069580078,-70.3164749145507,-46.76624225081746,53.097825489041334,1794855280
iw,-81.3855285644531,-71.4777908325195,-59.97004769653544,56.00171776972809,1794871947
iw,-82.9225997924804,-72.7680130004882,-72.4515415575921,58.31930249159811,1794888614
iw,-84.5672912597656,-74.0816268920898,-83.50346883866385,59.61248659624203,1794905281
iw,-85.985855102539,-75.2520065307617,-92.68201488827347,59.648887142382264,1794921948
iw,-86.9013671875,-76.2329940795898,-99.8233404451978,58.502155757539335,1794938615
iw,-86.3969650268554,-77.1584167480468,-104.9883265326324,56.55520945577553,1794955282
iw,-84.5208129882812,-78.0306625366211,-108.36451237034542,54.40451398554518,1794971949
iw,-82.2861175537109,-78.8234939575195,-110.1595056054162,52.69878150137804,1794988616
iw,-80.0065841674804,-79.6028213500976,-110.51916197278632,51.962519850134825,1795005283
iw,-77.6757278442382,-80.4894027709961,-109.50048251201449,52.4561899431154,1795021950
iw,-75.3319625854492,-81.4777145385742,-107.11445023097592,54.112269278795566,1795038617
iw,-73.1366500854492,-82.4970626831054,-103.422877375002,56.56186924407828,1795055284
iw,-71.1188659667968,-83.4518356323242,-98.64069990232794,59.23782637960237,1795071951
iw,-69.1645431518554,-84.388671875,-93.18429125759768,61.52003151506482,1795088618
iw,-67.3263244628906,-85.2892379760742,-87.62604339145398,62.883623028051524,1795105285
iw,-65.5819854736328,-86.0476989746093,-82.55521457715754,63.016541683042185,1795121952
iw,-63.8870506286621,-86.54736328125,-78.38678978104528,61.88265470213878,1795138619
iw,-62.2608833312988,-86.7189025878906,-75.18774415357528,59.717457258743565,1795155286
iw,-60.630859375,-86.5540008544921,-72.59270228835027,56.956269236264184,1795171953
iw,-59.0543899536132,-86.2170639038086,-69.85538744389342,54.110310839140936,1795188620
iw,-57.5889587402343,-85.7995223999023,-66.03583590488113,51.62182578767191,1795205287
iw,-56.3076629638671,-85.2999725341796,-60.27285794700674,49.7401180773806,1795221954
iw,-55.2785301208496,-84.7306900024414,-52.05632457871191,48.458850538793634,1795238621
iw,-54.6077690124511,-84.0828781127929,-41.40906943292939,47.537682123799925,1795255288
iw,-54.345905303955,-83.3309097290039,-28.917221622008217,46.60291305865701,1795271955
iw,-54.4432678222656,-82.5038604736328,-15.600876337351776,45.292972796803575,1795288622
iw,-54.8492431640625,-81.6914978027343,-2.6726638759135635,43.39640856262077,1795305289
iw,-55.3688125610351,-80.9756546020507,8.734502171796434,40.930018740351066,1795321956
iw,-56.1308250427246,-80.3354949951171,17.79135494037805,38.1242165269223,1795338623
iw,-56.8726844787597,-79.7784957885742,24.100542374675133,35.31497995026459,1795355290
iw,-57.6228904724121,-79.3503112792968,27.72135828817324,32.774822167810655,1795371957
iw,-58.6871643066406,-78.9827346801757,29.109500075341703,30.537697178820093,1795388624
iw,-59.8547668457031,-78.5629959106445,28.997963918628745,28.277673832313386,1795405291
iw,-60.9732017517089,-78.1107635498046,28.24159152483991,25.28666601702949,1795421958
iw,-61.8076934814453,-77.7232131958007,27.64607080232033,20.567019605666303,1795438625
iw,-62.3718872070312,-77.4661560058593,27.81142774009231,13.02166705727183,1795455292
iw,-63.0880126953125,-77.3746185302734,29.033965626025733,1.7002908293797847,1795471959
iw,-64.0943069458007,-77.5514526367187,31.306133684099898,-13.950127548183271,1795488626
iw,-65.3610229492187,-78.055061340332,34.413898365515486,-33.8808618706525,1795505293
iw,-66.2941207885742,-78.8367309570312,38.074214693179734,-57.32701680947732,1795521960
iw,-66.7065277099609,-80.00048828125,42.030102116761604,-82.81789789440114,1795538627
iw,-67.2597732543945,-81.6522598266601,46.05862683814997,-108.33299280344042,1795555294
iw,-68.3582000732421,-83.6094131469726,49.91905479266244,-131.60035675735142,1795571961
iw,-69.966323852539,-85.7449951171875,53.310097871391704,-150.49832666927685,1795588628
iw,-71.6222152709961,-87.138442993164,55.88547066940974,-163.48083376199833,1795605295
iw,-73.045166015625,-85.5096969604492,57.325597398439385,-169.91627067419984,1795621962
iw,-74.3812103271484,-82.6891708374023,57.42756643432338,-170.22938005406098,1795638629
iw,-75.6304244995117,-80.2257995605468,56.17219479956246,-165.78123268136838,1795655296
iw,-76.6769180297851,-78.210205078125,53.742829050340646,-158.50971711132718,1795671963
iw,-77.5476684570312,-76.112190246582,50.48928560539056,-150.44385922104806,1795688630
iw,-78.3701705932617,-73.9306335449218,46.847867297722836,-143.24666572856577,1795705297
iw,-79.2694549560546,-71.7582168579101,43.24390531001106,-137.9101725914896,1795721964
iw,-80.1712112426757,-69.5987777709961,40.0101098164148,-134.6512770971724,1795738631
iw,-81.0026779174804,-67.2987823486328,37.34541165010341,-132.98635365855725,1795755298
iw,-81.7191925048828,-64.8636932373046,35.318754910503415,-131.92256365995044,1795771965
iw,-82.336685180664,-62.5869102478027,33.903193265759796,-130.19271993212072,1795788632
iw,-82.8940048217773,-60.5231132507324,33.01793185482388,-126.472585715157,1795805299
iw,-83.4560241699218,-58.6854095458984,32.56090762751298,-119.55161764156351,1795821966
iw,-83.9438858032226,-57.0335617065429,32.42620757139295,-108.4677390613894,1795838633
iw,-84.2932205200195,-55.4966316223144,32.51040403989346,-92.63882562336612,1795855300
iw,-84.5007553100586,-54.0486106872558,32.713768643231795,-72.00980079281072,1795871967
iw,-84.5868377685546,-52.9682960510253,32.9381781110634,-47.19178150348325,1795888634
iw,-84.5125274658203,-52.5293540954589,33.08089531320966,-19.5295415404378,1795905301
iw,-84.2967300415039,-52.5217933654785,33.026637313805075,8.97262667677602,1795921968
iw,-83.9823913574218,-52.8872756958007,32.646119162448606,35.90077571460572,1795938635
iw,-83.5274353027343,-54.0444107055664,31.811035578826775,58.83073301265198,1795955302
iw,-82.9946746826171,-55.8394317626953,30.429505535085223,75.79035636985888,1795971969
iw,-82.3853683471679,-57.6620025634765,28.49373212784646,85.65760533711013,1795988636
iw,-81.7044067382812,-59.3972854614257,26.118630301189103,88.3688329515615,1796005303
iw,-81.0334548950195,-60.758186340332,23.54390996076169,84.86787531896846,1796021970
iw,-80.4964904785156,-62.0543098449707,21.078780703343327,76.81944894494642,1796038637
iw,-80.0662689208984,-62.9906425476074,18.98957034059835,66.19339024411265,1796055304
iw,-79.7316818237304,-63.7950057983398,17.35971525733916,54.859194038865034,1796071971
iw,-79.4784622192382,-64.3814926147461,15.974978009340896,44.30610314916656,1796088638
iw,-79.2562408447265,-65.0776214599609,14.290166579568853,35.5418321757314,1796105305
iw,-79.0238800048828,-66.1531143188476,11.511400112349133,29.1481275617037,1796121972
iw,-78.7717361450195,-67.0833282470703,6.786749781746149,25.409120270220594,1796138639
iw,-78.6435470581054,-67.3083190917968,-0.5457652862594842,24.40824133519949,1796155306
iw,-78.7374877929687,-67.2492752075195,-10.731192559565523,26.032196543754615,1796171973
iw,-79.0180053710937,-67.6894607543945,-23.468257553475276,29.907285165849647,1796188640
iw,-79.6350936889648,-68.6703109741211,-37.9240151538146,35.361228555518785,1796205307
iw,-80.631607055664,-69.8180389404296,-52.89304718334633,41.49669298336751,1796221974
iw,-81.8615417480468,-71.1297531127929,-67.05649347471122,47.38728846986642,1796238641
iw,-83.1449356079101,-72.412368774414,-79.26625585389444,52.323346842026496,1796255308
iw,-84.1521224975586,-73.4917907714843,-88.77479596717961,55.99975228013084,1796271975
iw,-84.6867752075195,-74.4521102905273,-95.3517964708065,58.56476899397888,1796288642
iw,-84.3932495117187,-75.4231262207031,-99.2652749282443,60.51222726063114,1796305309
iw,-83.3052291870117,-76.3448104858398,-101.1423264770719,62.46272200110917,1796321976
iw,-81.9181060791015,-77.2908172607421,-101.75519945567119,64.91644816887795,1796338643
iw,-80.4189758300781,-78.4749603271484,-101.79820232989559,68.06314783327633,1796355310
iw,-78.7885589599609,-79.8839569091796,-101.72290747556852,71.70819263499492,1796371977
iw,-76.9419860839843,-81.2713012695312,-101.67626820934204,75.32951883832445,1796388644
iw,-75.0298767089843,-82.5507354736328,-101.54515516200384,78.23539509889349,1796405311
iw,-73.1935806274414,-83.740478515625,-101.07222945662025,79.76558683275788,1796421978
iw,-71.3235549926757,-84.8322982788086,-99.99016751633147,79.4750960551524,1796438645
iw,-69.4841537475586,-85.6852951049804,-98.12633858892755,77.25381642744239,1796455312
iw,-67.6002960205078,-86.2118377685546,-95.44853006005609,73.35723865920976,1796471979
iw,-65.6716232299804,-86.3952178955078,-92.04428852000649,68.34669716367465,1796488646
iw,-63.7891731262207,-86.2633590698242,-88.04696706413415,62.95869912846825,1796505313
iw,-61.9874114990234,-85.9096908569336,-83.5385919296094,57.937545405989006,1796521980
iw,-60.3036041259765,-85.4560623168945,-78.47000825821507,53.87133650763574,1796538647
iw,-58.7602424621582,-84.9900741577148,-72.63684090453532,51.06934731961912,1796555314
iw,-57.4010314941406,-84.4491424560546,-65.73157400286593,49.510148420235524,1796571981
iw,-56.3049240112304,-83.8134078979492,-57.46122447817209,48.87465691120809,1796588648
iw,-55.4403991699218,-83.1152725219726,-47.689314534195745,48.657155503000425,1796605315
iw,-54.901870727539,-82.3285446166992,-36.54552829638261,48.32486199381831,1796621982
iw,-54.7141342163085,-81.445198059082,-24.45574556029899,47.48001529364741,1796638649
iw,-54.9299659729003,-80.5603942871093,-12.07645607069161,45.97342239378464,1796655316
iw,-55.4816970825195,-79.7782516479492,-0.15680110346187215,43.92811737045579,1796671983
iw,-56.1538200378418,-79.0958557128906,10.620767838879178,41.65642605964235,1796688650
iw,-57.1170349121093,-78.5040588378906,19.767594972458262,39.48815274509104,1796705317
iw,-57.8943367004394,-78.0352020263671,27.050646230621414,37.56070666274523,1796721984
iw,-59.1122741699218,-77.6143798828125,32.485103279370605,35.6414662591373,1796738651
iw,-60.3313751220703,-77.1822509765625,36.27639275955202,33.050611327136366,1796755318
iw,-61.5528030395507,-76.7379837036132,38.739368546928965,28.727620307827618,1796771985
iw,-62.5489540100097,-76.2947387695312,40.2199620586044,21.442346202853678,1796788652
iw,-63.4456558227539,-75.9657516479492,41.038889799314134,10.104820658945863,1796805319
iw,-64.539794921875,-75.8428039550781,41.47145096503784,-5.907106287772611,1796821986
iw,-65.8618469238281,-76.0776443481445,41.76374674218728,-26.49370741331528,1796838653
iw,-66.9347229003906,-76.8030014038086,42.158943730274224,-50.72659454684469,1796855320
iw,-67.3627853393554,-77.967170715332,42.88849749660011,-76.923751580498,1796871987
iw,-67.8136215209961,-79.5527801513671,44.10490693308498,-102.89454212828085,1796888654
iw,-68.8472595214843,-81.3437042236328,45.78949211886663,-126.30393778945523,1796905321
iw,-70.4889068603515,-83.1199188232421,47.70745096073642,-145.08194083809383,1796921988
iw,-72.1104507446289,-84.5291900634765,49.46023972028773,-157.7960320986683,1796938655
iw,-73.4898223876953,-84.5462646484375,50.621429472394034,-163.90719339981854,1796955322
iw,-74.7518692016601,-83.0496368408203,50.89228077503445,-163.8444712681738,1796971989
iw,-75.9600067138671,-81.1747512817382,50.208823000214714,-158.86796436468467,1796988656
iw,-77.0038909912109,-79.4248657226562,48.76143902398083,-150.74912689141001,1797005323
iw,-77.8391418457031,-77.6730880737304,46.92440815830524,-141.36039946151004,1797021990
iw,-78.6406097412109,-75.7901535034179,45.1233220169861,-132.29591733661564,1797038657
iw,-79.529067993164,-73.9030609130859,43.689846803388946,-124.62085973498952,1797055324
iw,-80.4813461303711,-72.1539306640625,42.759032449144094,-118.78794235206988,1797071991
iw,-81.3550567626953,-70.4105758666992,42.24672952132072,-114.70410372540633,1797088658
iw,-82.0993270874023,-68.5120162963867,41.909347462584236,-111.89901590012657,1797105325
iw,-82.7165985107421,-66.5595092773437,41.45369392438756,-109.73377919696176,1797121992
iw,-83.2490158081054,-64.7753982543945,40.64819143355109,-107.58469228085583,1797138659
iw,-83.709732055664,-63.1312599182128,39.3939134189188,-104.94881874362636,1797155326
iw,-84.0509719848632,-61.624885559082,37.73768091623186,-101.45168479185524,1797171993
iw,-84.2509307861328,-60.2138023376464,35.835428967083914,-96.78191624840608,1797188660
iw,-84.3183822631836,-58.8181762695312,33.88921705039904,-90.60911540748977,1797205327
iw,-84.2992401123046,-57.6011848449707,32.08256904447972,-82.54391310238802,1797221994
iw,-84.1759414672851,-56.667381286621,30.532269801372664,-72.17642784003596,1797238661
iw,-83.9220123291015,-55.7842483520507,29.26661526577027,-59.19592592014321,1797255328
iw,-83.5849227905273,-54.8653869628906,28.23201187250299,-43.56104515934062,1797271995
iw,-83.1648864746093,-54.2377662658691,27.32169619552153,-25.661045654462733,1797288662
iw,-82.6761932373046,-53.9893722534179,26.414231068702808,-6.393120279821717,1797305329
iw,-82.2128601074218,-54.1300048828125,25.408289073595547,12.90575642164356,1797321996
iw,-81.772216796875,-54.8532752990722,24.244703062736583,30.685570199446644,1797338663
iw,-81.3077621459961,-56.0466156005859,22.913864208052175,45.51500882458636,1797355330
iw,-80.7991867065429,-57.2369232177734,21.451106151590587,56.41229172614127,1797371997
iw,-80.2351531982421,-58.769920349121,19.921369325877627,63.06007377684673,1797388664
iw,-79.7467880249023,-60.0954132080078,18.38978394559968,65.83009369834932,1797405331
iw,-79.3367919921875,-61.1902770996093,16.874364266746195,65.61481885499298,1797421998
iw,-79.014419555664,-62.0652656555175,15.285914864473387,63.535449799716595,1797438665
iw,-78.7636947631836,-62.8259468078613,13.374815052740875,60.640943456328934,1797455332
iw,-78.5721588134765,-63.7092170715332,10.713972586447163,57.71182841914567,1797471999
iw,-78.4662322998046,-64.9843826293945,6.7429001830616535,55.22963362094043,1797488666
iw,-78.3825149536132,-66.6824874877929,0.8784044892309854,53.48532345083467,1797505333
iw,-78.3137588500976,-67.9751052856445,-7.330525786377702,52.722118017088036,1797522000
iw,-78.445068359375,-68.3737411499023,-18.050660083615092,53.19229731894571,1797538667
iw,-78.9343795776367,-68.6169357299804,-31.070154287123685,55.07596957113229,1797555334
iw,-79.8084106445312,-69.4579086303711,-45.79909501411694,58.31981508937387,1797572001
iw,-81.0555419921875,-70.7340850830078,-61.364134897312276,62.52093754856392,1797588668
iw,-82.4314346313476,-72.305679321289,-76.75814893328572,66.95373974670535,1797605335
iw,-83.5205917358398,-73.8560562133789,-90.99064728470336,70.74517029554552,1797622002
iw,-84.0987396240234,-75.2118682861328,-103.20092507208459,73.11991841173892,1797638669
iw,-84.0963516235351,-76.4857025146484,-112.72836028184825,73.61183218018124,1797655336
iw,-83.1934051513671,-77.7542648315429,-119.15497243511022,72.16754034191311,1797672003
iw,-81.6376419067382,-78.858413696289,-122.33039603818614,69.11986070248477,1797688670
iw,-79.9578552246093,-79.6800079345703,-122.37395231105698,65.0548248004537,1797705337
iw,-78.2633514404296,-80.402229309082,-119.64694796164284,60.62756453093442,1797722004
iw,-76.4591751098632,-81.2623672485351,-114.7026314467577,56.39498395850804,1797738671
iw,-74.6081619262695,-82.2560501098632,-108.23084486932436,52.72023507464124,1797755338
iw,-72.7549438476562,-83.1821212768554,-101.00537581131996,49.76653441967675,1797772005
iw,-71.0288696289062,-83.9728240966796,-93.82373029853429,47.55488192078911,1797788672
iw,-69.4541473388671,-84.6716384887695,-87.42174709870135,46.03720369614355,1797805339
iw,-68.0034561157226,-85.3020553588867,-82.3589027632433,45.143716633204576,1797822006
iw,-66.6264572143554,-85.7855529785156,-78.89589546183457,44.79064014871609,1797838673
iw,-65.2517318725586,-86.2017135620117,-76.90626719055165,44.86272614508755,1797855340
iw,-63.8697547912597,-86.5482177734375,-75.86464624953854,45.1991213272698,1797872007
iw,-62.512222290039,-86.7901458740234,-74.93391733732523,45.60481341003505,1797888674
iw,-61.2508430480957,-86.814208984375,-73.14206149897608,45.888954112922136,1797905341
iw,-60.0765838623046,-86.6648178100586,-69.61040754764716,45.91073220764928,1797922008
iw,-59.0147285461425,-86.3765792846679,-63.7776437516683,45.60758488691569,1797938675
iw,-58.183177947998,-85.9897079467773,-55.56049354683276,44.99209620660657,1797955342
iw,-57.6192016601562,-85.5822143554687,-45.40309845328872,44.12316120908609,1797972009
iw,-57.3295822143554,-85.0918426513671,-34.19362523548394,43.070819276632285,1797988676
iw,-57.1697082519531,-84.5192718505859,-23.06400925698442,41.89505405005172,1798005343
iw,-57.1497344970703,-83.8750381469726,-13.124422852624482,40.64754981030737,1798022010
iw,-57.329303741455,-83.2227783203125,-5.203853809286029,39.389200875774314,1798038677
iw,-57.6496505737304,-82.5668487548828,0.3339155195932215,38.20449883526989,1798055344
iw,-57.9079437255859,-81.8728866577148,3.650477749483151,37.19247920138609,1798072011
iw,-57.9989700317382,-81.2274398803711,5.354543905853316,36.422380515638295,1798088678
iw,-58.1983757019043,-80.6628952026367,6.311511624202402,35.85710835449834,1798105345
iw,-58.7004089355468,-80.1816940307617,7.402957581277768,35.26510670390137,1798122012
iw,-59.6213226318359,-79.7387390136718,9.310785049039374,34.15577550582013,1798138679
iw,-60.5714378356933,-79.3100891113281,12.380519957088147,31.777290472577736,1798155346
iw,-61.3767509460449,-78.852066040039,16.58032394494253,27.202617929298,1798172013
iw,-62.0361976623535,-78.3981246948242,21.54629945699868,19.501233619187843,1798188680
iw,-62.8679084777832,-78.0914535522461,26.701059384731828,7.961029792304818,1798205347
iw,-63.9621391296386,-78.0794906616211,31.429960252214226,-7.6979030983238745,1798222014
iw,-65.1976470947265,-78.452407836914,35.27588910721038,-27.1774757755507,1798238681
iw,-65.9303817749023,-79.1362228393554,38.08307146495592,-49.564336776925046,1798255348
iw,-66.1670684814453,-80.2062225341796,40.023719743806126,-73.41287774351615,1798272015
iw,-66.6227416992187,-81.6639175415039,41.49534882376073,-96.93446766799539,1798288682
iw,-67.6413803100586,-83.15771484375,42.94488991849506,-118.26121399822432,1798305349
iw,-69.0243759155273,-84.6400680541992,44.70405315542263,-135.7410780613417,1798322016
iw,-70.4990005493164,-85.5578536987304,46.89485314289276,-148.2124328337249,1798338683
iw,-71.8524398803711,-84.8452835083007,49.41802899406437,-155.19977994556473,1798355350
iw,-73.1073989868164,-83.0051879882812,52.00589380606272,-156.9758378834479,1798372017
iw,-74.3865966796875,-81.0220870971679,54.311584170772285,-154.46171966827018,1798388684
iw,-75.5785675048828,-79.1296005249023,56.00688901910379,-148.98797906343117,1798405351
iw,-76.6868515014648,-77.1484756469726,56.863296642836886,-141.9909642354876,1798422018
iw,-77.8001708984375,-75.12646484375,56.797548134623725,-134.73733671212077,1798438685
iw,-78.9546661376953,-73.1535568237304,55.875198668256864,-128.14389249067352,1798455352
iw,-80.1255264282226,-71.2233276367187,54.27851376101369,-122.7119615598082,1798472019
iw,-81.1983795166015,-69.3617706298828,52.252696511927624,-118.55629216758712,1798488686
iw,-82.0951080322265,-67.4539566040039,50.04614282307281,-115.49018547318076,1798505353
iw,-82.8607025146484,-65.6821594238281,47.85866359910669,-113.12661198562195,1798522020
iw,-83.5564041137695,-64.0610580444336,45.80837550481839,-110.96268934352486,1798538687
iw,-84.2054595947265,-62.4569091796875,43.923778873242036,-108.43106958990346,1798555354
iw,-84.7589950561523,-60.8042297363281,42.16219986849418,-104.92302541951739,1798572021
iw,-85.1818389892578,-59.3020515441894,40.448988485678925,-99.80473117140785,1798588688
iw,-85.4481430053711,-57.902603149414,38.724465199652194,-92.45219158489591,1798605355
iw,-85.5494842529296,-56.566665649414,36.98065202139573,-82.32108406595786,1798622022
iw,-85.5308609008789,-55.3925514221191,35.2713600478613,-69.0506450608858,1798638689
iw,-85.3972549438476,-54.6348037719726,33.68871175368787,-52.58332288384425,1798655356
iw,-85.1542739868164,-54.2745361328125,32.31325138809256,-33.272075178479525,1798672023
iw,-84.8568496704101,-53.9275016784668,31.157056566635546,-11.945945056704758,1798688690
iw,-84.4883956909179,-53.7263641357421,30.12446623128932,10.095997803260358,1798705357
iw,-84.0124053955078,-54.0315628051757,29.01103325184676,31.19445759903992,1798722024
iw,-83.4373016357421,-55.0774269104003,27.548476377545224,49.56358600537467,1798738691
iw,-82.8548507690429,-56.4359016418457,25.484972499499797,63.62589300576942,1798755358
iw,-82.2439193725586,-58.0083618164062,22.672983750460645,72.36577553553533,1798772025
iw,-81.7004089355468,-59.6735954284668,19.12907944223309,75.58348595077759,1798788692
iw,-81.2376937866211,-61.2639694213867,15.036467688535714,73.95097902863952,1798805359
iw,-80.8726272583007,-62.4391784667968,10.67975227671854,68.83896580566454,1798822026
iw,-80.5945663452148,-63.2926940917968,6.326382598545683,61.968127875635524,1798838693
iw,-80.4547653198242,-63.859073638916,2.091832438896022,55.002165618232105,1798855360
iw,-80.4657897949218,-64.6566696166992,-2.161903749588519,49.21917193323435,1798872027
iw,-80.5997924804687,-65.7347030639648,-6.847489707906973,45.35763147098715,1798888694
iw,-80.8069839477539,-67.0159759521484,-12.566394318281509,43.64810453717655,1798905361
iw,-80.9791183471679,-67.9633483886718,-19.92579529739562,43.9567799157691,1798922028
iw,-81.2707138061523,-68.3575134277343,-29.310787805573252,45.935713389541405,1798938695
iw,-81.8832778930664,-68.8484954833984,-40.693844596055726,49.11486520533307,1798955362
iw,-82.9262390136718,-69.8139038085937,-53.55929683384176,52.9445388470056,1798972029
iw,-84.3333435058593,-71.1048812866211,-66.9787502798352,56.83962967245421,1798988696
iw,-85.792251586914,-72.5256271362304,-79.81412972351417,60.25955489329183,1799005363
iw,-86.8277587890625,-73.8263549804687,-90.98020611566245,62.80812346798429,1799022030
iw,-86.5590057373046,-74.9427337646484,-99.68637289729372,64.3061773763753,1799038697
iw,-84.6726989746093,-75.9769973754882,-105.59179777962085,64.79960114699912,1799055364
iw,-82.1055374145507,-77.0139770507812,-108.83286297009501,64.50034711272441,1799072031
iw,-79.7254409790039,-77.9833297729492,-109.9133289870229,63.68890885800777,1799088698
iw,-77.6753311157226,-78.9286117553711,-109.49176695094653,62.61746423772204,1799105365
iw,-75.7642974853515,-80.0040054321289,-108.14717786042809,61.44621160229761,1799122032
iw,-73.7848587036132,-81.1627807617187,-106.21962797093144,60.2291133055192,1799138699
iw,-71.7394104003906,-82.2427902221679,-103.78589171721248,58.94484117350712,1799155366
iw,-69.8008117675781,-83.227783203125,-100.75924999438476,57.55096844546038,1799172033
iw,-68.009292602539,-84.0901107788086,-97.04344251911195,56.033274357590564,1799188700
iw,-66.3216247558593,-84.8900146484375,-92.65564348938267,54.43071720752328,1799205367
iw,-64.7452697753906,-85.6009140014648,-87.76096221114355,52.83325582845667,1799222034
iw,-63.2275962829589,-86.2880706787109,-82.60858903957603,51.362669565100575,1799238701
iw,-61.8250503540039,-86.846321105957,-77.40406261995393,50.14870321363885,1799255368
iw,-60.4322662353515,-87.2023544311523,-72.1790027641737,49.306201052295364,1799272035
iw,-59.0905952453613,-87.296875,-66.7222949188621,48.91188810957071,1799288702
iw,-57.815933227539,-87.1213150024414,-60.61417259087316,48.97913122331447,1799305369
iw,-56.6448020935058,-86.7544784545898,-53.36403723055956,49.4347245220378,1799322036
iw,-55.7014122009277,-86.2416687011718,-44.609477004466655,50.10728863101103,1799338703
iw,-54.9670867919921,-85.6043930053711,-34.30504957540969,50.73727147839009,1799355370
iw,-54.4976730346679,-84.8974304199218,-22.826452674991604,51.01336720327815,1799372037
iw,-54.3378639221191,-84.1128692626953,-10.940662207666676,50.63185672308954,1799388704
iw,-54.512035369873,-83.2423400878906,0.36199673480031536,49.36634793728622,1799405371
iw,-54.9827919006347,-82.3577117919921,10.127076342201743,47.127494899558506,1799422038
iw,-55.7422790527343,-81.5682754516601,17.702120090084108,43.98859289463675,1799438705
iw,-56.6885948181152,-80.8666915893554,22.91602665289104,40.15799179926173,1799455372
iw,-57.3264274597168,-80.2667007446289,26.103638247512247,35.89479760282731,1799472039
iw,-57.8168563842773,-79.8055191040039,27.96407933932815,31.38579545793487,1799488706
iw,-58.6364097595214,-79.4805374145507,29.310088364809427,26.62038239210191,1799505373
iw,-59.7861747741699,-79.2218170166015,30.810702684961758,21.30867562747616,1799522040
iw,-60.6429748535156,-78.9397888183593,32.82151390314172,14.8809813129968,1799538707
iw,-61.2923889160156,-78.7496795654296,35.34585166098053,6.5845361961310305,1799555374
iw,-62.2370872497558,-78.8008728027343,38.118252074418336,-4.3365378387864,1799572041
iw,-63.4643821716308,-79.1088333129882,40.77085295088286,-18.41738290436396,1799588708
iw,-64.8540573120117,-79.6012115478515,43.02169442860071,-35.75656437242701,1799605375
iw,-65.5863876342773,-80.3240737915039,44.80681205222401,-55.86159363158162,1799622042
iw,-65.8452453613281,-81.4601287841796,46.292412450151524,-77.60345128272768,1799638709
iw,-66.2915802001953,-83.0422134399414,47.76447328788625,-99.31268052372207,1799655376
iw,-67.1800384521484,-84.9598541259765,49.46302008015619,-119.02052503163426,1799672043
iw,-68.6056823730468,-87.1627578735351,51.45116596202902,-134.80877034029922,1799688710
iw,-70.1844177246093,-88.6289825439453,53.574218016710184,-145.1941255003692,1799705377
iw,-71.5867385864257,-86.5410690307617,55.50991988009391,-149.45126527343132,1799722044
iw,-72.9409713745117,-83.7349014282226,56.87550372300525,-147.78319625389798,1799738711
iw,-74.2132339477539,-81.2508850097656,57.34853349051739,-141.2831856507716,1799755378
iw,-75.3463439941406,-79.1039199829101,56.76441302179686,-131.69303800510156,1799772045
iw,-76.3053283691406,-77.2257843017578,55.16428514309233,-121.02585842282541,1799788712
iw,-77.1481704711914,-75.4844131469726,52.78220975155076,-111.15866141976504,1799805379
iw,-78.0192337036132,-73.9554748535156,49.979125780355496,-103.49706310035648,1799822046
iw,-78.9248886108398,-72.4796066284179,47.146754709455564,-98.78076941943335,1799838713
iw,-79.8095092773437,-70.8746566772461,44.610974501880385,-97.05419269330106,1799855380
iw,-80.5684356689453,-69.1468048095703,42.5603509669344,-97.7829185065717,1799872047
iw,-81.2004241943359,-67.3177490234375,41.01481043884546,-100.0592930166759,1799888714
iw,-81.7509307861328,-65.6042022705078,39.83689883961553,-102.81951214893459,1799905381
iw,-82.2289810180664,-64.0586776733398,38.77832952815978,-105.00375474591772,1799922048
iw,-82.6052703857421,-62.6021347045898,37.549336247022424,-105.63118781505673,1799938715
iw,-82.8824234008789,-61.1560859680175,35.89609920462871,-103.8129352340984,1799955382
iw,-83.0703201293945,-59.5988845825195,33.67016687780561,-98.75802973664291,1799972049
iw,-83.1996383666992,-58.0803909301757,30.873828189266437,-89.82216506147496,1799988716
iw,-83.285774230957,-56.8504676818847,27.669100043033577,-76.61488782808078,1800005383
iw,-83.3667068481445,-55.920066833496,24.346339584320212,-59.14276720382292,1800022050
iw,-83.4136428833007,-55.1825141906738,21.25933388591336,-37.94322499745574,1800038717
iw,-83.4676284790039,-54.7194938659668,18.74328728152348,-14.15719680792681,1800055384
iw,-83.4551620483398,-54.6787452697753,17.037354826076992,10.507734264696806,1800072051
iw,-83.36328125,-55.024787902832,16.232564388260847,33.956624403198,1800088718
iw,-83.1599807739257,-55.8934860229492,16.258648320447158,54.02640070747548,1800105385
iw,-82.8318862915039,-57.4956398010253,16.910935525242,68.88996042809401,1800122052
iw,-82.405158996582,-58.7943305969238,17.90495812576018,77.44163513571505,1800138719
iw,-81.9374923706054,-60.7202987670898,18.936918715121042,79.54552341140945,1800155386
iw,-81.4299392700195,-62.2259216308593,19.726718756452485,76.0618272193534,1800172053
iw,-80.9490966796875,-63.1389656066894,20.028027703186684,68.63740894222605,1800188720
iw,-80.4833068847656,-63.9759979248046,19.60435707305017,59.32631285975335,1800205387
iw,-80.0732421875,-64.623046875,18.186019087208297,50.16164882669684,1800222054
iw,-79.7498245239257,-65.3303833007812,15.434233906529723,42.806470131448705,1800238721
iw,-79.524169921875,-66.3590316772461,10.940661995255148,38.36270480626657,1800255388
iw,-79.3901596069336,-67.4657135009765,4.28075004835204,37.33821957968073,1800272055
iw,-79.3470458984375,-68.1177215576171,-4.881297080612569,39.707562431921495,1800288722
iw,-79.5427780151367,-68.4444198608398,-16.662772314831063,44.991102098054355,1800305389
iw,-79.9859390258789,-69.1657257080078,-30.852323964386084,52.32308831165059,1800322056
iw,-80.7511672973632,-70.4848251342773,-46.8637466457624,60.5379275537649,1800338723
iw,-81.9938430786132,-72.0192260742187,-63.77799567527232,68.32049895902273,1800355390
iw,-83.391616821289,-73.5867767333984,-80.46621698573347,74.42714325487144,1800372057
iw,-84.5254287719726,-75.0707321166992,-95.75962443463906,77.92709372394114,1800388724
iw,-85.2664566040039,-76.3775634765625,-108.62313475008168,78.38649873335869,1800405391
iw,-85.1156158447265,-77.6143569946289,-118.29828226188575,75.93377878990793,1800422058
iw,-83.8386535644531,-78.6637191772461,-124.39385888812188,71.18850145992462,1800438725
iw,-82.0315399169921,-79.468879699707,-126.91168341205137,65.08112672012084,1800455392
iw,-80.0954132080078,-80.2575531005859,-126.205803403347,58.62218637371068,1800472059
iw,-78.0453109741211,-81.1056137084961,-122.89097265436759,52.68986381730572,1800488726
iw,-75.8312606811523,-81.9354934692382,-117.72989034260416,47.89161896875673,1800505393
iw,-73.6324081420898,-82.6838836669921,-111.52541907866784,44.52274373607515,1800522060
iw,-71.5532608032226,-83.3861236572265,-105.02768825611425,42.607497742280366,1800538727
iw,-69.6016464233398,-84.0156173706054,-98.8531361658785,41.98440188336885,1800555394
iw,-67.6658248901367,-84.5743331909179,-93.41270417199573,42.39465219326443,1800572061
iw,-65.7487716674804,-85.083511352539,-88.85496449064625,43.54722687820363,1800588728
iw,-63.8682594299316,-85.5061264038086,-85.03748275796589,45.15437829864184,1800605395
iw,-62.0281600952148,-85.7689971923828,-81.54084580697587,46.94529441825815,1800622062
iw,-60.2416458129882,-85.9417037963867,-77.73375965155157,48.66955408514199,1800638729
iw,-58.5602378845214,-85.9354782104492,-72.88623018449448,50.099547461933234,1800655396
iw,-57.0156745910644,-85.7514038085937,-66.3148294256132,51.03753942959427,1800672063
iw,-55.7151412963867,-85.3921508789062,-57.53377796983617,51.329748460554704,1800688730
iw,-54.7256240844726,-84.9329147338867,-46.381040964945015,50.886004497456774,1800705397
iw,-54.0802612304687,-84.3424453735351,-33.09108425243914,49.69979023462777,1800722064
iw,-53.7548065185546,-83.7224960327148,-18.295119124618633,47.86104478200434,1800738731
iw,-53.8271179199218,-83.1089477539062,-2.9438631007935356,45.55399106974235,1800755398
iw,-54.2257385253906,-82.4786376953125,11.835736714974542,43.034965665756324,1800772065
iw,-54.8238639831543,-81.8736572265625,24.923636468773815,40.59008228018823,1800788732
iw,-55.7726974487304,-81.2760467529296,35.39471148613272,38.477347260468115,1800805399
iw,-56.958698272705,-80.6199264526367,42.675181564086074,36.86031074500752,1800822066
iw,-57.8509521484375,-79.9422836303711,46.63518046071094,35.739989604446855,1800838733
iw,-59.0000228881835,-79.3682861328125,47.595668100294155,34.89117115463075,1800855400
iw,-60.2109375,-78.9351425170898,46.245777105046024,33.81289981103092,1800872067
iw,-61.5280036926269,-78.541519165039,43.48690121060277,31.712241611078145,1800888734
iw,-62.3060798645019,-78.1351242065429,40.23631209213067,27.548373804117805,1800905401
iw,-62.883243560791,-77.8596115112304,37.238038996172016,20.160009336581275,1800922068
iw,-63.4736709594726,-77.7379989624023,34.94121445340013,8.479446225675213,1800938735
iw,-64.4074478149414,-77.8185272216796,33.49686845614264,-8.192569345980782,1800955402
iw,-65.7792587280273,-78.1636428833007,32.87418545926095,-29.906121506665702,1800972069
iw,-66.8308410644531,-78.7988891601562,33.025213672883865,-55.85200822556476,1800988736
iw,-67.1583633422851,-79.9563751220703,33.9906185577958,-84.30389399766872,1801005403
iw,-67.563362121582,-81.6577682495117,35.88053196342707,-112.77312207887424,1801022070
iw,-68.6158142089843,-83.6698989868164,38.75602587848337,-138.38534005427212,1801038737
iw,-70.1640319824218,-85.6454010009765,42.50087811321437,-158.41857735501003,1801055404
iw,-71.6233673095703,-86.1455307006836,46.76480907439813,-170.8784888410349,1801072071
iw,-72.8622741699218,-84.0262451171875,51.00453437187354,-174.9528136295807,1801088738
iw,-74.0896301269531,-81.202766418457,54.6002742455629,-171.20181935826906,1801105405
iw,-75.3555679321289,-78.7626419067382,57.004741947722096,-161.41129741741364,1801122072
iw,-76.5223617553711,-76.8190765380859,57.87859961575537,-148.14326365722962,1801138739
iw,-77.557502746582,-75.1224365234375,57.17022849737415,-134.12251969037234,1801155406
iw,-78.5603103637695,-73.5732040405273,55.112325359257625,-121.64510688761185,1801172073
iw,-79.5461349487304,-72.1003112792968,52.13657972630233,-112.16930409820516,1801188740
iw,-80.4816741943359,-70.4664154052734,48.738713022027255,-106.17342988136758,1801205407
iw,-81.3201599121093,-68.5135879516601,45.34221196269127,-103.27391456818383,1801222074
iw,-82.0110244750976,-66.4180068969726,42.20414736455727,-102.5193302046517,1801238741
iw,-82.61376953125,-64.3988265991211,39.38692926412524,-102.73127855616363,1801255408
iw,-83.1410827636718,-62.7159233093261,36.795674250877234,-102.76871665838361,1801272075
iw,-83.6126098632812,-61.33540725708,34.2605776938518,-101.65054021592091,1801288742
iw,-83.9983520507812,-60.0835494995117,31.632994728606402,-98.55474640638779,1801305409
iw,-84.2780303955078,-58.7937431335449,28.86395531341288,-92.7749670133816,1801322076
iw,-84.4816818237304,-57.3751792907714,26.041594379343234,-83.72228826522144,1801338743
iw,-84.6710510253906,-56.078498840332,23.376394426115613,-71.01397708336702,1801355410
iw,-84.8254699707031,-55.1365890502929,21.138850591470554,-54.62576779787928,1801372077
iw,-84.9041137695312,-54.5562095642089,19.570245994410413,-35.04056776189556,1801388744
iw,-84.8738632202148,-54.1815185546875,18.797295030969394,-13.320689684380874,1801405411
iw,-84.7614593505859,-54.2191696166992,18.780136011779227,8.946981483101851,1801422078
iw,-84.5356369018554,-54.6416931152343,19.31125412120108,29.84995490107239,1801438745
iw,-84.2004318237304,-55.4929580688476,20.065973516772907,47.4720102643337,1801455412
iw,-83.7966995239257,-56.838394165039,20.689030766910797,60.274815450465105,1801472079
iw,-83.3307037353515,-58.3804817199707,20.89047897068991,67.44059497979953,1801488746
iw,-82.83056640625,-59.9613990783691,20.52029791955946,69.06801335700091,1801505413
iw,-82.3197479248046,-61.2796936035156,19.595712745285603,66.14579300883652,1801522080
iw,-81.9166793823242,-62.2788963317871,18.268072277112953,60.29772020287657,1801538747
iw,-81.5866012573242,-62.9646606445312,16.735339318748093,53.372845933021864,1801555414
iw,-81.3009185791015,-63.4895324707031,15.126924354824009,47.01229818093204,1801572081
iw,-81.0678100585937,-64.0082321166992,13.401605331849549,42.3337019604245,1801588748
iw,-80.8699417114257,-64.7622604370117,11.299170658389746,39.82764565833767,1801605415
iw,-80.7059936523437,-66.10888671875,8.37061732968111,39.47120184329896,1801622082
iw,-80.5550231933593,-67.5151901245117,4.08534911402483,40.96724606821425,1801638749
iw,-80.452522277832,-68.205451965332,-2.014287389797176,43.966510645218186,1801655416
iw,-80.4760665893554,-68.4201507568359,-10.160698305637784,48.1604623512196,1801672083
iw,-80.7507629394531,-68.9684677124023,-20.263437711681792,53.2334050899736,1801688750
iw,-81.3523254394531,-70.0095901489257,-31.900797071479666,58.76030062341371,1801705417
iw,-82.2517929077148,-71.2221908569336,-44.40170146401963,64.16086146860488,1801722084
iw,-83.2645492553711,-72.6169509887695,-56.98515958233183,68.76406188903697,1801738751
iw,-84.1664199829101,-73.9931869506836,-68.90719907939864,71.95661828357287,1801755418
iw,-84.7889862060546,-75.2881240844726,-79.57217125923395,73.34235799426516,1801772085
iw,-84.9300918579101,-76.5722427368164,-88.5886850922385,72.84280597055856,1801788752
iw,-84.2852630615234,-77.7393951416015,-95.77310966909194,70.7033313264745,1801805419
iw,-82.945816040039,-78.7168502807617,-101.11416668354603,67.40811387679814,1801822086
iw,-81.2555618286132,-79.5452880859375,-104.71371401775896,63.536963438790245,1801838753
iw,-79.4957122802734,-80.3671188354492,-106.72114474682824,59.613304515051354,1801855420
iw,-77.7322769165039,-81.2277908325195,-107.28337291124257,55.992473940421114,1801872087
iw,-75.8922348022461,-82.0479660034179,-106.52997905495795,52.82165049216497,1801888754
iw,-74.1094284057617,-82.8394088745117,-104.5972676122098,50.07372380792413,1801905421
iw,-72.4252319335937,-83.5291671752929,-101.67272102776256,47.63037294781825,1801922088
iw,-70.8090896606445,-84.1127777099609,-98.02722278894241,45.37603551679744,1801938755
iw,-69.25537109375,-84.6138076782226,-94.00530579051352,43.26783162781269,1801955422
iw,-67.7660675048828,-85.0484085083007,-89.96186973856597,41.36206939768824,1801972089
iw,-66.2909851074218,-85.4225234985351,-86.15927347606322,39.79635078767713,1801988756
iw,-64.8339004516601,-85.7446212768554,-82.6610650728454,38.73948374980254,1802005423
iw,-63.4229850769043,-85.9988479614257,-79.26773831718434,38.32686897606014,1802022090
iw,-62.0253181457519,-86.1628952026367,-75.5304182936092,38.59911650850823,1802038757
iw,-60.7327461242675,-86.2343368530273,-70.85309446940133,39.45983862838475,1802055424
iw,-59.5040016174316,-86.2157669067382,-64.66248888366503,40.66628801082195,1802072091
iw,-58.5010337829589,-86.0551376342773,-56.59856091866122,41.86221329032563,1802088758
iw,-57.758731842041,-85.7545776367187,-46.66722708036127,42.653168444035096,1802105425
iw,-57.2388458251953,-85.316047668457,-35.30373333688929,42.71001004137291,1802122092
iw,-56.9955139160156,-84.7381362915039,-23.317908169399193,41.87086030896604,1802138759
iw,-57.0183181762695,-84.1271057128906,-11.725311630659318,40.203826530170154,1802155426
iw,-57.291519165039,-83.6868286132812,-1.503946805729283,38.00007434180176,1802172093
iw,-57.876953125,-83.2901916503906,6.653898417774295,35.69013799327871,1802188760
iw,-58.5730667114257,-82.7683639526367,12.512651657792782,33.70492550809256,1802205427
iw,-58.9488830566406,-82.1488265991211,16.323087027647656,32.32011903478402,1802222094
iw,-59.4361686706543,-81.5690689086914,18.698261696333873,31.52099189019809,1802238761
iw,-59.9788169860839,-81.1545104980468,20.38998728056017,30.91377068216506,1802255428
iw,-61.0839385986328,-80.8880157470703,22.060990355948725,29.70459359470673,1802272095
iw,-62.0969200134277,-80.588134765625,24.134011672324686,26.76866013966426,1802288762
iw,-62.7924842834472,-80.1669921875,26.745451659881045,20.82493595630157,1802305429
iw,-63.3905410766601,-79.7890701293945,29.78527449475157,10.703654591009425,1802322096
iw,-64.2639770507812,-79.720962524414,32.99422431373015,-4.346093015656642,1802338763
iw,-65.4412078857421,-80.024055480957,36.093463227934414,-24.388625459384144,1802355430
iw,-66.5998840332031,-80.6477966308593,38.90922175842751,-48.65140554051733,1802372097
iw,-67.1488647460937,-81.7214202880859,41.43642893067828,-75.54208145263921,1802388764
iw,-67.5420303344726,-83.2790603637695,43.80197976822636,-102.84456132474276,1802405431
iw,-68.4443359375,-85.0020980834961,46.148545549779826,-128.06742343427277,1802422098
iw,-69.8840789794921,-86.602066040039,48.514300360194795,-148.88204836435148,1802438765
iw,-71.4715347290039,-86.3716125488281,50.781249688988616,-163.5578145648333,1802455432
iw,-72.8834838867187,-83.9434661865234,52.711536603413286,-171.2866646330679,1802472099
iw,-74.1368789672851,-81.1439971923828,54.03805674359948,-172.303822803229,1802488766
iw,-75.3490982055664,-78.6618270874023,54.55940745054174,-167.76550287913528,1802505433
iw,-76.4045257568359,-76.4439544677734,54.20427681305816,-159.42533533370207,1802522100
iw,-77.3369369506836,-74.2008438110351,53.052225009909165,-149.2188222130848,1802538767
iw,-78.2810668945312,-72.0246353149414,51.31297681371483,-138.88016743512605,1802555434
iw,-79.2958602905273,-70.1120529174804,49.27579141050349,-129.6767699964446,1802572101
iw,-80.3137969970703,-68.2672500610351,47.24576887982548,-122.2893649138289,1802588768
iw,-81.2521667480468,-66.3647689819336,45.48321330054382,-116.82426922870671,1802605435
iw,-82.0642547607421,-64.4139328002929,44.15648718230023,-112.92253529933939,1802622102
iw,-82.7696380615234,-62.5632019042968,43.31311058794496,-109.91793441721015,1802638769
iw,-83.4146194458007,-60.8935623168945,42.871290807387766,-106.99199940149096,1802655436
iw,-84.0187683105468,-59.3600883483886,42.63353950523027,-103.28986627448582,1802672103
iw,-84.5423507690429,-57.9880142211914,42.32283646129508,-97.99357059981357,1802688770
iw,-84.9158477783203,-56.6205291748046,41.63796100024507,-90.37960735374735,1802705437
iw,-85.153579711914,-55.2155151367187,40.31818561668384,-79.89299603457916,1802722104
iw,-85.2766036987304,-53.9989051818847,38.20181716330513,-66.24735257134994,1802738771
iw,-85.2705535888671,-53.2700462341308,35.26301106192154,-49.529029454065316,1802755438
iw,-85.1898574829101,-52.9888343811035,31.618453364018958,-30.268507804138086,1802772105
iw,-85.0631103515625,-52.6906967163085,27.506022006625265,-9.450207399362023,1802788772
iw,-84.8800277709961,-52.5506477355957,23.245689848701847,11.55399387589789,1802805439
iw,-84.6527328491211,-52.9361152648925,19.195226200836057,31.13597357561636,1802822106
iw,-84.3528137207031,-54.0053176879882,15.709332828634226,47.6871913704337,1802838773
iw,-84.0379028320312,-55.1308364868164,13.103293764150406,59.89146513250992,1802855440
iw,-83.7466506958007,-56.1384696960449,11.615955991385364,67.00960268799368,1802872107
iw,-83.4415664672851,-57.8413887023925,11.366532195672509,69.07255125821962,1802888774
iw,-83.0965499877929,-59.4721794128418,12.306065620116753,66.91397782836552,1802905441
iw,-82.728271484375,-60.7206497192382,14.173681001106683,62.01029040311014,1802922108
iw,-82.4008483886718,-61.5804824829101,16.47515135553823,56.147700869484844,1802938775
iw,-82.0672454833984,-62.1201286315918,18.503663317120875,50.997328564005315,1802955442
iw,-81.6718978881836,-62.6583518981933,19.41749367806123,47.728753403619315,1802972109
iw,-81.2349166870117,-63.3550720214843,18.374586069044195,46.7953362548378,1802988776
iw,-80.8581924438476,-64.4210128784179,14.70206293287005,47.96479273270348,1803005443
iw,-80.6304550170898,-66.0484390258789,8.058789311511518,50.5662128013416,1803022110
iw,-80.5618286132812,-67.5656967163086,-1.4577739578386772,53.82913734405892,1803038777
iw,-80.6554412841796,-68.3871612548828,-13.298796826382405,57.15601212158917,1803055444
iw,-81.0208663940429,-68.8478240966796,-26.5602488034881,60.22242937201592,1803072111
iw,-81.7949676513671,-69.6374816894531,-40.17294755368506,62.90912078385319,1803088778
iw,-82.9209671020507,-70.7779846191406,-53.14096442051652,65.16056383486386,1803105445
iw,-84.2730026245117,-71.9365921020507,-64.76036903377137,66.87904775239176,1803122112
iw,-85.6137161254882,-73.2870407104492,-74.74806027881611,67.90817521218302,1803138779
iw,-86.3867568969726,-74.6001358032226,-83.2361575375821,68.09144487677624,1803155446
iw,-86.083137512207,-75.8380126953125,-90.63403543232181,67.35476517995916,1803172113
iw,-84.6770782470703,-77.0119171142578,-97.40655708635947,65.76314981033087,1803188780
iw,-82.6836929321289,-78.0521621704101,-103.84242197929721,63.524687412406664,1803205447
iw,-80.6169891357421,-78.951919555664,-109.88511089858933,60.94186371422388,1803222114
iw,-78.6771926879882,-79.7940979003906,-115.08002132437365,58.33176929558299,1803238781
iw,-76.7495880126953,-80.6907653808593,-118.66345557756478,55.94752279990001,1803255448
iw,-74.6976547241211,-81.6403656005859,-119.78123273880186,53.92998808611652,1803272115
iw,-72.5665283203125,-82.5698547363281,-117.77879169023677,52.302828993199334,1803288782
iw,-70.4912719726562,-83.4474945068359,-112.46784276229131,51.0037638223961,1803305449
iw,-68.5661849975586,-84.2325820922851,-104.26996546250255,49.93181612969063,1803322116
iw,-66.8480682373046,-84.9145050048828,-94.17381577235594,48.98999829517795,1803338783
iw,-65.3608856201171,-85.5526046752929,-83.50669328292518,48.112097829453056,1803355450
iw,-64.0228195190429,-86.1292495727539,-73.58742819711159,47.27302660761355,1803372117
iw,-62.7210273742675,-86.6303558349609,-65.3707265531734,46.48773162091802,1803388784
iw,-61.438549041748,-86.9722442626953,-59.19747160459695,45.802719523221796,1803405451
iw,-60.2502746582031,-87.1044311523437,-54.73014871883497,45.28089580912946,1803422118
iw,-59.1330528259277,-87.0072250366211,-51.09221228453157,44.97941654856389,1803438785
iw,-58.1025161743164,-86.7438201904296,-47.16708625038077,44.922874207031875,1803455452
iw,-57.2272338867187,-86.4155960083007,-41.96518189701413,45.07857732437598,1803472119
iw,-56.587100982666,-85.993667602539,-34.94659883919446,45.34436647780107,1803488786
iw,-56.2326736450195,-85.447280883789,-26.198710299297577,45.559457947582466,1803505453
iw,-56.2185974121093,-84.8385162353515,-16.412099222026956,45.542719715739466,1803522120
iw,-56.5073661804199,-84.1420440673828,-6.665028893786369,45.15121579958032,1803538787
iw,-56.9906349182128,-83.3319396972656,1.9075074915052832,44.339323419921136,1803555454
iw,-57.5517349243164,-82.4859313964843,8.446748619968176,43.190750844104805,1803572121
iw,-58.0803718566894,-81.7024459838867,12.598605616946035,41.89700078376697,1803588788
iw,-58.5525283813476,-80.9894027709961,14.575750473444451,40.66960393918686,1803605455
iw,-59.1729431152343,-80.4229507446289,15.051613806710266,39.59913043657205,1803622122
iw,-59.7765312194824,-79.9721069335937,14.93665099590552,38.50355808430203,1803638789
iw,-60.6670722961425,-79.5266494750976,15.115744178209642,36.828127922059934,1803655456
iw,-61.5273284912109,-79.0405731201171,16.224752114126424,33.65516647872825,1803672123
iw,-62.2117118835449,-78.5019836425781,18.520348582889685,27.8511547202336,1803688790
iw,-62.7571601867675,-78.0063858032226,21.866297936165058,18.329128412128412,1803705457
iw,-63.5048179626464,-77.7520065307617,25.83281055872014,4.3579823120692005,1803722124
iw,-64.6504211425781,-77.840087890625,29.879730423820423,-14.172718974778286,1803738791
iw,-65.5606155395507,-78.271369934082,33.56265386640882,-36.61416158552909,1803755458
iw,-65.8523559570312,-79.1890182495117,36.6801099422237,-61.5917149807487,1803772125
iw,-66.1105804443359,-80.6360549926757,39.30098219419648,-87.20865528446868,1803788792
iw,-66.9539260864257,-82.4582901000976,41.67462727002737,-111.37347811659879,1803805459
iw,-68.2827682495117,-84.3606643676757,44.08508103626122,-132.1725063583679,1803822126
iw,-69.829345703125,-86.0433883666992,46.721920971165765,-148.19924771383418,1803838793
iw,-71.2020568847656,-86.2796859741211,49.60961336714955,-158.76490426096072,1803855460
iw,-72.4796829223632,-84.6440124511718,52.60060637194454,-163.9454560803658,1803872127
iw,-73.7739944458007,-82.4774169921875,55.417273616922614,-164.463108050583,1803888794
iw,-74.9826049804687,-80.2648773193359,57.72190175150327,-161.44613595600364,1803905461
iw,-76.133918762207,-78.026496887207,59.193675630819236,-156.14640137016244,1803922128
iw,-77.2847824096679,-75.7310791015625,59.59478781720759,-149.69870158064398,1803938795
iw,-78.5049667358398,-73.4301528930664,58.81470812208825,-142.97516518364972,1803955462
iw,-79.7891845703125,-71.1668930053711,56.888713823082796,-136.53951241367503,1803972129
iw,-80.9515228271484,-68.9485778808593,53.98992777329045,-130.66795532881355,1803988796
iw,-81.850601196289,-66.7747192382812,50.39524796656664,-125.39105306617685,1804005463
iw,-82.5222396850586,-64.7474899291992,46.42978946257137,-120.52176289680976,1804022130
iw,-83.0831832885742,-62.9814834594726,42.40208303280736,-115.65980877952833,1804038797
iw,-83.6192398071289,-61.4331588745117,38.54793551344293,-110.1914315673233,1804055464
iw,-84.147834777832,-59.8630790710449,34.99992816695512,-103.3240499306166,1804072131
iw,-84.5754089355468,-58.3289833068847,31.791488136498973,-94.19316819615726,1804088798
iw,-84.8941650390625,-56.9798965454101,28.89159731596419,-82.04936098495088,1804105465
iw,-85.1087570190429,-55.7715492248535,26.253564688429297,-66.48979268619904,1804122132
iw,-85.222915649414,-54.8812408447265,23.856063514681086,-47.66523978052713,1804138799
iw,-85.2046203613281,-54.6015701293945,21.720260184152448,-26.387638787777185,1804155466
iw,-85.112678527832,-54.4452400207519,19.899008320452943,-4.08715417237485,1804172133
iw,-85.0102996826171,-54.4943771362304,18.4456959130673,17.39019376444903,1804188800
iw,-84.8433837890625,-55.2992134094238,17.378012460898276,36.109783564121344,1804205467
iw,-84.5615234375,-56.3077507019043,16.654683540111364,50.43088264746587,1804222134
iw,-84.1881027221679,-57.5292015075683,16.1790086780786,59.35282038658458,1804238801
iw,-83.6842269897461,-58.6102714538574,15.830649681872265,62.73354879878272,1804255468
iw,-83.1325378417968,-60.1974372863769,15.510748857459717,61.318133565348525,1804272135
iw,-82.6385116577148,-61.4110641479492,15.17430898090562,56.56288638824643,1804288802
iw,-82.1985855102539,-62.1346130371093,14.826137812389405,50.292467343866875,1804305469
iw,-81.8057632446289,-62.6457710266113,14.473337526265967,44.274610151994686,1804322136
iw,-81.4510040283203,-63.082836151123,14.049952140939563,39.831640074002166,1804338803
iw,-81.1472549438476,-63.5704231262207,13.346144118087325,37.609596112831234,1804355470
iw,-80.9076156616211,-64.1901626586914,11.977618475321542,37.57876305012741,1804372137
iw,-80.6886749267578,-65.547004699707,9.42022054756084,39.25274531855603,1804388804
iw,-80.5116653442382,-67.0813903808593,5.113310920846924,42.02025964330205,1804405471
iw,-80.4324035644531,-67.9886398315429,-1.3902416549613055,45.43120816728012,1804422138
iw,-80.4783477783203,-68.2331161499023,-10.271251943180935,49.30652687557356,1804438805
iw,-80.7265930175781,-68.7125778198242,-21.34055976980751,53.64669871251161,1804455472
iw,-81.3262939453125,-69.7056579589843,-34.02525798680476,58.431324953170105,1804472139
iw,-82.354377746582,-70.8660278320312,-47.45643585249467,63.45020380555566,1804488806
iw,-83.6750411987304,-72.2842712402343,-60.63356940999881,68.26152268490208,1804505473
iw,-84.9720764160156,-73.760139465332,-72.61365100910818,72.28377841301247,1804522140
iw,-86.0615005493164,-75.0918273925781,-82.66960538214664,74.95996900295657,1804538807
iw,-86.5799484252929,-76.3597793579101,-90.38218915524597,75.91483596454606,1804555474
iw,-85.8117523193359,-77.5968475341796,-95.65691763370218,75.04827575980504,1804572141
iw,-84.1023941040039,-78.6998672485351,-98.67674486734836,72.54481732903676,1804588808
iw,-82.0747909545898,-79.6945419311523,-99.81020504588913,68.810770322149,1804605475
iw,-80.0648498535156,-80.6807632446289,-99.5008141924505,64.37011409049977,1804622142
iw,-78.0641021728515,-81.7042160034179,-98.16830263367613,59.75607148189502,1804638809
iw,-76.0094833374023,-82.6513214111328,-96.14851494943068,55.427247989144064,1804655476
iw,-74.0331420898437,-83.4696426391601,-93.68251796402947,51.719550387957916,1804672143
iw,-72.2015380859375,-84.1605834960937,-90.9437642074593,48.82841816228665,1804688810
iw,-70.4314651489257,-84.7568206787109,-88.07724386547662,46.80957524356911,1804705477
iw,-68.6987686157226,-85.3160018920898,-85.22307937961794,45.59115948751466,1804722144
iw,-67.0214614868164,-85.8105392456054,-82.50749857268507,44.99849342216297,1804738811
iw,-65.3751907348632,-86.2325668334961,-80.00105032510032,44.79614595666883,1804755478
iw,-63.7952461242675,-86.5257110595703,-77.66101101403254,44.745890862267395,1804772145
iw,-62.2214202880859,-86.616096496582,-75.28597628967117,44.66700783413355,1804788812
iw,-60.7355804443359,-86.4990463256836,-72.51092388050031,44.47671428415516,1804805479
iw,-59.4030036926269,-86.2627868652343,-68.85950480228955,44.192023729866804,1804822146
iw,-58.2255859375,-85.9283599853515,-63.85047674084375,43.889978383758134,1804838813
iw,-57.2982788085937,-85.5257873535156,-57.13389917039951,43.64211511464635,1804855480
iw,-56.5917243957519,-85.127456665039,-48.617705011477014,43.45114219716286,1804872147
iw,-56.1089820861816,-84.6924209594726,-38.54252119922734,43.21868339158482,1804888814
iw,-55.9058799743652,-84.0945281982421,-27.474248382637057,42.763019938552006,1804905481
iw,-56.0060234069824,-83.354866027832,-16.207443607049765,41.88669309332567,1804922148
iw,-56.4126625061035,-82.5668716430664,-5.601356634962704,40.469685873756674,1804938815
iw,-56.9604797363281,-81.7488784790039,3.605443789369082,38.54435189137592,1804955482
iw,-57.742073059082,-80.9926605224609,10.94712225950858,36.305365375773775,1804972149
iw,-58.2081489562988,-80.4285354614257,16.30633312796745,34.02795849701031,1804988816
iw,-58.9889450073242,-80.0443572998046,19.89880753887132,31.906078233121104,1805005483
iw,-59.8970184326171,-79.7798309326171,22.183428690744748,29.864248712166592,1805022150
iw,-61.0944709777832,-79.5271377563476,23.73317307601103,27.422795998041632,1805038817
iw,-62.1467018127441,-79.1693344116211,25.100852137264795,23.689235728247233,1805055484
iw,-62.7871437072753,-78.7179489135742,26.703531890528343,17.507070486522235,1805072151
iw,-63.450885772705,-78.3865814208984,28.748379750629756,7.733813183144193,1805088818
iw,-64.2680130004882,-78.3712615966796,31.22670345719179,-6.429471127906381,1805105485
iw,-65.4967956542968,-78.6726379394531,33.987155831229096,-25.152570097677224,1805122152
iw,-66.4869613647461,-79.2655334472656,36.85547312212536,-47.8138793919232,1805138819
iw,-66.8833618164062,-80.2571487426757,39.73104926697157,-73.00634054642113,1805155486
iw,-67.3613357543945,-81.7239074707031,42.60385365161671,-98.71918356947043,1805172153
iw,-68.3173294067382,-83.4298019409179,45.49435681152359,-122.66803112719921,1805188820
iw,-69.827392578125,-85.0832290649414,48.370284897158214,-142.7119748342623,1805205487
iw,-71.4869308471679,-85.8611907958984,51.09603757265443,-157.26710888142023,1805222154
iw,-72.8428955078125,-84.5329132080078,53.43643758875738,-165.612155543887,1805238821
iw,-74.1152954101562,-82.2185592651367,55.10477150604207,-167.99631985757773,1805255488
iw,-75.3837738037109,-79.9541931152343,55.83401764934081,-165.51065705454596,1805272155
iw,-76.5369262695312,-77.9289932250976,55.450761953981626,-159.7622043678196,1805288822
iw,-77.5516204833984,-75.8410415649414,53.93156405944607,-152.46037282224017,1805305489
iw,-78.511360168457,-73.7070541381836,51.42309231236026,-145.0479605112194,1805322156
iw,-79.5158462524414,-71.5885009765625,48.217597964046526,-138.4736247371536,1805338823
iw,-80.5363311767578,-69.4892044067382,44.692033315308684,-133.1356326152329,1805355490
iw,-81.4803924560546,-67.2930068969726,41.23137934330107,-128.96606779566991,1805372157
iw,-82.2938079833984,-65.0037231445312,38.15801853431252,-125.58990757148986,1805388824
iw,-83.0114440917968,-62.9037895202636,35.68211886480936,-122.48522726867245,1805405491
iw,-83.6428527832031,-61.0248718261718,33.87893646538278,-119.08712507314796,1805422158
iw,-84.2439193725586,-59.246295928955,32.69196289184443,-114.81614420725722,1805438825
iw,-84.7790374755859,-57.6252822875976,31.958080887916296,-109.0580743072953,1805455492
iw,-85.1506271362304,-56.0507469177246,31.450884580640288,-101.15156493582421,1805472159
iw,-85.4014663696289,-54.5048027038574,30.936504464050113,-90.43541242807949,1805488826
iw,-85.5043411254882,-53.1271934509277,30.230960610532865,-76.37234313394298,1805505493
iw,-85.4062423706054,-52.1372871398925,29.243525006080453,-58.72289282294804,1805522160
iw,-85.1810684204101,-51.6591873168945,27.99193458335595,-37.71628205737148,1805538827
iw,-84.833740234375,-51.3484954833984,26.58332210919979,-14.16366195023475,1805555494
iw,-84.4225082397461,-51.1407356262207,25.16641955679212,10.528986235286759,1805572161
iw,-83.9926681518554,-51.4632492065429,23.871576305591972,34.479373230519535,1805588828
iw,-83.5328903198242,-52.4593658447265,22.76091722240111,55.59313561224966,1805605495
iw,-83.0094223022461,-53.9366912841796,21.808132167308905,71.94942092033794,1805622162
iw,-82.3866119384765,-55.7555198669433,20.9153359073132,82.22563595437543,1805638829
iw,-81.7194519042968,-57.584846496582,19.95700051716656,86.03430830907747,1805655496
iw,-81.0845184326171,-59.8009300231933,18.826487130433254,84.0473236166141,1805672163
iw,-80.5451049804687,-61.2548446655273,17.4582847159923,77.84019823579092,1805688830
iw,-80.1038208007812,-62.0002899169921,15.81189225270265,69.48384785609392,1805705497
iw,-79.7276458740234,-62.618293762207,13.824873105819245,61.011035621078975,1805722164
iw,-79.4178695678711,-63.2740478515625,11.360656678670157,53.94471469667015,1805738831
iw,-79.2045364379882,-63.9426460266113,8.181658435813285,49.055516425462564,1805755498
iw,-79.0823822021484,-65.2286300659179,3.9688721718286097,46.41391744250285,1805772165
iw,-79.0057067871093,-67.1290969848632,-1.6096520362281128,45.666626201986574,1805788832
iw,-79.0160598754882,-68.3306579589843,-8.799896729474149,46.36704457364796,1805805499
iw,-79.1989517211914,-68.5413818359375,-17.66657072978103,48.184596451948615,1805822166
iw,-79.6229782104492,-68.7046508789062,-28.038683892435984,50.916248785902546,1805838833
iw,-80.3791732788086,-69.4996109008789,-39.52026258667511,54.360841614411996,1805855500
iw,-81.4979934692382,-70.650894165039,-51.564542496086275,58.19263729419444,1805872167
iw,-82.9317321777343,-72.0403747558593,-63.58251657357797,61.9386699784106,1805888834
iw,-84.3881149291992,-73.4249038696289,-75.04232331467641,65.07121454656252,1805905501
iw,-85.5654907226562,-74.6823120117187,-85.52385528461186,67.15261133151398,1805922168
iw,-86.2392272949218,-75.9275894165039,-94.71901284092121,67.95481943562115,1805938835
iw,-85.7899703979492,-77.1193771362304,-102.39510796003059,67.50575709313165,1805955502
iw,-84.2619171142578,-78.1575164794921,-108.35056419249072,66.0545800486086,1805972169
iw,-82.360595703125,-79.0875778198242,-112.38756170326715,63.97763264134836,1805988836
iw,-80.4106674194336,-80.0464782714843,-114.31711822191556,61.66226592576944,1806005503
iw,-78.4103240966796,-81.0657196044921,-114.00384018133079,59.40819565144073,1806022170
iw,-76.3090133666992,-82.0923538208007,-111.44468379812798,57.37555114028368,1806038837
iw,-74.2158126831054,-83.0674896240234,-106.85594529923105,55.588554847214944,1806055504
iw,-72.2253189086914,-83.9775772094726,-100.72565745975331,53.98260638351479,1806072171
iw,-70.3533859252929,-84.8317642211914,-93.78972214219739,52.469376662009424,1806088838
iw,-68.6324157714843,-85.5897598266601,-86.91473340629267,50.99324716162072,1806105505
iw,-67.0165634155273,-86.2597961425781,-80.9084468883677,49.56129879036093,1806122172
iw,-65.463996887207,-86.8657531738281,-76.31151056015983,48.242441411075106,1806138839
iw,-63.881736755371,-87.3202972412109,-73.23589506420555,47.14230276618189,1806155506
iw,-62.348274230957,-87.5595245361328,-71.30268517316392,46.36509591942584,1806172173
iw,-60.8979263305664,-87.5443344116211,-69.70293112962413,45.97320061699693,1806188840
iw,-59.530044555664,-87.2507095336914,-67.37310163876137,45.95363670356548,1806205507
iw,-58.2701416015625,-86.8062286376953,-63.24961095588553,46.1997662973245,1806222174
iw,-57.2115364074707,-86.2910232543945,-56.54661302014443,46.51516218942343,1806238841
iw,-56.3957862854003,-85.646255493164,-46.98933475312799,46.64287401743021,1806255508
iw,-55.8626708984375,-84.9642562866211,-34.93756352085382,46.31701415851938,1806272175
iw,-55.6414794921875,-84.2994079589843,-21.355837021728497,45.32650081035334,1806288842
iw,-55.6904487609863,-83.6150970458984,-7.625477721481906,43.575987474040616,1806305509
iw,-55.9932861328125,-82.8808212280273,4.762508034450352,41.127665582382996,1806322176
iw,-56.6855964660644,-82.1274490356445,14.558375771702853,38.20809679718848,1806338843
iw,-57.6388320922851,-81.4325561523437,21.05382467846384,35.1662444438384,1806355510
iw,-58.1975975036621,-80.8700714111328,24.24258038796317,32.37654488011371,1806372177
iw,-58.7415008544921,-80.4136657714843,24.790955257616876,30.097998040870355,1806388844
iw,-59.6874542236328,-80.071044921875,23.83216008340769,28.323156963642546,1806405511
iw,-60.8916893005371,-79.7955627441406,22.656200602039696,26.667908474381505,1806422178
iw,-61.7315559387207,-79.3586883544921,22.38668264847659,24.35161105230305,1806438845
iw,-62.183967590332,-78.8746261596679,23.720877102300154,20.293096631146078,1806455512
iw,-62.7216339111328,-78.5805587768554,26.78993853652009,13.310219399652297,1806472179
iw,-63.5835914611816,-78.5201187133789,31.180259345650867,2.3779067591839995,1806488846
iw,-64.8052291870117,-78.7298507690429,36.121686372350844,-13.113154191730075,1806505513
iw,-66.313720703125,-79.182373046875,40.78409456764516,-33.14950740061505,1806522180
iw,-67.2598114013671,-79.9110641479492,44.56445709303323,-56.98099542612103,1806538847
iw,-67.6117706298828,-81.0591888427734,47.243897344929444,-83.13280462518755,1806555514
iw,-68.1487884521484,-82.6295089721679,48.96394080028618,-109.56475265103718,1806572181
iw,-69.2194747924804,-84.5363540649414,50.06700826557934,-133.97393565568223,1806588848
iw,-70.6889266967773,-86.364013671875,50.899282852998965,-154.19661055667444,1806605515
iw,-72.1721954345703,-86.332275390625,51.6608511961862,-168.62225704082917,1806622182
iw,-73.4558029174804,-84.0336303710937,52.342385801169215,-176.50850465584764,1806638849
iw,-74.7567901611328,-81.2464447021484,52.74945040542264,-178.0998104536427,1806655516
iw,-75.9782943725586,-78.6791458129882,52.59307497658788,-174.51001596594986,1806672183
iw,-76.9988098144531,-76.320068359375,51.6102075081427,-167.40847204097503,1806688850
iw,-77.9285278320312,-73.9738159179687,49.67073354594591,-158.6127036302647,1806705517
iw,-78.8647766113281,-71.7866973876953,46.83630039146918,-149.70754325160914,1806722184
iw,-79.8589248657226,-69.7239685058593,43.35755693821032,-141.78172371440144,1806738851
iw,-80.8607101440429,-67.6404190063476,39.61801753160378,-135.3226643464808,1806755518
iw,-81.7834854125976,-65.2863235473632,36.046152200680886,-130.26135400205453,1806772185
iw,-82.5896377563476,-62.9395332336425,33.0225533513356,-126.12012240993018,1806788852
iw,-83.3133773803711,-60.7299308776855,30.807159876817224,-122.19230815869709,1806805519
iw,-83.9775085449218,-58.790355682373,29.502291002105924,-117.68645375043111,1806822186
iw,-84.5850677490234,-57.1499061584472,29.054040406405708,-111.80386366824429,1806838853
iw,-85.1029586791992,-55.6543769836425,29.283988069239488,-103.76931228298952,1806855520
iw,-85.5003280639648,-54.1490058898925,29.93843138658054,-92.8672709305672,1806872187
iw,-85.722541809082,-52.7251739501953,30.74160788695596,-78.52834372039815,1806888854
iw,-85.7476654052734,-51.6164627075195,31.4406782327438,-60.4705488822366,1806905521
iw,-85.5507659912109,-50.9626426696777,31.833875345505252,-38.85785396036339,1806922188
iw,-85.2100524902343,-50.7388877868652,31.779426784217556,-14.419593874475309,1806938855
iw,-84.7961349487304,-50.7113037109375,31.189960225613632,11.51950444935453,1806955522
iw,-84.3070449829101,-50.9340057373046,30.022379546726725,37.13288411995194,1806972189
iw,-83.7430801391601,-51.9379844665527,28.273902313962903,60.32410209770238,1806988856
iw,-83.1607513427734,-53.7108650207519,25.98953176477902,79.07927726161724,1807005523
iw,-82.577278137207,-55.5182495117187,23.276432953458464,91.87187585965242,1807022190
iw,-81.9866104125976,-57.5210952758789,20.311666522656395,98.007526225252,1807038857
iw,-81.4267120361328,-59.4482879638671,17.32689598457824,97.79417159684475,1807055524
iw,-80.9833908081054,-61.3868522644043,14.559604295545926,92.47180425710768,1807072191
iw,-80.5853729248046,-62.7402725219726,12.174143277376757,83.91280502228473,1807088858
iw,-80.2640914916992,-63.6539268493652,10.173040885988199,74.17826443980232,1807105525
iw,-80.0474624633789,-64.3944244384765,8.331760244591866,65.06556096054788,1807122192
iw,-79.9009475708007,-65.1669845581054,6.191217297538105,57.78826140185928,1807138859
iw,-79.8003005981445,-66.4639816284179,3.128672633406751,52.877372345411494,1807155526
iw,-79.6879959106445,-68.0331878662109,-1.4986328599770118,50.29585194086294,1807172193
iw,-79.634048461914,-69.0523376464843,-8.173637815816864,49.66501199931108,1807188860
iw,-79.8016586303711,-69.4551467895507,-17.06228922423798,50.47199128774301,1807205527
iw,-80.2557983398437,-69.97216796875,-27.93799814399443,52.18211505612323,1807222194
iw,-81.022590637207,-70.9832763671875,-40.21994895755513,54.27111676350607,1807238861
iw,-82.1926956176757,-72.3109130859375,-53.114144583885405,56.24356430095005,1807255528
iw,-83.620132446289,-73.6488342285156,-65.80597734906225,57.683947606817846,1807272195
iw,-85.001235961914,-74.7641372680664,-77.63450449219819,58.33224149679473,1807288862
iw,-85.9712448120117,-75.781509399414,-88.18936699517222,58.14180142252786,1807305529
iw,-86.0738983154296,-76.8667984008789,-97.30540987946665,57.2838773962073,1807322196
iw,-84.9227981567382,-77.8149490356445,-104.97031059007664,56.090566703024294,1807338863
iw,-82.9985656738281,-78.5722274780273,-111.18962010691793,54.952472122868116,1807355530
iw,-80.8748016357421,-79.3342666625976,-115.86567965164124,54.20172505267154,1807372197
iw,-78.7752532958984,-80.2764053344726,-118.74437751090842,54.016840008539916,1807388864
iw,-76.6358184814453,-81.3116073608398,-119.46503737433864,54.3797452432226,1807405531
iw,-74.3660736083984,-82.2701568603515,-117.70934013271876,55.09534890241617,1807422198
iw,-72.1332778930664,-83.1599502563476,-113.39447142451921,55.85996476454372,1807438865
iw,-70.1327438354492,-84.0243377685546,-106.82178947999405,56.35105939274364,1807455532
iw,-68.3050765991211,-84.8341903686523,-98.70076885778127,56.31127130620031,1807472199
iw,-66.6142654418945,-85.5500106811523,-90.01788665675626,55.60809262550239,1807488866
iw,-65.0369644165039,-86.156509399414,-81.78508319543022,54.260062820914456,1807505533
iw,-63.5747528076171,-86.6422348022461,-74.7516691517662,52.428017535797345,1807522200
iw,-62.1450424194335,-86.8979568481445,-69.17912468997012,50.37518079711668,1807538867
iw,-60.8098793029785,-86.9048385620117,-64.75799004921275,48.40341458840068,1807555534
iw,-59.569091796875,-86.7042007446289,-60.69946449328168,46.777090132972766,1807572201
iw,-58.4947166442871,-86.4083862304687,-55.97795958684251,45.651693430971946,1807588868
iw,-57.5635223388671,-86.0254669189453,-49.653174351890016,45.02807033757593,1807605535
iw,-56.916202545166,-85.4974212646484,-41.17586184685361,44.75001102082354,1807622202
iw,-56.5665435791015,-84.9227142333984,-30.58694197633137,44.55089822784276,1807638869
iw,-56.5116424560546,-84.2973861694336,-18.552334190521048,44.138511056713796,1807655536
iw,-56.740608215332,-83.5950164794921,-6.224659240576236,43.29307351831707,1807672203
iw,-57.1904411315918,-82.8544998168945,5.028412578844614,41.94734609421021,1807688870
iw,-57.8627319335937,-82.1528015136718,13.955251182219587,40.219912262827975,1807705537
iw,-58.67866897583,-81.4731826782226,19.72391963296227,38.38299528044477,1807722204
iw,-59.3642272949218,-80.7973709106445,22.11973392573277,36.762806798349466,1807738871
iw,-60.1383972167968,-80.2440185546875,21.585792062843286,35.59067604910499,1807755538
iw,-60.7087974548339,-79.8120193481445,19.099049543199268,34.84277085886653,1807772205
iw,-61.5434799194335,-79.4055252075195,15.92188458393484,34.119739972709276,1807788872
iw,-62.4099998474121,-78.9503555297851,13.301309837233504,32.617713202196335,1807805539
iw,-62.9886665344238,-78.4090728759765,12.193800247142086,29.222343877456737,1807822206
iw,-63.2073707580566,-77.904312133789,13.080477854367343,22.720238540355496,1807838873
iw,-63.5958786010742,-77.5658798217773,15.918098036361197,12.081451708341602,1807855540
iw,-64.5331344604492,-77.4984893798828,20.242885951659222,-3.2589985722172545,1807872207
iw,-65.8342895507812,-77.7373657226562,25.394638040444566,-23.193696121731854,1807888874
iw,-66.8022155761718,-78.3282928466796,30.769867116827953,-46.8628007816017,1807905541
iw,-67.0989608764648,-79.3569717407226,35.99028503189453,-72.72505994209573,1807922208
iw,-67.5585250854492,-80.8869934082031,40.91996724858265,-98.77207325113538,1807938875
iw,-68.5340728759765,-82.618423461914,45.55446219353257,-122.84817675194734,1807955542
iw,-70.0654373168945,-84.2952499389648,49.86991321628691,-143.0134901519705,1807972209
iw,-71.6851043701171,-85.4093551635742,53.72026843846801,-157.87364862314402,1807988876
iw,-73.0367965698242,-84.8238067626953,56.82548734027163,-166.80107451999768,1808005543
iw,-74.3961791992187,-83.0011520385742,58.84503071183444,-169.99228635646145,1808022210
iw,-75.834228515625,-80.8914413452148,59.499795088246294,-168.34628809493213,1808038877
iw,-77.1354293823242,-78.8418960571289,58.69125216838942,-163.20422626972538,1808055544
iw,-78.246223449707,-76.6531753540039,56.56734398022965,-156.03607391542943,1808072211
iw,-79.2200469970703,-74.3867721557617,53.50462416488234,-148.16763160088587,1808088878
iw,-80.2009658813476,-72.1586380004882,50.01181472236776,-140.60610198764144,1808105545
iw,-81.1814041137695,-70.0323638916015,46.593604341209435,-133.97139140933382,1808122212
iw,-82.0975875854492,-67.9662704467773,43.62648259404213,-128.50516596314696,1808138879
iw,-82.8954391479492,-65.8055343627929,41.287118202427976,-124.1207418898991,1808155546
iw,-83.6267166137695,-63.7882652282714,39.54872176364662,-120.46358226142503,1808172213
iw,-84.2899627685546,-61.9748420715332,38.23527323481637,-116.96409661967452,1808188880
iw,-84.8791809082031,-60.199462890625,37.106832587108755,-112.88076528470953,1808205547
iw,-85.3332290649414,-58.6101341247558,35.9451731669752,-107.35061560308301,1808222214
iw,-85.6261978149414,-57.0777015686035,34.615362681035805,-99.47471531008811,1808238881
iw,-85.8103485107421,-55.5430374145507,33.090057618265035,-88.4566515015051,1808255548
iw,-85.8614730834961,-54.145694732666,31.435192057401284,-73.7827196482007,1808272215
iw,-85.7624740600586,-53.22021484375,29.766736254940554,-55.40053539886857,1808288882
iw,-85.5124969482421,-52.8407402038574,28.196003897609227,-33.83969667918713,1808305549
iw,-85.1804580688476,-52.6844520568847,26.782975985205983,-10.231627835430029,1808322216
iw,-84.7607116699218,-52.5876083374023,25.51310285862703,13.788424590885935,1808338883
iw,-84.275634765625,-53.117015838623,24.305175485516504,36.2942217868503,1808355550
iw,-83.7366256713867,-54.2207489013671,23.0480864061307,55.376954582849066,1808372217
iw,-83.1540985107421,-55.6741600036621,21.65400544195701,69.5024093428117,1808388884
iw,-82.5527648925781,-57.4955825805664,20.107051697108417,77.83340779143356,1808405551
iw,-81.9792404174804,-59.06734085083,18.483753537705116,80.41653587771496,1808422218
iw,-81.480484008789,-60.9023056030273,16.927953753647735,78.15880738874908,1808438885
iw,-81.0826950073242,-62.047248840332,15.578847309228918,72.5863311738136,1808455552
iw,-80.7366409301757,-62.9571342468261,14.471929346585462,65.45466188834499,1808472219
iw,-80.423225402832,-63.740493774414,13.449573012185056,58.336615279582425,1808488886
iw,-80.1436614990234,-64.4203414916992,12.121464024580714,52.32349374021223,1808505553
iw,-79.9087829589843,-65.2240219116211,9.901770993847059,47.93084908018492,1808522220
iw,-79.7155456542968,-66.6004486083984,6.124214622915504,45.213361355555904,1808538887
iw,-79.5908279418945,-68.1689071655273,0.20747074509883107,44.000313122352594,1808555554
iw,-79.6121978759765,-68.9012069702148,-8.178116387892107,44.11113683212429,1808572221
iw,-79.8889007568359,-68.9408874511718,-18.99700368957344,45.43801781252334,1808588888
iw,-80.4476623535156,-69.3952865600586,-31.827731390620183,47.88151076864778,1808605555
